run_id,condition,rt,responses,trial_type,trial_index,time_elapsed,internal_node_id,stimulus,button_pressed,iTrial,Phase,ExperimentPhase,key_press,StimulusDurationSetting,correctResponse,slider_start,response,Rearranged,didSubjectEnterRearranged,rearranged,Face,Name,CharacterResponse,recorded_at,ip,user_agent,device,browser,browser_version,platform,platform_version
94,1,39551.415,"{""Q0"":""s""}",survey-text,0,39717,0.0-0.0,"""","""","""","""","""","""","""","""","""","""","""","""","""","""","""","""",1/26/2021 1:13,67.83.183.0,"Mozilla/5.0 (Windows NT 10.0; Win64; x64) AppleWebKit/537.36 (KHTML, like Gecko) Chrome/87.0.4280.141 Safari/537.36",WebKit,Chrome,87.0.4280.141,Windows,10
94,1,1624.035,"""",image-button-response,1,41433,0.0-1.0,directionsMemoryAssociation1.JPG,0,1,IntroDirections1,break,"""","""","""","""","""","""","""","""","""","""","""",1/26/2021 1:13,67.83.183.0,"Mozilla/5.0 (Windows NT 10.0; Win64; x64) AppleWebKit/537.36 (KHTML, like Gecko) Chrome/87.0.4280.141 Safari/537.36",WebKit,Chrome,87.0.4280.141,Windows,10
94,1,1351.405,"""",image-button-response,2,42791,0.0-2.0,directionsMemoryAssociation2.JPG,0,1,IntroDirections2,break,"""","""","""","""","""","""","""","""","""","""","""",1/26/2021 1:13,67.83.183.0,"Mozilla/5.0 (Windows NT 10.0; Win64; x64) AppleWebKit/537.36 (KHTML, like Gecko) Chrome/87.0.4280.141 Safari/537.36",WebKit,Chrome,87.0.4280.141,Windows,10
94,1,1207.175,"""",html-keyboard-response,3,47809,0.0-3.0,"<p><b> Practice Set </b></p><img src='jspsych/CFDfaces/CFD-WF-220-101-N.jpg' height=""250px"">,</br><b>Lisa</b>","""",1,IntactFace,Practice,78,5000,"""","""","""","""","""","""","""","""","""",1/26/2021 1:13,67.83.183.0,"Mozilla/5.0 (Windows NT 10.0; Win64; x64) AppleWebKit/537.36 (KHTML, like Gecko) Chrome/87.0.4280.141 Safari/537.36",WebKit,Chrome,87.0.4280.141,Windows,10
94,1,null,"""",html-keyboard-response,4,48314,0.0-4.0,"<div style=""font-size:60px;"">+</div>","""",1,ITI,Practice,null,1000,"""","""","""","""","""","""","""","""","""",1/26/2021 1:13,67.83.183.0,"Mozilla/5.0 (Windows NT 10.0; Win64; x64) AppleWebKit/537.36 (KHTML, like Gecko) Chrome/87.0.4280.141 Safari/537.36",WebKit,Chrome,87.0.4280.141,Windows,10
94,1,null,"""",html-keyboard-response,5,53326,0.0-5.0,"<p><b> Practice Set </b></p><img src='jspsych/CFDfaces/CFD-WM-232-070-N.jpg' height=""250px"">,</br><b>Patrick</b>","""",2,IntactFace,Practice,null,5000,"""","""","""","""","""","""","""","""","""",1/26/2021 1:13,67.83.183.0,"Mozilla/5.0 (Windows NT 10.0; Win64; x64) AppleWebKit/537.36 (KHTML, like Gecko) Chrome/87.0.4280.141 Safari/537.36",WebKit,Chrome,87.0.4280.141,Windows,10
94,1,null,"""",html-keyboard-response,6,53831,0.0-6.0,"<div style=""font-size:60px;"">+</div>","""",2,ITI,Practice,null,1000,"""","""","""","""","""","""","""","""","""",1/26/2021 1:13,67.83.183.0,"Mozilla/5.0 (Windows NT 10.0; Win64; x64) AppleWebKit/537.36 (KHTML, like Gecko) Chrome/87.0.4280.141 Safari/537.36",WebKit,Chrome,87.0.4280.141,Windows,10
94,1,null,"""",html-keyboard-response,7,58842,0.0-7.0,"<p><b> Practice Set </b></p><img src='jspsych/CFDfaces/CFD-WM-222-057-N.jpg' height=""250px"">,</br><b>Marcus</b>","""",3,IntactFace,Practice,null,5000,"""","""","""","""","""","""","""","""","""",1/26/2021 1:13,67.83.183.0,"Mozilla/5.0 (Windows NT 10.0; Win64; x64) AppleWebKit/537.36 (KHTML, like Gecko) Chrome/87.0.4280.141 Safari/537.36",WebKit,Chrome,87.0.4280.141,Windows,10
94,1,null,"""",html-keyboard-response,8,59351,0.0-8.0,"<div style=""font-size:60px;"">+</div>","""",3,ITI,Practice,null,1000,"""","""","""","""","""","""","""","""","""",1/26/2021 1:13,67.83.183.0,"Mozilla/5.0 (Windows NT 10.0; Win64; x64) AppleWebKit/537.36 (KHTML, like Gecko) Chrome/87.0.4280.141 Safari/537.36",WebKit,Chrome,87.0.4280.141,Windows,10
94,1,null,"""",html-keyboard-response,9,64361,0.0-9.0,"<p><b> Practice Set </b></p><img src='jspsych/CFDfaces/CFD-WF-218-087-N.jpg' height=""250px"">,</br><b>Shannon</b>","""",4,IntactFace,Practice,null,5000,"""","""","""","""","""","""","""","""","""",1/26/2021 1:13,67.83.183.0,"Mozilla/5.0 (Windows NT 10.0; Win64; x64) AppleWebKit/537.36 (KHTML, like Gecko) Chrome/87.0.4280.141 Safari/537.36",WebKit,Chrome,87.0.4280.141,Windows,10
94,1,null,"""",html-keyboard-response,10,64987,0.0-10.0,"<div style=""font-size:60px;"">+</div>","""",4,ITI,Practice,null,1000,"""","""","""","""","""","""","""","""","""",1/26/2021 1:13,67.83.183.0,"Mozilla/5.0 (Windows NT 10.0; Win64; x64) AppleWebKit/537.36 (KHTML, like Gecko) Chrome/87.0.4280.141 Safari/537.36",WebKit,Chrome,87.0.4280.141,Windows,10
94,1,20023.05,"""",image-button-response,11,85024,0.0-11.0,directionsForTest.JPG,0,1,directions,break,"""","""","""","""","""","""","""","""","""","""","""",1/26/2021 1:13,67.83.183.0,"Mozilla/5.0 (Windows NT 10.0; Win64; x64) AppleWebKit/537.36 (KHTML, like Gecko) Chrome/87.0.4280.141 Safari/537.36",WebKit,Chrome,87.0.4280.141,Windows,10
94,1,null,"""",html-keyboard-response,12,86031,0.0-12.0,"<div style=""font-size:60px;"">+</div>","""",1,ITI,Practice,null,1000,"""","""","""","""","""","""","""","""","""",1/26/2021 1:13,67.83.183.0,"Mozilla/5.0 (Windows NT 10.0; Win64; x64) AppleWebKit/537.36 (KHTML, like Gecko) Chrome/87.0.4280.141 Safari/537.36",WebKit,Chrome,87.0.4280.141,Windows,10
94,1,null,"""",image-keyboard-response,13,86292,0.0-13.0,jspsych/scrambledNeutralFaces/scrambledBF06NES.JPG,"""",1,forwardMask,Practice,null,250,n,"""","""","""","""","""","""","""","""",1/26/2021 1:13,67.83.183.0,"Mozilla/5.0 (Windows NT 10.0; Win64; x64) AppleWebKit/537.36 (KHTML, like Gecko) Chrome/87.0.4280.141 Safari/537.36",WebKit,Chrome,87.0.4280.141,Windows,10
94,1,null,"""",image-keyboard-response,14,86316,0.0-14.0,jspsych/neutralFaces/BF06NES.JPG,"""",1,Cue,Practice,null,"function(){
        return jsPsych.randomization.sampleWithoutReplacement(cueDuration, 1)[0]}","""","""","""","""","""","""","""","""","""",1/26/2021 1:13,67.83.183.0,"Mozilla/5.0 (Windows NT 10.0; Win64; x64) AppleWebKit/537.36 (KHTML, like Gecko) Chrome/87.0.4280.141 Safari/537.36",WebKit,Chrome,87.0.4280.141,Windows,10
94,1,null,"""",image-keyboard-response,15,86425,0.0-15.0,jspsych/neutralFaces/BM32NES.JPG,"""",1,backwardMask,Practice,null,100,"""","""","""","""","""","""","""","""","""",1/26/2021 1:13,67.83.183.0,"Mozilla/5.0 (Windows NT 10.0; Win64; x64) AppleWebKit/537.36 (KHTML, like Gecko) Chrome/87.0.4280.141 Safari/537.36",WebKit,Chrome,87.0.4280.141,Windows,10
94,1,null,"""",html-keyboard-response,16,87431,0.0-16.0,"<div style=""font-size:60px;"">+</div>","""",1,fixationBtwnNeutralMaskAndPrompt,Practice,null,1000,"""","""","""","""","""","""","""","""","""",1/26/2021 1:13,67.83.183.0,"Mozilla/5.0 (Windows NT 10.0; Win64; x64) AppleWebKit/537.36 (KHTML, like Gecko) Chrome/87.0.4280.141 Safari/537.36",WebKit,Chrome,87.0.4280.141,Windows,10
94,1,1146.1,"""",html-slider-response,17,88586,0.0-17.0,"<p><b> Practice Set </b></p><img src='jspsych/CFDfaces/CFD-WM-232-070-N.jpg'height=""250px""></br><b>Patrick</b>","""",1,ConfidenceQuery,Practice,"""","""","""",50,50,0,2,"""","""","""","""",1/26/2021 1:13,67.83.183.0,"Mozilla/5.0 (Windows NT 10.0; Win64; x64) AppleWebKit/537.36 (KHTML, like Gecko) Chrome/87.0.4280.141 Safari/537.36",WebKit,Chrome,87.0.4280.141,Windows,10
94,1,1697.415,"""",html-button-response,18,90289,0.0-18.0,<p>You responded that you were not sure.</p> <p>The pair was intact.</p>,0,1,feedback,Practice,"""","""","""","""","""","""","""","""","""","""","""",1/26/2021 1:13,67.83.183.0,"Mozilla/5.0 (Windows NT 10.0; Win64; x64) AppleWebKit/537.36 (KHTML, like Gecko) Chrome/87.0.4280.141 Safari/537.36",WebKit,Chrome,87.0.4280.141,Windows,10
94,1,null,"""",html-keyboard-response,19,91296,0.0-19.0,"<div style=""font-size:60px;"">+</div>","""",2,ITI,Practice,null,1000,"""","""","""","""","""","""","""","""","""",1/26/2021 1:13,67.83.183.0,"Mozilla/5.0 (Windows NT 10.0; Win64; x64) AppleWebKit/537.36 (KHTML, like Gecko) Chrome/87.0.4280.141 Safari/537.36",WebKit,Chrome,87.0.4280.141,Windows,10
94,1,null,"""",image-keyboard-response,20,91551,0.0-20.0,jspsych/scrambledDisgustFaces/scrambledAF04DIS.JPG,"""",2,forwardMask,Practice,null,250,d,"""","""","""","""","""","""","""","""",1/26/2021 1:13,67.83.183.0,"Mozilla/5.0 (Windows NT 10.0; Win64; x64) AppleWebKit/537.36 (KHTML, like Gecko) Chrome/87.0.4280.141 Safari/537.36",WebKit,Chrome,87.0.4280.141,Windows,10
94,1,null,"""",image-keyboard-response,21,91576,0.0-21.0,jspsych/disgustFaces/AF04DIS.JPG,"""",2,Cue,Practice,null,"function(){
        return jsPsych.randomization.sampleWithoutReplacement(cueDuration, 1)[0]}","""","""","""","""","""","""","""","""","""",1/26/2021 1:13,67.83.183.0,"Mozilla/5.0 (Windows NT 10.0; Win64; x64) AppleWebKit/537.36 (KHTML, like Gecko) Chrome/87.0.4280.141 Safari/537.36",WebKit,Chrome,87.0.4280.141,Windows,10
94,1,null,"""",image-keyboard-response,22,91685,0.0-22.0,jspsych/neutralFaces/BF08NES.JPG,"""",2,backwardMask,Practice,null,100,"""","""","""","""","""","""","""","""","""",1/26/2021 1:13,67.83.183.0,"Mozilla/5.0 (Windows NT 10.0; Win64; x64) AppleWebKit/537.36 (KHTML, like Gecko) Chrome/87.0.4280.141 Safari/537.36",WebKit,Chrome,87.0.4280.141,Windows,10
94,1,null,"""",html-keyboard-response,23,92692,0.0-23.0,"<div style=""font-size:60px;"">+</div>","""",2,fixationBtwnNeutralMaskAndPrompt,Practice,null,1000,"""","""","""","""","""","""","""","""","""",1/26/2021 1:13,67.83.183.0,"Mozilla/5.0 (Windows NT 10.0; Win64; x64) AppleWebKit/537.36 (KHTML, like Gecko) Chrome/87.0.4280.141 Safari/537.36",WebKit,Chrome,87.0.4280.141,Windows,10
94,1,1241.03,"""",html-slider-response,24,93935,0.0-24.0,"<p><b> Practice Set </b></p><img src='jspsych/CFDfaces/CFD-WF-220-101-N.jpg'height=""250px""></br><b>Lisa</b>","""",2,ConfidenceQuery,Practice,"""","""","""",50,50,0,2,"""","""","""","""",1/26/2021 1:13,67.83.183.0,"Mozilla/5.0 (Windows NT 10.0; Win64; x64) AppleWebKit/537.36 (KHTML, like Gecko) Chrome/87.0.4280.141 Safari/537.36",WebKit,Chrome,87.0.4280.141,Windows,10
94,1,1662.86,"""",html-button-response,25,95602,0.0-25.0,<p>You responded that you were not sure.</p> <p>The pair was intact.</p>,0,2,feedback,Practice,"""","""","""","""","""","""","""","""","""","""","""",1/26/2021 1:13,67.83.183.0,"Mozilla/5.0 (Windows NT 10.0; Win64; x64) AppleWebKit/537.36 (KHTML, like Gecko) Chrome/87.0.4280.141 Safari/537.36",WebKit,Chrome,87.0.4280.141,Windows,10
94,1,null,"""",html-keyboard-response,26,96610,0.0-26.0,"<div style=""font-size:60px;"">+</div>","""",3,ITI,Practice,null,1000,"""","""","""","""","""","""","""","""","""",1/26/2021 1:13,67.83.183.0,"Mozilla/5.0 (Windows NT 10.0; Win64; x64) AppleWebKit/537.36 (KHTML, like Gecko) Chrome/87.0.4280.141 Safari/537.36",WebKit,Chrome,87.0.4280.141,Windows,10
94,1,null,"""",image-keyboard-response,27,96881,0.0-27.0,jspsych/scrambledDisgustFaces/scrambledAF29DIS.JPG,"""",3,forwardMask,Practice,null,250,d,"""","""","""","""","""","""","""","""",1/26/2021 1:13,67.83.183.0,"Mozilla/5.0 (Windows NT 10.0; Win64; x64) AppleWebKit/537.36 (KHTML, like Gecko) Chrome/87.0.4280.141 Safari/537.36",WebKit,Chrome,87.0.4280.141,Windows,10
94,1,null,"""",image-keyboard-response,28,96915,0.0-28.0,jspsych/disgustFaces/AF29DIS.JPG,"""",3,Cue,Practice,null,"function(){
        return jsPsych.randomization.sampleWithoutReplacement(cueDuration, 1)[0]}","""","""","""","""","""","""","""","""","""",1/26/2021 1:13,67.83.183.0,"Mozilla/5.0 (Windows NT 10.0; Win64; x64) AppleWebKit/537.36 (KHTML, like Gecko) Chrome/87.0.4280.141 Safari/537.36",WebKit,Chrome,87.0.4280.141,Windows,10
94,1,null,"""",image-keyboard-response,29,97024,0.0-29.0,jspsych/neutralFaces/AM17NES.JPG,"""",3,backwardMask,Practice,null,100,"""","""","""","""","""","""","""","""","""",1/26/2021 1:13,67.83.183.0,"Mozilla/5.0 (Windows NT 10.0; Win64; x64) AppleWebKit/537.36 (KHTML, like Gecko) Chrome/87.0.4280.141 Safari/537.36",WebKit,Chrome,87.0.4280.141,Windows,10
94,1,null,"""",html-keyboard-response,30,98029,0.0-30.0,"<div style=""font-size:60px;"">+</div>","""",3,fixationBtwnNeutralMaskAndPrompt,Practice,null,1000,"""","""","""","""","""","""","""","""","""",1/26/2021 1:13,67.83.183.0,"Mozilla/5.0 (Windows NT 10.0; Win64; x64) AppleWebKit/537.36 (KHTML, like Gecko) Chrome/87.0.4280.141 Safari/537.36",WebKit,Chrome,87.0.4280.141,Windows,10
94,1,4781.195,"""",html-slider-response,31,102813,0.0-31.0,"<p><b> Practice Set </b></p><img src='jspsych/CFDfaces/CFD-WM-222-057-N.jpg'height=""250px""></br><b>Marcus</b>","""",3,ConfidenceQuery,Practice,"""","""","""",50,50,1,2,"""","""","""","""",1/26/2021 1:13,67.83.183.0,"Mozilla/5.0 (Windows NT 10.0; Win64; x64) AppleWebKit/537.36 (KHTML, like Gecko) Chrome/87.0.4280.141 Safari/537.36",WebKit,Chrome,87.0.4280.141,Windows,10
94,1,6039.515,"""",html-button-response,32,108857,0.0-32.0,<p>You responded that you were not sure.</p> <p>The pair was rearranged.</p>,0,3,feedback,Practice,"""","""","""","""","""","""","""","""","""","""","""",1/26/2021 1:13,67.83.183.0,"Mozilla/5.0 (Windows NT 10.0; Win64; x64) AppleWebKit/537.36 (KHTML, like Gecko) Chrome/87.0.4280.141 Safari/537.36",WebKit,Chrome,87.0.4280.141,Windows,10
94,1,null,"""",html-keyboard-response,33,109861,0.0-33.0,"<div style=""font-size:60px;"">+</div>","""",4,ITI,Practice,null,1000,"""","""","""","""","""","""","""","""","""",1/26/2021 1:13,67.83.183.0,"Mozilla/5.0 (Windows NT 10.0; Win64; x64) AppleWebKit/537.36 (KHTML, like Gecko) Chrome/87.0.4280.141 Safari/537.36",WebKit,Chrome,87.0.4280.141,Windows,10
94,1,null,"""",image-keyboard-response,34,110127,0.0-34.0,jspsych/scrambledDisgustFaces/scrambledBM22DIS.JPG,"""",4,forwardMask,Practice,null,250,d,"""","""","""","""","""","""","""","""",1/26/2021 1:13,67.83.183.0,"Mozilla/5.0 (Windows NT 10.0; Win64; x64) AppleWebKit/537.36 (KHTML, like Gecko) Chrome/87.0.4280.141 Safari/537.36",WebKit,Chrome,87.0.4280.141,Windows,10
94,1,null,"""",image-keyboard-response,35,110158,0.0-35.0,jspsych/disgustFaces/BM22DIS.JPG,"""",4,Cue,Practice,null,"function(){
        return jsPsych.randomization.sampleWithoutReplacement(cueDuration, 1)[0]}","""","""","""","""","""","""","""","""","""",1/26/2021 1:13,67.83.183.0,"Mozilla/5.0 (Windows NT 10.0; Win64; x64) AppleWebKit/537.36 (KHTML, like Gecko) Chrome/87.0.4280.141 Safari/537.36",WebKit,Chrome,87.0.4280.141,Windows,10
94,1,null,"""",image-keyboard-response,36,110268,0.0-36.0,jspsych/neutralFaces/AF12NES.JPG,"""",4,backwardMask,Practice,null,100,"""","""","""","""","""","""","""","""","""",1/26/2021 1:13,67.83.183.0,"Mozilla/5.0 (Windows NT 10.0; Win64; x64) AppleWebKit/537.36 (KHTML, like Gecko) Chrome/87.0.4280.141 Safari/537.36",WebKit,Chrome,87.0.4280.141,Windows,10
94,1,null,"""",html-keyboard-response,37,111276,0.0-37.0,"<div style=""font-size:60px;"">+</div>","""",4,fixationBtwnNeutralMaskAndPrompt,Practice,null,1000,"""","""","""","""","""","""","""","""","""",1/26/2021 1:13,67.83.183.0,"Mozilla/5.0 (Windows NT 10.0; Win64; x64) AppleWebKit/537.36 (KHTML, like Gecko) Chrome/87.0.4280.141 Safari/537.36",WebKit,Chrome,87.0.4280.141,Windows,10
94,1,7310.01,"""",html-slider-response,38,118589,0.0-38.0,"<p><b> Practice Set </b></p><img src='jspsych/CFDfaces/CFD-WF-218-087-N.jpg'height=""250px""></br><b>Shannon</b>","""",4,ConfidenceQuery,Practice,"""","""","""",50,50,1,2,"""","""","""","""",1/26/2021 1:13,67.83.183.0,"Mozilla/5.0 (Windows NT 10.0; Win64; x64) AppleWebKit/537.36 (KHTML, like Gecko) Chrome/87.0.4280.141 Safari/537.36",WebKit,Chrome,87.0.4280.141,Windows,10
94,1,5014.05,"""",html-button-response,39,123611,0.0-39.0,<p>You responded that you were not sure.</p> <p>The pair was rearranged.</p>,0,4,feedback,Practice,"""","""","""","""","""","""","""","""","""","""","""",1/26/2021 1:13,67.83.183.0,"Mozilla/5.0 (Windows NT 10.0; Win64; x64) AppleWebKit/537.36 (KHTML, like Gecko) Chrome/87.0.4280.141 Safari/537.36",WebKit,Chrome,87.0.4280.141,Windows,10
94,1,1256.985,"""",image-button-response,40,124874,0.0-40.0,directionsMemoryAssociation3.JPG,0,1,DirectionsBeforeActualTEst,Break,"""","""","""","""","""","""","""","""","""","""","""",1/26/2021 1:13,67.83.183.0,"Mozilla/5.0 (Windows NT 10.0; Win64; x64) AppleWebKit/537.36 (KHTML, like Gecko) Chrome/87.0.4280.141 Safari/537.36",WebKit,Chrome,87.0.4280.141,Windows,10
94,1,1837.735,"""",html-keyboard-response,41,129899,0.0-41.0,"<img src='jspsych/CFDfaces/CFD-WM-017-002-N.jpg' height=""250px""></br><b>Jacob</b>","""",1,IntactFace,Memorization,78,5000,"""","""","""","""","""",0,CFD-WM-017-002-N.jpg,Jacob,"""",1/26/2021 1:13,67.83.183.0,"Mozilla/5.0 (Windows NT 10.0; Win64; x64) AppleWebKit/537.36 (KHTML, like Gecko) Chrome/87.0.4280.141 Safari/537.36",WebKit,Chrome,87.0.4280.141,Windows,10
94,1,null,"""",html-keyboard-response,42,130416,0.0-42.0,"<div style=""font-size:60px;"">+</div>","""",1,fixation,Memorization,null,Memorization,"""","""","""","""","""","""","""","""","""",1/26/2021 1:13,67.83.183.0,"Mozilla/5.0 (Windows NT 10.0; Win64; x64) AppleWebKit/537.36 (KHTML, like Gecko) Chrome/87.0.4280.141 Safari/537.36",WebKit,Chrome,87.0.4280.141,Windows,10
94,1,1282.53,"""",html-keyboard-response,43,135426,0.0-43.0,"<img src='jspsych/CFDfaces/CFD-BM-207-024-N.jpg' height=""250px""></br><b>Chad</b>","""",2,IntactFace,Memorization,78,5000,"""","""","""","""","""",0,CFD-BM-207-024-N.jpg,Chad,"""",1/26/2021 1:13,67.83.183.0,"Mozilla/5.0 (Windows NT 10.0; Win64; x64) AppleWebKit/537.36 (KHTML, like Gecko) Chrome/87.0.4280.141 Safari/537.36",WebKit,Chrome,87.0.4280.141,Windows,10
94,1,null,"""",html-keyboard-response,44,135944,0.0-44.0,"<div style=""font-size:60px;"">+</div>","""",2,fixation,Memorization,null,Memorization,"""","""","""","""","""","""","""","""","""",1/26/2021 1:13,67.83.183.0,"Mozilla/5.0 (Windows NT 10.0; Win64; x64) AppleWebKit/537.36 (KHTML, like Gecko) Chrome/87.0.4280.141 Safari/537.36",WebKit,Chrome,87.0.4280.141,Windows,10
94,1,6351.435,"""",html-keyboard-response,45,142299,0.0-45.0,Press Key to Begin Memory Test,"""",1,welcomeScreen,Break,78,"""","""","""","""","""","""","""","""","""","""",1/26/2021 1:13,67.83.183.0,"Mozilla/5.0 (Windows NT 10.0; Win64; x64) AppleWebKit/537.36 (KHTML, like Gecko) Chrome/87.0.4280.141 Safari/537.36",WebKit,Chrome,87.0.4280.141,Windows,10
94,1,null,"""",html-keyboard-response,46,143303,0.0-46.0,"<div style=""font-size:60px;"">+</div>","""",1,ITI,Test,null,1000,"""","""","""","""","""","""","""","""","""",1/26/2021 1:13,67.83.183.0,"Mozilla/5.0 (Windows NT 10.0; Win64; x64) AppleWebKit/537.36 (KHTML, like Gecko) Chrome/87.0.4280.141 Safari/537.36",WebKit,Chrome,87.0.4280.141,Windows,10
94,1,null,"""",image-keyboard-response,47,143569,0.0-47.0,jspsych/scrambledNeutralFaces/scrambledBF04NES.JPG,"""",1,forwardMask,Test,null,250,n,"""","""","""","""","""","""","""","""",1/26/2021 1:13,67.83.183.0,"Mozilla/5.0 (Windows NT 10.0; Win64; x64) AppleWebKit/537.36 (KHTML, like Gecko) Chrome/87.0.4280.141 Safari/537.36",WebKit,Chrome,87.0.4280.141,Windows,10
94,1,null,"""",image-keyboard-response,48,143593,0.0-48.0,jspsych/neutralFaces/BF04NES.JPG,"""",1,Cue,Test,null,"function(){
        return jsPsych.randomization.sampleWithoutReplacement(cueDuration, 1)[0]}","""","""","""","""","""","""","""","""","""",1/26/2021 1:13,67.83.183.0,"Mozilla/5.0 (Windows NT 10.0; Win64; x64) AppleWebKit/537.36 (KHTML, like Gecko) Chrome/87.0.4280.141 Safari/537.36",WebKit,Chrome,87.0.4280.141,Windows,10
94,1,null,"""",image-keyboard-response,49,143702,0.0-49.0,jspsych/neutralFaces/AF22NES.JPG,"""",1,backwardMask,Test,null,100,"""","""","""","""","""","""","""","""","""",1/26/2021 1:13,67.83.183.0,"Mozilla/5.0 (Windows NT 10.0; Win64; x64) AppleWebKit/537.36 (KHTML, like Gecko) Chrome/87.0.4280.141 Safari/537.36",WebKit,Chrome,87.0.4280.141,Windows,10
94,1,null,"""",html-keyboard-response,50,144718,0.0-50.0,"<div style=""font-size:60px;"">+</div>","""",1,fixationBtwnNeutralMaskAndPrompt,Test,null,1000,"""","""","""","""","""","""","""","""","""",1/26/2021 1:13,67.83.183.0,"Mozilla/5.0 (Windows NT 10.0; Win64; x64) AppleWebKit/537.36 (KHTML, like Gecko) Chrome/87.0.4280.141 Safari/537.36",WebKit,Chrome,87.0.4280.141,Windows,10
94,1,1832.395,"""",html-slider-response,51,146554,0.0-51.0,"<img src='jspsych/CFDfaces/CFD-BF-021-013-N.jpg' height=""250px"">,</br><b>Allison</b>","""",1,ConfidenceQuery,Test,"""","""","""",50,50,"""",2,1,CFD-BF-021-013-N.jpg,Allison,"""",1/26/2021 1:13,67.83.183.0,"Mozilla/5.0 (Windows NT 10.0; Win64; x64) AppleWebKit/537.36 (KHTML, like Gecko) Chrome/87.0.4280.141 Safari/537.36",WebKit,Chrome,87.0.4280.141,Windows,10
94,1,null,"""",html-keyboard-response,52,147566,0.0-52.0,"<div style=""font-size:60px;"">+</div>","""",2,ITI,Test,null,1000,"""","""","""","""","""","""","""","""","""",1/26/2021 1:13,67.83.183.0,"Mozilla/5.0 (Windows NT 10.0; Win64; x64) AppleWebKit/537.36 (KHTML, like Gecko) Chrome/87.0.4280.141 Safari/537.36",WebKit,Chrome,87.0.4280.141,Windows,10
94,1,null,"""",image-keyboard-response,53,147827,0.0-53.0,jspsych/scrambledDisgustFaces/scrambledBM31DIS.JPG,"""",2,forwardMask,Test,null,250,d,"""","""","""","""","""","""","""","""",1/26/2021 1:13,67.83.183.0,"Mozilla/5.0 (Windows NT 10.0; Win64; x64) AppleWebKit/537.36 (KHTML, like Gecko) Chrome/87.0.4280.141 Safari/537.36",WebKit,Chrome,87.0.4280.141,Windows,10
94,1,null,"""",image-keyboard-response,54,147854,0.0-54.0,jspsych/disgustFaces/BM31DIS.JPG,"""",2,Cue,Test,null,"function(){
        return jsPsych.randomization.sampleWithoutReplacement(cueDuration, 1)[0]}","""","""","""","""","""","""","""","""","""",1/26/2021 1:13,67.83.183.0,"Mozilla/5.0 (Windows NT 10.0; Win64; x64) AppleWebKit/537.36 (KHTML, like Gecko) Chrome/87.0.4280.141 Safari/537.36",WebKit,Chrome,87.0.4280.141,Windows,10
94,1,null,"""",image-keyboard-response,55,147965,0.0-55.0,jspsych/neutralFaces/AF28NES.JPG,"""",2,backwardMask,Test,null,100,"""","""","""","""","""","""","""","""","""",1/26/2021 1:13,67.83.183.0,"Mozilla/5.0 (Windows NT 10.0; Win64; x64) AppleWebKit/537.36 (KHTML, like Gecko) Chrome/87.0.4280.141 Safari/537.36",WebKit,Chrome,87.0.4280.141,Windows,10
94,1,null,"""",html-keyboard-response,56,148981,0.0-56.0,"<div style=""font-size:60px;"">+</div>","""",2,fixationBtwnNeutralMaskAndPrompt,Test,null,1000,"""","""","""","""","""","""","""","""","""",1/26/2021 1:13,67.83.183.0,"Mozilla/5.0 (Windows NT 10.0; Win64; x64) AppleWebKit/537.36 (KHTML, like Gecko) Chrome/87.0.4280.141 Safari/537.36",WebKit,Chrome,87.0.4280.141,Windows,10
94,1,1656.155,"""",html-slider-response,57,150640,0.0-57.0,"<img src='jspsych/CFDfaces/CFD-BF-019-001-N.jpg' height=""250px"">,</br><b>Morgan</b>","""",2,ConfidenceQuery,Test,"""","""","""",50,50,"""",2,0,CFD-BF-019-001-N.jpg,Morgan,"""",1/26/2021 1:13,67.83.183.0,"Mozilla/5.0 (Windows NT 10.0; Win64; x64) AppleWebKit/537.36 (KHTML, like Gecko) Chrome/87.0.4280.141 Safari/537.36",WebKit,Chrome,87.0.4280.141,Windows,10
94,1,null,"""",html-keyboard-response,58,151661,0.0-58.0,"<div style=""font-size:60px;"">+</div>","""",3,ITI,Test,null,1000,"""","""","""","""","""","""","""","""","""",1/26/2021 1:13,67.83.183.0,"Mozilla/5.0 (Windows NT 10.0; Win64; x64) AppleWebKit/537.36 (KHTML, like Gecko) Chrome/87.0.4280.141 Safari/537.36",WebKit,Chrome,87.0.4280.141,Windows,10
94,1,null,"""",image-keyboard-response,59,151919,0.0-59.0,jspsych/scrambledDisgustFaces/scrambledBM02DIS.JPG,"""",3,forwardMask,Test,null,250,d,"""","""","""","""","""","""","""","""",1/26/2021 1:13,67.83.183.0,"Mozilla/5.0 (Windows NT 10.0; Win64; x64) AppleWebKit/537.36 (KHTML, like Gecko) Chrome/87.0.4280.141 Safari/537.36",WebKit,Chrome,87.0.4280.141,Windows,10
94,1,null,"""",image-keyboard-response,60,151951,0.0-60.0,jspsych/disgustFaces/BM02DIS.JPG,"""",3,Cue,Test,null,"function(){
        return jsPsych.randomization.sampleWithoutReplacement(cueDuration, 1)[0]}","""","""","""","""","""","""","""","""","""",1/26/2021 1:13,67.83.183.0,"Mozilla/5.0 (Windows NT 10.0; Win64; x64) AppleWebKit/537.36 (KHTML, like Gecko) Chrome/87.0.4280.141 Safari/537.36",WebKit,Chrome,87.0.4280.141,Windows,10
94,1,null,"""",image-keyboard-response,61,152061,0.0-61.0,jspsych/neutralFaces/BF22NES.JPG,"""",3,backwardMask,Test,null,100,"""","""","""","""","""","""","""","""","""",1/26/2021 1:13,67.83.183.0,"Mozilla/5.0 (Windows NT 10.0; Win64; x64) AppleWebKit/537.36 (KHTML, like Gecko) Chrome/87.0.4280.141 Safari/537.36",WebKit,Chrome,87.0.4280.141,Windows,10
94,1,null,"""",html-keyboard-response,62,153068,0.0-62.0,"<div style=""font-size:60px;"">+</div>","""",3,fixationBtwnNeutralMaskAndPrompt,Test,null,1000,"""","""","""","""","""","""","""","""","""",1/26/2021 1:13,67.83.183.0,"Mozilla/5.0 (Windows NT 10.0; Win64; x64) AppleWebKit/537.36 (KHTML, like Gecko) Chrome/87.0.4280.141 Safari/537.36",WebKit,Chrome,87.0.4280.141,Windows,10
94,1,3172.405,"""",html-slider-response,63,156243,0.0-63.0,"<img src='jspsych/CFDfaces/CFD-WF-003-003-N.jpg' height=""250px"">,</br><b>Lindsey</b>","""",3,ConfidenceQuery,Test,"""","""","""",50,50,"""",2,1,CFD-WF-003-003-N.jpg,Lindsey,"""",1/26/2021 1:13,67.83.183.0,"Mozilla/5.0 (Windows NT 10.0; Win64; x64) AppleWebKit/537.36 (KHTML, like Gecko) Chrome/87.0.4280.141 Safari/537.36",WebKit,Chrome,87.0.4280.141,Windows,10
94,1,null,"""",html-keyboard-response,64,157256,0.0-64.0,"<div style=""font-size:60px;"">+</div>","""",4,ITI,Test,null,1000,"""","""","""","""","""","""","""","""","""",1/26/2021 1:13,67.83.183.0,"Mozilla/5.0 (Windows NT 10.0; Win64; x64) AppleWebKit/537.36 (KHTML, like Gecko) Chrome/87.0.4280.141 Safari/537.36",WebKit,Chrome,87.0.4280.141,Windows,10
94,1,null,"""",image-keyboard-response,65,157514,0.0-65.0,jspsych/scrambledDisgustFaces/scrambledAM24DIS.JPG,"""",4,forwardMask,Test,null,250,d,"""","""","""","""","""","""","""","""",1/26/2021 1:13,67.83.183.0,"Mozilla/5.0 (Windows NT 10.0; Win64; x64) AppleWebKit/537.36 (KHTML, like Gecko) Chrome/87.0.4280.141 Safari/537.36",WebKit,Chrome,87.0.4280.141,Windows,10
94,1,null,"""",image-keyboard-response,66,157541,0.0-66.0,jspsych/disgustFaces/AM24DIS.JPG,"""",4,Cue,Test,null,"function(){
        return jsPsych.randomization.sampleWithoutReplacement(cueDuration, 1)[0]}","""","""","""","""","""","""","""","""","""",1/26/2021 1:13,67.83.183.0,"Mozilla/5.0 (Windows NT 10.0; Win64; x64) AppleWebKit/537.36 (KHTML, like Gecko) Chrome/87.0.4280.141 Safari/537.36",WebKit,Chrome,87.0.4280.141,Windows,10
94,1,null,"""",image-keyboard-response,67,157648,0.0-67.0,jspsych/neutralFaces/AF29NES.JPG,"""",4,backwardMask,Test,null,100,"""","""","""","""","""","""","""","""","""",1/26/2021 1:13,67.83.183.0,"Mozilla/5.0 (Windows NT 10.0; Win64; x64) AppleWebKit/537.36 (KHTML, like Gecko) Chrome/87.0.4280.141 Safari/537.36",WebKit,Chrome,87.0.4280.141,Windows,10
94,1,null,"""",html-keyboard-response,68,158655,0.0-68.0,"<div style=""font-size:60px;"">+</div>","""",4,fixationBtwnNeutralMaskAndPrompt,Test,null,1000,"""","""","""","""","""","""","""","""","""",1/26/2021 1:13,67.83.183.0,"Mozilla/5.0 (Windows NT 10.0; Win64; x64) AppleWebKit/537.36 (KHTML, like Gecko) Chrome/87.0.4280.141 Safari/537.36",WebKit,Chrome,87.0.4280.141,Windows,10
94,1,1803.88,"""",html-slider-response,69,160472,0.0-69.0,"<img src='jspsych/CFDfaces/CFD-AF-228-173-N.jpg' height=""250px"">,</br><b>Stephanie</b>","""",4,ConfidenceQuery,Test,"""","""","""",50,50,"""",2,1,CFD-AF-228-173-N.jpg,Stephanie,"""",1/26/2021 1:13,67.83.183.0,"Mozilla/5.0 (Windows NT 10.0; Win64; x64) AppleWebKit/537.36 (KHTML, like Gecko) Chrome/87.0.4280.141 Safari/537.36",WebKit,Chrome,87.0.4280.141,Windows,10
94,1,null,"""",html-keyboard-response,70,161489,0.0-70.0,"<div style=""font-size:60px;"">+</div>","""",5,ITI,Test,null,1000,"""","""","""","""","""","""","""","""","""",1/26/2021 1:13,67.83.183.0,"Mozilla/5.0 (Windows NT 10.0; Win64; x64) AppleWebKit/537.36 (KHTML, like Gecko) Chrome/87.0.4280.141 Safari/537.36",WebKit,Chrome,87.0.4280.141,Windows,10
94,1,null,"""",image-keyboard-response,71,161751,0.0-71.0,jspsych/scrambledDisgustFaces/scrambledBF19DIS.JPG,"""",5,forwardMask,Test,null,250,d,"""","""","""","""","""","""","""","""",1/26/2021 1:13,67.83.183.0,"Mozilla/5.0 (Windows NT 10.0; Win64; x64) AppleWebKit/537.36 (KHTML, like Gecko) Chrome/87.0.4280.141 Safari/537.36",WebKit,Chrome,87.0.4280.141,Windows,10
94,1,null,"""",image-keyboard-response,72,161785,0.0-72.0,jspsych/disgustFaces/BF19DIS.JPG,"""",5,Cue,Test,null,"function(){
        return jsPsych.randomization.sampleWithoutReplacement(cueDuration, 1)[0]}","""","""","""","""","""","""","""","""","""",1/26/2021 1:13,67.83.183.0,"Mozilla/5.0 (Windows NT 10.0; Win64; x64) AppleWebKit/537.36 (KHTML, like Gecko) Chrome/87.0.4280.141 Safari/537.36",WebKit,Chrome,87.0.4280.141,Windows,10
94,1,null,"""",image-keyboard-response,73,161893,0.0-73.0,jspsych/neutralFaces/BM31NES.JPG,"""",5,backwardMask,Test,null,100,"""","""","""","""","""","""","""","""","""",1/26/2021 1:13,67.83.183.0,"Mozilla/5.0 (Windows NT 10.0; Win64; x64) AppleWebKit/537.36 (KHTML, like Gecko) Chrome/87.0.4280.141 Safari/537.36",WebKit,Chrome,87.0.4280.141,Windows,10
94,1,null,"""",html-keyboard-response,74,162897,0.0-74.0,"<div style=""font-size:60px;"">+</div>","""",5,fixationBtwnNeutralMaskAndPrompt,Test,null,1000,"""","""","""","""","""","""","""","""","""",1/26/2021 1:13,67.83.183.0,"Mozilla/5.0 (Windows NT 10.0; Win64; x64) AppleWebKit/537.36 (KHTML, like Gecko) Chrome/87.0.4280.141 Safari/537.36",WebKit,Chrome,87.0.4280.141,Windows,10
94,1,1769.495,"""",html-slider-response,75,164670,0.0-75.0,"<img src='jspsych/CFDfaces/CFD-AF-201-060-N.jpg' height=""250px"">,</br><b>Kristina</b>","""",5,ConfidenceQuery,Test,"""","""","""",50,50,"""",2,0,CFD-AF-201-060-N.jpg,Kristina,"""",1/26/2021 1:13,67.83.183.0,"Mozilla/5.0 (Windows NT 10.0; Win64; x64) AppleWebKit/537.36 (KHTML, like Gecko) Chrome/87.0.4280.141 Safari/537.36",WebKit,Chrome,87.0.4280.141,Windows,10
94,1,null,"""",html-keyboard-response,76,165685,0.0-76.0,"<div style=""font-size:60px;"">+</div>","""",6,ITI,Test,null,1000,"""","""","""","""","""","""","""","""","""",1/26/2021 1:13,67.83.183.0,"Mozilla/5.0 (Windows NT 10.0; Win64; x64) AppleWebKit/537.36 (KHTML, like Gecko) Chrome/87.0.4280.141 Safari/537.36",WebKit,Chrome,87.0.4280.141,Windows,10
94,1,null,"""",image-keyboard-response,77,165947,0.0-77.0,jspsych/scrambledDisgustFaces/scrambledAM19DIS.JPG,"""",6,forwardMask,Test,null,250,d,"""","""","""","""","""","""","""","""",1/26/2021 1:13,67.83.183.0,"Mozilla/5.0 (Windows NT 10.0; Win64; x64) AppleWebKit/537.36 (KHTML, like Gecko) Chrome/87.0.4280.141 Safari/537.36",WebKit,Chrome,87.0.4280.141,Windows,10
94,1,null,"""",image-keyboard-response,78,165971,0.0-78.0,jspsych/disgustFaces/AM19DIS.JPG,"""",6,Cue,Test,null,"function(){
        return jsPsych.randomization.sampleWithoutReplacement(cueDuration, 1)[0]}","""","""","""","""","""","""","""","""","""",1/26/2021 1:13,67.83.183.0,"Mozilla/5.0 (Windows NT 10.0; Win64; x64) AppleWebKit/537.36 (KHTML, like Gecko) Chrome/87.0.4280.141 Safari/537.36",WebKit,Chrome,87.0.4280.141,Windows,10
94,1,null,"""",image-keyboard-response,79,166074,0.0-79.0,jspsych/neutralFaces/AM08NES.JPG,"""",6,backwardMask,Test,null,100,"""","""","""","""","""","""","""","""","""",1/26/2021 1:13,67.83.183.0,"Mozilla/5.0 (Windows NT 10.0; Win64; x64) AppleWebKit/537.36 (KHTML, like Gecko) Chrome/87.0.4280.141 Safari/537.36",WebKit,Chrome,87.0.4280.141,Windows,10
94,1,null,"""",html-keyboard-response,80,167082,0.0-80.0,"<div style=""font-size:60px;"">+</div>","""",6,fixationBtwnNeutralMaskAndPrompt,Test,null,1000,"""","""","""","""","""","""","""","""","""",1/26/2021 1:13,67.83.183.0,"Mozilla/5.0 (Windows NT 10.0; Win64; x64) AppleWebKit/537.36 (KHTML, like Gecko) Chrome/87.0.4280.141 Safari/537.36",WebKit,Chrome,87.0.4280.141,Windows,10
94,1,208650.99,"""",html-slider-response,81,375770,0.0-81.0,"<img src='jspsych/CFDfaces/CFD-LF-236-221-N.jpg' height=""250px"">,</br><b>Laura</b>","""",6,ConfidenceQuery,Test,"""","""","""",50,50,"""",2,1,CFD-LF-236-221-N.jpg,Laura,"""",1/26/2021 1:13,67.83.183.0,"Mozilla/5.0 (Windows NT 10.0; Win64; x64) AppleWebKit/537.36 (KHTML, like Gecko) Chrome/87.0.4280.141 Safari/537.36",WebKit,Chrome,87.0.4280.141,Windows,10
94,1,null,"""",html-keyboard-response,82,376951,0.0-82.0,"<div style=""font-size:60px;"">+</div>","""",7,ITI,Test,null,1000,"""","""","""","""","""","""","""","""","""",1/26/2021 1:13,67.83.183.0,"Mozilla/5.0 (Windows NT 10.0; Win64; x64) AppleWebKit/537.36 (KHTML, like Gecko) Chrome/87.0.4280.141 Safari/537.36",WebKit,Chrome,87.0.4280.141,Windows,10
94,1,null,"""",image-keyboard-response,83,377256,0.0-83.0,jspsych/scrambledDisgustFaces/scrambledAF31DIS.JPG,"""",7,forwardMask,Test,null,250,d,"""","""","""","""","""","""","""","""",1/26/2021 1:13,67.83.183.0,"Mozilla/5.0 (Windows NT 10.0; Win64; x64) AppleWebKit/537.36 (KHTML, like Gecko) Chrome/87.0.4280.141 Safari/537.36",WebKit,Chrome,87.0.4280.141,Windows,10
94,1,null,"""",image-keyboard-response,84,377279,0.0-84.0,jspsych/disgustFaces/AF31DIS.JPG,"""",7,Cue,Test,null,"function(){
        return jsPsych.randomization.sampleWithoutReplacement(cueDuration, 1)[0]}","""","""","""","""","""","""","""","""","""",1/26/2021 1:13,67.83.183.0,"Mozilla/5.0 (Windows NT 10.0; Win64; x64) AppleWebKit/537.36 (KHTML, like Gecko) Chrome/87.0.4280.141 Safari/537.36",WebKit,Chrome,87.0.4280.141,Windows,10
94,1,null,"""",image-keyboard-response,85,377390,0.0-85.0,jspsych/neutralFaces/BM30NES.JPG,"""",7,backwardMask,Test,null,100,"""","""","""","""","""","""","""","""","""",1/26/2021 1:13,67.83.183.0,"Mozilla/5.0 (Windows NT 10.0; Win64; x64) AppleWebKit/537.36 (KHTML, like Gecko) Chrome/87.0.4280.141 Safari/537.36",WebKit,Chrome,87.0.4280.141,Windows,10
94,1,null,"""",html-keyboard-response,86,378398,0.0-86.0,"<div style=""font-size:60px;"">+</div>","""",7,fixationBtwnNeutralMaskAndPrompt,Test,null,1000,"""","""","""","""","""","""","""","""","""",1/26/2021 1:13,67.83.183.0,"Mozilla/5.0 (Windows NT 10.0; Win64; x64) AppleWebKit/537.36 (KHTML, like Gecko) Chrome/87.0.4280.141 Safari/537.36",WebKit,Chrome,87.0.4280.141,Windows,10
94,1,869.975,"""",html-slider-response,87,379298,0.0-87.0,"<img src='jspsych/CFDfaces/CFD-AF-242-158-N.jpg' height=""250px"">,</br><b>Brittany</b>","""",7,ConfidenceQuery,Test,"""","""","""",50,50,"""",2,1,CFD-AF-242-158-N.jpg,Brittany,"""",1/26/2021 1:13,67.83.183.0,"Mozilla/5.0 (Windows NT 10.0; Win64; x64) AppleWebKit/537.36 (KHTML, like Gecko) Chrome/87.0.4280.141 Safari/537.36",WebKit,Chrome,87.0.4280.141,Windows,10
94,1,null,"""",html-keyboard-response,88,380304,0.0-88.0,"<div style=""font-size:60px;"">+</div>","""",8,ITI,Test,null,1000,"""","""","""","""","""","""","""","""","""",1/26/2021 1:13,67.83.183.0,"Mozilla/5.0 (Windows NT 10.0; Win64; x64) AppleWebKit/537.36 (KHTML, like Gecko) Chrome/87.0.4280.141 Safari/537.36",WebKit,Chrome,87.0.4280.141,Windows,10
94,1,null,"""",image-keyboard-response,89,380574,0.0-89.0,jspsych/scrambledDisgustFaces/scrambledAF34DIS.JPG,"""",8,forwardMask,Test,null,250,d,"""","""","""","""","""","""","""","""",1/26/2021 1:13,67.83.183.0,"Mozilla/5.0 (Windows NT 10.0; Win64; x64) AppleWebKit/537.36 (KHTML, like Gecko) Chrome/87.0.4280.141 Safari/537.36",WebKit,Chrome,87.0.4280.141,Windows,10
94,1,null,"""",image-keyboard-response,90,380600,0.0-90.0,jspsych/disgustFaces/AF34DIS.JPG,"""",8,Cue,Test,null,"function(){
        return jsPsych.randomization.sampleWithoutReplacement(cueDuration, 1)[0]}","""","""","""","""","""","""","""","""","""",1/26/2021 1:13,67.83.183.0,"Mozilla/5.0 (Windows NT 10.0; Win64; x64) AppleWebKit/537.36 (KHTML, like Gecko) Chrome/87.0.4280.141 Safari/537.36",WebKit,Chrome,87.0.4280.141,Windows,10
94,1,null,"""",image-keyboard-response,91,380716,0.0-91.0,jspsych/neutralFaces/BF24NES.JPG,"""",8,backwardMask,Test,null,100,"""","""","""","""","""","""","""","""","""",1/26/2021 1:13,67.83.183.0,"Mozilla/5.0 (Windows NT 10.0; Win64; x64) AppleWebKit/537.36 (KHTML, like Gecko) Chrome/87.0.4280.141 Safari/537.36",WebKit,Chrome,87.0.4280.141,Windows,10
94,1,null,"""",html-keyboard-response,92,381720,0.0-92.0,"<div style=""font-size:60px;"">+</div>","""",8,fixationBtwnNeutralMaskAndPrompt,Test,null,1000,"""","""","""","""","""","""","""","""","""",1/26/2021 1:13,67.83.183.0,"Mozilla/5.0 (Windows NT 10.0; Win64; x64) AppleWebKit/537.36 (KHTML, like Gecko) Chrome/87.0.4280.141 Safari/537.36",WebKit,Chrome,87.0.4280.141,Windows,10
94,1,2410.205,"""",html-slider-response,93,384134,0.0-93.0,"<img src='jspsych/CFDfaces/CFD-AM-229-224-N.jpg' height=""250px"">,</br><b>James</b>","""",8,ConfidenceQuery,Test,"""","""","""",50,50,"""",2,1,CFD-AM-229-224-N.jpg,James,"""",1/26/2021 1:13,67.83.183.0,"Mozilla/5.0 (Windows NT 10.0; Win64; x64) AppleWebKit/537.36 (KHTML, like Gecko) Chrome/87.0.4280.141 Safari/537.36",WebKit,Chrome,87.0.4280.141,Windows,10
94,1,null,"""",html-keyboard-response,94,385148,0.0-94.0,"<div style=""font-size:60px;"">+</div>","""",9,ITI,Test,null,1000,"""","""","""","""","""","""","""","""","""",1/26/2021 1:13,67.83.183.0,"Mozilla/5.0 (Windows NT 10.0; Win64; x64) AppleWebKit/537.36 (KHTML, like Gecko) Chrome/87.0.4280.141 Safari/537.36",WebKit,Chrome,87.0.4280.141,Windows,10
94,1,null,"""",image-keyboard-response,95,385703,0.0-95.0,jspsych/scrambledDisgustFaces/scrambledBM19DIS.JPG,"""",9,forwardMask,Test,null,250,d,"""","""","""","""","""","""","""","""",1/26/2021 1:13,67.83.183.0,"Mozilla/5.0 (Windows NT 10.0; Win64; x64) AppleWebKit/537.36 (KHTML, like Gecko) Chrome/87.0.4280.141 Safari/537.36",WebKit,Chrome,87.0.4280.141,Windows,10
94,1,null,"""",image-keyboard-response,96,385973,0.0-96.0,jspsych/disgustFaces/BM19DIS.JPG,"""",9,Cue,Test,null,"function(){
        return jsPsych.randomization.sampleWithoutReplacement(cueDuration, 1)[0]}","""","""","""","""","""","""","""","""","""",1/26/2021 1:13,67.83.183.0,"Mozilla/5.0 (Windows NT 10.0; Win64; x64) AppleWebKit/537.36 (KHTML, like Gecko) Chrome/87.0.4280.141 Safari/537.36",WebKit,Chrome,87.0.4280.141,Windows,10
94,1,null,"""",image-keyboard-response,97,386079,0.0-97.0,jspsych/neutralFaces/AM28NES.JPG,"""",9,backwardMask,Test,null,100,"""","""","""","""","""","""","""","""","""",1/26/2021 1:13,67.83.183.0,"Mozilla/5.0 (Windows NT 10.0; Win64; x64) AppleWebKit/537.36 (KHTML, like Gecko) Chrome/87.0.4280.141 Safari/537.36",WebKit,Chrome,87.0.4280.141,Windows,10
94,1,null,"""",html-keyboard-response,98,387088,0.0-98.0,"<div style=""font-size:60px;"">+</div>","""",9,fixationBtwnNeutralMaskAndPrompt,Test,null,1000,"""","""","""","""","""","""","""","""","""",1/26/2021 1:13,67.83.183.0,"Mozilla/5.0 (Windows NT 10.0; Win64; x64) AppleWebKit/537.36 (KHTML, like Gecko) Chrome/87.0.4280.141 Safari/537.36",WebKit,Chrome,87.0.4280.141,Windows,10
94,1,1200.29,"""",html-slider-response,99,388292,0.0-99.0,"<img src='jspsych/CFDfaces/CFD-WM-020-001-N.jpg' height=""250px"">,</br><b>Jacob</b>","""",9,ConfidenceQuery,Test,"""","""","""",50,50,"""",2,1,CFD-WM-020-001-N.jpg,Jacob,"""",1/26/2021 1:13,67.83.183.0,"Mozilla/5.0 (Windows NT 10.0; Win64; x64) AppleWebKit/537.36 (KHTML, like Gecko) Chrome/87.0.4280.141 Safari/537.36",WebKit,Chrome,87.0.4280.141,Windows,10
94,1,null,"""",html-keyboard-response,100,389987,0.0-100.0,"<div style=""font-size:60px;"">+</div>","""",10,ITI,Test,null,1000,"""","""","""","""","""","""","""","""","""",1/26/2021 1:13,67.83.183.0,"Mozilla/5.0 (Windows NT 10.0; Win64; x64) AppleWebKit/537.36 (KHTML, like Gecko) Chrome/87.0.4280.141 Safari/537.36",WebKit,Chrome,87.0.4280.141,Windows,10
94,1,null,"""",image-keyboard-response,101,390244,0.0-101.0,jspsych/scrambledDisgustFaces/scrambledAM13DIS.JPG,"""",10,forwardMask,Test,null,250,d,"""","""","""","""","""","""","""","""",1/26/2021 1:13,67.83.183.0,"Mozilla/5.0 (Windows NT 10.0; Win64; x64) AppleWebKit/537.36 (KHTML, like Gecko) Chrome/87.0.4280.141 Safari/537.36",WebKit,Chrome,87.0.4280.141,Windows,10
94,1,null,"""",image-keyboard-response,102,390268,0.0-102.0,jspsych/disgustFaces/AM13DIS.JPG,"""",10,Cue,Test,null,"function(){
        return jsPsych.randomization.sampleWithoutReplacement(cueDuration, 1)[0]}","""","""","""","""","""","""","""","""","""",1/26/2021 1:13,67.83.183.0,"Mozilla/5.0 (Windows NT 10.0; Win64; x64) AppleWebKit/537.36 (KHTML, like Gecko) Chrome/87.0.4280.141 Safari/537.36",WebKit,Chrome,87.0.4280.141,Windows,10
94,1,null,"""",image-keyboard-response,103,390386,0.0-103.0,jspsych/neutralFaces/AF31NES.JPG,"""",10,backwardMask,Test,null,100,"""","""","""","""","""","""","""","""","""",1/26/2021 1:13,67.83.183.0,"Mozilla/5.0 (Windows NT 10.0; Win64; x64) AppleWebKit/537.36 (KHTML, like Gecko) Chrome/87.0.4280.141 Safari/537.36",WebKit,Chrome,87.0.4280.141,Windows,10
94,1,null,"""",html-keyboard-response,104,391399,0.0-104.0,"<div style=""font-size:60px;"">+</div>","""",10,fixationBtwnNeutralMaskAndPrompt,Test,null,1000,"""","""","""","""","""","""","""","""","""",1/26/2021 1:13,67.83.183.0,"Mozilla/5.0 (Windows NT 10.0; Win64; x64) AppleWebKit/537.36 (KHTML, like Gecko) Chrome/87.0.4280.141 Safari/537.36",WebKit,Chrome,87.0.4280.141,Windows,10
94,1,5604.77,"""",html-slider-response,105,397006,0.0-105.0,"<img src='jspsych/CFDfaces/CFD-BM-029-024-N.jpg' height=""250px"">,</br><b>Taylor</b>","""",10,ConfidenceQuery,Test,"""","""","""",50,50,"""",2,0,CFD-BM-029-024-N.jpg,Taylor,"""",1/26/2021 1:13,67.83.183.0,"Mozilla/5.0 (Windows NT 10.0; Win64; x64) AppleWebKit/537.36 (KHTML, like Gecko) Chrome/87.0.4280.141 Safari/537.36",WebKit,Chrome,87.0.4280.141,Windows,10
94,1,null,"""",html-keyboard-response,106,398022,0.0-106.0,"<div style=""font-size:60px;"">+</div>","""",11,ITI,Test,null,1000,"""","""","""","""","""","""","""","""","""",1/26/2021 1:13,67.83.183.0,"Mozilla/5.0 (Windows NT 10.0; Win64; x64) AppleWebKit/537.36 (KHTML, like Gecko) Chrome/87.0.4280.141 Safari/537.36",WebKit,Chrome,87.0.4280.141,Windows,10
94,1,null,"""",image-keyboard-response,107,398341,0.0-107.0,jspsych/scrambledDisgustFaces/scrambledAF30DIS.JPG,"""",11,forwardMask,Test,null,250,d,"""","""","""","""","""","""","""","""",1/26/2021 1:13,67.83.183.0,"Mozilla/5.0 (Windows NT 10.0; Win64; x64) AppleWebKit/537.36 (KHTML, like Gecko) Chrome/87.0.4280.141 Safari/537.36",WebKit,Chrome,87.0.4280.141,Windows,10
94,1,null,"""",image-keyboard-response,108,398373,0.0-108.0,jspsych/disgustFaces/AF30DIS.JPG,"""",11,Cue,Test,null,"function(){
        return jsPsych.randomization.sampleWithoutReplacement(cueDuration, 1)[0]}","""","""","""","""","""","""","""","""","""",1/26/2021 1:13,67.83.183.0,"Mozilla/5.0 (Windows NT 10.0; Win64; x64) AppleWebKit/537.36 (KHTML, like Gecko) Chrome/87.0.4280.141 Safari/537.36",WebKit,Chrome,87.0.4280.141,Windows,10
94,1,null,"""",image-keyboard-response,109,398486,0.0-109.0,jspsych/neutralFaces/AM14NES.JPG,"""",11,backwardMask,Test,null,100,"""","""","""","""","""","""","""","""","""",1/26/2021 1:13,67.83.183.0,"Mozilla/5.0 (Windows NT 10.0; Win64; x64) AppleWebKit/537.36 (KHTML, like Gecko) Chrome/87.0.4280.141 Safari/537.36",WebKit,Chrome,87.0.4280.141,Windows,10
94,1,null,"""",html-keyboard-response,110,399491,0.0-110.0,"<div style=""font-size:60px;"">+</div>","""",11,fixationBtwnNeutralMaskAndPrompt,Test,null,1000,"""","""","""","""","""","""","""","""","""",1/26/2021 1:13,67.83.183.0,"Mozilla/5.0 (Windows NT 10.0; Win64; x64) AppleWebKit/537.36 (KHTML, like Gecko) Chrome/87.0.4280.141 Safari/537.36",WebKit,Chrome,87.0.4280.141,Windows,10
94,1,834.015,"""",html-slider-response,111,400328,0.0-111.0,"<img src='jspsych/CFDfaces/CFD-AM-228-214-N.jpg' height=""250px"">,</br><b>Robert</b>","""",11,ConfidenceQuery,Test,"""","""","""",50,50,"""",2,0,CFD-AM-228-214-N.jpg,Robert,"""",1/26/2021 1:13,67.83.183.0,"Mozilla/5.0 (Windows NT 10.0; Win64; x64) AppleWebKit/537.36 (KHTML, like Gecko) Chrome/87.0.4280.141 Safari/537.36",WebKit,Chrome,87.0.4280.141,Windows,10
94,1,null,"""",html-keyboard-response,112,401342,0.0-112.0,"<div style=""font-size:60px;"">+</div>","""",12,ITI,Test,null,1000,"""","""","""","""","""","""","""","""","""",1/26/2021 1:13,67.83.183.0,"Mozilla/5.0 (Windows NT 10.0; Win64; x64) AppleWebKit/537.36 (KHTML, like Gecko) Chrome/87.0.4280.141 Safari/537.36",WebKit,Chrome,87.0.4280.141,Windows,10
94,1,null,"""",image-keyboard-response,113,401602,0.0-113.0,jspsych/scrambledDisgustFaces/scrambledBF33DIS.JPG,"""",12,forwardMask,Test,null,250,d,"""","""","""","""","""","""","""","""",1/26/2021 1:13,67.83.183.0,"Mozilla/5.0 (Windows NT 10.0; Win64; x64) AppleWebKit/537.36 (KHTML, like Gecko) Chrome/87.0.4280.141 Safari/537.36",WebKit,Chrome,87.0.4280.141,Windows,10
94,1,null,"""",image-keyboard-response,114,401633,0.0-114.0,jspsych/disgustFaces/BF33DIS.JPG,"""",12,Cue,Test,null,"function(){
        return jsPsych.randomization.sampleWithoutReplacement(cueDuration, 1)[0]}","""","""","""","""","""","""","""","""","""",1/26/2021 1:13,67.83.183.0,"Mozilla/5.0 (Windows NT 10.0; Win64; x64) AppleWebKit/537.36 (KHTML, like Gecko) Chrome/87.0.4280.141 Safari/537.36",WebKit,Chrome,87.0.4280.141,Windows,10
94,1,null,"""",image-keyboard-response,115,401743,0.0-115.0,jspsych/neutralFaces/BF17NES.JPG,"""",12,backwardMask,Test,null,100,"""","""","""","""","""","""","""","""","""",1/26/2021 1:13,67.83.183.0,"Mozilla/5.0 (Windows NT 10.0; Win64; x64) AppleWebKit/537.36 (KHTML, like Gecko) Chrome/87.0.4280.141 Safari/537.36",WebKit,Chrome,87.0.4280.141,Windows,10
94,1,null,"""",html-keyboard-response,116,402746,0.0-116.0,"<div style=""font-size:60px;"">+</div>","""",12,fixationBtwnNeutralMaskAndPrompt,Test,null,1000,"""","""","""","""","""","""","""","""","""",1/26/2021 1:13,67.83.183.0,"Mozilla/5.0 (Windows NT 10.0; Win64; x64) AppleWebKit/537.36 (KHTML, like Gecko) Chrome/87.0.4280.141 Safari/537.36",WebKit,Chrome,87.0.4280.141,Windows,10
94,1,884.785,"""",html-slider-response,117,403633,0.0-117.0,"<img src='jspsych/CFDfaces/CFD-BM-011-016-N.jpg' height=""250px"">,</br><b>Derek</b>","""",12,ConfidenceQuery,Test,"""","""","""",50,50,"""",2,0,CFD-BM-011-016-N.jpg,Derek,"""",1/26/2021 1:13,67.83.183.0,"Mozilla/5.0 (Windows NT 10.0; Win64; x64) AppleWebKit/537.36 (KHTML, like Gecko) Chrome/87.0.4280.141 Safari/537.36",WebKit,Chrome,87.0.4280.141,Windows,10
94,1,null,"""",html-keyboard-response,118,404646,0.0-118.0,"<div style=""font-size:60px;"">+</div>","""",13,ITI,Test,null,1000,"""","""","""","""","""","""","""","""","""",1/26/2021 1:13,67.83.183.0,"Mozilla/5.0 (Windows NT 10.0; Win64; x64) AppleWebKit/537.36 (KHTML, like Gecko) Chrome/87.0.4280.141 Safari/537.36",WebKit,Chrome,87.0.4280.141,Windows,10
94,1,null,"""",image-keyboard-response,119,404912,0.0-119.0,jspsych/scrambledDisgustFaces/scrambledAF24DIS.JPG,"""",13,forwardMask,Test,null,250,d,"""","""","""","""","""","""","""","""",1/26/2021 1:13,67.83.183.0,"Mozilla/5.0 (Windows NT 10.0; Win64; x64) AppleWebKit/537.36 (KHTML, like Gecko) Chrome/87.0.4280.141 Safari/537.36",WebKit,Chrome,87.0.4280.141,Windows,10
94,1,null,"""",image-keyboard-response,120,404935,0.0-120.0,jspsych/disgustFaces/AF24DIS.JPG,"""",13,Cue,Test,null,"function(){
        return jsPsych.randomization.sampleWithoutReplacement(cueDuration, 1)[0]}","""","""","""","""","""","""","""","""","""",1/26/2021 1:13,67.83.183.0,"Mozilla/5.0 (Windows NT 10.0; Win64; x64) AppleWebKit/537.36 (KHTML, like Gecko) Chrome/87.0.4280.141 Safari/537.36",WebKit,Chrome,87.0.4280.141,Windows,10
94,1,null,"""",image-keyboard-response,121,405044,0.0-121.0,jspsych/neutralFaces/AM06NES.JPG,"""",13,backwardMask,Test,null,100,"""","""","""","""","""","""","""","""","""",1/26/2021 1:13,67.83.183.0,"Mozilla/5.0 (Windows NT 10.0; Win64; x64) AppleWebKit/537.36 (KHTML, like Gecko) Chrome/87.0.4280.141 Safari/537.36",WebKit,Chrome,87.0.4280.141,Windows,10
94,1,null,"""",html-keyboard-response,122,406052,0.0-122.0,"<div style=""font-size:60px;"">+</div>","""",13,fixationBtwnNeutralMaskAndPrompt,Test,null,1000,"""","""","""","""","""","""","""","""","""",1/26/2021 1:13,67.83.183.0,"Mozilla/5.0 (Windows NT 10.0; Win64; x64) AppleWebKit/537.36 (KHTML, like Gecko) Chrome/87.0.4280.141 Safari/537.36",WebKit,Chrome,87.0.4280.141,Windows,10
94,1,4222.45,"""",html-slider-response,123,410277,0.0-123.0,"<img src='jspsych/CFDfaces/CFD-BF-010-001-N.jpg' height=""250px"">,</br><b>Jennifer</b>","""",13,ConfidenceQuery,Test,"""","""","""",50,50,"""",2,0,CFD-BF-010-001-N.jpg,Jennifer,"""",1/26/2021 1:13,67.83.183.0,"Mozilla/5.0 (Windows NT 10.0; Win64; x64) AppleWebKit/537.36 (KHTML, like Gecko) Chrome/87.0.4280.141 Safari/537.36",WebKit,Chrome,87.0.4280.141,Windows,10
94,1,null,"""",html-keyboard-response,124,411292,0.0-124.0,"<div style=""font-size:60px;"">+</div>","""",14,ITI,Test,null,1000,"""","""","""","""","""","""","""","""","""",1/26/2021 1:13,67.83.183.0,"Mozilla/5.0 (Windows NT 10.0; Win64; x64) AppleWebKit/537.36 (KHTML, like Gecko) Chrome/87.0.4280.141 Safari/537.36",WebKit,Chrome,87.0.4280.141,Windows,10
94,1,null,"""",image-keyboard-response,125,411548,0.0-125.0,jspsych/scrambledDisgustFaces/scrambledBF27DIS.JPG,"""",14,forwardMask,Test,null,250,d,"""","""","""","""","""","""","""","""",1/26/2021 1:13,67.83.183.0,"Mozilla/5.0 (Windows NT 10.0; Win64; x64) AppleWebKit/537.36 (KHTML, like Gecko) Chrome/87.0.4280.141 Safari/537.36",WebKit,Chrome,87.0.4280.141,Windows,10
94,1,null,"""",image-keyboard-response,126,411578,0.0-126.0,jspsych/disgustFaces/BF27DIS.JPG,"""",14,Cue,Test,null,"function(){
        return jsPsych.randomization.sampleWithoutReplacement(cueDuration, 1)[0]}","""","""","""","""","""","""","""","""","""",1/26/2021 1:13,67.83.183.0,"Mozilla/5.0 (Windows NT 10.0; Win64; x64) AppleWebKit/537.36 (KHTML, like Gecko) Chrome/87.0.4280.141 Safari/537.36",WebKit,Chrome,87.0.4280.141,Windows,10
94,1,null,"""",image-keyboard-response,127,411690,0.0-127.0,jspsych/neutralFaces/BM09NES.JPG,"""",14,backwardMask,Test,null,100,"""","""","""","""","""","""","""","""","""",1/26/2021 1:13,67.83.183.0,"Mozilla/5.0 (Windows NT 10.0; Win64; x64) AppleWebKit/537.36 (KHTML, like Gecko) Chrome/87.0.4280.141 Safari/537.36",WebKit,Chrome,87.0.4280.141,Windows,10
94,1,null,"""",html-keyboard-response,128,412697,0.0-128.0,"<div style=""font-size:60px;"">+</div>","""",14,fixationBtwnNeutralMaskAndPrompt,Test,null,1000,"""","""","""","""","""","""","""","""","""",1/26/2021 1:13,67.83.183.0,"Mozilla/5.0 (Windows NT 10.0; Win64; x64) AppleWebKit/537.36 (KHTML, like Gecko) Chrome/87.0.4280.141 Safari/537.36",WebKit,Chrome,87.0.4280.141,Windows,10
94,1,923.6250001,"""",html-slider-response,129,413624,0.0-129.0,"<img src='jspsych/CFDfaces/CFD-BM-010-003-N.jpg' height=""250px"">,</br><b>Benjamin</b>","""",14,ConfidenceQuery,Test,"""","""","""",50,50,"""",2,1,CFD-BM-010-003-N.jpg,Benjamin,"""",1/26/2021 1:13,67.83.183.0,"Mozilla/5.0 (Windows NT 10.0; Win64; x64) AppleWebKit/537.36 (KHTML, like Gecko) Chrome/87.0.4280.141 Safari/537.36",WebKit,Chrome,87.0.4280.141,Windows,10
94,1,null,"""",html-keyboard-response,130,414638,0.0-130.0,"<div style=""font-size:60px;"">+</div>","""",15,ITI,Test,null,1000,"""","""","""","""","""","""","""","""","""",1/26/2021 1:13,67.83.183.0,"Mozilla/5.0 (Windows NT 10.0; Win64; x64) AppleWebKit/537.36 (KHTML, like Gecko) Chrome/87.0.4280.141 Safari/537.36",WebKit,Chrome,87.0.4280.141,Windows,10
94,1,null,"""",image-keyboard-response,131,414904,0.0-131.0,jspsych/scrambledDisgustFaces/scrambledAM25DIS.JPG,"""",15,forwardMask,Test,null,250,d,"""","""","""","""","""","""","""","""",1/26/2021 1:13,67.83.183.0,"Mozilla/5.0 (Windows NT 10.0; Win64; x64) AppleWebKit/537.36 (KHTML, like Gecko) Chrome/87.0.4280.141 Safari/537.36",WebKit,Chrome,87.0.4280.141,Windows,10
94,1,null,"""",image-keyboard-response,132,414942,0.0-132.0,jspsych/disgustFaces/AM25DIS.JPG,"""",15,Cue,Test,null,"function(){
        return jsPsych.randomization.sampleWithoutReplacement(cueDuration, 1)[0]}","""","""","""","""","""","""","""","""","""",1/26/2021 1:13,67.83.183.0,"Mozilla/5.0 (Windows NT 10.0; Win64; x64) AppleWebKit/537.36 (KHTML, like Gecko) Chrome/87.0.4280.141 Safari/537.36",WebKit,Chrome,87.0.4280.141,Windows,10
94,1,null,"""",image-keyboard-response,133,415052,0.0-133.0,jspsych/neutralFaces/AM04NES.JPG,"""",15,backwardMask,Test,null,100,"""","""","""","""","""","""","""","""","""",1/26/2021 1:13,67.83.183.0,"Mozilla/5.0 (Windows NT 10.0; Win64; x64) AppleWebKit/537.36 (KHTML, like Gecko) Chrome/87.0.4280.141 Safari/537.36",WebKit,Chrome,87.0.4280.141,Windows,10
94,1,null,"""",html-keyboard-response,134,416069,0.0-134.0,"<div style=""font-size:60px;"">+</div>","""",15,fixationBtwnNeutralMaskAndPrompt,Test,null,1000,"""","""","""","""","""","""","""","""","""",1/26/2021 1:13,67.83.183.0,"Mozilla/5.0 (Windows NT 10.0; Win64; x64) AppleWebKit/537.36 (KHTML, like Gecko) Chrome/87.0.4280.141 Safari/537.36",WebKit,Chrome,87.0.4280.141,Windows,10
94,1,1839.45,"""",html-slider-response,135,417912,0.0-135.0,"<img src='jspsych/CFDfaces/CFD-AM-237-154-N.jpg' height=""250px"">,</br><b>Gregory</b>","""",15,ConfidenceQuery,Test,"""","""","""",50,50,"""",2,1,CFD-AM-237-154-N.jpg,Gregory,"""",1/26/2021 1:13,67.83.183.0,"Mozilla/5.0 (Windows NT 10.0; Win64; x64) AppleWebKit/537.36 (KHTML, like Gecko) Chrome/87.0.4280.141 Safari/537.36",WebKit,Chrome,87.0.4280.141,Windows,10
94,1,null,"""",html-keyboard-response,136,418921,0.0-136.0,"<div style=""font-size:60px;"">+</div>","""",16,ITI,Test,null,1000,"""","""","""","""","""","""","""","""","""",1/26/2021 1:13,67.83.183.0,"Mozilla/5.0 (Windows NT 10.0; Win64; x64) AppleWebKit/537.36 (KHTML, like Gecko) Chrome/87.0.4280.141 Safari/537.36",WebKit,Chrome,87.0.4280.141,Windows,10
94,1,null,"""",image-keyboard-response,137,419184,0.0-137.0,jspsych/scrambledDisgustFaces/scrambledAM20DIS.JPG,"""",16,forwardMask,Test,null,250,d,"""","""","""","""","""","""","""","""",1/26/2021 1:13,67.83.183.0,"Mozilla/5.0 (Windows NT 10.0; Win64; x64) AppleWebKit/537.36 (KHTML, like Gecko) Chrome/87.0.4280.141 Safari/537.36",WebKit,Chrome,87.0.4280.141,Windows,10
94,1,null,"""",image-keyboard-response,138,419204,0.0-138.0,jspsych/disgustFaces/AM20DIS.JPG,"""",16,Cue,Test,null,"function(){
        return jsPsych.randomization.sampleWithoutReplacement(cueDuration, 1)[0]}","""","""","""","""","""","""","""","""","""",1/26/2021 1:13,67.83.183.0,"Mozilla/5.0 (Windows NT 10.0; Win64; x64) AppleWebKit/537.36 (KHTML, like Gecko) Chrome/87.0.4280.141 Safari/537.36",WebKit,Chrome,87.0.4280.141,Windows,10
94,1,null,"""",image-keyboard-response,139,419315,0.0-139.0,jspsych/neutralFaces/AF26NES.JPG,"""",16,backwardMask,Test,null,100,"""","""","""","""","""","""","""","""","""",1/26/2021 1:13,67.83.183.0,"Mozilla/5.0 (Windows NT 10.0; Win64; x64) AppleWebKit/537.36 (KHTML, like Gecko) Chrome/87.0.4280.141 Safari/537.36",WebKit,Chrome,87.0.4280.141,Windows,10
94,1,null,"""",html-keyboard-response,140,420317,0.0-140.0,"<div style=""font-size:60px;"">+</div>","""",16,fixationBtwnNeutralMaskAndPrompt,Test,null,1000,"""","""","""","""","""","""","""","""","""",1/26/2021 1:13,67.83.183.0,"Mozilla/5.0 (Windows NT 10.0; Win64; x64) AppleWebKit/537.36 (KHTML, like Gecko) Chrome/87.0.4280.141 Safari/537.36",WebKit,Chrome,87.0.4280.141,Windows,10
94,1,5817.395,"""",html-slider-response,141,426137,0.0-141.0,"<img src='jspsych/CFDfaces/CFD-WM-019-003-N.jpg' height=""250px"">,</br><b>Jeremy</b>","""",16,ConfidenceQuery,Test,"""","""","""",50,50,"""",2,0,CFD-WM-019-003-N.jpg,Jeremy,"""",1/26/2021 1:13,67.83.183.0,"Mozilla/5.0 (Windows NT 10.0; Win64; x64) AppleWebKit/537.36 (KHTML, like Gecko) Chrome/87.0.4280.141 Safari/537.36",WebKit,Chrome,87.0.4280.141,Windows,10
94,1,null,"""",html-keyboard-response,142,427150,0.0-142.0,"<div style=""font-size:60px;"">+</div>","""",17,ITI,Test,null,1000,"""","""","""","""","""","""","""","""","""",1/26/2021 1:13,67.83.183.0,"Mozilla/5.0 (Windows NT 10.0; Win64; x64) AppleWebKit/537.36 (KHTML, like Gecko) Chrome/87.0.4280.141 Safari/537.36",WebKit,Chrome,87.0.4280.141,Windows,10
94,1,null,"""",image-keyboard-response,143,427408,0.0-143.0,jspsych/scrambledDisgustFaces/scrambledBM35DIS.JPG,"""",17,forwardMask,Test,null,250,d,"""","""","""","""","""","""","""","""",1/26/2021 1:13,67.83.183.0,"Mozilla/5.0 (Windows NT 10.0; Win64; x64) AppleWebKit/537.36 (KHTML, like Gecko) Chrome/87.0.4280.141 Safari/537.36",WebKit,Chrome,87.0.4280.141,Windows,10
94,1,null,"""",image-keyboard-response,144,427431,0.0-144.0,jspsych/disgustFaces/BM35DIS.JPG,"""",17,Cue,Test,null,"function(){
        return jsPsych.randomization.sampleWithoutReplacement(cueDuration, 1)[0]}","""","""","""","""","""","""","""","""","""",1/26/2021 1:13,67.83.183.0,"Mozilla/5.0 (Windows NT 10.0; Win64; x64) AppleWebKit/537.36 (KHTML, like Gecko) Chrome/87.0.4280.141 Safari/537.36",WebKit,Chrome,87.0.4280.141,Windows,10
94,1,null,"""",image-keyboard-response,145,427542,0.0-145.0,jspsych/neutralFaces/AM21NES.JPG,"""",17,backwardMask,Test,null,100,"""","""","""","""","""","""","""","""","""",1/26/2021 1:13,67.83.183.0,"Mozilla/5.0 (Windows NT 10.0; Win64; x64) AppleWebKit/537.36 (KHTML, like Gecko) Chrome/87.0.4280.141 Safari/537.36",WebKit,Chrome,87.0.4280.141,Windows,10
94,1,null,"""",html-keyboard-response,146,428557,0.0-146.0,"<div style=""font-size:60px;"">+</div>","""",17,fixationBtwnNeutralMaskAndPrompt,Test,null,1000,"""","""","""","""","""","""","""","""","""",1/26/2021 1:13,67.83.183.0,"Mozilla/5.0 (Windows NT 10.0; Win64; x64) AppleWebKit/537.36 (KHTML, like Gecko) Chrome/87.0.4280.141 Safari/537.36",WebKit,Chrome,87.0.4280.141,Windows,10
94,1,890.08,"""",html-slider-response,147,429575,0.0-147.0,"<img src='jspsych/CFDfaces/CFD-LM-219-295-N.jpg' height=""250px"">,</br><b>Michael</b>","""",17,ConfidenceQuery,Test,"""","""","""",50,50,"""",2,0,CFD-LM-219-295-N.jpg,Michael,"""",1/26/2021 1:13,67.83.183.0,"Mozilla/5.0 (Windows NT 10.0; Win64; x64) AppleWebKit/537.36 (KHTML, like Gecko) Chrome/87.0.4280.141 Safari/537.36",WebKit,Chrome,87.0.4280.141,Windows,10
94,1,null,"""",html-keyboard-response,148,430590,0.0-148.0,"<div style=""font-size:60px;"">+</div>","""",18,ITI,Test,null,1000,"""","""","""","""","""","""","""","""","""",1/26/2021 1:13,67.83.183.0,"Mozilla/5.0 (Windows NT 10.0; Win64; x64) AppleWebKit/537.36 (KHTML, like Gecko) Chrome/87.0.4280.141 Safari/537.36",WebKit,Chrome,87.0.4280.141,Windows,10
94,1,null,"""",image-keyboard-response,149,430846,0.0-149.0,jspsych/scrambledDisgustFaces/scrambledBM13DIS.JPG,"""",18,forwardMask,Test,null,250,d,"""","""","""","""","""","""","""","""",1/26/2021 1:13,67.83.183.0,"Mozilla/5.0 (Windows NT 10.0; Win64; x64) AppleWebKit/537.36 (KHTML, like Gecko) Chrome/87.0.4280.141 Safari/537.36",WebKit,Chrome,87.0.4280.141,Windows,10
94,1,null,"""",image-keyboard-response,150,430873,0.0-150.0,jspsych/disgustFaces/BM13DIS.JPG,"""",18,Cue,Test,null,"function(){
        return jsPsych.randomization.sampleWithoutReplacement(cueDuration, 1)[0]}","""","""","""","""","""","""","""","""","""",1/26/2021 1:13,67.83.183.0,"Mozilla/5.0 (Windows NT 10.0; Win64; x64) AppleWebKit/537.36 (KHTML, like Gecko) Chrome/87.0.4280.141 Safari/537.36",WebKit,Chrome,87.0.4280.141,Windows,10
94,1,null,"""",image-keyboard-response,151,430979,0.0-151.0,jspsych/neutralFaces/AM21NES.JPG,"""",18,backwardMask,Test,null,100,"""","""","""","""","""","""","""","""","""",1/26/2021 1:13,67.83.183.0,"Mozilla/5.0 (Windows NT 10.0; Win64; x64) AppleWebKit/537.36 (KHTML, like Gecko) Chrome/87.0.4280.141 Safari/537.36",WebKit,Chrome,87.0.4280.141,Windows,10
94,1,null,"""",html-keyboard-response,152,431987,0.0-152.0,"<div style=""font-size:60px;"">+</div>","""",18,fixationBtwnNeutralMaskAndPrompt,Test,null,1000,"""","""","""","""","""","""","""","""","""",1/26/2021 1:13,67.83.183.0,"Mozilla/5.0 (Windows NT 10.0; Win64; x64) AppleWebKit/537.36 (KHTML, like Gecko) Chrome/87.0.4280.141 Safari/537.36",WebKit,Chrome,87.0.4280.141,Windows,10
94,1,889.7099999,"""",html-slider-response,153,432879,0.0-153.0,"<img src='jspsych/CFDfaces/CFD-BM-041-035-N.jpg' height=""250px"">,</br><b>Keith</b>","""",18,ConfidenceQuery,Test,"""","""","""",50,50,"""",2,1,CFD-BM-041-035-N.jpg,Keith,"""",1/26/2021 1:13,67.83.183.0,"Mozilla/5.0 (Windows NT 10.0; Win64; x64) AppleWebKit/537.36 (KHTML, like Gecko) Chrome/87.0.4280.141 Safari/537.36",WebKit,Chrome,87.0.4280.141,Windows,10
94,1,null,"""",html-keyboard-response,154,433896,0.0-154.0,"<div style=""font-size:60px;"">+</div>","""",19,ITI,Test,null,1000,"""","""","""","""","""","""","""","""","""",1/26/2021 1:13,67.83.183.0,"Mozilla/5.0 (Windows NT 10.0; Win64; x64) AppleWebKit/537.36 (KHTML, like Gecko) Chrome/87.0.4280.141 Safari/537.36",WebKit,Chrome,87.0.4280.141,Windows,10
94,1,null,"""",image-keyboard-response,155,434154,0.0-155.0,jspsych/scrambledDisgustFaces/scrambledAM17DIS.JPG,"""",19,forwardMask,Test,null,250,d,"""","""","""","""","""","""","""","""",1/26/2021 1:13,67.83.183.0,"Mozilla/5.0 (Windows NT 10.0; Win64; x64) AppleWebKit/537.36 (KHTML, like Gecko) Chrome/87.0.4280.141 Safari/537.36",WebKit,Chrome,87.0.4280.141,Windows,10
94,1,null,"""",image-keyboard-response,156,434184,0.0-156.0,jspsych/disgustFaces/AM17DIS.JPG,"""",19,Cue,Test,null,"function(){
        return jsPsych.randomization.sampleWithoutReplacement(cueDuration, 1)[0]}","""","""","""","""","""","""","""","""","""",1/26/2021 1:13,67.83.183.0,"Mozilla/5.0 (Windows NT 10.0; Win64; x64) AppleWebKit/537.36 (KHTML, like Gecko) Chrome/87.0.4280.141 Safari/537.36",WebKit,Chrome,87.0.4280.141,Windows,10
94,1,null,"""",image-keyboard-response,157,434293,0.0-157.0,jspsych/neutralFaces/AM23NES.JPG,"""",19,backwardMask,Test,null,100,"""","""","""","""","""","""","""","""","""",1/26/2021 1:13,67.83.183.0,"Mozilla/5.0 (Windows NT 10.0; Win64; x64) AppleWebKit/537.36 (KHTML, like Gecko) Chrome/87.0.4280.141 Safari/537.36",WebKit,Chrome,87.0.4280.141,Windows,10
94,1,null,"""",html-keyboard-response,158,435301,0.0-158.0,"<div style=""font-size:60px;"">+</div>","""",19,fixationBtwnNeutralMaskAndPrompt,Test,null,1000,"""","""","""","""","""","""","""","""","""",1/26/2021 1:13,67.83.183.0,"Mozilla/5.0 (Windows NT 10.0; Win64; x64) AppleWebKit/537.36 (KHTML, like Gecko) Chrome/87.0.4280.141 Safari/537.36",WebKit,Chrome,87.0.4280.141,Windows,10
94,1,7442.635,"""",html-slider-response,159,442746,0.0-159.0,"<img src='jspsych/CFDfaces/CFD-AF-226-251-N.jpg' height=""250px"">,</br><b>Ashley</b>","""",19,ConfidenceQuery,Test,"""","""","""",50,50,"""",2,0,CFD-AF-226-251-N.jpg,Ashley,"""",1/26/2021 1:13,67.83.183.0,"Mozilla/5.0 (Windows NT 10.0; Win64; x64) AppleWebKit/537.36 (KHTML, like Gecko) Chrome/87.0.4280.141 Safari/537.36",WebKit,Chrome,87.0.4280.141,Windows,10
94,1,null,"""",html-keyboard-response,160,443759,0.0-160.0,"<div style=""font-size:60px;"">+</div>","""",20,ITI,Test,null,1000,"""","""","""","""","""","""","""","""","""",1/26/2021 1:13,67.83.183.0,"Mozilla/5.0 (Windows NT 10.0; Win64; x64) AppleWebKit/537.36 (KHTML, like Gecko) Chrome/87.0.4280.141 Safari/537.36",WebKit,Chrome,87.0.4280.141,Windows,10
94,1,null,"""",image-keyboard-response,161,444020,0.0-161.0,jspsych/scrambledDisgustFaces/scrambledAF33DIS.JPG,"""",20,forwardMask,Test,null,250,d,"""","""","""","""","""","""","""","""",1/26/2021 1:13,67.83.183.0,"Mozilla/5.0 (Windows NT 10.0; Win64; x64) AppleWebKit/537.36 (KHTML, like Gecko) Chrome/87.0.4280.141 Safari/537.36",WebKit,Chrome,87.0.4280.141,Windows,10
94,1,null,"""",image-keyboard-response,162,444046,0.0-162.0,jspsych/disgustFaces/AF33DIS.JPG,"""",20,Cue,Test,null,"function(){
        return jsPsych.randomization.sampleWithoutReplacement(cueDuration, 1)[0]}","""","""","""","""","""","""","""","""","""",1/26/2021 1:13,67.83.183.0,"Mozilla/5.0 (Windows NT 10.0; Win64; x64) AppleWebKit/537.36 (KHTML, like Gecko) Chrome/87.0.4280.141 Safari/537.36",WebKit,Chrome,87.0.4280.141,Windows,10
94,1,null,"""",image-keyboard-response,163,444150,0.0-163.0,jspsych/neutralFaces/AF11NES.JPG,"""",20,backwardMask,Test,null,100,"""","""","""","""","""","""","""","""","""",1/26/2021 1:13,67.83.183.0,"Mozilla/5.0 (Windows NT 10.0; Win64; x64) AppleWebKit/537.36 (KHTML, like Gecko) Chrome/87.0.4280.141 Safari/537.36",WebKit,Chrome,87.0.4280.141,Windows,10
94,1,null,"""",html-keyboard-response,164,445159,0.0-164.0,"<div style=""font-size:60px;"">+</div>","""",20,fixationBtwnNeutralMaskAndPrompt,Test,null,1000,"""","""","""","""","""","""","""","""","""",1/26/2021 1:13,67.83.183.0,"Mozilla/5.0 (Windows NT 10.0; Win64; x64) AppleWebKit/537.36 (KHTML, like Gecko) Chrome/87.0.4280.141 Safari/537.36",WebKit,Chrome,87.0.4280.141,Windows,10
94,1,2046.555,"""",html-slider-response,165,447208,0.0-165.0,"<img src='jspsych/CFDfaces/CFD-AF-239-171-N.jpg' height=""250px"">,</br><b>Amanda</b>","""",20,ConfidenceQuery,Test,"""","""","""",50,50,"""",2,0,CFD-AF-239-171-N.jpg,Amanda,"""",1/26/2021 1:13,67.83.183.0,"Mozilla/5.0 (Windows NT 10.0; Win64; x64) AppleWebKit/537.36 (KHTML, like Gecko) Chrome/87.0.4280.141 Safari/537.36",WebKit,Chrome,87.0.4280.141,Windows,10
94,1,null,"""",html-keyboard-response,166,448221,0.0-166.0,"<div style=""font-size:60px;"">+</div>","""",21,ITI,Test,null,1000,"""","""","""","""","""","""","""","""","""",1/26/2021 1:13,67.83.183.0,"Mozilla/5.0 (Windows NT 10.0; Win64; x64) AppleWebKit/537.36 (KHTML, like Gecko) Chrome/87.0.4280.141 Safari/537.36",WebKit,Chrome,87.0.4280.141,Windows,10
94,1,null,"""",image-keyboard-response,167,448488,0.0-167.0,jspsych/scrambledDisgustFaces/scrambledBF24DIS.JPG,"""",21,forwardMask,Test,null,250,d,"""","""","""","""","""","""","""","""",1/26/2021 1:13,67.83.183.0,"Mozilla/5.0 (Windows NT 10.0; Win64; x64) AppleWebKit/537.36 (KHTML, like Gecko) Chrome/87.0.4280.141 Safari/537.36",WebKit,Chrome,87.0.4280.141,Windows,10
94,1,null,"""",image-keyboard-response,168,448512,0.0-168.0,jspsych/disgustFaces/BF24DIS.JPG,"""",21,Cue,Test,null,"function(){
        return jsPsych.randomization.sampleWithoutReplacement(cueDuration, 1)[0]}","""","""","""","""","""","""","""","""","""",1/26/2021 1:13,67.83.183.0,"Mozilla/5.0 (Windows NT 10.0; Win64; x64) AppleWebKit/537.36 (KHTML, like Gecko) Chrome/87.0.4280.141 Safari/537.36",WebKit,Chrome,87.0.4280.141,Windows,10
94,1,null,"""",image-keyboard-response,169,448621,0.0-169.0,jspsych/neutralFaces/AF18NES.JPG,"""",21,backwardMask,Test,null,100,"""","""","""","""","""","""","""","""","""",1/26/2021 1:13,67.83.183.0,"Mozilla/5.0 (Windows NT 10.0; Win64; x64) AppleWebKit/537.36 (KHTML, like Gecko) Chrome/87.0.4280.141 Safari/537.36",WebKit,Chrome,87.0.4280.141,Windows,10
94,1,null,"""",html-keyboard-response,170,449628,0.0-170.0,"<div style=""font-size:60px;"">+</div>","""",21,fixationBtwnNeutralMaskAndPrompt,Test,null,1000,"""","""","""","""","""","""","""","""","""",1/26/2021 1:13,67.83.183.0,"Mozilla/5.0 (Windows NT 10.0; Win64; x64) AppleWebKit/537.36 (KHTML, like Gecko) Chrome/87.0.4280.141 Safari/537.36",WebKit,Chrome,87.0.4280.141,Windows,10
94,1,1187.28,"""",html-slider-response,171,450821,0.0-171.0,"<img src='jspsych/CFDfaces/CFD-WM-006-002-N.jpg' height=""250px"">,</br><b>Luis</b>","""",21,ConfidenceQuery,Test,"""","""","""",50,50,"""",2,1,CFD-WM-006-002-N.jpg,Luis,"""",1/26/2021 1:13,67.83.183.0,"Mozilla/5.0 (Windows NT 10.0; Win64; x64) AppleWebKit/537.36 (KHTML, like Gecko) Chrome/87.0.4280.141 Safari/537.36",WebKit,Chrome,87.0.4280.141,Windows,10
94,1,null,"""",html-keyboard-response,172,451829,0.0-172.0,"<div style=""font-size:60px;"">+</div>","""",22,ITI,Test,null,1000,"""","""","""","""","""","""","""","""","""",1/26/2021 1:13,67.83.183.0,"Mozilla/5.0 (Windows NT 10.0; Win64; x64) AppleWebKit/537.36 (KHTML, like Gecko) Chrome/87.0.4280.141 Safari/537.36",WebKit,Chrome,87.0.4280.141,Windows,10
94,1,null,"""",image-keyboard-response,173,452090,0.0-173.0,jspsych/scrambledDisgustFaces/scrambledAM28DIS.JPG,"""",22,forwardMask,Test,null,250,d,"""","""","""","""","""","""","""","""",1/26/2021 1:13,67.83.183.0,"Mozilla/5.0 (Windows NT 10.0; Win64; x64) AppleWebKit/537.36 (KHTML, like Gecko) Chrome/87.0.4280.141 Safari/537.36",WebKit,Chrome,87.0.4280.141,Windows,10
94,1,null,"""",image-keyboard-response,174,452117,0.0-174.0,jspsych/disgustFaces/AM28DIS.JPG,"""",22,Cue,Test,null,"function(){
        return jsPsych.randomization.sampleWithoutReplacement(cueDuration, 1)[0]}","""","""","""","""","""","""","""","""","""",1/26/2021 1:13,67.83.183.0,"Mozilla/5.0 (Windows NT 10.0; Win64; x64) AppleWebKit/537.36 (KHTML, like Gecko) Chrome/87.0.4280.141 Safari/537.36",WebKit,Chrome,87.0.4280.141,Windows,10
94,1,null,"""",image-keyboard-response,175,452234,0.0-175.0,jspsych/neutralFaces/AM26NES.JPG,"""",22,backwardMask,Test,null,100,"""","""","""","""","""","""","""","""","""",1/26/2021 1:13,67.83.183.0,"Mozilla/5.0 (Windows NT 10.0; Win64; x64) AppleWebKit/537.36 (KHTML, like Gecko) Chrome/87.0.4280.141 Safari/537.36",WebKit,Chrome,87.0.4280.141,Windows,10
94,1,null,"""",html-keyboard-response,176,453241,0.0-176.0,"<div style=""font-size:60px;"">+</div>","""",22,fixationBtwnNeutralMaskAndPrompt,Test,null,1000,"""","""","""","""","""","""","""","""","""",1/26/2021 1:13,67.83.183.0,"Mozilla/5.0 (Windows NT 10.0; Win64; x64) AppleWebKit/537.36 (KHTML, like Gecko) Chrome/87.0.4280.141 Safari/537.36",WebKit,Chrome,87.0.4280.141,Windows,10
94,1,2521.585,"""",html-slider-response,177,455764,0.0-177.0,"<img src='jspsych/CFDfaces/CFD-AF-233-190-N.jpg' height=""250px"">,</br><b>Vanessa</b>","""",22,ConfidenceQuery,Test,"""","""","""",50,50,"""",2,1,CFD-AF-233-190-N.jpg,Vanessa,"""",1/26/2021 1:13,67.83.183.0,"Mozilla/5.0 (Windows NT 10.0; Win64; x64) AppleWebKit/537.36 (KHTML, like Gecko) Chrome/87.0.4280.141 Safari/537.36",WebKit,Chrome,87.0.4280.141,Windows,10
94,1,null,"""",html-keyboard-response,178,456781,0.0-178.0,"<div style=""font-size:60px;"">+</div>","""",23,ITI,Test,null,1000,"""","""","""","""","""","""","""","""","""",1/26/2021 1:13,67.83.183.0,"Mozilla/5.0 (Windows NT 10.0; Win64; x64) AppleWebKit/537.36 (KHTML, like Gecko) Chrome/87.0.4280.141 Safari/537.36",WebKit,Chrome,87.0.4280.141,Windows,10
94,1,null,"""",image-keyboard-response,179,457048,0.0-179.0,jspsych/scrambledDisgustFaces/scrambledBM32DIS.JPG,"""",23,forwardMask,Test,null,250,d,"""","""","""","""","""","""","""","""",1/26/2021 1:13,67.83.183.0,"Mozilla/5.0 (Windows NT 10.0; Win64; x64) AppleWebKit/537.36 (KHTML, like Gecko) Chrome/87.0.4280.141 Safari/537.36",WebKit,Chrome,87.0.4280.141,Windows,10
94,1,null,"""",image-keyboard-response,180,457071,0.0-180.0,jspsych/disgustFaces/BM32DIS.JPG,"""",23,Cue,Test,null,"function(){
        return jsPsych.randomization.sampleWithoutReplacement(cueDuration, 1)[0]}","""","""","""","""","""","""","""","""","""",1/26/2021 1:13,67.83.183.0,"Mozilla/5.0 (Windows NT 10.0; Win64; x64) AppleWebKit/537.36 (KHTML, like Gecko) Chrome/87.0.4280.141 Safari/537.36",WebKit,Chrome,87.0.4280.141,Windows,10
94,1,null,"""",image-keyboard-response,181,457180,0.0-181.0,jspsych/neutralFaces/AF25NES.JPG,"""",23,backwardMask,Test,null,100,"""","""","""","""","""","""","""","""","""",1/26/2021 1:13,67.83.183.0,"Mozilla/5.0 (Windows NT 10.0; Win64; x64) AppleWebKit/537.36 (KHTML, like Gecko) Chrome/87.0.4280.141 Safari/537.36",WebKit,Chrome,87.0.4280.141,Windows,10
94,1,null,"""",html-keyboard-response,182,458185,0.0-182.0,"<div style=""font-size:60px;"">+</div>","""",23,fixationBtwnNeutralMaskAndPrompt,Test,null,1000,"""","""","""","""","""","""","""","""","""",1/26/2021 1:13,67.83.183.0,"Mozilla/5.0 (Windows NT 10.0; Win64; x64) AppleWebKit/537.36 (KHTML, like Gecko) Chrome/87.0.4280.141 Safari/537.36",WebKit,Chrome,87.0.4280.141,Windows,10
94,1,12830.845,"""",html-slider-response,183,471019,0.0-183.0,"<img src='jspsych/CFDfaces/CFD-LM-224-162-N.jpg' height=""250px"">,</br><b>Paul</b>","""",23,ConfidenceQuery,Test,"""","""","""",50,50,"""",2,0,CFD-LM-224-162-N.jpg,Paul,"""",1/26/2021 1:13,67.83.183.0,"Mozilla/5.0 (Windows NT 10.0; Win64; x64) AppleWebKit/537.36 (KHTML, like Gecko) Chrome/87.0.4280.141 Safari/537.36",WebKit,Chrome,87.0.4280.141,Windows,10
94,1,null,"""",html-keyboard-response,184,472039,0.0-184.0,"<div style=""font-size:60px;"">+</div>","""",24,ITI,Test,null,1000,"""","""","""","""","""","""","""","""","""",1/26/2021 1:13,67.83.183.0,"Mozilla/5.0 (Windows NT 10.0; Win64; x64) AppleWebKit/537.36 (KHTML, like Gecko) Chrome/87.0.4280.141 Safari/537.36",WebKit,Chrome,87.0.4280.141,Windows,10
94,1,null,"""",image-keyboard-response,185,472300,0.0-185.0,jspsych/scrambledDisgustFaces/scrambledBF02DIS.JPG,"""",24,forwardMask,Test,null,250,d,"""","""","""","""","""","""","""","""",1/26/2021 1:13,67.83.183.0,"Mozilla/5.0 (Windows NT 10.0; Win64; x64) AppleWebKit/537.36 (KHTML, like Gecko) Chrome/87.0.4280.141 Safari/537.36",WebKit,Chrome,87.0.4280.141,Windows,10
94,1,null,"""",image-keyboard-response,186,472331,0.0-186.0,jspsych/disgustFaces/BF02DIS.JPG,"""",24,Cue,Test,null,"function(){
        return jsPsych.randomization.sampleWithoutReplacement(cueDuration, 1)[0]}","""","""","""","""","""","""","""","""","""",1/26/2021 1:13,67.83.183.0,"Mozilla/5.0 (Windows NT 10.0; Win64; x64) AppleWebKit/537.36 (KHTML, like Gecko) Chrome/87.0.4280.141 Safari/537.36",WebKit,Chrome,87.0.4280.141,Windows,10
94,1,null,"""",image-keyboard-response,187,472438,0.0-187.0,jspsych/neutralFaces/BF03NES.JPG,"""",24,backwardMask,Test,null,100,"""","""","""","""","""","""","""","""","""",1/26/2021 1:13,67.83.183.0,"Mozilla/5.0 (Windows NT 10.0; Win64; x64) AppleWebKit/537.36 (KHTML, like Gecko) Chrome/87.0.4280.141 Safari/537.36",WebKit,Chrome,87.0.4280.141,Windows,10
94,1,null,"""",html-keyboard-response,188,473449,0.0-188.0,"<div style=""font-size:60px;"">+</div>","""",24,fixationBtwnNeutralMaskAndPrompt,Test,null,1000,"""","""","""","""","""","""","""","""","""",1/26/2021 1:13,67.83.183.0,"Mozilla/5.0 (Windows NT 10.0; Win64; x64) AppleWebKit/537.36 (KHTML, like Gecko) Chrome/87.0.4280.141 Safari/537.36",WebKit,Chrome,87.0.4280.141,Windows,10
94,1,12119.775,"""",html-slider-response,189,485572,0.0-189.0,"<img src='jspsych/CFDfaces/CFD-BF-023-010-N.jpg' height=""250px"">,</br><b>Nicole</b>","""",24,ConfidenceQuery,Test,"""","""","""",50,50,"""",2,0,CFD-BF-023-010-N.jpg,Nicole,"""",1/26/2021 1:13,67.83.183.0,"Mozilla/5.0 (Windows NT 10.0; Win64; x64) AppleWebKit/537.36 (KHTML, like Gecko) Chrome/87.0.4280.141 Safari/537.36",WebKit,Chrome,87.0.4280.141,Windows,10
94,1,null,"""",html-keyboard-response,190,486584,0.0-190.0,"<div style=""font-size:60px;"">+</div>","""",25,ITI,Test,null,1000,"""","""","""","""","""","""","""","""","""",1/26/2021 1:13,67.83.183.0,"Mozilla/5.0 (Windows NT 10.0; Win64; x64) AppleWebKit/537.36 (KHTML, like Gecko) Chrome/87.0.4280.141 Safari/537.36",WebKit,Chrome,87.0.4280.141,Windows,10
94,1,null,"""",image-keyboard-response,191,486850,0.0-191.0,jspsych/scrambledDisgustFaces/scrambledAM04DIS.JPG,"""",25,forwardMask,Test,null,250,d,"""","""","""","""","""","""","""","""",1/26/2021 1:13,67.83.183.0,"Mozilla/5.0 (Windows NT 10.0; Win64; x64) AppleWebKit/537.36 (KHTML, like Gecko) Chrome/87.0.4280.141 Safari/537.36",WebKit,Chrome,87.0.4280.141,Windows,10
94,1,null,"""",image-keyboard-response,192,486876,0.0-192.0,jspsych/disgustFaces/AM04DIS.JPG,"""",25,Cue,Test,null,"function(){
        return jsPsych.randomization.sampleWithoutReplacement(cueDuration, 1)[0]}","""","""","""","""","""","""","""","""","""",1/26/2021 1:13,67.83.183.0,"Mozilla/5.0 (Windows NT 10.0; Win64; x64) AppleWebKit/537.36 (KHTML, like Gecko) Chrome/87.0.4280.141 Safari/537.36",WebKit,Chrome,87.0.4280.141,Windows,10
94,1,null,"""",image-keyboard-response,193,486989,0.0-193.0,jspsych/neutralFaces/BM04NES.JPG,"""",25,backwardMask,Test,null,100,"""","""","""","""","""","""","""","""","""",1/26/2021 1:13,67.83.183.0,"Mozilla/5.0 (Windows NT 10.0; Win64; x64) AppleWebKit/537.36 (KHTML, like Gecko) Chrome/87.0.4280.141 Safari/537.36",WebKit,Chrome,87.0.4280.141,Windows,10
94,1,null,"""",html-keyboard-response,194,487999,0.0-194.0,"<div style=""font-size:60px;"">+</div>","""",25,fixationBtwnNeutralMaskAndPrompt,Test,null,1000,"""","""","""","""","""","""","""","""","""",1/26/2021 1:13,67.83.183.0,"Mozilla/5.0 (Windows NT 10.0; Win64; x64) AppleWebKit/537.36 (KHTML, like Gecko) Chrome/87.0.4280.141 Safari/537.36",WebKit,Chrome,87.0.4280.141,Windows,10
94,1,1307.275,"""",html-slider-response,195,489309,0.0-195.0,"<img src='jspsych/CFDfaces/CFD-BF-004-014-N.jpg' height=""250px"">,</br><b>Courtney</b>","""",25,ConfidenceQuery,Test,"""","""","""",50,50,"""",2,0,CFD-BF-004-014-N.jpg,Courtney,"""",1/26/2021 1:13,67.83.183.0,"Mozilla/5.0 (Windows NT 10.0; Win64; x64) AppleWebKit/537.36 (KHTML, like Gecko) Chrome/87.0.4280.141 Safari/537.36",WebKit,Chrome,87.0.4280.141,Windows,10
94,1,null,"""",html-keyboard-response,196,490330,0.0-196.0,"<div style=""font-size:60px;"">+</div>","""",26,ITI,Test,null,1000,"""","""","""","""","""","""","""","""","""",1/26/2021 1:13,67.83.183.0,"Mozilla/5.0 (Windows NT 10.0; Win64; x64) AppleWebKit/537.36 (KHTML, like Gecko) Chrome/87.0.4280.141 Safari/537.36",WebKit,Chrome,87.0.4280.141,Windows,10
94,1,null,"""",image-keyboard-response,197,490587,0.0-197.0,jspsych/scrambledDisgustFaces/scrambledBF24DIS.JPG,"""",26,forwardMask,Test,null,250,d,"""","""","""","""","""","""","""","""",1/26/2021 1:13,67.83.183.0,"Mozilla/5.0 (Windows NT 10.0; Win64; x64) AppleWebKit/537.36 (KHTML, like Gecko) Chrome/87.0.4280.141 Safari/537.36",WebKit,Chrome,87.0.4280.141,Windows,10
94,1,null,"""",image-keyboard-response,198,490614,0.0-198.0,jspsych/disgustFaces/BF24DIS.JPG,"""",26,Cue,Test,null,"function(){
        return jsPsych.randomization.sampleWithoutReplacement(cueDuration, 1)[0]}","""","""","""","""","""","""","""","""","""",1/26/2021 1:13,67.83.183.0,"Mozilla/5.0 (Windows NT 10.0; Win64; x64) AppleWebKit/537.36 (KHTML, like Gecko) Chrome/87.0.4280.141 Safari/537.36",WebKit,Chrome,87.0.4280.141,Windows,10
94,1,null,"""",image-keyboard-response,199,490730,0.0-199.0,jspsych/neutralFaces/BF24NES.JPG,"""",26,backwardMask,Test,null,100,"""","""","""","""","""","""","""","""","""",1/26/2021 1:13,67.83.183.0,"Mozilla/5.0 (Windows NT 10.0; Win64; x64) AppleWebKit/537.36 (KHTML, like Gecko) Chrome/87.0.4280.141 Safari/537.36",WebKit,Chrome,87.0.4280.141,Windows,10
94,1,null,"""",html-keyboard-response,200,491741,0.0-200.0,"<div style=""font-size:60px;"">+</div>","""",26,fixationBtwnNeutralMaskAndPrompt,Test,null,1000,"""","""","""","""","""","""","""","""","""",1/26/2021 1:13,67.83.183.0,"Mozilla/5.0 (Windows NT 10.0; Win64; x64) AppleWebKit/537.36 (KHTML, like Gecko) Chrome/87.0.4280.141 Safari/537.36",WebKit,Chrome,87.0.4280.141,Windows,10
94,1,1719.235,"""",html-slider-response,201,493462,0.0-201.0,"<img src='jspsych/CFDfaces/CFD-AF-235-170-N.jpg' height=""250px"">,</br><b>Christina</b>","""",26,ConfidenceQuery,Test,"""","""","""",50,50,"""",2,0,CFD-AF-235-170-N.jpg,Christina,"""",1/26/2021 1:13,67.83.183.0,"Mozilla/5.0 (Windows NT 10.0; Win64; x64) AppleWebKit/537.36 (KHTML, like Gecko) Chrome/87.0.4280.141 Safari/537.36",WebKit,Chrome,87.0.4280.141,Windows,10
94,1,null,"""",html-keyboard-response,202,494476,0.0-202.0,"<div style=""font-size:60px;"">+</div>","""",27,ITI,Test,null,1000,"""","""","""","""","""","""","""","""","""",1/26/2021 1:13,67.83.183.0,"Mozilla/5.0 (Windows NT 10.0; Win64; x64) AppleWebKit/537.36 (KHTML, like Gecko) Chrome/87.0.4280.141 Safari/537.36",WebKit,Chrome,87.0.4280.141,Windows,10
94,1,null,"""",image-keyboard-response,203,494742,0.0-203.0,jspsych/scrambledDisgustFaces/scrambledBF34DIS.JPG,"""",27,forwardMask,Test,null,250,d,"""","""","""","""","""","""","""","""",1/26/2021 1:13,67.83.183.0,"Mozilla/5.0 (Windows NT 10.0; Win64; x64) AppleWebKit/537.36 (KHTML, like Gecko) Chrome/87.0.4280.141 Safari/537.36",WebKit,Chrome,87.0.4280.141,Windows,10
94,1,null,"""",image-keyboard-response,204,494764,0.0-204.0,jspsych/disgustFaces/BF34DIS.JPG,"""",27,Cue,Test,null,"function(){
        return jsPsych.randomization.sampleWithoutReplacement(cueDuration, 1)[0]}","""","""","""","""","""","""","""","""","""",1/26/2021 1:13,67.83.183.0,"Mozilla/5.0 (Windows NT 10.0; Win64; x64) AppleWebKit/537.36 (KHTML, like Gecko) Chrome/87.0.4280.141 Safari/537.36",WebKit,Chrome,87.0.4280.141,Windows,10
94,1,null,"""",image-keyboard-response,205,494876,0.0-205.0,jspsych/neutralFaces/BM12NES.JPG,"""",27,backwardMask,Test,null,100,"""","""","""","""","""","""","""","""","""",1/26/2021 1:13,67.83.183.0,"Mozilla/5.0 (Windows NT 10.0; Win64; x64) AppleWebKit/537.36 (KHTML, like Gecko) Chrome/87.0.4280.141 Safari/537.36",WebKit,Chrome,87.0.4280.141,Windows,10
94,1,null,"""",html-keyboard-response,206,495883,0.0-206.0,"<div style=""font-size:60px;"">+</div>","""",27,fixationBtwnNeutralMaskAndPrompt,Test,null,1000,"""","""","""","""","""","""","""","""","""",1/26/2021 1:13,67.83.183.0,"Mozilla/5.0 (Windows NT 10.0; Win64; x64) AppleWebKit/537.36 (KHTML, like Gecko) Chrome/87.0.4280.141 Safari/537.36",WebKit,Chrome,87.0.4280.141,Windows,10
94,1,10587.73,"""",html-slider-response,207,506500,0.0-207.0,"<img src='jspsych/CFDfaces/CFD-BF-016-017-N.jpg' height=""250px"">,</br><b>Amber</b>","""",27,ConfidenceQuery,Test,"""","""","""",50,50,"""",2,1,CFD-BF-016-017-N.jpg,Amber,"""",1/26/2021 1:13,67.83.183.0,"Mozilla/5.0 (Windows NT 10.0; Win64; x64) AppleWebKit/537.36 (KHTML, like Gecko) Chrome/87.0.4280.141 Safari/537.36",WebKit,Chrome,87.0.4280.141,Windows,10
94,1,null,"""",html-keyboard-response,208,507514,0.0-208.0,"<div style=""font-size:60px;"">+</div>","""",28,ITI,Test,null,1000,"""","""","""","""","""","""","""","""","""",1/26/2021 1:13,67.83.183.0,"Mozilla/5.0 (Windows NT 10.0; Win64; x64) AppleWebKit/537.36 (KHTML, like Gecko) Chrome/87.0.4280.141 Safari/537.36",WebKit,Chrome,87.0.4280.141,Windows,10
94,1,null,"""",image-keyboard-response,209,507779,0.0-209.0,jspsych/scrambledDisgustFaces/scrambledBM34DIS.JPG,"""",28,forwardMask,Test,null,250,d,"""","""","""","""","""","""","""","""",1/26/2021 1:13,67.83.183.0,"Mozilla/5.0 (Windows NT 10.0; Win64; x64) AppleWebKit/537.36 (KHTML, like Gecko) Chrome/87.0.4280.141 Safari/537.36",WebKit,Chrome,87.0.4280.141,Windows,10
94,1,null,"""",image-keyboard-response,210,507805,0.0-210.0,jspsych/disgustFaces/BM34DIS.JPG,"""",28,Cue,Test,null,"function(){
        return jsPsych.randomization.sampleWithoutReplacement(cueDuration, 1)[0]}","""","""","""","""","""","""","""","""","""",1/26/2021 1:13,67.83.183.0,"Mozilla/5.0 (Windows NT 10.0; Win64; x64) AppleWebKit/537.36 (KHTML, like Gecko) Chrome/87.0.4280.141 Safari/537.36",WebKit,Chrome,87.0.4280.141,Windows,10
94,1,null,"""",image-keyboard-response,211,507913,0.0-211.0,jspsych/neutralFaces/AM22NES.JPG,"""",28,backwardMask,Test,null,100,"""","""","""","""","""","""","""","""","""",1/26/2021 1:13,67.83.183.0,"Mozilla/5.0 (Windows NT 10.0; Win64; x64) AppleWebKit/537.36 (KHTML, like Gecko) Chrome/87.0.4280.141 Safari/537.36",WebKit,Chrome,87.0.4280.141,Windows,10
94,1,null,"""",html-keyboard-response,212,508918,0.0-212.0,"<div style=""font-size:60px;"">+</div>","""",28,fixationBtwnNeutralMaskAndPrompt,Test,null,1000,"""","""","""","""","""","""","""","""","""",1/26/2021 1:13,67.83.183.0,"Mozilla/5.0 (Windows NT 10.0; Win64; x64) AppleWebKit/537.36 (KHTML, like Gecko) Chrome/87.0.4280.141 Safari/537.36",WebKit,Chrome,87.0.4280.141,Windows,10
94,1,15795.88,"""",html-slider-response,213,524718,0.0-213.0,"<img src='jspsych/CFDfaces/CFD-BF-001-025-N.jpg' height=""250px"">,</br><b>Kelsey</b>","""",28,ConfidenceQuery,Test,"""","""","""",50,50,"""",2,1,CFD-BF-001-025-N.jpg,Kelsey,"""",1/26/2021 1:13,67.83.183.0,"Mozilla/5.0 (Windows NT 10.0; Win64; x64) AppleWebKit/537.36 (KHTML, like Gecko) Chrome/87.0.4280.141 Safari/537.36",WebKit,Chrome,87.0.4280.141,Windows,10
94,1,null,"""",html-keyboard-response,214,525736,0.0-214.0,"<div style=""font-size:60px;"">+</div>","""",29,ITI,Test,null,1000,"""","""","""","""","""","""","""","""","""",1/26/2021 1:13,67.83.183.0,"Mozilla/5.0 (Windows NT 10.0; Win64; x64) AppleWebKit/537.36 (KHTML, like Gecko) Chrome/87.0.4280.141 Safari/537.36",WebKit,Chrome,87.0.4280.141,Windows,10
94,1,null,"""",image-keyboard-response,215,525996,0.0-215.0,jspsych/scrambledDisgustFaces/scrambledAM30DIS.JPG,"""",29,forwardMask,Test,null,250,d,"""","""","""","""","""","""","""","""",1/26/2021 1:13,67.83.183.0,"Mozilla/5.0 (Windows NT 10.0; Win64; x64) AppleWebKit/537.36 (KHTML, like Gecko) Chrome/87.0.4280.141 Safari/537.36",WebKit,Chrome,87.0.4280.141,Windows,10
94,1,null,"""",image-keyboard-response,216,526015,0.0-216.0,jspsych/disgustFaces/AM30DIS.JPG,"""",29,Cue,Test,null,"function(){
        return jsPsych.randomization.sampleWithoutReplacement(cueDuration, 1)[0]}","""","""","""","""","""","""","""","""","""",1/26/2021 1:13,67.83.183.0,"Mozilla/5.0 (Windows NT 10.0; Win64; x64) AppleWebKit/537.36 (KHTML, like Gecko) Chrome/87.0.4280.141 Safari/537.36",WebKit,Chrome,87.0.4280.141,Windows,10
94,1,null,"""",image-keyboard-response,217,526128,0.0-217.0,jspsych/neutralFaces/AF07NES.JPG,"""",29,backwardMask,Test,null,100,"""","""","""","""","""","""","""","""","""",1/26/2021 1:13,67.83.183.0,"Mozilla/5.0 (Windows NT 10.0; Win64; x64) AppleWebKit/537.36 (KHTML, like Gecko) Chrome/87.0.4280.141 Safari/537.36",WebKit,Chrome,87.0.4280.141,Windows,10
94,1,null,"""",html-keyboard-response,218,527144,0.0-218.0,"<div style=""font-size:60px;"">+</div>","""",29,fixationBtwnNeutralMaskAndPrompt,Test,null,1000,"""","""","""","""","""","""","""","""","""",1/26/2021 1:13,67.83.183.0,"Mozilla/5.0 (Windows NT 10.0; Win64; x64) AppleWebKit/537.36 (KHTML, like Gecko) Chrome/87.0.4280.141 Safari/537.36",WebKit,Chrome,87.0.4280.141,Windows,10
94,1,2218.605,"""",html-slider-response,219,529366,0.0-219.0,"<img src='jspsych/CFDfaces/CFD-AM-220-134-N.jpg' height=""250px"">,</br><b>Nicholas</b>","""",29,ConfidenceQuery,Test,"""","""","""",50,50,"""",2,0,CFD-AM-220-134-N.jpg,Nicholas,"""",1/26/2021 1:13,67.83.183.0,"Mozilla/5.0 (Windows NT 10.0; Win64; x64) AppleWebKit/537.36 (KHTML, like Gecko) Chrome/87.0.4280.141 Safari/537.36",WebKit,Chrome,87.0.4280.141,Windows,10
94,1,null,"""",html-keyboard-response,220,530380,0.0-220.0,"<div style=""font-size:60px;"">+</div>","""",30,ITI,Test,null,1000,"""","""","""","""","""","""","""","""","""",1/26/2021 1:13,67.83.183.0,"Mozilla/5.0 (Windows NT 10.0; Win64; x64) AppleWebKit/537.36 (KHTML, like Gecko) Chrome/87.0.4280.141 Safari/537.36",WebKit,Chrome,87.0.4280.141,Windows,10
94,1,null,"""",image-keyboard-response,221,530641,0.0-221.0,jspsych/scrambledDisgustFaces/scrambledAF34DIS.JPG,"""",30,forwardMask,Test,null,250,d,"""","""","""","""","""","""","""","""",1/26/2021 1:13,67.83.183.0,"Mozilla/5.0 (Windows NT 10.0; Win64; x64) AppleWebKit/537.36 (KHTML, like Gecko) Chrome/87.0.4280.141 Safari/537.36",WebKit,Chrome,87.0.4280.141,Windows,10
94,1,null,"""",image-keyboard-response,222,530663,0.0-222.0,jspsych/disgustFaces/AF34DIS.JPG,"""",30,Cue,Test,null,"function(){
        return jsPsych.randomization.sampleWithoutReplacement(cueDuration, 1)[0]}","""","""","""","""","""","""","""","""","""",1/26/2021 1:13,67.83.183.0,"Mozilla/5.0 (Windows NT 10.0; Win64; x64) AppleWebKit/537.36 (KHTML, like Gecko) Chrome/87.0.4280.141 Safari/537.36",WebKit,Chrome,87.0.4280.141,Windows,10
94,1,null,"""",image-keyboard-response,223,530773,0.0-223.0,jspsych/neutralFaces/AF09NES.JPG,"""",30,backwardMask,Test,null,100,"""","""","""","""","""","""","""","""","""",1/26/2021 1:13,67.83.183.0,"Mozilla/5.0 (Windows NT 10.0; Win64; x64) AppleWebKit/537.36 (KHTML, like Gecko) Chrome/87.0.4280.141 Safari/537.36",WebKit,Chrome,87.0.4280.141,Windows,10
94,1,null,"""",html-keyboard-response,224,531777,0.0-224.0,"<div style=""font-size:60px;"">+</div>","""",30,fixationBtwnNeutralMaskAndPrompt,Test,null,1000,"""","""","""","""","""","""","""","""","""",1/26/2021 1:13,67.83.183.0,"Mozilla/5.0 (Windows NT 10.0; Win64; x64) AppleWebKit/537.36 (KHTML, like Gecko) Chrome/87.0.4280.141 Safari/537.36",WebKit,Chrome,87.0.4280.141,Windows,10
94,1,7951.355,"""",html-slider-response,225,539732,0.0-225.0,"<img src='jspsych/CFDfaces/CFD-BF-025-002-N.jpg' height=""250px"">,</br><b>Erika</b>","""",30,ConfidenceQuery,Test,"""","""","""",50,50,"""",2,1,CFD-BF-025-002-N.jpg,Erika,"""",1/26/2021 1:13,67.83.183.0,"Mozilla/5.0 (Windows NT 10.0; Win64; x64) AppleWebKit/537.36 (KHTML, like Gecko) Chrome/87.0.4280.141 Safari/537.36",WebKit,Chrome,87.0.4280.141,Windows,10
94,1,null,"""",html-keyboard-response,226,540746,0.0-226.0,"<div style=""font-size:60px;"">+</div>","""",31,ITI,Test,null,1000,"""","""","""","""","""","""","""","""","""",1/26/2021 1:13,67.83.183.0,"Mozilla/5.0 (Windows NT 10.0; Win64; x64) AppleWebKit/537.36 (KHTML, like Gecko) Chrome/87.0.4280.141 Safari/537.36",WebKit,Chrome,87.0.4280.141,Windows,10
94,1,null,"""",image-keyboard-response,227,541013,0.0-227.0,jspsych/scrambledDisgustFaces/scrambledAM13DIS.JPG,"""",31,forwardMask,Test,null,250,d,"""","""","""","""","""","""","""","""",1/26/2021 1:13,67.83.183.0,"Mozilla/5.0 (Windows NT 10.0; Win64; x64) AppleWebKit/537.36 (KHTML, like Gecko) Chrome/87.0.4280.141 Safari/537.36",WebKit,Chrome,87.0.4280.141,Windows,10
94,1,null,"""",image-keyboard-response,228,541037,0.0-228.0,jspsych/disgustFaces/AM13DIS.JPG,"""",31,Cue,Test,null,"function(){
        return jsPsych.randomization.sampleWithoutReplacement(cueDuration, 1)[0]}","""","""","""","""","""","""","""","""","""",1/26/2021 1:13,67.83.183.0,"Mozilla/5.0 (Windows NT 10.0; Win64; x64) AppleWebKit/537.36 (KHTML, like Gecko) Chrome/87.0.4280.141 Safari/537.36",WebKit,Chrome,87.0.4280.141,Windows,10
94,1,null,"""",image-keyboard-response,229,541147,0.0-229.0,jspsych/neutralFaces/BF26NES.JPG,"""",31,backwardMask,Test,null,100,"""","""","""","""","""","""","""","""","""",1/26/2021 1:13,67.83.183.0,"Mozilla/5.0 (Windows NT 10.0; Win64; x64) AppleWebKit/537.36 (KHTML, like Gecko) Chrome/87.0.4280.141 Safari/537.36",WebKit,Chrome,87.0.4280.141,Windows,10
94,1,null,"""",html-keyboard-response,230,542154,0.0-230.0,"<div style=""font-size:60px;"">+</div>","""",31,fixationBtwnNeutralMaskAndPrompt,Test,null,1000,"""","""","""","""","""","""","""","""","""",1/26/2021 1:13,67.83.183.0,"Mozilla/5.0 (Windows NT 10.0; Win64; x64) AppleWebKit/537.36 (KHTML, like Gecko) Chrome/87.0.4280.141 Safari/537.36",WebKit,Chrome,87.0.4280.141,Windows,10
94,1,1297.625,"""",html-slider-response,231,543454,0.0-231.0,"<img src='jspsych/CFDfaces/CFD-LF-215-157-N.jpg' height=""250px"">,</br><b>Holly</b>","""",31,ConfidenceQuery,Test,"""","""","""",50,50,"""",2,1,CFD-LF-215-157-N.jpg,Holly,"""",1/26/2021 1:13,67.83.183.0,"Mozilla/5.0 (Windows NT 10.0; Win64; x64) AppleWebKit/537.36 (KHTML, like Gecko) Chrome/87.0.4280.141 Safari/537.36",WebKit,Chrome,87.0.4280.141,Windows,10
94,1,null,"""",html-keyboard-response,232,544468,0.0-232.0,"<div style=""font-size:60px;"">+</div>","""",32,ITI,Test,null,1000,"""","""","""","""","""","""","""","""","""",1/26/2021 1:13,67.83.183.0,"Mozilla/5.0 (Windows NT 10.0; Win64; x64) AppleWebKit/537.36 (KHTML, like Gecko) Chrome/87.0.4280.141 Safari/537.36",WebKit,Chrome,87.0.4280.141,Windows,10
94,1,null,"""",image-keyboard-response,233,544722,0.0-233.0,jspsych/scrambledDisgustFaces/scrambledAM28DIS.JPG,"""",32,forwardMask,Test,null,250,d,"""","""","""","""","""","""","""","""",1/26/2021 1:13,67.83.183.0,"Mozilla/5.0 (Windows NT 10.0; Win64; x64) AppleWebKit/537.36 (KHTML, like Gecko) Chrome/87.0.4280.141 Safari/537.36",WebKit,Chrome,87.0.4280.141,Windows,10
94,1,null,"""",image-keyboard-response,234,544743,0.0-234.0,jspsych/disgustFaces/AM28DIS.JPG,"""",32,Cue,Test,null,"function(){
        return jsPsych.randomization.sampleWithoutReplacement(cueDuration, 1)[0]}","""","""","""","""","""","""","""","""","""",1/26/2021 1:13,67.83.183.0,"Mozilla/5.0 (Windows NT 10.0; Win64; x64) AppleWebKit/537.36 (KHTML, like Gecko) Chrome/87.0.4280.141 Safari/537.36",WebKit,Chrome,87.0.4280.141,Windows,10
94,1,null,"""",image-keyboard-response,235,544859,0.0-235.0,jspsych/neutralFaces/AF20NES.JPG,"""",32,backwardMask,Test,null,100,"""","""","""","""","""","""","""","""","""",1/26/2021 1:13,67.83.183.0,"Mozilla/5.0 (Windows NT 10.0; Win64; x64) AppleWebKit/537.36 (KHTML, like Gecko) Chrome/87.0.4280.141 Safari/537.36",WebKit,Chrome,87.0.4280.141,Windows,10
94,1,null,"""",html-keyboard-response,236,545862,0.0-236.0,"<div style=""font-size:60px;"">+</div>","""",32,fixationBtwnNeutralMaskAndPrompt,Test,null,1000,"""","""","""","""","""","""","""","""","""",1/26/2021 1:13,67.83.183.0,"Mozilla/5.0 (Windows NT 10.0; Win64; x64) AppleWebKit/537.36 (KHTML, like Gecko) Chrome/87.0.4280.141 Safari/537.36",WebKit,Chrome,87.0.4280.141,Windows,10
94,1,4127.865,"""",html-slider-response,237,549993,0.0-237.0,"<img src='jspsych/CFDfaces/CFD-AF-240-206-N.jpg' height=""250px"">,</br><b>Julie</b>","""",32,ConfidenceQuery,Test,"""","""","""",50,50,"""",2,1,CFD-AF-240-206-N.jpg,Julie,"""",1/26/2021 1:13,67.83.183.0,"Mozilla/5.0 (Windows NT 10.0; Win64; x64) AppleWebKit/537.36 (KHTML, like Gecko) Chrome/87.0.4280.141 Safari/537.36",WebKit,Chrome,87.0.4280.141,Windows,10
94,1,null,"""",html-keyboard-response,238,551003,0.0-238.0,"<div style=""font-size:60px;"">+</div>","""",33,ITI,Test,null,1000,"""","""","""","""","""","""","""","""","""",1/26/2021 1:13,67.83.183.0,"Mozilla/5.0 (Windows NT 10.0; Win64; x64) AppleWebKit/537.36 (KHTML, like Gecko) Chrome/87.0.4280.141 Safari/537.36",WebKit,Chrome,87.0.4280.141,Windows,10
94,1,null,"""",image-keyboard-response,239,551269,0.0-239.0,jspsych/scrambledDisgustFaces/scrambledBF29DIS.JPG,"""",33,forwardMask,Test,null,250,d,"""","""","""","""","""","""","""","""",1/26/2021 1:13,67.83.183.0,"Mozilla/5.0 (Windows NT 10.0; Win64; x64) AppleWebKit/537.36 (KHTML, like Gecko) Chrome/87.0.4280.141 Safari/537.36",WebKit,Chrome,87.0.4280.141,Windows,10
94,1,null,"""",image-keyboard-response,240,551294,0.0-240.0,jspsych/disgustFaces/BF29DIS.JPG,"""",33,Cue,Test,null,"function(){
        return jsPsych.randomization.sampleWithoutReplacement(cueDuration, 1)[0]}","""","""","""","""","""","""","""","""","""",1/26/2021 1:13,67.83.183.0,"Mozilla/5.0 (Windows NT 10.0; Win64; x64) AppleWebKit/537.36 (KHTML, like Gecko) Chrome/87.0.4280.141 Safari/537.36",WebKit,Chrome,87.0.4280.141,Windows,10
94,1,null,"""",image-keyboard-response,241,551403,0.0-241.0,jspsych/neutralFaces/AF28NES.JPG,"""",33,backwardMask,Test,null,100,"""","""","""","""","""","""","""","""","""",1/26/2021 1:13,67.83.183.0,"Mozilla/5.0 (Windows NT 10.0; Win64; x64) AppleWebKit/537.36 (KHTML, like Gecko) Chrome/87.0.4280.141 Safari/537.36",WebKit,Chrome,87.0.4280.141,Windows,10
94,1,null,"""",html-keyboard-response,242,552410,0.0-242.0,"<div style=""font-size:60px;"">+</div>","""",33,fixationBtwnNeutralMaskAndPrompt,Test,null,1000,"""","""","""","""","""","""","""","""","""",1/26/2021 1:13,67.83.183.0,"Mozilla/5.0 (Windows NT 10.0; Win64; x64) AppleWebKit/537.36 (KHTML, like Gecko) Chrome/87.0.4280.141 Safari/537.36",WebKit,Chrome,87.0.4280.141,Windows,10
94,1,2589.695,"""",html-slider-response,243,555003,0.0-243.0,"<img src='jspsych/CFDfaces/CFD-WF-018-017-N.jpg' height=""250px"">,</br><b>Whitney</b>","""",33,ConfidenceQuery,Test,"""","""","""",50,50,"""",2,1,CFD-WF-018-017-N.jpg,Whitney,"""",1/26/2021 1:13,67.83.183.0,"Mozilla/5.0 (Windows NT 10.0; Win64; x64) AppleWebKit/537.36 (KHTML, like Gecko) Chrome/87.0.4280.141 Safari/537.36",WebKit,Chrome,87.0.4280.141,Windows,10
94,1,null,"""",html-keyboard-response,244,556016,0.0-244.0,"<div style=""font-size:60px;"">+</div>","""",34,ITI,Test,null,1000,"""","""","""","""","""","""","""","""","""",1/26/2021 1:13,67.83.183.0,"Mozilla/5.0 (Windows NT 10.0; Win64; x64) AppleWebKit/537.36 (KHTML, like Gecko) Chrome/87.0.4280.141 Safari/537.36",WebKit,Chrome,87.0.4280.141,Windows,10
94,1,null,"""",image-keyboard-response,245,556277,0.0-245.0,jspsych/scrambledDisgustFaces/scrambledBF22DIS.JPG,"""",34,forwardMask,Test,null,250,d,"""","""","""","""","""","""","""","""",1/26/2021 1:13,67.83.183.0,"Mozilla/5.0 (Windows NT 10.0; Win64; x64) AppleWebKit/537.36 (KHTML, like Gecko) Chrome/87.0.4280.141 Safari/537.36",WebKit,Chrome,87.0.4280.141,Windows,10
94,1,null,"""",image-keyboard-response,246,556304,0.0-246.0,jspsych/disgustFaces/BF22DIS.JPG,"""",34,Cue,Test,null,"function(){
        return jsPsych.randomization.sampleWithoutReplacement(cueDuration, 1)[0]}","""","""","""","""","""","""","""","""","""",1/26/2021 1:13,67.83.183.0,"Mozilla/5.0 (Windows NT 10.0; Win64; x64) AppleWebKit/537.36 (KHTML, like Gecko) Chrome/87.0.4280.141 Safari/537.36",WebKit,Chrome,87.0.4280.141,Windows,10
94,1,null,"""",image-keyboard-response,247,556421,0.0-247.0,jspsych/neutralFaces/BM13NES.JPG,"""",34,backwardMask,Test,null,100,"""","""","""","""","""","""","""","""","""",1/26/2021 1:13,67.83.183.0,"Mozilla/5.0 (Windows NT 10.0; Win64; x64) AppleWebKit/537.36 (KHTML, like Gecko) Chrome/87.0.4280.141 Safari/537.36",WebKit,Chrome,87.0.4280.141,Windows,10
94,1,null,"""",html-keyboard-response,248,557433,0.0-248.0,"<div style=""font-size:60px;"">+</div>","""",34,fixationBtwnNeutralMaskAndPrompt,Test,null,1000,"""","""","""","""","""","""","""","""","""",1/26/2021 1:13,67.83.183.0,"Mozilla/5.0 (Windows NT 10.0; Win64; x64) AppleWebKit/537.36 (KHTML, like Gecko) Chrome/87.0.4280.141 Safari/537.36",WebKit,Chrome,87.0.4280.141,Windows,10
94,1,1195.665,"""",html-slider-response,249,558632,0.0-249.0,"<img src='jspsych/CFDfaces/CFD-LF-208-127-N.jpg' height=""250px"">,</br><b>Hannah</b>","""",34,ConfidenceQuery,Test,"""","""","""",50,50,"""",2,0,CFD-LF-208-127-N.jpg,Hannah,"""",1/26/2021 1:13,67.83.183.0,"Mozilla/5.0 (Windows NT 10.0; Win64; x64) AppleWebKit/537.36 (KHTML, like Gecko) Chrome/87.0.4280.141 Safari/537.36",WebKit,Chrome,87.0.4280.141,Windows,10
94,1,null,"""",html-keyboard-response,250,559645,0.0-250.0,"<div style=""font-size:60px;"">+</div>","""",35,ITI,Test,null,1000,"""","""","""","""","""","""","""","""","""",1/26/2021 1:13,67.83.183.0,"Mozilla/5.0 (Windows NT 10.0; Win64; x64) AppleWebKit/537.36 (KHTML, like Gecko) Chrome/87.0.4280.141 Safari/537.36",WebKit,Chrome,87.0.4280.141,Windows,10
94,1,null,"""",image-keyboard-response,251,559905,0.0-251.0,jspsych/scrambledDisgustFaces/scrambledBF33DIS.JPG,"""",35,forwardMask,Test,null,250,d,"""","""","""","""","""","""","""","""",1/26/2021 1:13,67.83.183.0,"Mozilla/5.0 (Windows NT 10.0; Win64; x64) AppleWebKit/537.36 (KHTML, like Gecko) Chrome/87.0.4280.141 Safari/537.36",WebKit,Chrome,87.0.4280.141,Windows,10
94,1,null,"""",image-keyboard-response,252,559928,0.0-252.0,jspsych/disgustFaces/BF33DIS.JPG,"""",35,Cue,Test,null,"function(){
        return jsPsych.randomization.sampleWithoutReplacement(cueDuration, 1)[0]}","""","""","""","""","""","""","""","""","""",1/26/2021 1:13,67.83.183.0,"Mozilla/5.0 (Windows NT 10.0; Win64; x64) AppleWebKit/537.36 (KHTML, like Gecko) Chrome/87.0.4280.141 Safari/537.36",WebKit,Chrome,87.0.4280.141,Windows,10
94,1,null,"""",image-keyboard-response,253,560036,0.0-253.0,jspsych/neutralFaces/AF30NES.JPG,"""",35,backwardMask,Test,null,100,"""","""","""","""","""","""","""","""","""",1/26/2021 1:13,67.83.183.0,"Mozilla/5.0 (Windows NT 10.0; Win64; x64) AppleWebKit/537.36 (KHTML, like Gecko) Chrome/87.0.4280.141 Safari/537.36",WebKit,Chrome,87.0.4280.141,Windows,10
94,1,null,"""",html-keyboard-response,254,561053,0.0-254.0,"<div style=""font-size:60px;"">+</div>","""",35,fixationBtwnNeutralMaskAndPrompt,Test,null,1000,"""","""","""","""","""","""","""","""","""",1/26/2021 1:13,67.83.183.0,"Mozilla/5.0 (Windows NT 10.0; Win64; x64) AppleWebKit/537.36 (KHTML, like Gecko) Chrome/87.0.4280.141 Safari/537.36",WebKit,Chrome,87.0.4280.141,Windows,10
94,1,4086.085,"""",html-slider-response,255,565142,0.0-255.0,"<img src='jspsych/CFDfaces/CFD-LM-209-111-N.jpg' height=""250px"">,</br><b>Bradley</b>","""",35,ConfidenceQuery,Test,"""","""","""",50,50,"""",2,1,CFD-LM-209-111-N.jpg,Bradley,"""",1/26/2021 1:13,67.83.183.0,"Mozilla/5.0 (Windows NT 10.0; Win64; x64) AppleWebKit/537.36 (KHTML, like Gecko) Chrome/87.0.4280.141 Safari/537.36",WebKit,Chrome,87.0.4280.141,Windows,10
