run_id,condition,rt,responses,trial_type,trial_index,time_elapsed,internal_node_id,stimulus,button_pressed,iTrial,Phase,ExperimentPhase,key_press,StimulusDurationSetting,correctResponse,slider_start,response,Rearranged,didSubjectEnterRearranged,rearranged,Face,Name,CharacterResponse,recorded_at,ip,user_agent,device,browser,browser_version,platform,platform_version
98,1,2822.73,"{""Q0"":""8""}",survey-text,0,2833,0.0-0.0,"""","""","""","""","""","""","""","""","""","""","""","""","""","""","""","""",1/26/2021 17:45,67.83.183.0,"Mozilla/5.0 (Windows NT 10.0; Win64; x64) AppleWebKit/537.36 (KHTML, like Gecko) Chrome/87.0.4280.141 Safari/537.36",WebKit,Chrome,87.0.4280.141,Windows,10
98,1,1479.04,"""",image-button-response,1,4352,0.0-1.0,directionsMemoryAssociation1.JPG,0,1,IntroDirections1,break,"""","""","""","""","""","""","""","""","""","""","""",1/26/2021 17:45,67.83.183.0,"Mozilla/5.0 (Windows NT 10.0; Win64; x64) AppleWebKit/537.36 (KHTML, like Gecko) Chrome/87.0.4280.141 Safari/537.36",WebKit,Chrome,87.0.4280.141,Windows,10
98,1,600.0900001,"""",image-button-response,2,4956,0.0-2.0,directionsMemoryAssociation2.JPG,0,1,IntroDirections2,break,"""","""","""","""","""","""","""","""","""","""","""",1/26/2021 17:45,67.83.183.0,"Mozilla/5.0 (Windows NT 10.0; Win64; x64) AppleWebKit/537.36 (KHTML, like Gecko) Chrome/87.0.4280.141 Safari/537.36",WebKit,Chrome,87.0.4280.141,Windows,10
98,1,3962.875,"""",html-keyboard-response,3,9964,0.0-3.0,"<p><b> Practice Set </b></p><img src='jspsych/CFDfaces/CFD-WM-232-070-N.jpg' height=""250px"">,</br><b>Patrick</b>","""",1,IntactFace,Practice,78,5000,"""","""","""","""","""","""","""","""","""",1/26/2021 17:45,67.83.183.0,"Mozilla/5.0 (Windows NT 10.0; Win64; x64) AppleWebKit/537.36 (KHTML, like Gecko) Chrome/87.0.4280.141 Safari/537.36",WebKit,Chrome,87.0.4280.141,Windows,10
98,1,null,"""",html-keyboard-response,4,10474,0.0-4.0,"<div style=""font-size:60px;"">+</div>","""",1,ITI,Practice,null,1000,"""","""","""","""","""","""","""","""","""",1/26/2021 17:45,67.83.183.0,"Mozilla/5.0 (Windows NT 10.0; Win64; x64) AppleWebKit/537.36 (KHTML, like Gecko) Chrome/87.0.4280.141 Safari/537.36",WebKit,Chrome,87.0.4280.141,Windows,10
98,1,null,"""",html-keyboard-response,5,15484,0.0-5.0,"<p><b> Practice Set </b></p><img src='jspsych/CFDfaces/CFD-WF-218-087-N.jpg' height=""250px"">,</br><b>Shannon</b>","""",2,IntactFace,Practice,null,5000,"""","""","""","""","""","""","""","""","""",1/26/2021 17:45,67.83.183.0,"Mozilla/5.0 (Windows NT 10.0; Win64; x64) AppleWebKit/537.36 (KHTML, like Gecko) Chrome/87.0.4280.141 Safari/537.36",WebKit,Chrome,87.0.4280.141,Windows,10
98,1,null,"""",html-keyboard-response,6,15993,0.0-6.0,"<div style=""font-size:60px;"">+</div>","""",2,ITI,Practice,null,1000,"""","""","""","""","""","""","""","""","""",1/26/2021 17:45,67.83.183.0,"Mozilla/5.0 (Windows NT 10.0; Win64; x64) AppleWebKit/537.36 (KHTML, like Gecko) Chrome/87.0.4280.141 Safari/537.36",WebKit,Chrome,87.0.4280.141,Windows,10
98,1,null,"""",html-keyboard-response,7,21005,0.0-7.0,"<p><b> Practice Set </b></p><img src='jspsych/CFDfaces/CFD-WF-220-101-N.jpg' height=""250px"">,</br><b>Lisa</b>","""",3,IntactFace,Practice,null,5000,"""","""","""","""","""","""","""","""","""",1/26/2021 17:45,67.83.183.0,"Mozilla/5.0 (Windows NT 10.0; Win64; x64) AppleWebKit/537.36 (KHTML, like Gecko) Chrome/87.0.4280.141 Safari/537.36",WebKit,Chrome,87.0.4280.141,Windows,10
98,1,null,"""",html-keyboard-response,8,21513,0.0-8.0,"<div style=""font-size:60px;"">+</div>","""",3,ITI,Practice,null,1000,"""","""","""","""","""","""","""","""","""",1/26/2021 17:45,67.83.183.0,"Mozilla/5.0 (Windows NT 10.0; Win64; x64) AppleWebKit/537.36 (KHTML, like Gecko) Chrome/87.0.4280.141 Safari/537.36",WebKit,Chrome,87.0.4280.141,Windows,10
98,1,null,"""",html-keyboard-response,9,26523,0.0-9.0,"<p><b> Practice Set </b></p><img src='jspsych/CFDfaces/CFD-WM-222-057-N.jpg' height=""250px"">,</br><b>Marcus</b>","""",4,IntactFace,Practice,null,5000,"""","""","""","""","""","""","""","""","""",1/26/2021 17:45,67.83.183.0,"Mozilla/5.0 (Windows NT 10.0; Win64; x64) AppleWebKit/537.36 (KHTML, like Gecko) Chrome/87.0.4280.141 Safari/537.36",WebKit,Chrome,87.0.4280.141,Windows,10
98,1,null,"""",html-keyboard-response,10,27030,0.0-10.0,"<div style=""font-size:60px;"">+</div>","""",4,ITI,Practice,null,1000,"""","""","""","""","""","""","""","""","""",1/26/2021 17:45,67.83.183.0,"Mozilla/5.0 (Windows NT 10.0; Win64; x64) AppleWebKit/537.36 (KHTML, like Gecko) Chrome/87.0.4280.141 Safari/537.36",WebKit,Chrome,87.0.4280.141,Windows,10
98,1,7171.495,"""",image-button-response,11,34204,0.0-11.0,directionsForTest.JPG,0,1,directionsForTest,break,"""","""","""","""","""","""","""","""","""","""","""",1/26/2021 17:45,67.83.183.0,"Mozilla/5.0 (Windows NT 10.0; Win64; x64) AppleWebKit/537.36 (KHTML, like Gecko) Chrome/87.0.4280.141 Safari/537.36",WebKit,Chrome,87.0.4280.141,Windows,10
98,1,10825.94,"""",image-button-response,12,45035,0.0-12.0,directionsForTest2.JPG,0,1,directionsForTest2,break,"""","""","""","""","""","""","""","""","""","""","""",1/26/2021 17:45,67.83.183.0,"Mozilla/5.0 (Windows NT 10.0; Win64; x64) AppleWebKit/537.36 (KHTML, like Gecko) Chrome/87.0.4280.141 Safari/537.36",WebKit,Chrome,87.0.4280.141,Windows,10
98,1,null,"""",html-keyboard-response,13,46041,0.0-13.0,"<div style=""font-size:60px;"">+</div>","""",1,ITI,Practice,null,1000,"""","""","""","""","""","""","""","""","""",1/26/2021 17:45,67.83.183.0,"Mozilla/5.0 (Windows NT 10.0; Win64; x64) AppleWebKit/537.36 (KHTML, like Gecko) Chrome/87.0.4280.141 Safari/537.36",WebKit,Chrome,87.0.4280.141,Windows,10
98,1,null,"""",image-keyboard-response,14,46304,0.0-14.0,jspsych/scrambledNeutralFaces/scrambledAM35NES.JPG,"""",1,forwardMask,Practice,null,250,n,"""","""","""","""","""","""","""","""",1/26/2021 17:45,67.83.183.0,"Mozilla/5.0 (Windows NT 10.0; Win64; x64) AppleWebKit/537.36 (KHTML, like Gecko) Chrome/87.0.4280.141 Safari/537.36",WebKit,Chrome,87.0.4280.141,Windows,10
98,1,null,"""",image-keyboard-response,15,46325,0.0-15.0,jspsych/neutralFaces/AM35NES.JPG,"""",1,Cue,Practice,null,"function(){
        return jsPsych.randomization.sampleWithoutReplacement(cueDuration, 1)[0]}","""","""","""","""","""","""","""","""","""",1/26/2021 17:45,67.83.183.0,"Mozilla/5.0 (Windows NT 10.0; Win64; x64) AppleWebKit/537.36 (KHTML, like Gecko) Chrome/87.0.4280.141 Safari/537.36",WebKit,Chrome,87.0.4280.141,Windows,10
98,1,null,"""",image-keyboard-response,16,46433,0.0-16.0,jspsych/neutralFaces/BF31NES.JPG,"""",1,backwardMask,Practice,null,100,"""","""","""","""","""","""","""","""","""",1/26/2021 17:45,67.83.183.0,"Mozilla/5.0 (Windows NT 10.0; Win64; x64) AppleWebKit/537.36 (KHTML, like Gecko) Chrome/87.0.4280.141 Safari/537.36",WebKit,Chrome,87.0.4280.141,Windows,10
98,1,null,"""",html-keyboard-response,17,47440,0.0-17.0,"<div style=""font-size:60px;"">+</div>","""",1,fixationBtwnNeutralMaskAndPrompt,Practice,null,1000,"""","""","""","""","""","""","""","""","""",1/26/2021 17:45,67.83.183.0,"Mozilla/5.0 (Windows NT 10.0; Win64; x64) AppleWebKit/537.36 (KHTML, like Gecko) Chrome/87.0.4280.141 Safari/537.36",WebKit,Chrome,87.0.4280.141,Windows,10
98,1,5399.655,"""",html-slider-response,18,52847,0.0-18.0,"<p><b> Practice Set </b></p><img src='jspsych/CFDfaces/CFD-WF-218-087-N.jpg'height=""250px""></br><b>Shannon</b>","""",1,ConfidenceQuery,Practice,"""","""","""",50,50,1,2,"""","""","""","""",1/26/2021 17:45,67.83.183.0,"Mozilla/5.0 (Windows NT 10.0; Win64; x64) AppleWebKit/537.36 (KHTML, like Gecko) Chrome/87.0.4280.141 Safari/537.36",WebKit,Chrome,87.0.4280.141,Windows,10
98,1,1600.95,"""",html-button-response,19,54456,0.0-19.0,<p>You responded that you were not sure.</p> <p>The pair was rearranged.</p>,0,1,feedback,Practice,"""","""","""","""","""","""","""","""","""","""","""",1/26/2021 17:45,67.83.183.0,"Mozilla/5.0 (Windows NT 10.0; Win64; x64) AppleWebKit/537.36 (KHTML, like Gecko) Chrome/87.0.4280.141 Safari/537.36",WebKit,Chrome,87.0.4280.141,Windows,10
98,1,null,"""",html-keyboard-response,20,55464,0.0-20.0,"<div style=""font-size:60px;"">+</div>","""",2,ITI,Practice,null,1000,"""","""","""","""","""","""","""","""","""",1/26/2021 17:45,67.83.183.0,"Mozilla/5.0 (Windows NT 10.0; Win64; x64) AppleWebKit/537.36 (KHTML, like Gecko) Chrome/87.0.4280.141 Safari/537.36",WebKit,Chrome,87.0.4280.141,Windows,10
98,1,null,"""",image-keyboard-response,21,55723,0.0-21.0,jspsych/scrambledDisgustFaces/scrambledAM01DIS.JPG,"""",2,forwardMask,Practice,null,250,d,"""","""","""","""","""","""","""","""",1/26/2021 17:45,67.83.183.0,"Mozilla/5.0 (Windows NT 10.0; Win64; x64) AppleWebKit/537.36 (KHTML, like Gecko) Chrome/87.0.4280.141 Safari/537.36",WebKit,Chrome,87.0.4280.141,Windows,10
98,1,null,"""",image-keyboard-response,22,55747,0.0-22.0,jspsych/disgustFaces/AM01DIS.JPG,"""",2,Cue,Practice,null,"function(){
        return jsPsych.randomization.sampleWithoutReplacement(cueDuration, 1)[0]}","""","""","""","""","""","""","""","""","""",1/26/2021 17:45,67.83.183.0,"Mozilla/5.0 (Windows NT 10.0; Win64; x64) AppleWebKit/537.36 (KHTML, like Gecko) Chrome/87.0.4280.141 Safari/537.36",WebKit,Chrome,87.0.4280.141,Windows,10
98,1,null,"""",image-keyboard-response,23,55852,0.0-23.0,jspsych/neutralFaces/BM28NES.JPG,"""",2,backwardMask,Practice,null,100,"""","""","""","""","""","""","""","""","""",1/26/2021 17:45,67.83.183.0,"Mozilla/5.0 (Windows NT 10.0; Win64; x64) AppleWebKit/537.36 (KHTML, like Gecko) Chrome/87.0.4280.141 Safari/537.36",WebKit,Chrome,87.0.4280.141,Windows,10
98,1,null,"""",html-keyboard-response,24,56862,0.0-24.0,"<div style=""font-size:60px;"">+</div>","""",2,fixationBtwnNeutralMaskAndPrompt,Practice,null,1000,"""","""","""","""","""","""","""","""","""",1/26/2021 17:45,67.83.183.0,"Mozilla/5.0 (Windows NT 10.0; Win64; x64) AppleWebKit/537.36 (KHTML, like Gecko) Chrome/87.0.4280.141 Safari/537.36",WebKit,Chrome,87.0.4280.141,Windows,10
98,1,1140.305,"""",html-slider-response,25,58005,0.0-25.0,"<p><b> Practice Set </b></p><img src='jspsych/CFDfaces/CFD-WM-232-070-N.jpg'height=""250px""></br><b>Patrick</b>","""",2,ConfidenceQuery,Practice,"""","""","""",50,50,0,2,"""","""","""","""",1/26/2021 17:45,67.83.183.0,"Mozilla/5.0 (Windows NT 10.0; Win64; x64) AppleWebKit/537.36 (KHTML, like Gecko) Chrome/87.0.4280.141 Safari/537.36",WebKit,Chrome,87.0.4280.141,Windows,10
98,1,938.095,"""",html-button-response,26,58945,0.0-26.0,<p>You responded that you were not sure.</p> <p>The pair was intact.</p>,0,2,feedback,Practice,"""","""","""","""","""","""","""","""","""","""","""",1/26/2021 17:45,67.83.183.0,"Mozilla/5.0 (Windows NT 10.0; Win64; x64) AppleWebKit/537.36 (KHTML, like Gecko) Chrome/87.0.4280.141 Safari/537.36",WebKit,Chrome,87.0.4280.141,Windows,10
98,1,null,"""",html-keyboard-response,27,59954,0.0-27.0,"<div style=""font-size:60px;"">+</div>","""",3,ITI,Practice,null,1000,"""","""","""","""","""","""","""","""","""",1/26/2021 17:45,67.83.183.0,"Mozilla/5.0 (Windows NT 10.0; Win64; x64) AppleWebKit/537.36 (KHTML, like Gecko) Chrome/87.0.4280.141 Safari/537.36",WebKit,Chrome,87.0.4280.141,Windows,10
98,1,null,"""",image-keyboard-response,28,60209,0.0-28.0,jspsych/scrambledDisgustFaces/scrambledAM16DIS.JPG,"""",3,forwardMask,Practice,null,250,d,"""","""","""","""","""","""","""","""",1/26/2021 17:45,67.83.183.0,"Mozilla/5.0 (Windows NT 10.0; Win64; x64) AppleWebKit/537.36 (KHTML, like Gecko) Chrome/87.0.4280.141 Safari/537.36",WebKit,Chrome,87.0.4280.141,Windows,10
98,1,null,"""",image-keyboard-response,29,60227,0.0-29.0,jspsych/disgustFaces/AM16DIS.JPG,"""",3,Cue,Practice,null,"function(){
        return jsPsych.randomization.sampleWithoutReplacement(cueDuration, 1)[0]}","""","""","""","""","""","""","""","""","""",1/26/2021 17:45,67.83.183.0,"Mozilla/5.0 (Windows NT 10.0; Win64; x64) AppleWebKit/537.36 (KHTML, like Gecko) Chrome/87.0.4280.141 Safari/537.36",WebKit,Chrome,87.0.4280.141,Windows,10
98,1,null,"""",image-keyboard-response,30,60333,0.0-30.0,jspsych/neutralFaces/AF31NES.JPG,"""",3,backwardMask,Practice,null,100,"""","""","""","""","""","""","""","""","""",1/26/2021 17:45,67.83.183.0,"Mozilla/5.0 (Windows NT 10.0; Win64; x64) AppleWebKit/537.36 (KHTML, like Gecko) Chrome/87.0.4280.141 Safari/537.36",WebKit,Chrome,87.0.4280.141,Windows,10
98,1,null,"""",html-keyboard-response,31,61341,0.0-31.0,"<div style=""font-size:60px;"">+</div>","""",3,fixationBtwnNeutralMaskAndPrompt,Practice,null,1000,"""","""","""","""","""","""","""","""","""",1/26/2021 17:45,67.83.183.0,"Mozilla/5.0 (Windows NT 10.0; Win64; x64) AppleWebKit/537.36 (KHTML, like Gecko) Chrome/87.0.4280.141 Safari/537.36",WebKit,Chrome,87.0.4280.141,Windows,10
98,1,1399.555,"""",html-slider-response,32,62744,0.0-32.0,"<p><b> Practice Set </b></p><img src='jspsych/CFDfaces/CFD-WM-222-057-N.jpg'height=""250px""></br><b>Marcus</b>","""",3,ConfidenceQuery,Practice,"""","""","""",50,50,1,2,"""","""","""","""",1/26/2021 17:45,67.83.183.0,"Mozilla/5.0 (Windows NT 10.0; Win64; x64) AppleWebKit/537.36 (KHTML, like Gecko) Chrome/87.0.4280.141 Safari/537.36",WebKit,Chrome,87.0.4280.141,Windows,10
98,1,1136.37,"""",html-button-response,33,63885,0.0-33.0,<p>You responded that you were not sure.</p> <p>The pair was rearranged.</p>,0,3,feedback,Practice,"""","""","""","""","""","""","""","""","""","""","""",1/26/2021 17:45,67.83.183.0,"Mozilla/5.0 (Windows NT 10.0; Win64; x64) AppleWebKit/537.36 (KHTML, like Gecko) Chrome/87.0.4280.141 Safari/537.36",WebKit,Chrome,87.0.4280.141,Windows,10
98,1,null,"""",html-keyboard-response,34,64893,0.0-34.0,"<div style=""font-size:60px;"">+</div>","""",4,ITI,Practice,null,1000,"""","""","""","""","""","""","""","""","""",1/26/2021 17:45,67.83.183.0,"Mozilla/5.0 (Windows NT 10.0; Win64; x64) AppleWebKit/537.36 (KHTML, like Gecko) Chrome/87.0.4280.141 Safari/537.36",WebKit,Chrome,87.0.4280.141,Windows,10
98,1,null,"""",image-keyboard-response,35,65154,0.0-35.0,jspsych/scrambledDisgustFaces/scrambledAM31DIS.JPG,"""",4,forwardMask,Practice,null,250,d,"""","""","""","""","""","""","""","""",1/26/2021 17:45,67.83.183.0,"Mozilla/5.0 (Windows NT 10.0; Win64; x64) AppleWebKit/537.36 (KHTML, like Gecko) Chrome/87.0.4280.141 Safari/537.36",WebKit,Chrome,87.0.4280.141,Windows,10
98,1,null,"""",image-keyboard-response,36,65178,0.0-36.0,jspsych/disgustFaces/AM31DIS.JPG,"""",4,Cue,Practice,null,"function(){
        return jsPsych.randomization.sampleWithoutReplacement(cueDuration, 1)[0]}","""","""","""","""","""","""","""","""","""",1/26/2021 17:45,67.83.183.0,"Mozilla/5.0 (Windows NT 10.0; Win64; x64) AppleWebKit/537.36 (KHTML, like Gecko) Chrome/87.0.4280.141 Safari/537.36",WebKit,Chrome,87.0.4280.141,Windows,10
98,1,null,"""",image-keyboard-response,37,65283,0.0-37.0,jspsych/neutralFaces/BF22NES.JPG,"""",4,backwardMask,Practice,null,100,"""","""","""","""","""","""","""","""","""",1/26/2021 17:45,67.83.183.0,"Mozilla/5.0 (Windows NT 10.0; Win64; x64) AppleWebKit/537.36 (KHTML, like Gecko) Chrome/87.0.4280.141 Safari/537.36",WebKit,Chrome,87.0.4280.141,Windows,10
98,1,null,"""",html-keyboard-response,38,66286,0.0-38.0,"<div style=""font-size:60px;"">+</div>","""",4,fixationBtwnNeutralMaskAndPrompt,Practice,null,1000,"""","""","""","""","""","""","""","""","""",1/26/2021 17:45,67.83.183.0,"Mozilla/5.0 (Windows NT 10.0; Win64; x64) AppleWebKit/537.36 (KHTML, like Gecko) Chrome/87.0.4280.141 Safari/537.36",WebKit,Chrome,87.0.4280.141,Windows,10
98,1,1861.56,"""",html-slider-response,39,68153,0.0-39.0,"<p><b> Practice Set </b></p><img src='jspsych/CFDfaces/CFD-WF-220-101-N.jpg'height=""250px""></br><b>Lisa</b>","""",4,ConfidenceQuery,Practice,"""","""","""",50,50,0,2,"""","""","""","""",1/26/2021 17:45,67.83.183.0,"Mozilla/5.0 (Windows NT 10.0; Win64; x64) AppleWebKit/537.36 (KHTML, like Gecko) Chrome/87.0.4280.141 Safari/537.36",WebKit,Chrome,87.0.4280.141,Windows,10
98,1,1726.46,"""",html-button-response,40,69882,0.0-40.0,<p>You responded that you were not sure.</p> <p>The pair was intact.</p>,0,4,feedback,Practice,"""","""","""","""","""","""","""","""","""","""","""",1/26/2021 17:45,67.83.183.0,"Mozilla/5.0 (Windows NT 10.0; Win64; x64) AppleWebKit/537.36 (KHTML, like Gecko) Chrome/87.0.4280.141 Safari/537.36",WebKit,Chrome,87.0.4280.141,Windows,10
98,1,1626.875,"""",image-button-response,41,71515,0.0-41.0,directionsMemoryAssociation3.JPG,0,1,DirectionsBeforeActualTEst,Break,"""","""","""","""","""","""","""","""","""","""","""",1/26/2021 17:45,67.83.183.0,"Mozilla/5.0 (Windows NT 10.0; Win64; x64) AppleWebKit/537.36 (KHTML, like Gecko) Chrome/87.0.4280.141 Safari/537.36",WebKit,Chrome,87.0.4280.141,Windows,10
98,1,3954.58,"""",html-keyboard-response,42,76522,0.0-42.0,"<img src='jspsych/CFDfaces/CFD-LF-206-078-N.jpg' height=""250px""></br><b>Catherine</b>","""",1,IntactFace,Memorization,70,5000,"""","""","""","""","""",0,CFD-LF-206-078-N.jpg,Catherine,"""",1/26/2021 17:45,67.83.183.0,"Mozilla/5.0 (Windows NT 10.0; Win64; x64) AppleWebKit/537.36 (KHTML, like Gecko) Chrome/87.0.4280.141 Safari/537.36",WebKit,Chrome,87.0.4280.141,Windows,10
98,1,null,"""",html-keyboard-response,43,77041,0.0-43.0,"<div style=""font-size:60px;"">+</div>","""",1,fixation,Memorization,null,Memorization,"""","""","""","""","""","""","""","""","""",1/26/2021 17:45,67.83.183.0,"Mozilla/5.0 (Windows NT 10.0; Win64; x64) AppleWebKit/537.36 (KHTML, like Gecko) Chrome/87.0.4280.141 Safari/537.36",WebKit,Chrome,87.0.4280.141,Windows,10
98,1,null,"""",html-keyboard-response,44,82054,0.0-44.0,"<img src='jspsych/CFDfaces/CFD-WM-015-002-N.jpg' height=""250px""></br><b>Ryan</b>","""",2,IntactFace,Memorization,null,5000,"""","""","""","""","""",0,CFD-WM-015-002-N.jpg,Ryan,"""",1/26/2021 17:45,67.83.183.0,"Mozilla/5.0 (Windows NT 10.0; Win64; x64) AppleWebKit/537.36 (KHTML, like Gecko) Chrome/87.0.4280.141 Safari/537.36",WebKit,Chrome,87.0.4280.141,Windows,10
98,1,null,"""",html-keyboard-response,45,82563,0.0-45.0,"<div style=""font-size:60px;"">+</div>","""",2,fixation,Memorization,null,Memorization,"""","""","""","""","""","""","""","""","""",1/26/2021 17:45,67.83.183.0,"Mozilla/5.0 (Windows NT 10.0; Win64; x64) AppleWebKit/537.36 (KHTML, like Gecko) Chrome/87.0.4280.141 Safari/537.36",WebKit,Chrome,87.0.4280.141,Windows,10
98,1,4767.23,"""",html-keyboard-response,46,87331,0.0-46.0,Press Key to Begin Memory Test,"""",1,welcomeScreen,Break,72,"""","""","""","""","""","""","""","""","""","""",1/26/2021 17:45,67.83.183.0,"Mozilla/5.0 (Windows NT 10.0; Win64; x64) AppleWebKit/537.36 (KHTML, like Gecko) Chrome/87.0.4280.141 Safari/537.36",WebKit,Chrome,87.0.4280.141,Windows,10
98,1,null,"""",html-keyboard-response,47,88344,0.0-47.0,"<div style=""font-size:60px;"">+</div>","""",1,ITI,Test,null,1000,"""","""","""","""","""","""","""","""","""",1/26/2021 17:45,67.83.183.0,"Mozilla/5.0 (Windows NT 10.0; Win64; x64) AppleWebKit/537.36 (KHTML, like Gecko) Chrome/87.0.4280.141 Safari/537.36",WebKit,Chrome,87.0.4280.141,Windows,10
98,1,null,"""",image-keyboard-response,48,88604,0.0-48.0,jspsych/scrambledNeutralFaces/scrambledAM11NES.JPG,"""",1,forwardMask,Test,null,250,n,"""","""","""","""","""","""","""","""",1/26/2021 17:45,67.83.183.0,"Mozilla/5.0 (Windows NT 10.0; Win64; x64) AppleWebKit/537.36 (KHTML, like Gecko) Chrome/87.0.4280.141 Safari/537.36",WebKit,Chrome,87.0.4280.141,Windows,10
98,1,null,"""",image-keyboard-response,49,88631,0.0-49.0,jspsych/neutralFaces/AM11NES.JPG,"""",1,Cue,Test,null,"function(){
        return jsPsych.randomization.sampleWithoutReplacement(cueDuration, 1)[0]}","""","""","""","""","""","""","""","""","""",1/26/2021 17:45,67.83.183.0,"Mozilla/5.0 (Windows NT 10.0; Win64; x64) AppleWebKit/537.36 (KHTML, like Gecko) Chrome/87.0.4280.141 Safari/537.36",WebKit,Chrome,87.0.4280.141,Windows,10
98,1,null,"""",image-keyboard-response,50,88743,0.0-50.0,jspsych/neutralFaces/AM17NES.JPG,"""",1,backwardMask,Test,null,100,"""","""","""","""","""","""","""","""","""",1/26/2021 17:45,67.83.183.0,"Mozilla/5.0 (Windows NT 10.0; Win64; x64) AppleWebKit/537.36 (KHTML, like Gecko) Chrome/87.0.4280.141 Safari/537.36",WebKit,Chrome,87.0.4280.141,Windows,10
98,1,null,"""",html-keyboard-response,51,89753,0.0-51.0,"<div style=""font-size:60px;"">+</div>","""",1,fixationBtwnNeutralMaskAndPrompt,Test,null,1000,"""","""","""","""","""","""","""","""","""",1/26/2021 17:45,67.83.183.0,"Mozilla/5.0 (Windows NT 10.0; Win64; x64) AppleWebKit/537.36 (KHTML, like Gecko) Chrome/87.0.4280.141 Safari/537.36",WebKit,Chrome,87.0.4280.141,Windows,10
98,1,2654.41,"""",html-slider-response,52,92426,0.0-52.0,"<img src='jspsych/CFDfaces/CFD-BF-009-002-N.jpg' height=""250px"">,</br><b>Alexandra</b>","""",1,ConfidenceQuery,Test,"""","""","""",50,50,"""",2,1,CFD-BF-009-002-N.jpg,Alexandra,"""",1/26/2021 17:45,67.83.183.0,"Mozilla/5.0 (Windows NT 10.0; Win64; x64) AppleWebKit/537.36 (KHTML, like Gecko) Chrome/87.0.4280.141 Safari/537.36",WebKit,Chrome,87.0.4280.141,Windows,10
98,1,null,"""",html-keyboard-response,53,93443,0.0-53.0,"<div style=""font-size:60px;"">+</div>","""",2,ITI,Test,null,1000,"""","""","""","""","""","""","""","""","""",1/26/2021 17:45,67.83.183.0,"Mozilla/5.0 (Windows NT 10.0; Win64; x64) AppleWebKit/537.36 (KHTML, like Gecko) Chrome/87.0.4280.141 Safari/537.36",WebKit,Chrome,87.0.4280.141,Windows,10
98,1,null,"""",image-keyboard-response,54,93703,0.0-54.0,jspsych/scrambledDisgustFaces/scrambledAF29DIS.JPG,"""",2,forwardMask,Test,null,250,d,"""","""","""","""","""","""","""","""",1/26/2021 17:45,67.83.183.0,"Mozilla/5.0 (Windows NT 10.0; Win64; x64) AppleWebKit/537.36 (KHTML, like Gecko) Chrome/87.0.4280.141 Safari/537.36",WebKit,Chrome,87.0.4280.141,Windows,10
98,1,null,"""",image-keyboard-response,55,93723,0.0-55.0,jspsych/disgustFaces/AF29DIS.JPG,"""",2,Cue,Test,null,"function(){
        return jsPsych.randomization.sampleWithoutReplacement(cueDuration, 1)[0]}","""","""","""","""","""","""","""","""","""",1/26/2021 17:45,67.83.183.0,"Mozilla/5.0 (Windows NT 10.0; Win64; x64) AppleWebKit/537.36 (KHTML, like Gecko) Chrome/87.0.4280.141 Safari/537.36",WebKit,Chrome,87.0.4280.141,Windows,10
98,1,null,"""",image-keyboard-response,56,93833,0.0-56.0,jspsych/neutralFaces/AM23NES.JPG,"""",2,backwardMask,Test,null,100,"""","""","""","""","""","""","""","""","""",1/26/2021 17:45,67.83.183.0,"Mozilla/5.0 (Windows NT 10.0; Win64; x64) AppleWebKit/537.36 (KHTML, like Gecko) Chrome/87.0.4280.141 Safari/537.36",WebKit,Chrome,87.0.4280.141,Windows,10
98,1,null,"""",html-keyboard-response,57,94842,0.0-57.0,"<div style=""font-size:60px;"">+</div>","""",2,fixationBtwnNeutralMaskAndPrompt,Test,null,1000,"""","""","""","""","""","""","""","""","""",1/26/2021 17:45,67.83.183.0,"Mozilla/5.0 (Windows NT 10.0; Win64; x64) AppleWebKit/537.36 (KHTML, like Gecko) Chrome/87.0.4280.141 Safari/537.36",WebKit,Chrome,87.0.4280.141,Windows,10
98,1,380497.055,"""",html-slider-response,58,475341,0.0-58.0,"<img src='jspsych/CFDfaces/CFD-LM-224-162-N.jpg' height=""250px"">,</br><b>Paul</b>","""",2,ConfidenceQuery,Test,"""","""","""",50,50,"""",2,0,CFD-LM-224-162-N.jpg,Paul,"""",1/26/2021 17:45,67.83.183.0,"Mozilla/5.0 (Windows NT 10.0; Win64; x64) AppleWebKit/537.36 (KHTML, like Gecko) Chrome/87.0.4280.141 Safari/537.36",WebKit,Chrome,87.0.4280.141,Windows,10
98,1,null,"""",html-keyboard-response,59,476361,0.0-59.0,"<div style=""font-size:60px;"">+</div>","""",3,ITI,Test,null,1000,"""","""","""","""","""","""","""","""","""",1/26/2021 17:45,67.83.183.0,"Mozilla/5.0 (Windows NT 10.0; Win64; x64) AppleWebKit/537.36 (KHTML, like Gecko) Chrome/87.0.4280.141 Safari/537.36",WebKit,Chrome,87.0.4280.141,Windows,10
98,1,null,"""",image-keyboard-response,60,476629,0.0-60.0,jspsych/scrambledDisgustFaces/scrambledBM22DIS.JPG,"""",3,forwardMask,Test,null,250,d,"""","""","""","""","""","""","""","""",1/26/2021 17:45,67.83.183.0,"Mozilla/5.0 (Windows NT 10.0; Win64; x64) AppleWebKit/537.36 (KHTML, like Gecko) Chrome/87.0.4280.141 Safari/537.36",WebKit,Chrome,87.0.4280.141,Windows,10
98,1,null,"""",image-keyboard-response,61,476650,0.0-61.0,jspsych/disgustFaces/BM22DIS.JPG,"""",3,Cue,Test,null,"function(){
        return jsPsych.randomization.sampleWithoutReplacement(cueDuration, 1)[0]}","""","""","""","""","""","""","""","""","""",1/26/2021 17:45,67.83.183.0,"Mozilla/5.0 (Windows NT 10.0; Win64; x64) AppleWebKit/537.36 (KHTML, like Gecko) Chrome/87.0.4280.141 Safari/537.36",WebKit,Chrome,87.0.4280.141,Windows,10
98,1,null,"""",image-keyboard-response,62,476761,0.0-62.0,jspsych/neutralFaces/AF30NES.JPG,"""",3,backwardMask,Test,null,100,"""","""","""","""","""","""","""","""","""",1/26/2021 17:45,67.83.183.0,"Mozilla/5.0 (Windows NT 10.0; Win64; x64) AppleWebKit/537.36 (KHTML, like Gecko) Chrome/87.0.4280.141 Safari/537.36",WebKit,Chrome,87.0.4280.141,Windows,10
98,1,null,"""",html-keyboard-response,63,477768,0.0-63.0,"<div style=""font-size:60px;"">+</div>","""",3,fixationBtwnNeutralMaskAndPrompt,Test,null,1000,"""","""","""","""","""","""","""","""","""",1/26/2021 17:45,67.83.183.0,"Mozilla/5.0 (Windows NT 10.0; Win64; x64) AppleWebKit/537.36 (KHTML, like Gecko) Chrome/87.0.4280.141 Safari/537.36",WebKit,Chrome,87.0.4280.141,Windows,10
98,1,965.0049999,"""",html-slider-response,64,478736,0.0-64.0,"<img src='jspsych/CFDfaces/CFD-WM-020-001-N.jpg' height=""250px"">,</br><b>Jacob</b>","""",3,ConfidenceQuery,Test,"""","""","""",50,50,"""",2,1,CFD-WM-020-001-N.jpg,Jacob,"""",1/26/2021 17:45,67.83.183.0,"Mozilla/5.0 (Windows NT 10.0; Win64; x64) AppleWebKit/537.36 (KHTML, like Gecko) Chrome/87.0.4280.141 Safari/537.36",WebKit,Chrome,87.0.4280.141,Windows,10
98,1,null,"""",html-keyboard-response,65,479747,0.0-65.0,"<div style=""font-size:60px;"">+</div>","""",4,ITI,Test,null,1000,"""","""","""","""","""","""","""","""","""",1/26/2021 17:45,67.83.183.0,"Mozilla/5.0 (Windows NT 10.0; Win64; x64) AppleWebKit/537.36 (KHTML, like Gecko) Chrome/87.0.4280.141 Safari/537.36",WebKit,Chrome,87.0.4280.141,Windows,10
98,1,null,"""",image-keyboard-response,66,479999,0.0-66.0,jspsych/scrambledDisgustFaces/scrambledAM28DIS.JPG,"""",4,forwardMask,Test,null,250,d,"""","""","""","""","""","""","""","""",1/26/2021 17:45,67.83.183.0,"Mozilla/5.0 (Windows NT 10.0; Win64; x64) AppleWebKit/537.36 (KHTML, like Gecko) Chrome/87.0.4280.141 Safari/537.36",WebKit,Chrome,87.0.4280.141,Windows,10
98,1,null,"""",image-keyboard-response,67,480022,0.0-67.0,jspsych/disgustFaces/AM28DIS.JPG,"""",4,Cue,Test,null,"function(){
        return jsPsych.randomization.sampleWithoutReplacement(cueDuration, 1)[0]}","""","""","""","""","""","""","""","""","""",1/26/2021 17:45,67.83.183.0,"Mozilla/5.0 (Windows NT 10.0; Win64; x64) AppleWebKit/537.36 (KHTML, like Gecko) Chrome/87.0.4280.141 Safari/537.36",WebKit,Chrome,87.0.4280.141,Windows,10
98,1,null,"""",image-keyboard-response,68,480124,0.0-68.0,jspsych/neutralFaces/BM04NES.JPG,"""",4,backwardMask,Test,null,100,"""","""","""","""","""","""","""","""","""",1/26/2021 17:45,67.83.183.0,"Mozilla/5.0 (Windows NT 10.0; Win64; x64) AppleWebKit/537.36 (KHTML, like Gecko) Chrome/87.0.4280.141 Safari/537.36",WebKit,Chrome,87.0.4280.141,Windows,10
98,1,null,"""",html-keyboard-response,69,481130,0.0-69.0,"<div style=""font-size:60px;"">+</div>","""",4,fixationBtwnNeutralMaskAndPrompt,Test,null,1000,"""","""","""","""","""","""","""","""","""",1/26/2021 17:45,67.83.183.0,"Mozilla/5.0 (Windows NT 10.0; Win64; x64) AppleWebKit/537.36 (KHTML, like Gecko) Chrome/87.0.4280.141 Safari/537.36",WebKit,Chrome,87.0.4280.141,Windows,10
98,1,880.275,"""",html-slider-response,70,482012,0.0-70.0,"<img src='jspsych/CFDfaces/CFD-LF-218-072-N.jpg' height=""250px"">,</br><b>Rachel</b>","""",4,ConfidenceQuery,Test,"""","""","""",50,50,"""",2,0,CFD-LF-218-072-N.jpg,Rachel,"""",1/26/2021 17:45,67.83.183.0,"Mozilla/5.0 (Windows NT 10.0; Win64; x64) AppleWebKit/537.36 (KHTML, like Gecko) Chrome/87.0.4280.141 Safari/537.36",WebKit,Chrome,87.0.4280.141,Windows,10
98,1,null,"""",html-keyboard-response,71,483021,0.0-71.0,"<div style=""font-size:60px;"">+</div>","""",5,ITI,Test,null,1000,"""","""","""","""","""","""","""","""","""",1/26/2021 17:45,67.83.183.0,"Mozilla/5.0 (Windows NT 10.0; Win64; x64) AppleWebKit/537.36 (KHTML, like Gecko) Chrome/87.0.4280.141 Safari/537.36",WebKit,Chrome,87.0.4280.141,Windows,10
98,1,null,"""",image-keyboard-response,72,483279,0.0-72.0,jspsych/scrambledDisgustFaces/scrambledBM33DIS.JPG,"""",5,forwardMask,Test,null,250,d,"""","""","""","""","""","""","""","""",1/26/2021 17:45,67.83.183.0,"Mozilla/5.0 (Windows NT 10.0; Win64; x64) AppleWebKit/537.36 (KHTML, like Gecko) Chrome/87.0.4280.141 Safari/537.36",WebKit,Chrome,87.0.4280.141,Windows,10
98,1,null,"""",image-keyboard-response,73,483304,0.0-73.0,jspsych/disgustFaces/BM33DIS.JPG,"""",5,Cue,Test,null,"function(){
        return jsPsych.randomization.sampleWithoutReplacement(cueDuration, 1)[0]}","""","""","""","""","""","""","""","""","""",1/26/2021 17:45,67.83.183.0,"Mozilla/5.0 (Windows NT 10.0; Win64; x64) AppleWebKit/537.36 (KHTML, like Gecko) Chrome/87.0.4280.141 Safari/537.36",WebKit,Chrome,87.0.4280.141,Windows,10
98,1,null,"""",image-keyboard-response,74,483410,0.0-74.0,jspsych/neutralFaces/AF17NES.JPG,"""",5,backwardMask,Test,null,100,"""","""","""","""","""","""","""","""","""",1/26/2021 17:45,67.83.183.0,"Mozilla/5.0 (Windows NT 10.0; Win64; x64) AppleWebKit/537.36 (KHTML, like Gecko) Chrome/87.0.4280.141 Safari/537.36",WebKit,Chrome,87.0.4280.141,Windows,10
98,1,null,"""",html-keyboard-response,75,484420,0.0-75.0,"<div style=""font-size:60px;"">+</div>","""",5,fixationBtwnNeutralMaskAndPrompt,Test,null,1000,"""","""","""","""","""","""","""","""","""",1/26/2021 17:45,67.83.183.0,"Mozilla/5.0 (Windows NT 10.0; Win64; x64) AppleWebKit/537.36 (KHTML, like Gecko) Chrome/87.0.4280.141 Safari/537.36",WebKit,Chrome,87.0.4280.141,Windows,10
98,1,850.0750001,"""",html-slider-response,76,485273,0.0-76.0,"<img src='jspsych/CFDfaces/CFD-LF-232-199-N.jpg' height=""250px"">,</br><b>Lindsay</b>","""",5,ConfidenceQuery,Test,"""","""","""",50,50,"""",2,0,CFD-LF-232-199-N.jpg,Lindsay,"""",1/26/2021 17:45,67.83.183.0,"Mozilla/5.0 (Windows NT 10.0; Win64; x64) AppleWebKit/537.36 (KHTML, like Gecko) Chrome/87.0.4280.141 Safari/537.36",WebKit,Chrome,87.0.4280.141,Windows,10
98,1,null,"""",html-keyboard-response,77,486281,0.0-77.0,"<div style=""font-size:60px;"">+</div>","""",6,ITI,Test,null,1000,"""","""","""","""","""","""","""","""","""",1/26/2021 17:45,67.83.183.0,"Mozilla/5.0 (Windows NT 10.0; Win64; x64) AppleWebKit/537.36 (KHTML, like Gecko) Chrome/87.0.4280.141 Safari/537.36",WebKit,Chrome,87.0.4280.141,Windows,10
98,1,null,"""",image-keyboard-response,78,486541,0.0-78.0,jspsych/scrambledDisgustFaces/scrambledAM13DIS.JPG,"""",6,forwardMask,Test,null,250,d,"""","""","""","""","""","""","""","""",1/26/2021 17:45,67.83.183.0,"Mozilla/5.0 (Windows NT 10.0; Win64; x64) AppleWebKit/537.36 (KHTML, like Gecko) Chrome/87.0.4280.141 Safari/537.36",WebKit,Chrome,87.0.4280.141,Windows,10
98,1,null,"""",image-keyboard-response,79,486571,0.0-79.0,jspsych/disgustFaces/AM13DIS.JPG,"""",6,Cue,Test,null,"function(){
        return jsPsych.randomization.sampleWithoutReplacement(cueDuration, 1)[0]}","""","""","""","""","""","""","""","""","""",1/26/2021 17:45,67.83.183.0,"Mozilla/5.0 (Windows NT 10.0; Win64; x64) AppleWebKit/537.36 (KHTML, like Gecko) Chrome/87.0.4280.141 Safari/537.36",WebKit,Chrome,87.0.4280.141,Windows,10
98,1,null,"""",image-keyboard-response,80,486678,0.0-80.0,jspsych/neutralFaces/AF16NES.JPG,"""",6,backwardMask,Test,null,100,"""","""","""","""","""","""","""","""","""",1/26/2021 17:45,67.83.183.0,"Mozilla/5.0 (Windows NT 10.0; Win64; x64) AppleWebKit/537.36 (KHTML, like Gecko) Chrome/87.0.4280.141 Safari/537.36",WebKit,Chrome,87.0.4280.141,Windows,10
98,1,null,"""",html-keyboard-response,81,487683,0.0-81.0,"<div style=""font-size:60px;"">+</div>","""",6,fixationBtwnNeutralMaskAndPrompt,Test,null,1000,"""","""","""","""","""","""","""","""","""",1/26/2021 17:45,67.83.183.0,"Mozilla/5.0 (Windows NT 10.0; Win64; x64) AppleWebKit/537.36 (KHTML, like Gecko) Chrome/87.0.4280.141 Safari/537.36",WebKit,Chrome,87.0.4280.141,Windows,10
98,1,846.485,"""",html-slider-response,82,488532,0.0-82.0,"<img src='jspsych/CFDfaces/CFD-AF-233-190-N.jpg' height=""250px"">,</br><b>Vanessa</b>","""",6,ConfidenceQuery,Test,"""","""","""",50,50,"""",2,1,CFD-AF-233-190-N.jpg,Vanessa,"""",1/26/2021 17:45,67.83.183.0,"Mozilla/5.0 (Windows NT 10.0; Win64; x64) AppleWebKit/537.36 (KHTML, like Gecko) Chrome/87.0.4280.141 Safari/537.36",WebKit,Chrome,87.0.4280.141,Windows,10
98,1,null,"""",html-keyboard-response,83,489538,0.0-83.0,"<div style=""font-size:60px;"">+</div>","""",7,ITI,Test,null,1000,"""","""","""","""","""","""","""","""","""",1/26/2021 17:45,67.83.183.0,"Mozilla/5.0 (Windows NT 10.0; Win64; x64) AppleWebKit/537.36 (KHTML, like Gecko) Chrome/87.0.4280.141 Safari/537.36",WebKit,Chrome,87.0.4280.141,Windows,10
98,1,null,"""",image-keyboard-response,84,489801,0.0-84.0,jspsych/scrambledDisgustFaces/scrambledBF03DIS.JPG,"""",7,forwardMask,Test,null,250,d,"""","""","""","""","""","""","""","""",1/26/2021 17:45,67.83.183.0,"Mozilla/5.0 (Windows NT 10.0; Win64; x64) AppleWebKit/537.36 (KHTML, like Gecko) Chrome/87.0.4280.141 Safari/537.36",WebKit,Chrome,87.0.4280.141,Windows,10
98,1,null,"""",image-keyboard-response,85,489821,0.0-85.0,jspsych/disgustFaces/BF03DIS.JPG,"""",7,Cue,Test,null,"function(){
        return jsPsych.randomization.sampleWithoutReplacement(cueDuration, 1)[0]}","""","""","""","""","""","""","""","""","""",1/26/2021 17:45,67.83.183.0,"Mozilla/5.0 (Windows NT 10.0; Win64; x64) AppleWebKit/537.36 (KHTML, like Gecko) Chrome/87.0.4280.141 Safari/537.36",WebKit,Chrome,87.0.4280.141,Windows,10
98,1,null,"""",image-keyboard-response,86,489931,0.0-86.0,jspsych/neutralFaces/BF20NES.JPG,"""",7,backwardMask,Test,null,100,"""","""","""","""","""","""","""","""","""",1/26/2021 17:45,67.83.183.0,"Mozilla/5.0 (Windows NT 10.0; Win64; x64) AppleWebKit/537.36 (KHTML, like Gecko) Chrome/87.0.4280.141 Safari/537.36",WebKit,Chrome,87.0.4280.141,Windows,10
98,1,null,"""",html-keyboard-response,87,490941,0.0-87.0,"<div style=""font-size:60px;"">+</div>","""",7,fixationBtwnNeutralMaskAndPrompt,Test,null,1000,"""","""","""","""","""","""","""","""","""",1/26/2021 17:45,67.83.183.0,"Mozilla/5.0 (Windows NT 10.0; Win64; x64) AppleWebKit/537.36 (KHTML, like Gecko) Chrome/87.0.4280.141 Safari/537.36",WebKit,Chrome,87.0.4280.141,Windows,10
98,1,799.575,"""",html-slider-response,88,491743,0.0-88.0,"<img src='jspsych/CFDfaces/CFD-BM-018-001-N.jpg' height=""250px"">,</br><b>Scott</b>","""",7,ConfidenceQuery,Test,"""","""","""",50,50,"""",2,0,CFD-BM-018-001-N.jpg,Scott,"""",1/26/2021 17:45,67.83.183.0,"Mozilla/5.0 (Windows NT 10.0; Win64; x64) AppleWebKit/537.36 (KHTML, like Gecko) Chrome/87.0.4280.141 Safari/537.36",WebKit,Chrome,87.0.4280.141,Windows,10
98,1,null,"""",html-keyboard-response,89,492751,0.0-89.0,"<div style=""font-size:60px;"">+</div>","""",8,ITI,Test,null,1000,"""","""","""","""","""","""","""","""","""",1/26/2021 17:45,67.83.183.0,"Mozilla/5.0 (Windows NT 10.0; Win64; x64) AppleWebKit/537.36 (KHTML, like Gecko) Chrome/87.0.4280.141 Safari/537.36",WebKit,Chrome,87.0.4280.141,Windows,10
98,1,null,"""",image-keyboard-response,90,493011,0.0-90.0,jspsych/scrambledDisgustFaces/scrambledAM16DIS.JPG,"""",8,forwardMask,Test,null,250,d,"""","""","""","""","""","""","""","""",1/26/2021 17:45,67.83.183.0,"Mozilla/5.0 (Windows NT 10.0; Win64; x64) AppleWebKit/537.36 (KHTML, like Gecko) Chrome/87.0.4280.141 Safari/537.36",WebKit,Chrome,87.0.4280.141,Windows,10
98,1,null,"""",image-keyboard-response,91,493031,0.0-91.0,jspsych/disgustFaces/AM16DIS.JPG,"""",8,Cue,Test,null,"function(){
        return jsPsych.randomization.sampleWithoutReplacement(cueDuration, 1)[0]}","""","""","""","""","""","""","""","""","""",1/26/2021 17:45,67.83.183.0,"Mozilla/5.0 (Windows NT 10.0; Win64; x64) AppleWebKit/537.36 (KHTML, like Gecko) Chrome/87.0.4280.141 Safari/537.36",WebKit,Chrome,87.0.4280.141,Windows,10
98,1,null,"""",image-keyboard-response,92,493141,0.0-92.0,jspsych/neutralFaces/BF13NES.JPG,"""",8,backwardMask,Test,null,100,"""","""","""","""","""","""","""","""","""",1/26/2021 17:45,67.83.183.0,"Mozilla/5.0 (Windows NT 10.0; Win64; x64) AppleWebKit/537.36 (KHTML, like Gecko) Chrome/87.0.4280.141 Safari/537.36",WebKit,Chrome,87.0.4280.141,Windows,10
98,1,null,"""",html-keyboard-response,93,494150,0.0-93.0,"<div style=""font-size:60px;"">+</div>","""",8,fixationBtwnNeutralMaskAndPrompt,Test,null,1000,"""","""","""","""","""","""","""","""","""",1/26/2021 17:45,67.83.183.0,"Mozilla/5.0 (Windows NT 10.0; Win64; x64) AppleWebKit/537.36 (KHTML, like Gecko) Chrome/87.0.4280.141 Safari/537.36",WebKit,Chrome,87.0.4280.141,Windows,10
98,1,809.93,"""",html-slider-response,94,494963,0.0-94.0,"<img src='jspsych/CFDfaces/CFD-BF-226-119-N.jpg' height=""250px"">,</br><b>Natalie</b>","""",8,ConfidenceQuery,Test,"""","""","""",50,50,"""",2,0,CFD-BF-226-119-N.jpg,Natalie,"""",1/26/2021 17:45,67.83.183.0,"Mozilla/5.0 (Windows NT 10.0; Win64; x64) AppleWebKit/537.36 (KHTML, like Gecko) Chrome/87.0.4280.141 Safari/537.36",WebKit,Chrome,87.0.4280.141,Windows,10
98,1,null,"""",html-keyboard-response,95,495971,0.0-95.0,"<div style=""font-size:60px;"">+</div>","""",9,ITI,Test,null,1000,"""","""","""","""","""","""","""","""","""",1/26/2021 17:45,67.83.183.0,"Mozilla/5.0 (Windows NT 10.0; Win64; x64) AppleWebKit/537.36 (KHTML, like Gecko) Chrome/87.0.4280.141 Safari/537.36",WebKit,Chrome,87.0.4280.141,Windows,10
98,1,null,"""",image-keyboard-response,96,496230,0.0-96.0,jspsych/scrambledDisgustFaces/scrambledBF33DIS.JPG,"""",9,forwardMask,Test,null,250,d,"""","""","""","""","""","""","""","""",1/26/2021 17:45,67.83.183.0,"Mozilla/5.0 (Windows NT 10.0; Win64; x64) AppleWebKit/537.36 (KHTML, like Gecko) Chrome/87.0.4280.141 Safari/537.36",WebKit,Chrome,87.0.4280.141,Windows,10
98,1,null,"""",image-keyboard-response,97,496261,0.0-97.0,jspsych/disgustFaces/BF33DIS.JPG,"""",9,Cue,Test,null,"function(){
        return jsPsych.randomization.sampleWithoutReplacement(cueDuration, 1)[0]}","""","""","""","""","""","""","""","""","""",1/26/2021 17:45,67.83.183.0,"Mozilla/5.0 (Windows NT 10.0; Win64; x64) AppleWebKit/537.36 (KHTML, like Gecko) Chrome/87.0.4280.141 Safari/537.36",WebKit,Chrome,87.0.4280.141,Windows,10
98,1,null,"""",image-keyboard-response,98,496371,0.0-98.0,jspsych/neutralFaces/BF07NES.JPG,"""",9,backwardMask,Test,null,100,"""","""","""","""","""","""","""","""","""",1/26/2021 17:45,67.83.183.0,"Mozilla/5.0 (Windows NT 10.0; Win64; x64) AppleWebKit/537.36 (KHTML, like Gecko) Chrome/87.0.4280.141 Safari/537.36",WebKit,Chrome,87.0.4280.141,Windows,10
98,1,null,"""",html-keyboard-response,99,497380,0.0-99.0,"<div style=""font-size:60px;"">+</div>","""",9,fixationBtwnNeutralMaskAndPrompt,Test,null,1000,"""","""","""","""","""","""","""","""","""",1/26/2021 17:45,67.83.183.0,"Mozilla/5.0 (Windows NT 10.0; Win64; x64) AppleWebKit/537.36 (KHTML, like Gecko) Chrome/87.0.4280.141 Safari/537.36",WebKit,Chrome,87.0.4280.141,Windows,10
98,1,1198.44,"""",html-slider-response,100,498581,0.0-100.0,"<img src='jspsych/CFDfaces/CFD-WF-017-003-N.jpg' height=""250px"">,</br><b>Jenna</b>","""",9,ConfidenceQuery,Test,"""","""","""",50,50,"""",2,0,CFD-WF-017-003-N.jpg,Jenna,"""",1/26/2021 17:45,67.83.183.0,"Mozilla/5.0 (Windows NT 10.0; Win64; x64) AppleWebKit/537.36 (KHTML, like Gecko) Chrome/87.0.4280.141 Safari/537.36",WebKit,Chrome,87.0.4280.141,Windows,10
98,1,null,"""",html-keyboard-response,101,499591,0.0-101.0,"<div style=""font-size:60px;"">+</div>","""",10,ITI,Test,null,1000,"""","""","""","""","""","""","""","""","""",1/26/2021 17:45,67.83.183.0,"Mozilla/5.0 (Windows NT 10.0; Win64; x64) AppleWebKit/537.36 (KHTML, like Gecko) Chrome/87.0.4280.141 Safari/537.36",WebKit,Chrome,87.0.4280.141,Windows,10
98,1,null,"""",image-keyboard-response,102,499845,0.0-102.0,jspsych/scrambledDisgustFaces/scrambledBF35DIS.JPG,"""",10,forwardMask,Test,null,250,d,"""","""","""","""","""","""","""","""",1/26/2021 17:45,67.83.183.0,"Mozilla/5.0 (Windows NT 10.0; Win64; x64) AppleWebKit/537.36 (KHTML, like Gecko) Chrome/87.0.4280.141 Safari/537.36",WebKit,Chrome,87.0.4280.141,Windows,10
98,1,null,"""",image-keyboard-response,103,499869,0.0-103.0,jspsych/disgustFaces/BF35DIS.JPG,"""",10,Cue,Test,null,"function(){
        return jsPsych.randomization.sampleWithoutReplacement(cueDuration, 1)[0]}","""","""","""","""","""","""","""","""","""",1/26/2021 17:45,67.83.183.0,"Mozilla/5.0 (Windows NT 10.0; Win64; x64) AppleWebKit/537.36 (KHTML, like Gecko) Chrome/87.0.4280.141 Safari/537.36",WebKit,Chrome,87.0.4280.141,Windows,10
98,1,null,"""",image-keyboard-response,104,499971,0.0-104.0,jspsych/neutralFaces/BF25NES.JPG,"""",10,backwardMask,Test,null,100,"""","""","""","""","""","""","""","""","""",1/26/2021 17:45,67.83.183.0,"Mozilla/5.0 (Windows NT 10.0; Win64; x64) AppleWebKit/537.36 (KHTML, like Gecko) Chrome/87.0.4280.141 Safari/537.36",WebKit,Chrome,87.0.4280.141,Windows,10
98,1,null,"""",html-keyboard-response,105,500978,0.0-105.0,"<div style=""font-size:60px;"">+</div>","""",10,fixationBtwnNeutralMaskAndPrompt,Test,null,1000,"""","""","""","""","""","""","""","""","""",1/26/2021 17:45,67.83.183.0,"Mozilla/5.0 (Windows NT 10.0; Win64; x64) AppleWebKit/537.36 (KHTML, like Gecko) Chrome/87.0.4280.141 Safari/537.36",WebKit,Chrome,87.0.4280.141,Windows,10
98,1,822.19,"""",html-slider-response,106,501803,0.0-106.0,"<img src='jspsych/CFDfaces/CFD-LM-246-087-N.jpg' height=""250px"">,</br><b>Tyler</b>","""",10,ConfidenceQuery,Test,"""","""","""",50,50,"""",2,1,CFD-LM-246-087-N.jpg,Tyler,"""",1/26/2021 17:45,67.83.183.0,"Mozilla/5.0 (Windows NT 10.0; Win64; x64) AppleWebKit/537.36 (KHTML, like Gecko) Chrome/87.0.4280.141 Safari/537.36",WebKit,Chrome,87.0.4280.141,Windows,10
98,1,null,"""",html-keyboard-response,107,502821,0.0-107.0,"<div style=""font-size:60px;"">+</div>","""",11,ITI,Test,null,1000,"""","""","""","""","""","""","""","""","""",1/26/2021 17:45,67.83.183.0,"Mozilla/5.0 (Windows NT 10.0; Win64; x64) AppleWebKit/537.36 (KHTML, like Gecko) Chrome/87.0.4280.141 Safari/537.36",WebKit,Chrome,87.0.4280.141,Windows,10
98,1,null,"""",image-keyboard-response,108,503080,0.0-108.0,jspsych/scrambledDisgustFaces/scrambledBM35DIS.JPG,"""",11,forwardMask,Test,null,250,d,"""","""","""","""","""","""","""","""",1/26/2021 17:45,67.83.183.0,"Mozilla/5.0 (Windows NT 10.0; Win64; x64) AppleWebKit/537.36 (KHTML, like Gecko) Chrome/87.0.4280.141 Safari/537.36",WebKit,Chrome,87.0.4280.141,Windows,10
98,1,null,"""",image-keyboard-response,109,503100,0.0-109.0,jspsych/disgustFaces/BM35DIS.JPG,"""",11,Cue,Test,null,"function(){
        return jsPsych.randomization.sampleWithoutReplacement(cueDuration, 1)[0]}","""","""","""","""","""","""","""","""","""",1/26/2021 17:45,67.83.183.0,"Mozilla/5.0 (Windows NT 10.0; Win64; x64) AppleWebKit/537.36 (KHTML, like Gecko) Chrome/87.0.4280.141 Safari/537.36",WebKit,Chrome,87.0.4280.141,Windows,10
98,1,null,"""",image-keyboard-response,110,503208,0.0-110.0,jspsych/neutralFaces/AM11NES.JPG,"""",11,backwardMask,Test,null,100,"""","""","""","""","""","""","""","""","""",1/26/2021 17:45,67.83.183.0,"Mozilla/5.0 (Windows NT 10.0; Win64; x64) AppleWebKit/537.36 (KHTML, like Gecko) Chrome/87.0.4280.141 Safari/537.36",WebKit,Chrome,87.0.4280.141,Windows,10
98,1,null,"""",html-keyboard-response,111,504221,0.0-111.0,"<div style=""font-size:60px;"">+</div>","""",11,fixationBtwnNeutralMaskAndPrompt,Test,null,1000,"""","""","""","""","""","""","""","""","""",1/26/2021 17:45,67.83.183.0,"Mozilla/5.0 (Windows NT 10.0; Win64; x64) AppleWebKit/537.36 (KHTML, like Gecko) Chrome/87.0.4280.141 Safari/537.36",WebKit,Chrome,87.0.4280.141,Windows,10
98,1,1311.14,"""",html-slider-response,112,505535,0.0-112.0,"<img src='jspsych/CFDfaces/CFD-BM-207-024-N.jpg' height=""250px"">,</br><b>Jonathan</b>","""",11,ConfidenceQuery,Test,"""","""","""",50,50,"""",2,1,CFD-BM-207-024-N.jpg,Jonathan,"""",1/26/2021 17:45,67.83.183.0,"Mozilla/5.0 (Windows NT 10.0; Win64; x64) AppleWebKit/537.36 (KHTML, like Gecko) Chrome/87.0.4280.141 Safari/537.36",WebKit,Chrome,87.0.4280.141,Windows,10
98,1,null,"""",html-keyboard-response,113,506546,0.0-113.0,"<div style=""font-size:60px;"">+</div>","""",12,ITI,Test,null,1000,"""","""","""","""","""","""","""","""","""",1/26/2021 17:45,67.83.183.0,"Mozilla/5.0 (Windows NT 10.0; Win64; x64) AppleWebKit/537.36 (KHTML, like Gecko) Chrome/87.0.4280.141 Safari/537.36",WebKit,Chrome,87.0.4280.141,Windows,10
98,1,null,"""",image-keyboard-response,114,506800,0.0-114.0,jspsych/scrambledDisgustFaces/scrambledAM21DIS.JPG,"""",12,forwardMask,Test,null,250,d,"""","""","""","""","""","""","""","""",1/26/2021 17:45,67.83.183.0,"Mozilla/5.0 (Windows NT 10.0; Win64; x64) AppleWebKit/537.36 (KHTML, like Gecko) Chrome/87.0.4280.141 Safari/537.36",WebKit,Chrome,87.0.4280.141,Windows,10
98,1,null,"""",image-keyboard-response,115,506821,0.0-115.0,jspsych/disgustFaces/AM21DIS.JPG,"""",12,Cue,Test,null,"function(){
        return jsPsych.randomization.sampleWithoutReplacement(cueDuration, 1)[0]}","""","""","""","""","""","""","""","""","""",1/26/2021 17:45,67.83.183.0,"Mozilla/5.0 (Windows NT 10.0; Win64; x64) AppleWebKit/537.36 (KHTML, like Gecko) Chrome/87.0.4280.141 Safari/537.36",WebKit,Chrome,87.0.4280.141,Windows,10
98,1,null,"""",image-keyboard-response,116,506931,0.0-116.0,jspsych/neutralFaces/AF10NES.JPG,"""",12,backwardMask,Test,null,100,"""","""","""","""","""","""","""","""","""",1/26/2021 17:45,67.83.183.0,"Mozilla/5.0 (Windows NT 10.0; Win64; x64) AppleWebKit/537.36 (KHTML, like Gecko) Chrome/87.0.4280.141 Safari/537.36",WebKit,Chrome,87.0.4280.141,Windows,10
98,1,null,"""",html-keyboard-response,117,507940,0.0-117.0,"<div style=""font-size:60px;"">+</div>","""",12,fixationBtwnNeutralMaskAndPrompt,Test,null,1000,"""","""","""","""","""","""","""","""","""",1/26/2021 17:45,67.83.183.0,"Mozilla/5.0 (Windows NT 10.0; Win64; x64) AppleWebKit/537.36 (KHTML, like Gecko) Chrome/87.0.4280.141 Safari/537.36",WebKit,Chrome,87.0.4280.141,Windows,10
98,1,990.455,"""",html-slider-response,118,508933,0.0-118.0,"<img src='jspsych/CFDfaces/CFD-LM-209-111-N.jpg' height=""250px"">,</br><b>Bradley</b>","""",12,ConfidenceQuery,Test,"""","""","""",50,50,"""",2,1,CFD-LM-209-111-N.jpg,Bradley,"""",1/26/2021 17:45,67.83.183.0,"Mozilla/5.0 (Windows NT 10.0; Win64; x64) AppleWebKit/537.36 (KHTML, like Gecko) Chrome/87.0.4280.141 Safari/537.36",WebKit,Chrome,87.0.4280.141,Windows,10
98,1,null,"""",html-keyboard-response,119,509977,0.0-119.0,"<div style=""font-size:60px;"">+</div>","""",13,ITI,Test,null,1000,"""","""","""","""","""","""","""","""","""",1/26/2021 17:45,67.83.183.0,"Mozilla/5.0 (Windows NT 10.0; Win64; x64) AppleWebKit/537.36 (KHTML, like Gecko) Chrome/87.0.4280.141 Safari/537.36",WebKit,Chrome,87.0.4280.141,Windows,10
98,1,null,"""",image-keyboard-response,120,510967,0.0-120.0,jspsych/scrambledDisgustFaces/scrambledBM35DIS.JPG,"""",13,forwardMask,Test,null,250,d,"""","""","""","""","""","""","""","""",1/26/2021 17:45,67.83.183.0,"Mozilla/5.0 (Windows NT 10.0; Win64; x64) AppleWebKit/537.36 (KHTML, like Gecko) Chrome/87.0.4280.141 Safari/537.36",WebKit,Chrome,87.0.4280.141,Windows,10
98,1,null,"""",image-keyboard-response,121,511969,0.0-121.0,jspsych/disgustFaces/BM35DIS.JPG,"""",13,Cue,Test,null,"function(){
        return jsPsych.randomization.sampleWithoutReplacement(cueDuration, 1)[0]}","""","""","""","""","""","""","""","""","""",1/26/2021 17:45,67.83.183.0,"Mozilla/5.0 (Windows NT 10.0; Win64; x64) AppleWebKit/537.36 (KHTML, like Gecko) Chrome/87.0.4280.141 Safari/537.36",WebKit,Chrome,87.0.4280.141,Windows,10
98,1,null,"""",image-keyboard-response,122,512971,0.0-122.0,jspsych/neutralFaces/AM06NES.JPG,"""",13,backwardMask,Test,null,100,"""","""","""","""","""","""","""","""","""",1/26/2021 17:45,67.83.183.0,"Mozilla/5.0 (Windows NT 10.0; Win64; x64) AppleWebKit/537.36 (KHTML, like Gecko) Chrome/87.0.4280.141 Safari/537.36",WebKit,Chrome,87.0.4280.141,Windows,10
98,1,null,"""",html-keyboard-response,123,513982,0.0-123.0,"<div style=""font-size:60px;"">+</div>","""",13,fixationBtwnNeutralMaskAndPrompt,Test,null,1000,"""","""","""","""","""","""","""","""","""",1/26/2021 17:45,67.83.183.0,"Mozilla/5.0 (Windows NT 10.0; Win64; x64) AppleWebKit/537.36 (KHTML, like Gecko) Chrome/87.0.4280.141 Safari/537.36",WebKit,Chrome,87.0.4280.141,Windows,10
98,1,1828.21,"""",html-slider-response,124,515813,0.0-124.0,"<img src='jspsych/CFDfaces/CFD-AM-205-153-N.jpg' height=""250px"">,</br><b>Brian</b>","""",13,ConfidenceQuery,Test,"""","""","""",50,50,"""",2,0,CFD-AM-205-153-N.jpg,Brian,"""",1/26/2021 17:45,67.83.183.0,"Mozilla/5.0 (Windows NT 10.0; Win64; x64) AppleWebKit/537.36 (KHTML, like Gecko) Chrome/87.0.4280.141 Safari/537.36",WebKit,Chrome,87.0.4280.141,Windows,10
98,1,null,"""",html-keyboard-response,125,516821,0.0-125.0,"<div style=""font-size:60px;"">+</div>","""",14,ITI,Test,null,1000,"""","""","""","""","""","""","""","""","""",1/26/2021 17:45,67.83.183.0,"Mozilla/5.0 (Windows NT 10.0; Win64; x64) AppleWebKit/537.36 (KHTML, like Gecko) Chrome/87.0.4280.141 Safari/537.36",WebKit,Chrome,87.0.4280.141,Windows,10
98,1,null,"""",image-keyboard-response,126,517079,0.0-126.0,jspsych/scrambledDisgustFaces/scrambledAM18DIS.JPG,"""",14,forwardMask,Test,null,250,d,"""","""","""","""","""","""","""","""",1/26/2021 17:45,67.83.183.0,"Mozilla/5.0 (Windows NT 10.0; Win64; x64) AppleWebKit/537.36 (KHTML, like Gecko) Chrome/87.0.4280.141 Safari/537.36",WebKit,Chrome,87.0.4280.141,Windows,10
98,1,null,"""",image-keyboard-response,127,517101,0.0-127.0,jspsych/disgustFaces/AM18DIS.JPG,"""",14,Cue,Test,null,"function(){
        return jsPsych.randomization.sampleWithoutReplacement(cueDuration, 1)[0]}","""","""","""","""","""","""","""","""","""",1/26/2021 17:45,67.83.183.0,"Mozilla/5.0 (Windows NT 10.0; Win64; x64) AppleWebKit/537.36 (KHTML, like Gecko) Chrome/87.0.4280.141 Safari/537.36",WebKit,Chrome,87.0.4280.141,Windows,10
98,1,null,"""",image-keyboard-response,128,517211,0.0-128.0,jspsych/neutralFaces/BM35NES.JPG,"""",14,backwardMask,Test,null,100,"""","""","""","""","""","""","""","""","""",1/26/2021 17:45,67.83.183.0,"Mozilla/5.0 (Windows NT 10.0; Win64; x64) AppleWebKit/537.36 (KHTML, like Gecko) Chrome/87.0.4280.141 Safari/537.36",WebKit,Chrome,87.0.4280.141,Windows,10
98,1,null,"""",html-keyboard-response,129,518221,0.0-129.0,"<div style=""font-size:60px;"">+</div>","""",14,fixationBtwnNeutralMaskAndPrompt,Test,null,1000,"""","""","""","""","""","""","""","""","""",1/26/2021 17:45,67.83.183.0,"Mozilla/5.0 (Windows NT 10.0; Win64; x64) AppleWebKit/537.36 (KHTML, like Gecko) Chrome/87.0.4280.141 Safari/537.36",WebKit,Chrome,87.0.4280.141,Windows,10
98,1,1058.15,"""",html-slider-response,130,519281,0.0-130.0,"<img src='jspsych/CFDfaces/CFD-LF-204-133-N.jpg' height=""250px"">,</br><b>Jacqueline</b>","""",14,ConfidenceQuery,Test,"""","""","""",50,50,"""",2,1,CFD-LF-204-133-N.jpg,Jacqueline,"""",1/26/2021 17:45,67.83.183.0,"Mozilla/5.0 (Windows NT 10.0; Win64; x64) AppleWebKit/537.36 (KHTML, like Gecko) Chrome/87.0.4280.141 Safari/537.36",WebKit,Chrome,87.0.4280.141,Windows,10
98,1,null,"""",html-keyboard-response,131,520971,0.0-131.0,"<div style=""font-size:60px;"">+</div>","""",15,ITI,Test,null,1000,"""","""","""","""","""","""","""","""","""",1/26/2021 17:45,67.83.183.0,"Mozilla/5.0 (Windows NT 10.0; Win64; x64) AppleWebKit/537.36 (KHTML, like Gecko) Chrome/87.0.4280.141 Safari/537.36",WebKit,Chrome,87.0.4280.141,Windows,10
98,1,null,"""",image-keyboard-response,132,521971,0.0-132.0,jspsych/scrambledDisgustFaces/scrambledAM12DIS.JPG,"""",15,forwardMask,Test,null,250,d,"""","""","""","""","""","""","""","""",1/26/2021 17:45,67.83.183.0,"Mozilla/5.0 (Windows NT 10.0; Win64; x64) AppleWebKit/537.36 (KHTML, like Gecko) Chrome/87.0.4280.141 Safari/537.36",WebKit,Chrome,87.0.4280.141,Windows,10
98,1,null,"""",image-keyboard-response,133,522968,0.0-133.0,jspsych/disgustFaces/AM12DIS.JPG,"""",15,Cue,Test,null,"function(){
        return jsPsych.randomization.sampleWithoutReplacement(cueDuration, 1)[0]}","""","""","""","""","""","""","""","""","""",1/26/2021 17:45,67.83.183.0,"Mozilla/5.0 (Windows NT 10.0; Win64; x64) AppleWebKit/537.36 (KHTML, like Gecko) Chrome/87.0.4280.141 Safari/537.36",WebKit,Chrome,87.0.4280.141,Windows,10
98,1,null,"""",image-keyboard-response,134,523969,0.0-134.0,jspsych/neutralFaces/AF19NES.JPG,"""",15,backwardMask,Test,null,100,"""","""","""","""","""","""","""","""","""",1/26/2021 17:45,67.83.183.0,"Mozilla/5.0 (Windows NT 10.0; Win64; x64) AppleWebKit/537.36 (KHTML, like Gecko) Chrome/87.0.4280.141 Safari/537.36",WebKit,Chrome,87.0.4280.141,Windows,10
98,1,null,"""",html-keyboard-response,135,524978,0.0-135.0,"<div style=""font-size:60px;"">+</div>","""",15,fixationBtwnNeutralMaskAndPrompt,Test,null,1000,"""","""","""","""","""","""","""","""","""",1/26/2021 17:45,67.83.183.0,"Mozilla/5.0 (Windows NT 10.0; Win64; x64) AppleWebKit/537.36 (KHTML, like Gecko) Chrome/87.0.4280.141 Safari/537.36",WebKit,Chrome,87.0.4280.141,Windows,10
98,1,2811.845,"""",html-slider-response,136,527793,0.0-136.0,"<img src='jspsych/CFDfaces/CFD-WM-003-002-N.jpg' height=""250px"">,</br><b>Timothy</b>","""",15,ConfidenceQuery,Test,"""","""","""",50,50,"""",2,0,CFD-WM-003-002-N.jpg,Timothy,"""",1/26/2021 17:45,67.83.183.0,"Mozilla/5.0 (Windows NT 10.0; Win64; x64) AppleWebKit/537.36 (KHTML, like Gecko) Chrome/87.0.4280.141 Safari/537.36",WebKit,Chrome,87.0.4280.141,Windows,10
98,1,null,"""",html-keyboard-response,137,528968,0.0-137.0,"<div style=""font-size:60px;"">+</div>","""",16,ITI,Test,null,1000,"""","""","""","""","""","""","""","""","""",1/26/2021 17:45,67.83.183.0,"Mozilla/5.0 (Windows NT 10.0; Win64; x64) AppleWebKit/537.36 (KHTML, like Gecko) Chrome/87.0.4280.141 Safari/537.36",WebKit,Chrome,87.0.4280.141,Windows,10
98,1,null,"""",image-keyboard-response,138,529968,0.0-138.0,jspsych/scrambledDisgustFaces/scrambledAM34DIS.JPG,"""",16,forwardMask,Test,null,250,d,"""","""","""","""","""","""","""","""",1/26/2021 17:45,67.83.183.0,"Mozilla/5.0 (Windows NT 10.0; Win64; x64) AppleWebKit/537.36 (KHTML, like Gecko) Chrome/87.0.4280.141 Safari/537.36",WebKit,Chrome,87.0.4280.141,Windows,10
98,1,null,"""",image-keyboard-response,139,530968,0.0-139.0,jspsych/disgustFaces/AM34DIS.JPG,"""",16,Cue,Test,null,"function(){
        return jsPsych.randomization.sampleWithoutReplacement(cueDuration, 1)[0]}","""","""","""","""","""","""","""","""","""",1/26/2021 17:45,67.83.183.0,"Mozilla/5.0 (Windows NT 10.0; Win64; x64) AppleWebKit/537.36 (KHTML, like Gecko) Chrome/87.0.4280.141 Safari/537.36",WebKit,Chrome,87.0.4280.141,Windows,10
98,1,null,"""",image-keyboard-response,140,531970,0.0-140.0,jspsych/neutralFaces/BF14NES.JPG,"""",16,backwardMask,Test,null,100,"""","""","""","""","""","""","""","""","""",1/26/2021 17:45,67.83.183.0,"Mozilla/5.0 (Windows NT 10.0; Win64; x64) AppleWebKit/537.36 (KHTML, like Gecko) Chrome/87.0.4280.141 Safari/537.36",WebKit,Chrome,87.0.4280.141,Windows,10
98,1,null,"""",html-keyboard-response,141,533419,0.0-141.0,"<div style=""font-size:60px;"">+</div>","""",16,fixationBtwnNeutralMaskAndPrompt,Test,null,1000,"""","""","""","""","""","""","""","""","""",1/26/2021 17:45,67.83.183.0,"Mozilla/5.0 (Windows NT 10.0; Win64; x64) AppleWebKit/537.36 (KHTML, like Gecko) Chrome/87.0.4280.141 Safari/537.36",WebKit,Chrome,87.0.4280.141,Windows,10
98,1,1799.19,"""",html-slider-response,142,535224,0.0-142.0,"<img src='jspsych/CFDfaces/CFD-BM-210-148-N.jpg' height=""250px"">,</br><b>Chad</b>","""",16,ConfidenceQuery,Test,"""","""","""",50,50,"""",2,1,CFD-BM-210-148-N.jpg,Chad,"""",1/26/2021 17:45,67.83.183.0,"Mozilla/5.0 (Windows NT 10.0; Win64; x64) AppleWebKit/537.36 (KHTML, like Gecko) Chrome/87.0.4280.141 Safari/537.36",WebKit,Chrome,87.0.4280.141,Windows,10
98,1,null,"""",html-keyboard-response,143,536243,0.0-143.0,"<div style=""font-size:60px;"">+</div>","""",17,ITI,Test,null,1000,"""","""","""","""","""","""","""","""","""",1/26/2021 17:45,67.83.183.0,"Mozilla/5.0 (Windows NT 10.0; Win64; x64) AppleWebKit/537.36 (KHTML, like Gecko) Chrome/87.0.4280.141 Safari/537.36",WebKit,Chrome,87.0.4280.141,Windows,10
98,1,null,"""",image-keyboard-response,144,536499,0.0-144.0,jspsych/scrambledDisgustFaces/scrambledAF34DIS.JPG,"""",17,forwardMask,Test,null,250,d,"""","""","""","""","""","""","""","""",1/26/2021 17:45,67.83.183.0,"Mozilla/5.0 (Windows NT 10.0; Win64; x64) AppleWebKit/537.36 (KHTML, like Gecko) Chrome/87.0.4280.141 Safari/537.36",WebKit,Chrome,87.0.4280.141,Windows,10
98,1,null,"""",image-keyboard-response,145,536526,0.0-145.0,jspsych/disgustFaces/AF34DIS.JPG,"""",17,Cue,Test,null,"function(){
        return jsPsych.randomization.sampleWithoutReplacement(cueDuration, 1)[0]}","""","""","""","""","""","""","""","""","""",1/26/2021 17:45,67.83.183.0,"Mozilla/5.0 (Windows NT 10.0; Win64; x64) AppleWebKit/537.36 (KHTML, like Gecko) Chrome/87.0.4280.141 Safari/537.36",WebKit,Chrome,87.0.4280.141,Windows,10
98,1,null,"""",image-keyboard-response,146,536631,0.0-146.0,jspsych/neutralFaces/AF26NES.JPG,"""",17,backwardMask,Test,null,100,"""","""","""","""","""","""","""","""","""",1/26/2021 17:45,67.83.183.0,"Mozilla/5.0 (Windows NT 10.0; Win64; x64) AppleWebKit/537.36 (KHTML, like Gecko) Chrome/87.0.4280.141 Safari/537.36",WebKit,Chrome,87.0.4280.141,Windows,10
98,1,null,"""",html-keyboard-response,147,537641,0.0-147.0,"<div style=""font-size:60px;"">+</div>","""",17,fixationBtwnNeutralMaskAndPrompt,Test,null,1000,"""","""","""","""","""","""","""","""","""",1/26/2021 17:45,67.83.183.0,"Mozilla/5.0 (Windows NT 10.0; Win64; x64) AppleWebKit/537.36 (KHTML, like Gecko) Chrome/87.0.4280.141 Safari/537.36",WebKit,Chrome,87.0.4280.141,Windows,10
98,1,3769.855,"""",html-slider-response,148,541413,0.0-148.0,"<img src='jspsych/CFDfaces/CFD-LF-200-058-N.jpg' height=""250px"">,</br><b>Danielle</b>","""",17,ConfidenceQuery,Test,"""","""","""",50,50,"""",2,1,CFD-LF-200-058-N.jpg,Danielle,"""",1/26/2021 17:45,67.83.183.0,"Mozilla/5.0 (Windows NT 10.0; Win64; x64) AppleWebKit/537.36 (KHTML, like Gecko) Chrome/87.0.4280.141 Safari/537.36",WebKit,Chrome,87.0.4280.141,Windows,10
98,1,null,"""",html-keyboard-response,149,542432,0.0-149.0,"<div style=""font-size:60px;"">+</div>","""",18,ITI,Test,null,1000,"""","""","""","""","""","""","""","""","""",1/26/2021 17:45,67.83.183.0,"Mozilla/5.0 (Windows NT 10.0; Win64; x64) AppleWebKit/537.36 (KHTML, like Gecko) Chrome/87.0.4280.141 Safari/537.36",WebKit,Chrome,87.0.4280.141,Windows,10
98,1,null,"""",image-keyboard-response,150,542690,0.0-150.0,jspsych/scrambledDisgustFaces/scrambledAM22DIS.JPG,"""",18,forwardMask,Test,null,250,d,"""","""","""","""","""","""","""","""",1/26/2021 17:45,67.83.183.0,"Mozilla/5.0 (Windows NT 10.0; Win64; x64) AppleWebKit/537.36 (KHTML, like Gecko) Chrome/87.0.4280.141 Safari/537.36",WebKit,Chrome,87.0.4280.141,Windows,10
98,1,null,"""",image-keyboard-response,151,542712,0.0-151.0,jspsych/disgustFaces/AM22DIS.JPG,"""",18,Cue,Test,null,"function(){
        return jsPsych.randomization.sampleWithoutReplacement(cueDuration, 1)[0]}","""","""","""","""","""","""","""","""","""",1/26/2021 17:45,67.83.183.0,"Mozilla/5.0 (Windows NT 10.0; Win64; x64) AppleWebKit/537.36 (KHTML, like Gecko) Chrome/87.0.4280.141 Safari/537.36",WebKit,Chrome,87.0.4280.141,Windows,10
98,1,null,"""",image-keyboard-response,152,542820,0.0-152.0,jspsych/neutralFaces/BF23NES.JPG,"""",18,backwardMask,Test,null,100,"""","""","""","""","""","""","""","""","""",1/26/2021 17:45,67.83.183.0,"Mozilla/5.0 (Windows NT 10.0; Win64; x64) AppleWebKit/537.36 (KHTML, like Gecko) Chrome/87.0.4280.141 Safari/537.36",WebKit,Chrome,87.0.4280.141,Windows,10
98,1,null,"""",html-keyboard-response,153,543828,0.0-153.0,"<div style=""font-size:60px;"">+</div>","""",18,fixationBtwnNeutralMaskAndPrompt,Test,null,1000,"""","""","""","""","""","""","""","""","""",1/26/2021 17:45,67.83.183.0,"Mozilla/5.0 (Windows NT 10.0; Win64; x64) AppleWebKit/537.36 (KHTML, like Gecko) Chrome/87.0.4280.141 Safari/537.36",WebKit,Chrome,87.0.4280.141,Windows,10
98,1,882.875,"""",html-slider-response,154,544713,0.0-154.0,"<img src='jspsych/CFDfaces/CFD-WM-017-002-N.jpg' height=""250px"">,</br><b>Dustin</b>","""",18,ConfidenceQuery,Test,"""","""","""",50,50,"""",2,1,CFD-WM-017-002-N.jpg,Dustin,"""",1/26/2021 17:45,67.83.183.0,"Mozilla/5.0 (Windows NT 10.0; Win64; x64) AppleWebKit/537.36 (KHTML, like Gecko) Chrome/87.0.4280.141 Safari/537.36",WebKit,Chrome,87.0.4280.141,Windows,10
98,1,null,"""",html-keyboard-response,155,545732,0.0-155.0,"<div style=""font-size:60px;"">+</div>","""",19,ITI,Test,null,1000,"""","""","""","""","""","""","""","""","""",1/26/2021 17:45,67.83.183.0,"Mozilla/5.0 (Windows NT 10.0; Win64; x64) AppleWebKit/537.36 (KHTML, like Gecko) Chrome/87.0.4280.141 Safari/537.36",WebKit,Chrome,87.0.4280.141,Windows,10
98,1,null,"""",image-keyboard-response,156,545991,0.0-156.0,jspsych/scrambledDisgustFaces/scrambledAM08DIS.JPG,"""",19,forwardMask,Test,null,250,d,"""","""","""","""","""","""","""","""",1/26/2021 17:45,67.83.183.0,"Mozilla/5.0 (Windows NT 10.0; Win64; x64) AppleWebKit/537.36 (KHTML, like Gecko) Chrome/87.0.4280.141 Safari/537.36",WebKit,Chrome,87.0.4280.141,Windows,10
98,1,null,"""",image-keyboard-response,157,546011,0.0-157.0,jspsych/disgustFaces/AM08DIS.JPG,"""",19,Cue,Test,null,"function(){
        return jsPsych.randomization.sampleWithoutReplacement(cueDuration, 1)[0]}","""","""","""","""","""","""","""","""","""",1/26/2021 17:45,67.83.183.0,"Mozilla/5.0 (Windows NT 10.0; Win64; x64) AppleWebKit/537.36 (KHTML, like Gecko) Chrome/87.0.4280.141 Safari/537.36",WebKit,Chrome,87.0.4280.141,Windows,10
98,1,null,"""",image-keyboard-response,158,546122,0.0-158.0,jspsych/neutralFaces/AM01NES.JPG,"""",19,backwardMask,Test,null,100,"""","""","""","""","""","""","""","""","""",1/26/2021 17:45,67.83.183.0,"Mozilla/5.0 (Windows NT 10.0; Win64; x64) AppleWebKit/537.36 (KHTML, like Gecko) Chrome/87.0.4280.141 Safari/537.36",WebKit,Chrome,87.0.4280.141,Windows,10
98,1,null,"""",html-keyboard-response,159,547132,0.0-159.0,"<div style=""font-size:60px;"">+</div>","""",19,fixationBtwnNeutralMaskAndPrompt,Test,null,1000,"""","""","""","""","""","""","""","""","""",1/26/2021 17:45,67.83.183.0,"Mozilla/5.0 (Windows NT 10.0; Win64; x64) AppleWebKit/537.36 (KHTML, like Gecko) Chrome/87.0.4280.141 Safari/537.36",WebKit,Chrome,87.0.4280.141,Windows,10
98,1,1229.305,"""",html-slider-response,160,548364,0.0-160.0,"<img src='jspsych/CFDfaces/CFD-WF-018-017-N.jpg' height=""250px"">,</br><b>Whitney</b>","""",19,ConfidenceQuery,Test,"""","""","""",50,50,"""",2,1,CFD-WF-018-017-N.jpg,Whitney,"""",1/26/2021 17:45,67.83.183.0,"Mozilla/5.0 (Windows NT 10.0; Win64; x64) AppleWebKit/537.36 (KHTML, like Gecko) Chrome/87.0.4280.141 Safari/537.36",WebKit,Chrome,87.0.4280.141,Windows,10
98,1,null,"""",html-keyboard-response,161,549372,0.0-161.0,"<div style=""font-size:60px;"">+</div>","""",20,ITI,Test,null,1000,"""","""","""","""","""","""","""","""","""",1/26/2021 17:45,67.83.183.0,"Mozilla/5.0 (Windows NT 10.0; Win64; x64) AppleWebKit/537.36 (KHTML, like Gecko) Chrome/87.0.4280.141 Safari/537.36",WebKit,Chrome,87.0.4280.141,Windows,10
98,1,null,"""",image-keyboard-response,162,549630,0.0-162.0,jspsych/scrambledDisgustFaces/scrambledAF24DIS.JPG,"""",20,forwardMask,Test,null,250,d,"""","""","""","""","""","""","""","""",1/26/2021 17:45,67.83.183.0,"Mozilla/5.0 (Windows NT 10.0; Win64; x64) AppleWebKit/537.36 (KHTML, like Gecko) Chrome/87.0.4280.141 Safari/537.36",WebKit,Chrome,87.0.4280.141,Windows,10
98,1,null,"""",image-keyboard-response,163,549651,0.0-163.0,jspsych/disgustFaces/AF24DIS.JPG,"""",20,Cue,Test,null,"function(){
        return jsPsych.randomization.sampleWithoutReplacement(cueDuration, 1)[0]}","""","""","""","""","""","""","""","""","""",1/26/2021 17:45,67.83.183.0,"Mozilla/5.0 (Windows NT 10.0; Win64; x64) AppleWebKit/537.36 (KHTML, like Gecko) Chrome/87.0.4280.141 Safari/537.36",WebKit,Chrome,87.0.4280.141,Windows,10
98,1,null,"""",image-keyboard-response,164,549762,0.0-164.0,jspsych/neutralFaces/BM23NES.JPG,"""",20,backwardMask,Test,null,100,"""","""","""","""","""","""","""","""","""",1/26/2021 17:45,67.83.183.0,"Mozilla/5.0 (Windows NT 10.0; Win64; x64) AppleWebKit/537.36 (KHTML, like Gecko) Chrome/87.0.4280.141 Safari/537.36",WebKit,Chrome,87.0.4280.141,Windows,10
98,1,null,"""",html-keyboard-response,165,550771,0.0-165.0,"<div style=""font-size:60px;"">+</div>","""",20,fixationBtwnNeutralMaskAndPrompt,Test,null,1000,"""","""","""","""","""","""","""","""","""",1/26/2021 17:45,67.83.183.0,"Mozilla/5.0 (Windows NT 10.0; Win64; x64) AppleWebKit/537.36 (KHTML, like Gecko) Chrome/87.0.4280.141 Safari/537.36",WebKit,Chrome,87.0.4280.141,Windows,10
98,1,16220.3,"""",html-slider-response,166,566994,0.0-166.0,"<img src='jspsych/CFDfaces/CFD-WF-016-015-N.jpg' height=""250px"">,</br><b>Tiffany</b>","""",20,ConfidenceQuery,Test,"""","""","""",50,50,"""",2,1,CFD-WF-016-015-N.jpg,Tiffany,"""",1/26/2021 17:45,67.83.183.0,"Mozilla/5.0 (Windows NT 10.0; Win64; x64) AppleWebKit/537.36 (KHTML, like Gecko) Chrome/87.0.4280.141 Safari/537.36",WebKit,Chrome,87.0.4280.141,Windows,10
98,1,null,"""",html-keyboard-response,167,568011,0.0-167.0,"<div style=""font-size:60px;"">+</div>","""",21,ITI,Test,null,1000,"""","""","""","""","""","""","""","""","""",1/26/2021 17:45,67.83.183.0,"Mozilla/5.0 (Windows NT 10.0; Win64; x64) AppleWebKit/537.36 (KHTML, like Gecko) Chrome/87.0.4280.141 Safari/537.36",WebKit,Chrome,87.0.4280.141,Windows,10
98,1,null,"""",image-keyboard-response,168,568267,0.0-168.0,jspsych/scrambledDisgustFaces/scrambledBF01DIS.JPG,"""",21,forwardMask,Test,null,250,d,"""","""","""","""","""","""","""","""",1/26/2021 17:45,67.83.183.0,"Mozilla/5.0 (Windows NT 10.0; Win64; x64) AppleWebKit/537.36 (KHTML, like Gecko) Chrome/87.0.4280.141 Safari/537.36",WebKit,Chrome,87.0.4280.141,Windows,10
98,1,null,"""",image-keyboard-response,169,568292,0.0-169.0,jspsych/disgustFaces/BF01DIS.JPG,"""",21,Cue,Test,null,"function(){
        return jsPsych.randomization.sampleWithoutReplacement(cueDuration, 1)[0]}","""","""","""","""","""","""","""","""","""",1/26/2021 17:45,67.83.183.0,"Mozilla/5.0 (Windows NT 10.0; Win64; x64) AppleWebKit/537.36 (KHTML, like Gecko) Chrome/87.0.4280.141 Safari/537.36",WebKit,Chrome,87.0.4280.141,Windows,10
98,1,null,"""",image-keyboard-response,170,568401,0.0-170.0,jspsych/neutralFaces/BF17NES.JPG,"""",21,backwardMask,Test,null,100,"""","""","""","""","""","""","""","""","""",1/26/2021 17:45,67.83.183.0,"Mozilla/5.0 (Windows NT 10.0; Win64; x64) AppleWebKit/537.36 (KHTML, like Gecko) Chrome/87.0.4280.141 Safari/537.36",WebKit,Chrome,87.0.4280.141,Windows,10
98,1,null,"""",html-keyboard-response,171,569410,0.0-171.0,"<div style=""font-size:60px;"">+</div>","""",21,fixationBtwnNeutralMaskAndPrompt,Test,null,1000,"""","""","""","""","""","""","""","""","""",1/26/2021 17:45,67.83.183.0,"Mozilla/5.0 (Windows NT 10.0; Win64; x64) AppleWebKit/537.36 (KHTML, like Gecko) Chrome/87.0.4280.141 Safari/537.36",WebKit,Chrome,87.0.4280.141,Windows,10
98,1,840.9050001,"""",html-slider-response,172,570253,0.0-172.0,"<img src='jspsych/CFDfaces/CFD-BF-005-001-N.jpg' height=""250px"">,</br><b>Alicia</b>","""",21,ConfidenceQuery,Test,"""","""","""",50,50,"""",2,1,CFD-BF-005-001-N.jpg,Alicia,"""",1/26/2021 17:45,67.83.183.0,"Mozilla/5.0 (Windows NT 10.0; Win64; x64) AppleWebKit/537.36 (KHTML, like Gecko) Chrome/87.0.4280.141 Safari/537.36",WebKit,Chrome,87.0.4280.141,Windows,10
98,1,null,"""",html-keyboard-response,173,571259,0.0-173.0,"<div style=""font-size:60px;"">+</div>","""",22,ITI,Test,null,1000,"""","""","""","""","""","""","""","""","""",1/26/2021 17:45,67.83.183.0,"Mozilla/5.0 (Windows NT 10.0; Win64; x64) AppleWebKit/537.36 (KHTML, like Gecko) Chrome/87.0.4280.141 Safari/537.36",WebKit,Chrome,87.0.4280.141,Windows,10
98,1,null,"""",image-keyboard-response,174,571516,0.0-174.0,jspsych/scrambledDisgustFaces/scrambledBM10DIS.JPG,"""",22,forwardMask,Test,null,250,d,"""","""","""","""","""","""","""","""",1/26/2021 17:45,67.83.183.0,"Mozilla/5.0 (Windows NT 10.0; Win64; x64) AppleWebKit/537.36 (KHTML, like Gecko) Chrome/87.0.4280.141 Safari/537.36",WebKit,Chrome,87.0.4280.141,Windows,10
98,1,null,"""",image-keyboard-response,175,571542,0.0-175.0,jspsych/disgustFaces/BM10DIS.JPG,"""",22,Cue,Test,null,"function(){
        return jsPsych.randomization.sampleWithoutReplacement(cueDuration, 1)[0]}","""","""","""","""","""","""","""","""","""",1/26/2021 17:45,67.83.183.0,"Mozilla/5.0 (Windows NT 10.0; Win64; x64) AppleWebKit/537.36 (KHTML, like Gecko) Chrome/87.0.4280.141 Safari/537.36",WebKit,Chrome,87.0.4280.141,Windows,10
98,1,null,"""",image-keyboard-response,176,571651,0.0-176.0,jspsych/neutralFaces/AF14NES.JPG,"""",22,backwardMask,Test,null,100,"""","""","""","""","""","""","""","""","""",1/26/2021 17:45,67.83.183.0,"Mozilla/5.0 (Windows NT 10.0; Win64; x64) AppleWebKit/537.36 (KHTML, like Gecko) Chrome/87.0.4280.141 Safari/537.36",WebKit,Chrome,87.0.4280.141,Windows,10
98,1,null,"""",html-keyboard-response,177,572661,0.0-177.0,"<div style=""font-size:60px;"">+</div>","""",22,fixationBtwnNeutralMaskAndPrompt,Test,null,1000,"""","""","""","""","""","""","""","""","""",1/26/2021 17:45,67.83.183.0,"Mozilla/5.0 (Windows NT 10.0; Win64; x64) AppleWebKit/537.36 (KHTML, like Gecko) Chrome/87.0.4280.141 Safari/537.36",WebKit,Chrome,87.0.4280.141,Windows,10
98,1,8948.835,"""",html-slider-response,178,581612,0.0-178.0,"<img src='jspsych/CFDfaces/CFD-AF-237-223-N.jpg' height=""250px"">,</br><b>Samantha</b>","""",22,ConfidenceQuery,Test,"""","""","""",50,50,"""",2,1,CFD-AF-237-223-N.jpg,Samantha,"""",1/26/2021 17:45,67.83.183.0,"Mozilla/5.0 (Windows NT 10.0; Win64; x64) AppleWebKit/537.36 (KHTML, like Gecko) Chrome/87.0.4280.141 Safari/537.36",WebKit,Chrome,87.0.4280.141,Windows,10
98,1,null,"""",html-keyboard-response,179,582973,0.0-179.0,"<div style=""font-size:60px;"">+</div>","""",23,ITI,Test,null,1000,"""","""","""","""","""","""","""","""","""",1/26/2021 17:45,67.83.183.0,"Mozilla/5.0 (Windows NT 10.0; Win64; x64) AppleWebKit/537.36 (KHTML, like Gecko) Chrome/87.0.4280.141 Safari/537.36",WebKit,Chrome,87.0.4280.141,Windows,10
98,1,null,"""",image-keyboard-response,180,583974,0.0-180.0,jspsych/scrambledDisgustFaces/scrambledBF03DIS.JPG,"""",23,forwardMask,Test,null,250,d,"""","""","""","""","""","""","""","""",1/26/2021 17:45,67.83.183.0,"Mozilla/5.0 (Windows NT 10.0; Win64; x64) AppleWebKit/537.36 (KHTML, like Gecko) Chrome/87.0.4280.141 Safari/537.36",WebKit,Chrome,87.0.4280.141,Windows,10
98,1,null,"""",image-keyboard-response,181,584114,0.0-181.0,jspsych/disgustFaces/BF03DIS.JPG,"""",23,Cue,Test,null,"function(){
        return jsPsych.randomization.sampleWithoutReplacement(cueDuration, 1)[0]}","""","""","""","""","""","""","""","""","""",1/26/2021 17:45,67.83.183.0,"Mozilla/5.0 (Windows NT 10.0; Win64; x64) AppleWebKit/537.36 (KHTML, like Gecko) Chrome/87.0.4280.141 Safari/537.36",WebKit,Chrome,87.0.4280.141,Windows,10
98,1,null,"""",image-keyboard-response,182,584222,0.0-182.0,jspsych/neutralFaces/AF05NES.JPG,"""",23,backwardMask,Test,null,100,"""","""","""","""","""","""","""","""","""",1/26/2021 17:45,67.83.183.0,"Mozilla/5.0 (Windows NT 10.0; Win64; x64) AppleWebKit/537.36 (KHTML, like Gecko) Chrome/87.0.4280.141 Safari/537.36",WebKit,Chrome,87.0.4280.141,Windows,10
98,1,null,"""",html-keyboard-response,183,585228,0.0-183.0,"<div style=""font-size:60px;"">+</div>","""",23,fixationBtwnNeutralMaskAndPrompt,Test,null,1000,"""","""","""","""","""","""","""","""","""",1/26/2021 17:45,67.83.183.0,"Mozilla/5.0 (Windows NT 10.0; Win64; x64) AppleWebKit/537.36 (KHTML, like Gecko) Chrome/87.0.4280.141 Safari/537.36",WebKit,Chrome,87.0.4280.141,Windows,10
98,1,912.14,"""",html-slider-response,184,586148,0.0-184.0,"<img src='jspsych/CFDfaces/CFD-LM-225-130-N.jpg' height=""250px"">,</br><b>David</b>","""",23,ConfidenceQuery,Test,"""","""","""",50,50,"""",2,1,CFD-LM-225-130-N.jpg,David,"""",1/26/2021 17:45,67.83.183.0,"Mozilla/5.0 (Windows NT 10.0; Win64; x64) AppleWebKit/537.36 (KHTML, like Gecko) Chrome/87.0.4280.141 Safari/537.36",WebKit,Chrome,87.0.4280.141,Windows,10
98,1,null,"""",html-keyboard-response,185,587151,0.0-185.0,"<div style=""font-size:60px;"">+</div>","""",24,ITI,Test,null,1000,"""","""","""","""","""","""","""","""","""",1/26/2021 17:45,67.83.183.0,"Mozilla/5.0 (Windows NT 10.0; Win64; x64) AppleWebKit/537.36 (KHTML, like Gecko) Chrome/87.0.4280.141 Safari/537.36",WebKit,Chrome,87.0.4280.141,Windows,10
98,1,null,"""",image-keyboard-response,186,587409,0.0-186.0,jspsych/scrambledDisgustFaces/scrambledAM30DIS.JPG,"""",24,forwardMask,Test,null,250,d,"""","""","""","""","""","""","""","""",1/26/2021 17:45,67.83.183.0,"Mozilla/5.0 (Windows NT 10.0; Win64; x64) AppleWebKit/537.36 (KHTML, like Gecko) Chrome/87.0.4280.141 Safari/537.36",WebKit,Chrome,87.0.4280.141,Windows,10
98,1,null,"""",image-keyboard-response,187,587433,0.0-187.0,jspsych/disgustFaces/AM30DIS.JPG,"""",24,Cue,Test,null,"function(){
        return jsPsych.randomization.sampleWithoutReplacement(cueDuration, 1)[0]}","""","""","""","""","""","""","""","""","""",1/26/2021 17:45,67.83.183.0,"Mozilla/5.0 (Windows NT 10.0; Win64; x64) AppleWebKit/537.36 (KHTML, like Gecko) Chrome/87.0.4280.141 Safari/537.36",WebKit,Chrome,87.0.4280.141,Windows,10
98,1,null,"""",image-keyboard-response,188,587542,0.0-188.0,jspsych/neutralFaces/BM26NES.JPG,"""",24,backwardMask,Test,null,100,"""","""","""","""","""","""","""","""","""",1/26/2021 17:45,67.83.183.0,"Mozilla/5.0 (Windows NT 10.0; Win64; x64) AppleWebKit/537.36 (KHTML, like Gecko) Chrome/87.0.4280.141 Safari/537.36",WebKit,Chrome,87.0.4280.141,Windows,10
98,1,null,"""",html-keyboard-response,189,588549,0.0-189.0,"<div style=""font-size:60px;"">+</div>","""",24,fixationBtwnNeutralMaskAndPrompt,Test,null,1000,"""","""","""","""","""","""","""","""","""",1/26/2021 17:45,67.83.183.0,"Mozilla/5.0 (Windows NT 10.0; Win64; x64) AppleWebKit/537.36 (KHTML, like Gecko) Chrome/87.0.4280.141 Safari/537.36",WebKit,Chrome,87.0.4280.141,Windows,10
98,1,5385.715,"""",html-slider-response,190,593943,0.0-190.0,"<img src='jspsych/CFDfaces/CFD-BM-029-024-N.jpg' height=""250px"">,</br><b>Taylor</b>","""",24,ConfidenceQuery,Test,"""","""","""",50,50,"""",2,0,CFD-BM-029-024-N.jpg,Taylor,"""",1/26/2021 17:45,67.83.183.0,"Mozilla/5.0 (Windows NT 10.0; Win64; x64) AppleWebKit/537.36 (KHTML, like Gecko) Chrome/87.0.4280.141 Safari/537.36",WebKit,Chrome,87.0.4280.141,Windows,10
98,1,null,"""",html-keyboard-response,191,594952,0.0-191.0,"<div style=""font-size:60px;"">+</div>","""",25,ITI,Test,null,1000,"""","""","""","""","""","""","""","""","""",1/26/2021 17:45,67.83.183.0,"Mozilla/5.0 (Windows NT 10.0; Win64; x64) AppleWebKit/537.36 (KHTML, like Gecko) Chrome/87.0.4280.141 Safari/537.36",WebKit,Chrome,87.0.4280.141,Windows,10
98,1,null,"""",image-keyboard-response,192,595220,0.0-192.0,jspsych/scrambledDisgustFaces/scrambledAM29DIS.JPG,"""",25,forwardMask,Test,null,250,d,"""","""","""","""","""","""","""","""",1/26/2021 17:45,67.83.183.0,"Mozilla/5.0 (Windows NT 10.0; Win64; x64) AppleWebKit/537.36 (KHTML, like Gecko) Chrome/87.0.4280.141 Safari/537.36",WebKit,Chrome,87.0.4280.141,Windows,10
98,1,null,"""",image-keyboard-response,193,595243,0.0-193.0,jspsych/disgustFaces/AM29DIS.JPG,"""",25,Cue,Test,null,"function(){
        return jsPsych.randomization.sampleWithoutReplacement(cueDuration, 1)[0]}","""","""","""","""","""","""","""","""","""",1/26/2021 17:45,67.83.183.0,"Mozilla/5.0 (Windows NT 10.0; Win64; x64) AppleWebKit/537.36 (KHTML, like Gecko) Chrome/87.0.4280.141 Safari/537.36",WebKit,Chrome,87.0.4280.141,Windows,10
98,1,null,"""",image-keyboard-response,194,595351,0.0-194.0,jspsych/neutralFaces/AF09NES.JPG,"""",25,backwardMask,Test,null,100,"""","""","""","""","""","""","""","""","""",1/26/2021 17:45,67.83.183.0,"Mozilla/5.0 (Windows NT 10.0; Win64; x64) AppleWebKit/537.36 (KHTML, like Gecko) Chrome/87.0.4280.141 Safari/537.36",WebKit,Chrome,87.0.4280.141,Windows,10
98,1,null,"""",html-keyboard-response,195,596361,0.0-195.0,"<div style=""font-size:60px;"">+</div>","""",25,fixationBtwnNeutralMaskAndPrompt,Test,null,1000,"""","""","""","""","""","""","""","""","""",1/26/2021 17:45,67.83.183.0,"Mozilla/5.0 (Windows NT 10.0; Win64; x64) AppleWebKit/537.36 (KHTML, like Gecko) Chrome/87.0.4280.141 Safari/537.36",WebKit,Chrome,87.0.4280.141,Windows,10
98,1,8630.415,"""",html-slider-response,196,604994,0.0-196.0,"<img src='jspsych/CFDfaces/CFD-WM-019-003-N.jpg' height=""250px"">,</br><b>Jeremy</b>","""",25,ConfidenceQuery,Test,"""","""","""",50,50,"""",2,0,CFD-WM-019-003-N.jpg,Jeremy,"""",1/26/2021 17:45,67.83.183.0,"Mozilla/5.0 (Windows NT 10.0; Win64; x64) AppleWebKit/537.36 (KHTML, like Gecko) Chrome/87.0.4280.141 Safari/537.36",WebKit,Chrome,87.0.4280.141,Windows,10
98,1,null,"""",html-keyboard-response,197,606009,0.0-197.0,"<div style=""font-size:60px;"">+</div>","""",26,ITI,Test,null,1000,"""","""","""","""","""","""","""","""","""",1/26/2021 17:45,67.83.183.0,"Mozilla/5.0 (Windows NT 10.0; Win64; x64) AppleWebKit/537.36 (KHTML, like Gecko) Chrome/87.0.4280.141 Safari/537.36",WebKit,Chrome,87.0.4280.141,Windows,10
98,1,null,"""",image-keyboard-response,198,606267,0.0-198.0,jspsych/scrambledDisgustFaces/scrambledBF32DIS.JPG,"""",26,forwardMask,Test,null,250,d,"""","""","""","""","""","""","""","""",1/26/2021 17:45,67.83.183.0,"Mozilla/5.0 (Windows NT 10.0; Win64; x64) AppleWebKit/537.36 (KHTML, like Gecko) Chrome/87.0.4280.141 Safari/537.36",WebKit,Chrome,87.0.4280.141,Windows,10
98,1,null,"""",image-keyboard-response,199,606288,0.0-199.0,jspsych/disgustFaces/BF32DIS.JPG,"""",26,Cue,Test,null,"function(){
        return jsPsych.randomization.sampleWithoutReplacement(cueDuration, 1)[0]}","""","""","""","""","""","""","""","""","""",1/26/2021 17:45,67.83.183.0,"Mozilla/5.0 (Windows NT 10.0; Win64; x64) AppleWebKit/537.36 (KHTML, like Gecko) Chrome/87.0.4280.141 Safari/537.36",WebKit,Chrome,87.0.4280.141,Windows,10
98,1,null,"""",image-keyboard-response,200,606401,0.0-200.0,jspsych/neutralFaces/AM01NES.JPG,"""",26,backwardMask,Test,null,100,"""","""","""","""","""","""","""","""","""",1/26/2021 17:45,67.83.183.0,"Mozilla/5.0 (Windows NT 10.0; Win64; x64) AppleWebKit/537.36 (KHTML, like Gecko) Chrome/87.0.4280.141 Safari/537.36",WebKit,Chrome,87.0.4280.141,Windows,10
98,1,null,"""",html-keyboard-response,201,607411,0.0-201.0,"<div style=""font-size:60px;"">+</div>","""",26,fixationBtwnNeutralMaskAndPrompt,Test,null,1000,"""","""","""","""","""","""","""","""","""",1/26/2021 17:45,67.83.183.0,"Mozilla/5.0 (Windows NT 10.0; Win64; x64) AppleWebKit/537.36 (KHTML, like Gecko) Chrome/87.0.4280.141 Safari/537.36",WebKit,Chrome,87.0.4280.141,Windows,10
98,1,1350,"""",html-slider-response,202,608763,0.0-202.0,"<img src='jspsych/CFDfaces/CFD-LM-221-216-N.jpg' height=""250px"">,</br><b>Edward</b>","""",26,ConfidenceQuery,Test,"""","""","""",50,50,"""",2,0,CFD-LM-221-216-N.jpg,Edward,"""",1/26/2021 17:45,67.83.183.0,"Mozilla/5.0 (Windows NT 10.0; Win64; x64) AppleWebKit/537.36 (KHTML, like Gecko) Chrome/87.0.4280.141 Safari/537.36",WebKit,Chrome,87.0.4280.141,Windows,10
98,1,null,"""",html-keyboard-response,203,609781,0.0-203.0,"<div style=""font-size:60px;"">+</div>","""",27,ITI,Test,null,1000,"""","""","""","""","""","""","""","""","""",1/26/2021 17:45,67.83.183.0,"Mozilla/5.0 (Windows NT 10.0; Win64; x64) AppleWebKit/537.36 (KHTML, like Gecko) Chrome/87.0.4280.141 Safari/537.36",WebKit,Chrome,87.0.4280.141,Windows,10
98,1,null,"""",image-keyboard-response,204,610041,0.0-204.0,jspsych/scrambledDisgustFaces/scrambledAF23DIS.JPG,"""",27,forwardMask,Test,null,250,d,"""","""","""","""","""","""","""","""",1/26/2021 17:45,67.83.183.0,"Mozilla/5.0 (Windows NT 10.0; Win64; x64) AppleWebKit/537.36 (KHTML, like Gecko) Chrome/87.0.4280.141 Safari/537.36",WebKit,Chrome,87.0.4280.141,Windows,10
98,1,null,"""",image-keyboard-response,205,610059,0.0-205.0,jspsych/disgustFaces/AF23DIS.JPG,"""",27,Cue,Test,null,"function(){
        return jsPsych.randomization.sampleWithoutReplacement(cueDuration, 1)[0]}","""","""","""","""","""","""","""","""","""",1/26/2021 17:45,67.83.183.0,"Mozilla/5.0 (Windows NT 10.0; Win64; x64) AppleWebKit/537.36 (KHTML, like Gecko) Chrome/87.0.4280.141 Safari/537.36",WebKit,Chrome,87.0.4280.141,Windows,10
98,1,null,"""",image-keyboard-response,206,610161,0.0-206.0,jspsych/neutralFaces/AM04NES.JPG,"""",27,backwardMask,Test,null,100,"""","""","""","""","""","""","""","""","""",1/26/2021 17:45,67.83.183.0,"Mozilla/5.0 (Windows NT 10.0; Win64; x64) AppleWebKit/537.36 (KHTML, like Gecko) Chrome/87.0.4280.141 Safari/537.36",WebKit,Chrome,87.0.4280.141,Windows,10
98,1,null,"""",html-keyboard-response,207,611169,0.0-207.0,"<div style=""font-size:60px;"">+</div>","""",27,fixationBtwnNeutralMaskAndPrompt,Test,null,1000,"""","""","""","""","""","""","""","""","""",1/26/2021 17:45,67.83.183.0,"Mozilla/5.0 (Windows NT 10.0; Win64; x64) AppleWebKit/537.36 (KHTML, like Gecko) Chrome/87.0.4280.141 Safari/537.36",WebKit,Chrome,87.0.4280.141,Windows,10
98,1,871.31,"""",html-slider-response,208,612043,0.0-208.0,"<img src='jspsych/CFDfaces/CFD-LM-219-295-N.jpg' height=""250px"">,</br><b>Michael</b>","""",27,ConfidenceQuery,Test,"""","""","""",50,50,"""",2,0,CFD-LM-219-295-N.jpg,Michael,"""",1/26/2021 17:45,67.83.183.0,"Mozilla/5.0 (Windows NT 10.0; Win64; x64) AppleWebKit/537.36 (KHTML, like Gecko) Chrome/87.0.4280.141 Safari/537.36",WebKit,Chrome,87.0.4280.141,Windows,10
98,1,null,"""",html-keyboard-response,209,613051,0.0-209.0,"<div style=""font-size:60px;"">+</div>","""",28,ITI,Test,null,1000,"""","""","""","""","""","""","""","""","""",1/26/2021 17:45,67.83.183.0,"Mozilla/5.0 (Windows NT 10.0; Win64; x64) AppleWebKit/537.36 (KHTML, like Gecko) Chrome/87.0.4280.141 Safari/537.36",WebKit,Chrome,87.0.4280.141,Windows,10
98,1,null,"""",image-keyboard-response,210,613311,0.0-210.0,jspsych/scrambledDisgustFaces/scrambledBM18DIS.JPG,"""",28,forwardMask,Test,null,250,d,"""","""","""","""","""","""","""","""",1/26/2021 17:45,67.83.183.0,"Mozilla/5.0 (Windows NT 10.0; Win64; x64) AppleWebKit/537.36 (KHTML, like Gecko) Chrome/87.0.4280.141 Safari/537.36",WebKit,Chrome,87.0.4280.141,Windows,10
98,1,null,"""",image-keyboard-response,211,613331,0.0-211.0,jspsych/disgustFaces/BM18DIS.JPG,"""",28,Cue,Test,null,"function(){
        return jsPsych.randomization.sampleWithoutReplacement(cueDuration, 1)[0]}","""","""","""","""","""","""","""","""","""",1/26/2021 17:45,67.83.183.0,"Mozilla/5.0 (Windows NT 10.0; Win64; x64) AppleWebKit/537.36 (KHTML, like Gecko) Chrome/87.0.4280.141 Safari/537.36",WebKit,Chrome,87.0.4280.141,Windows,10
98,1,null,"""",image-keyboard-response,212,613441,0.0-212.0,jspsych/neutralFaces/AM11NES.JPG,"""",28,backwardMask,Test,null,100,"""","""","""","""","""","""","""","""","""",1/26/2021 17:45,67.83.183.0,"Mozilla/5.0 (Windows NT 10.0; Win64; x64) AppleWebKit/537.36 (KHTML, like Gecko) Chrome/87.0.4280.141 Safari/537.36",WebKit,Chrome,87.0.4280.141,Windows,10
98,1,null,"""",html-keyboard-response,213,614449,0.0-213.0,"<div style=""font-size:60px;"">+</div>","""",28,fixationBtwnNeutralMaskAndPrompt,Test,null,1000,"""","""","""","""","""","""","""","""","""",1/26/2021 17:45,67.83.183.0,"Mozilla/5.0 (Windows NT 10.0; Win64; x64) AppleWebKit/537.36 (KHTML, like Gecko) Chrome/87.0.4280.141 Safari/537.36",WebKit,Chrome,87.0.4280.141,Windows,10
98,1,1370.035,"""",html-slider-response,214,615822,0.0-214.0,"<img src='jspsych/CFDfaces/CFD-WF-006-002-N.jpg' height=""250px"">,</br><b>Jasmine</b>","""",28,ConfidenceQuery,Test,"""","""","""",50,50,"""",2,0,CFD-WF-006-002-N.jpg,Jasmine,"""",1/26/2021 17:45,67.83.183.0,"Mozilla/5.0 (Windows NT 10.0; Win64; x64) AppleWebKit/537.36 (KHTML, like Gecko) Chrome/87.0.4280.141 Safari/537.36",WebKit,Chrome,87.0.4280.141,Windows,10
98,1,null,"""",html-keyboard-response,215,616832,0.0-215.0,"<div style=""font-size:60px;"">+</div>","""",29,ITI,Test,null,1000,"""","""","""","""","""","""","""","""","""",1/26/2021 17:45,67.83.183.0,"Mozilla/5.0 (Windows NT 10.0; Win64; x64) AppleWebKit/537.36 (KHTML, like Gecko) Chrome/87.0.4280.141 Safari/537.36",WebKit,Chrome,87.0.4280.141,Windows,10
98,1,null,"""",image-keyboard-response,216,617091,0.0-216.0,jspsych/scrambledDisgustFaces/scrambledAM11DIS.JPG,"""",29,forwardMask,Test,null,250,d,"""","""","""","""","""","""","""","""",1/26/2021 17:45,67.83.183.0,"Mozilla/5.0 (Windows NT 10.0; Win64; x64) AppleWebKit/537.36 (KHTML, like Gecko) Chrome/87.0.4280.141 Safari/537.36",WebKit,Chrome,87.0.4280.141,Windows,10
98,1,null,"""",image-keyboard-response,217,617111,0.0-217.0,jspsych/disgustFaces/AM11DIS.JPG,"""",29,Cue,Test,null,"function(){
        return jsPsych.randomization.sampleWithoutReplacement(cueDuration, 1)[0]}","""","""","""","""","""","""","""","""","""",1/26/2021 17:45,67.83.183.0,"Mozilla/5.0 (Windows NT 10.0; Win64; x64) AppleWebKit/537.36 (KHTML, like Gecko) Chrome/87.0.4280.141 Safari/537.36",WebKit,Chrome,87.0.4280.141,Windows,10
98,1,null,"""",image-keyboard-response,218,617221,0.0-218.0,jspsych/neutralFaces/AF10NES.JPG,"""",29,backwardMask,Test,null,100,"""","""","""","""","""","""","""","""","""",1/26/2021 17:45,67.83.183.0,"Mozilla/5.0 (Windows NT 10.0; Win64; x64) AppleWebKit/537.36 (KHTML, like Gecko) Chrome/87.0.4280.141 Safari/537.36",WebKit,Chrome,87.0.4280.141,Windows,10
98,1,null,"""",html-keyboard-response,219,618971,0.0-219.0,"<div style=""font-size:60px;"">+</div>","""",29,fixationBtwnNeutralMaskAndPrompt,Test,null,1000,"""","""","""","""","""","""","""","""","""",1/26/2021 17:45,67.83.183.0,"Mozilla/5.0 (Windows NT 10.0; Win64; x64) AppleWebKit/537.36 (KHTML, like Gecko) Chrome/87.0.4280.141 Safari/537.36",WebKit,Chrome,87.0.4280.141,Windows,10
98,1,3210.175,"""",html-slider-response,220,622183,0.0-220.0,"<img src='jspsych/CFDfaces/CFD-BF-010-001-N.jpg' height=""250px"">,</br><b>Jennifer</b>","""",29,ConfidenceQuery,Test,"""","""","""",50,50,"""",2,0,CFD-BF-010-001-N.jpg,Jennifer,"""",1/26/2021 17:45,67.83.183.0,"Mozilla/5.0 (Windows NT 10.0; Win64; x64) AppleWebKit/537.36 (KHTML, like Gecko) Chrome/87.0.4280.141 Safari/537.36",WebKit,Chrome,87.0.4280.141,Windows,10
98,1,null,"""",html-keyboard-response,221,623971,0.0-221.0,"<div style=""font-size:60px;"">+</div>","""",30,ITI,Test,null,1000,"""","""","""","""","""","""","""","""","""",1/26/2021 17:45,67.83.183.0,"Mozilla/5.0 (Windows NT 10.0; Win64; x64) AppleWebKit/537.36 (KHTML, like Gecko) Chrome/87.0.4280.141 Safari/537.36",WebKit,Chrome,87.0.4280.141,Windows,10
98,1,null,"""",image-keyboard-response,222,624972,0.0-222.0,jspsych/scrambledDisgustFaces/scrambledAM16DIS.JPG,"""",30,forwardMask,Test,null,250,d,"""","""","""","""","""","""","""","""",1/26/2021 17:45,67.83.183.0,"Mozilla/5.0 (Windows NT 10.0; Win64; x64) AppleWebKit/537.36 (KHTML, like Gecko) Chrome/87.0.4280.141 Safari/537.36",WebKit,Chrome,87.0.4280.141,Windows,10
98,1,null,"""",image-keyboard-response,223,625974,0.0-223.0,jspsych/disgustFaces/AM16DIS.JPG,"""",30,Cue,Test,null,"function(){
        return jsPsych.randomization.sampleWithoutReplacement(cueDuration, 1)[0]}","""","""","""","""","""","""","""","""","""",1/26/2021 17:45,67.83.183.0,"Mozilla/5.0 (Windows NT 10.0; Win64; x64) AppleWebKit/537.36 (KHTML, like Gecko) Chrome/87.0.4280.141 Safari/537.36",WebKit,Chrome,87.0.4280.141,Windows,10
98,1,null,"""",image-keyboard-response,224,626971,0.0-224.0,jspsych/neutralFaces/BF32NES.JPG,"""",30,backwardMask,Test,null,100,"""","""","""","""","""","""","""","""","""",1/26/2021 17:45,67.83.183.0,"Mozilla/5.0 (Windows NT 10.0; Win64; x64) AppleWebKit/537.36 (KHTML, like Gecko) Chrome/87.0.4280.141 Safari/537.36",WebKit,Chrome,87.0.4280.141,Windows,10
98,1,null,"""",html-keyboard-response,225,628807,0.0-225.0,"<div style=""font-size:60px;"">+</div>","""",30,fixationBtwnNeutralMaskAndPrompt,Test,null,1000,"""","""","""","""","""","""","""","""","""",1/26/2021 17:45,67.83.183.0,"Mozilla/5.0 (Windows NT 10.0; Win64; x64) AppleWebKit/537.36 (KHTML, like Gecko) Chrome/87.0.4280.141 Safari/537.36",WebKit,Chrome,87.0.4280.141,Windows,10
98,1,1573.38,"""",html-slider-response,226,630384,0.0-226.0,"<img src='jspsych/CFDfaces/CFD-AM-243-212-N.jpg' height=""250px"">,</br><b>Joshua</b>","""",30,ConfidenceQuery,Test,"""","""","""",50,50,"""",2,0,CFD-AM-243-212-N.jpg,Joshua,"""",1/26/2021 17:45,67.83.183.0,"Mozilla/5.0 (Windows NT 10.0; Win64; x64) AppleWebKit/537.36 (KHTML, like Gecko) Chrome/87.0.4280.141 Safari/537.36",WebKit,Chrome,87.0.4280.141,Windows,10
98,1,null,"""",html-keyboard-response,227,631399,0.0-227.0,"<div style=""font-size:60px;"">+</div>","""",31,ITI,Test,null,1000,"""","""","""","""","""","""","""","""","""",1/26/2021 17:45,67.83.183.0,"Mozilla/5.0 (Windows NT 10.0; Win64; x64) AppleWebKit/537.36 (KHTML, like Gecko) Chrome/87.0.4280.141 Safari/537.36",WebKit,Chrome,87.0.4280.141,Windows,10
98,1,null,"""",image-keyboard-response,228,631661,0.0-228.0,jspsych/scrambledDisgustFaces/scrambledAM08DIS.JPG,"""",31,forwardMask,Test,null,250,d,"""","""","""","""","""","""","""","""",1/26/2021 17:45,67.83.183.0,"Mozilla/5.0 (Windows NT 10.0; Win64; x64) AppleWebKit/537.36 (KHTML, like Gecko) Chrome/87.0.4280.141 Safari/537.36",WebKit,Chrome,87.0.4280.141,Windows,10
98,1,null,"""",image-keyboard-response,229,631681,0.0-229.0,jspsych/disgustFaces/AM08DIS.JPG,"""",31,Cue,Test,null,"function(){
        return jsPsych.randomization.sampleWithoutReplacement(cueDuration, 1)[0]}","""","""","""","""","""","""","""","""","""",1/26/2021 17:45,67.83.183.0,"Mozilla/5.0 (Windows NT 10.0; Win64; x64) AppleWebKit/537.36 (KHTML, like Gecko) Chrome/87.0.4280.141 Safari/537.36",WebKit,Chrome,87.0.4280.141,Windows,10
98,1,null,"""",image-keyboard-response,230,631792,0.0-230.0,jspsych/neutralFaces/BF02NES.JPG,"""",31,backwardMask,Test,null,100,"""","""","""","""","""","""","""","""","""",1/26/2021 17:45,67.83.183.0,"Mozilla/5.0 (Windows NT 10.0; Win64; x64) AppleWebKit/537.36 (KHTML, like Gecko) Chrome/87.0.4280.141 Safari/537.36",WebKit,Chrome,87.0.4280.141,Windows,10
98,1,null,"""",html-keyboard-response,231,632799,0.0-231.0,"<div style=""font-size:60px;"">+</div>","""",31,fixationBtwnNeutralMaskAndPrompt,Test,null,1000,"""","""","""","""","""","""","""","""","""",1/26/2021 17:45,67.83.183.0,"Mozilla/5.0 (Windows NT 10.0; Win64; x64) AppleWebKit/537.36 (KHTML, like Gecko) Chrome/87.0.4280.141 Safari/537.36",WebKit,Chrome,87.0.4280.141,Windows,10
98,1,647164.685,"""",html-slider-response,232,1277069,0.0-232.0,"<img src='jspsych/CFDfaces/CFD-BM-022-022-N.jpg' height=""250px"">,</br><b>Anthony</b>","""",31,ConfidenceQuery,Test,"""","""","""",50,50,"""",2,1,CFD-BM-022-022-N.jpg,Anthony,"""",1/26/2021 17:45,67.83.183.0,"Mozilla/5.0 (Windows NT 10.0; Win64; x64) AppleWebKit/537.36 (KHTML, like Gecko) Chrome/87.0.4280.141 Safari/537.36",WebKit,Chrome,87.0.4280.141,Windows,10
98,1,null,"""",html-keyboard-response,233,1278097,0.0-233.0,"<div style=""font-size:60px;"">+</div>","""",32,ITI,Test,null,1000,"""","""","""","""","""","""","""","""","""",1/26/2021 17:45,67.83.183.0,"Mozilla/5.0 (Windows NT 10.0; Win64; x64) AppleWebKit/537.36 (KHTML, like Gecko) Chrome/87.0.4280.141 Safari/537.36",WebKit,Chrome,87.0.4280.141,Windows,10
98,1,null,"""",image-keyboard-response,234,1278350,0.0-234.0,jspsych/scrambledDisgustFaces/scrambledBF12DIS.JPG,"""",32,forwardMask,Test,null,250,d,"""","""","""","""","""","""","""","""",1/26/2021 17:45,67.83.183.0,"Mozilla/5.0 (Windows NT 10.0; Win64; x64) AppleWebKit/537.36 (KHTML, like Gecko) Chrome/87.0.4280.141 Safari/537.36",WebKit,Chrome,87.0.4280.141,Windows,10
98,1,null,"""",image-keyboard-response,235,1278371,0.0-235.0,jspsych/disgustFaces/BF12DIS.JPG,"""",32,Cue,Test,null,"function(){
        return jsPsych.randomization.sampleWithoutReplacement(cueDuration, 1)[0]}","""","""","""","""","""","""","""","""","""",1/26/2021 17:45,67.83.183.0,"Mozilla/5.0 (Windows NT 10.0; Win64; x64) AppleWebKit/537.36 (KHTML, like Gecko) Chrome/87.0.4280.141 Safari/537.36",WebKit,Chrome,87.0.4280.141,Windows,10
98,1,null,"""",image-keyboard-response,236,1278475,0.0-236.0,jspsych/neutralFaces/BM25NES.JPG,"""",32,backwardMask,Test,null,100,"""","""","""","""","""","""","""","""","""",1/26/2021 17:45,67.83.183.0,"Mozilla/5.0 (Windows NT 10.0; Win64; x64) AppleWebKit/537.36 (KHTML, like Gecko) Chrome/87.0.4280.141 Safari/537.36",WebKit,Chrome,87.0.4280.141,Windows,10
98,1,null,"""",html-keyboard-response,237,1279478,0.0-237.0,"<div style=""font-size:60px;"">+</div>","""",32,fixationBtwnNeutralMaskAndPrompt,Test,null,1000,"""","""","""","""","""","""","""","""","""",1/26/2021 17:45,67.83.183.0,"Mozilla/5.0 (Windows NT 10.0; Win64; x64) AppleWebKit/537.36 (KHTML, like Gecko) Chrome/87.0.4280.141 Safari/537.36",WebKit,Chrome,87.0.4280.141,Windows,10
98,1,940.405,"""",html-slider-response,238,1280427,0.0-238.0,"<img src='jspsych/CFDfaces/CFD-LF-202-065-N.jpg' height=""250px"">,</br><b>Jamie</b>","""",32,ConfidenceQuery,Test,"""","""","""",50,50,"""",2,1,CFD-LF-202-065-N.jpg,Jamie,"""",1/26/2021 17:45,67.83.183.0,"Mozilla/5.0 (Windows NT 10.0; Win64; x64) AppleWebKit/537.36 (KHTML, like Gecko) Chrome/87.0.4280.141 Safari/537.36",WebKit,Chrome,87.0.4280.141,Windows,10
98,1,null,"""",html-keyboard-response,239,1281437,0.0-239.0,"<div style=""font-size:60px;"">+</div>","""",33,ITI,Test,null,1000,"""","""","""","""","""","""","""","""","""",1/26/2021 17:45,67.83.183.0,"Mozilla/5.0 (Windows NT 10.0; Win64; x64) AppleWebKit/537.36 (KHTML, like Gecko) Chrome/87.0.4280.141 Safari/537.36",WebKit,Chrome,87.0.4280.141,Windows,10
98,1,null,"""",image-keyboard-response,240,1281691,0.0-240.0,jspsych/scrambledDisgustFaces/scrambledBM11DIS.JPG,"""",33,forwardMask,Test,null,250,d,"""","""","""","""","""","""","""","""",1/26/2021 17:45,67.83.183.0,"Mozilla/5.0 (Windows NT 10.0; Win64; x64) AppleWebKit/537.36 (KHTML, like Gecko) Chrome/87.0.4280.141 Safari/537.36",WebKit,Chrome,87.0.4280.141,Windows,10
98,1,null,"""",image-keyboard-response,241,1281710,0.0-241.0,jspsych/disgustFaces/BM11DIS.JPG,"""",33,Cue,Test,null,"function(){
        return jsPsych.randomization.sampleWithoutReplacement(cueDuration, 1)[0]}","""","""","""","""","""","""","""","""","""",1/26/2021 17:45,67.83.183.0,"Mozilla/5.0 (Windows NT 10.0; Win64; x64) AppleWebKit/537.36 (KHTML, like Gecko) Chrome/87.0.4280.141 Safari/537.36",WebKit,Chrome,87.0.4280.141,Windows,10
98,1,null,"""",image-keyboard-response,242,1281812,0.0-242.0,jspsych/neutralFaces/AF08NES.JPG,"""",33,backwardMask,Test,null,100,"""","""","""","""","""","""","""","""","""",1/26/2021 17:45,67.83.183.0,"Mozilla/5.0 (Windows NT 10.0; Win64; x64) AppleWebKit/537.36 (KHTML, like Gecko) Chrome/87.0.4280.141 Safari/537.36",WebKit,Chrome,87.0.4280.141,Windows,10
98,1,null,"""",html-keyboard-response,243,1282822,0.0-243.0,"<div style=""font-size:60px;"">+</div>","""",33,fixationBtwnNeutralMaskAndPrompt,Test,null,1000,"""","""","""","""","""","""","""","""","""",1/26/2021 17:45,67.83.183.0,"Mozilla/5.0 (Windows NT 10.0; Win64; x64) AppleWebKit/537.36 (KHTML, like Gecko) Chrome/87.0.4280.141 Safari/537.36",WebKit,Chrome,87.0.4280.141,Windows,10
98,1,295.405,"""",html-slider-response,244,1283120,0.0-244.0,"<img src='jspsych/CFDfaces/CFD-BM-026-002-N.jpg' height=""250px"">,</br><b>Nathan</b>","""",33,ConfidenceQuery,Test,"""","""","""",50,50,"""",2,0,CFD-BM-026-002-N.jpg,Nathan,"""",1/26/2021 17:45,67.83.183.0,"Mozilla/5.0 (Windows NT 10.0; Win64; x64) AppleWebKit/537.36 (KHTML, like Gecko) Chrome/87.0.4280.141 Safari/537.36",WebKit,Chrome,87.0.4280.141,Windows,10
98,1,null,"""",html-keyboard-response,245,1284130,0.0-245.0,"<div style=""font-size:60px;"">+</div>","""",34,ITI,Test,null,1000,"""","""","""","""","""","""","""","""","""",1/26/2021 17:45,67.83.183.0,"Mozilla/5.0 (Windows NT 10.0; Win64; x64) AppleWebKit/537.36 (KHTML, like Gecko) Chrome/87.0.4280.141 Safari/537.36",WebKit,Chrome,87.0.4280.141,Windows,10
98,1,null,"""",image-keyboard-response,246,1284384,0.0-246.0,jspsych/scrambledDisgustFaces/scrambledBM10DIS.JPG,"""",34,forwardMask,Test,null,250,d,"""","""","""","""","""","""","""","""",1/26/2021 17:45,67.83.183.0,"Mozilla/5.0 (Windows NT 10.0; Win64; x64) AppleWebKit/537.36 (KHTML, like Gecko) Chrome/87.0.4280.141 Safari/537.36",WebKit,Chrome,87.0.4280.141,Windows,10
98,1,null,"""",image-keyboard-response,247,1284403,0.0-247.0,jspsych/disgustFaces/BM10DIS.JPG,"""",34,Cue,Test,null,"function(){
        return jsPsych.randomization.sampleWithoutReplacement(cueDuration, 1)[0]}","""","""","""","""","""","""","""","""","""",1/26/2021 17:45,67.83.183.0,"Mozilla/5.0 (Windows NT 10.0; Win64; x64) AppleWebKit/537.36 (KHTML, like Gecko) Chrome/87.0.4280.141 Safari/537.36",WebKit,Chrome,87.0.4280.141,Windows,10
98,1,null,"""",image-keyboard-response,248,1284505,0.0-248.0,jspsych/neutralFaces/AM03NES.JPG,"""",34,backwardMask,Test,null,100,"""","""","""","""","""","""","""","""","""",1/26/2021 17:45,67.83.183.0,"Mozilla/5.0 (Windows NT 10.0; Win64; x64) AppleWebKit/537.36 (KHTML, like Gecko) Chrome/87.0.4280.141 Safari/537.36",WebKit,Chrome,87.0.4280.141,Windows,10
98,1,null,"""",html-keyboard-response,249,1285507,0.0-249.0,"<div style=""font-size:60px;"">+</div>","""",34,fixationBtwnNeutralMaskAndPrompt,Test,null,1000,"""","""","""","""","""","""","""","""","""",1/26/2021 17:45,67.83.183.0,"Mozilla/5.0 (Windows NT 10.0; Win64; x64) AppleWebKit/537.36 (KHTML, like Gecko) Chrome/87.0.4280.141 Safari/537.36",WebKit,Chrome,87.0.4280.141,Windows,10
98,1,1435.32,"""",html-slider-response,250,1286946,0.0-250.0,"<img src='jspsych/CFDfaces/CFD-WF-003-003-N.jpg' height=""250px"">,</br><b>Lindsey</b>","""",34,ConfidenceQuery,Test,"""","""","""",50,50,"""",2,1,CFD-WF-003-003-N.jpg,Lindsey,"""",1/26/2021 17:45,67.83.183.0,"Mozilla/5.0 (Windows NT 10.0; Win64; x64) AppleWebKit/537.36 (KHTML, like Gecko) Chrome/87.0.4280.141 Safari/537.36",WebKit,Chrome,87.0.4280.141,Windows,10
98,1,null,"""",html-keyboard-response,251,1287955,0.0-251.0,"<div style=""font-size:60px;"">+</div>","""",35,ITI,Test,null,1000,"""","""","""","""","""","""","""","""","""",1/26/2021 17:45,67.83.183.0,"Mozilla/5.0 (Windows NT 10.0; Win64; x64) AppleWebKit/537.36 (KHTML, like Gecko) Chrome/87.0.4280.141 Safari/537.36",WebKit,Chrome,87.0.4280.141,Windows,10
98,1,null,"""",image-keyboard-response,252,1288207,0.0-252.0,jspsych/scrambledDisgustFaces/scrambledBM13DIS.JPG,"""",35,forwardMask,Test,null,250,d,"""","""","""","""","""","""","""","""",1/26/2021 17:45,67.83.183.0,"Mozilla/5.0 (Windows NT 10.0; Win64; x64) AppleWebKit/537.36 (KHTML, like Gecko) Chrome/87.0.4280.141 Safari/537.36",WebKit,Chrome,87.0.4280.141,Windows,10
98,1,null,"""",image-keyboard-response,253,1288225,0.0-253.0,jspsych/disgustFaces/BM13DIS.JPG,"""",35,Cue,Test,null,"function(){
        return jsPsych.randomization.sampleWithoutReplacement(cueDuration, 1)[0]}","""","""","""","""","""","""","""","""","""",1/26/2021 17:45,67.83.183.0,"Mozilla/5.0 (Windows NT 10.0; Win64; x64) AppleWebKit/537.36 (KHTML, like Gecko) Chrome/87.0.4280.141 Safari/537.36",WebKit,Chrome,87.0.4280.141,Windows,10
98,1,null,"""",image-keyboard-response,254,1288327,0.0-254.0,jspsych/neutralFaces/AF04NES.JPG,"""",35,backwardMask,Test,null,100,"""","""","""","""","""","""","""","""","""",1/26/2021 17:45,67.83.183.0,"Mozilla/5.0 (Windows NT 10.0; Win64; x64) AppleWebKit/537.36 (KHTML, like Gecko) Chrome/87.0.4280.141 Safari/537.36",WebKit,Chrome,87.0.4280.141,Windows,10
98,1,null,"""",html-keyboard-response,255,1289330,0.0-255.0,"<div style=""font-size:60px;"">+</div>","""",35,fixationBtwnNeutralMaskAndPrompt,Test,null,1000,"""","""","""","""","""","""","""","""","""",1/26/2021 17:45,67.83.183.0,"Mozilla/5.0 (Windows NT 10.0; Win64; x64) AppleWebKit/537.36 (KHTML, like Gecko) Chrome/87.0.4280.141 Safari/537.36",WebKit,Chrome,87.0.4280.141,Windows,10
