run_id,condition,rt,responses,trial_type,trial_index,time_elapsed,internal_node_id,stimulus,button_pressed,iTrial,Phase,ExperimentPhase,key_press,StimulusDurationSetting,correctResponse,Face,Name,rearranged,slider_start,response,didSubjectEnterRearranged,CharacterResponse,recorded_at,ip,user_agent,device,browser,browser_version,platform,platform_version
2,1,22519,"{""Q0"":""A2YEV7PXJ7IFTL""}",survey-text,0,22524,0.0-0.0,"""","""","""","""","""","""","""","""","""","""","""","""","""","""","""",3/1/2021 22:15,50.237.60.170,Mozilla/5.0 (Windows NT 10.0; Win64; x64; rv:84.0) Gecko/20100101 Firefox/84.0,,Firefox,84,Windows,10
2,1,26548,"""",image-button-response,1,49096,0.0-1.0,directionsMemoryAssociation1.JPG,0,1,IntroDirections1,break,"""","""","""","""","""","""","""","""","""","""",3/1/2021 22:15,50.237.60.170,Mozilla/5.0 (Windows NT 10.0; Win64; x64; rv:84.0) Gecko/20100101 Firefox/84.0,,Firefox,84,Windows,10
2,1,21921,"""",image-button-response,2,71028,0.0-2.0,directionsMemoryAssociation2.JPG,0,1,IntroDirections2,break,"""","""","""","""","""","""","""","""","""","""",3/1/2021 22:15,50.237.60.170,Mozilla/5.0 (Windows NT 10.0; Win64; x64; rv:84.0) Gecko/20100101 Firefox/84.0,,Firefox,84,Windows,10
2,1,null,"""",html-keyboard-response,3,76035,0.0-3.0,"<img src='jspsych/CFDfaces/CFD-WM-232-070-N.jpg' height=""250px"">,</br><b>Patrick</b>","""",1,IntactFace,Practice,null,5000,"""","""","""","""","""","""","""","""",3/1/2021 22:15,50.237.60.170,Mozilla/5.0 (Windows NT 10.0; Win64; x64; rv:84.0) Gecko/20100101 Firefox/84.0,,Firefox,84,Windows,10
2,1,null,"""",html-keyboard-response,4,76537,0.0-4.0,"<div style=""font-size:60px;"">+</div>","""",1,ITI,Practice,null,1000,"""","""","""","""","""","""","""","""",3/1/2021 22:15,50.237.60.170,Mozilla/5.0 (Windows NT 10.0; Win64; x64; rv:84.0) Gecko/20100101 Firefox/84.0,,Firefox,84,Windows,10
2,1,3763,"""",html-keyboard-response,5,81543,0.0-5.0,"<img src='jspsych/CFDfaces/CFD-WF-217-085-N.jpg' height=""250px"">,</br><b>Tara</b>","""",2,IntactFace,Practice,78,5000,"""","""","""","""","""","""","""","""",3/1/2021 22:15,50.237.60.170,Mozilla/5.0 (Windows NT 10.0; Win64; x64; rv:84.0) Gecko/20100101 Firefox/84.0,,Firefox,84,Windows,10
2,1,null,"""",html-keyboard-response,6,82045,0.0-6.0,"<div style=""font-size:60px;"">+</div>","""",2,ITI,Practice,null,1000,"""","""","""","""","""","""","""","""",3/1/2021 22:15,50.237.60.170,Mozilla/5.0 (Windows NT 10.0; Win64; x64; rv:84.0) Gecko/20100101 Firefox/84.0,,Firefox,84,Windows,10
2,1,4462,"""",html-keyboard-response,7,87049,0.0-7.0,"<img src='jspsych/CFDfaces/CFD-WM-215-041-N.jpg' height=""250px"">,</br><b>Carlos</b>","""",3,IntactFace,Practice,70,5000,"""","""","""","""","""","""","""","""",3/1/2021 22:15,50.237.60.170,Mozilla/5.0 (Windows NT 10.0; Win64; x64; rv:84.0) Gecko/20100101 Firefox/84.0,,Firefox,84,Windows,10
2,1,null,"""",html-keyboard-response,8,87550,0.0-8.0,"<div style=""font-size:60px;"">+</div>","""",3,ITI,Practice,null,1000,"""","""","""","""","""","""","""","""",3/1/2021 22:15,50.237.60.170,Mozilla/5.0 (Windows NT 10.0; Win64; x64; rv:84.0) Gecko/20100101 Firefox/84.0,,Firefox,84,Windows,10
2,1,3486,"""",html-keyboard-response,9,92554,0.0-9.0,"<img src='jspsych/CFDfaces/CFD-WF-215-145-N.jpg' height=""250px"">,</br><b>Katelyn</b>","""",4,IntactFace,Practice,78,5000,"""","""","""","""","""","""","""","""",3/1/2021 22:15,50.237.60.170,Mozilla/5.0 (Windows NT 10.0; Win64; x64; rv:84.0) Gecko/20100101 Firefox/84.0,,Firefox,84,Windows,10
2,1,null,"""",html-keyboard-response,10,93058,0.0-10.0,"<div style=""font-size:60px;"">+</div>","""",4,ITI,Practice,null,1000,"""","""","""","""","""","""","""","""",3/1/2021 22:15,50.237.60.170,Mozilla/5.0 (Windows NT 10.0; Win64; x64; rv:84.0) Gecko/20100101 Firefox/84.0,,Firefox,84,Windows,10
2,1,4425,"""",html-keyboard-response,11,98067,0.0-11.0,"<img src='jspsych/CFDfaces/CFD-WF-218-087-N.jpg' height=""250px"">,</br><b>Cassandra</b>","""",5,IntactFace,Practice,70,5000,"""","""","""","""","""","""","""","""",3/1/2021 22:15,50.237.60.170,Mozilla/5.0 (Windows NT 10.0; Win64; x64; rv:84.0) Gecko/20100101 Firefox/84.0,,Firefox,84,Windows,10
2,1,null,"""",html-keyboard-response,12,98570,0.0-12.0,"<div style=""font-size:60px;"">+</div>","""",5,ITI,Practice,null,1000,"""","""","""","""","""","""","""","""",3/1/2021 22:15,50.237.60.170,Mozilla/5.0 (Windows NT 10.0; Win64; x64; rv:84.0) Gecko/20100101 Firefox/84.0,,Firefox,84,Windows,10
2,1,2784,"""",html-keyboard-response,13,103575,0.0-13.0,"<img src='jspsych/CFDfaces/CFD-WM-216-061-N.jpg' height=""250px"">,</br><b>Samuel</b>","""",6,IntactFace,Practice,70,5000,"""","""","""","""","""","""","""","""",3/1/2021 22:15,50.237.60.170,Mozilla/5.0 (Windows NT 10.0; Win64; x64; rv:84.0) Gecko/20100101 Firefox/84.0,,Firefox,84,Windows,10
2,1,null,"""",html-keyboard-response,14,104077,0.0-14.0,"<div style=""font-size:60px;"">+</div>","""",6,ITI,Practice,null,1000,"""","""","""","""","""","""","""","""",3/1/2021 22:15,50.237.60.170,Mozilla/5.0 (Windows NT 10.0; Win64; x64; rv:84.0) Gecko/20100101 Firefox/84.0,,Firefox,84,Windows,10
2,1,2861,"""",html-keyboard-response,15,109083,0.0-15.0,"<img src='jspsych/CFDfaces/CFD-WM-222-057-N.jpg' height=""250px"">,</br><b>Marcus</b>","""",7,IntactFace,Practice,78,5000,"""","""","""","""","""","""","""","""",3/1/2021 22:15,50.237.60.170,Mozilla/5.0 (Windows NT 10.0; Win64; x64; rv:84.0) Gecko/20100101 Firefox/84.0,,Firefox,84,Windows,10
2,1,null,"""",html-keyboard-response,16,109585,0.0-16.0,"<div style=""font-size:60px;"">+</div>","""",7,ITI,Practice,null,1000,"""","""","""","""","""","""","""","""",3/1/2021 22:15,50.237.60.170,Mozilla/5.0 (Windows NT 10.0; Win64; x64; rv:84.0) Gecko/20100101 Firefox/84.0,,Firefox,84,Windows,10
2,1,3066,"""",html-keyboard-response,17,114590,0.0-17.0,"<img src='jspsych/CFDfaces/CFD-WF-220-101-N.jpg' height=""250px"">,</br><b>Shannon</b>","""",8,IntactFace,Practice,70,5000,"""","""","""","""","""","""","""","""",3/1/2021 22:15,50.237.60.170,Mozilla/5.0 (Windows NT 10.0; Win64; x64; rv:84.0) Gecko/20100101 Firefox/84.0,,Firefox,84,Windows,10
2,1,null,"""",html-keyboard-response,18,115090,0.0-18.0,"<div style=""font-size:60px;"">+</div>","""",8,ITI,Practice,null,1000,"""","""","""","""","""","""","""","""",3/1/2021 22:15,50.237.60.170,Mozilla/5.0 (Windows NT 10.0; Win64; x64; rv:84.0) Gecko/20100101 Firefox/84.0,,Firefox,84,Windows,10
2,1,22729,"""",image-button-response,19,137831,0.0-19.0,directionsForTest.JPG,0,1,directionsForTest,break,"""","""","""","""","""","""","""","""","""","""",3/1/2021 22:15,50.237.60.170,Mozilla/5.0 (Windows NT 10.0; Win64; x64; rv:84.0) Gecko/20100101 Firefox/84.0,,Firefox,84,Windows,10
2,1,40956,"""",image-button-response,20,178796,0.0-20.0,directionsForTest2.JPG,0,1,directionsForTest2,break,"""","""","""","""","""","""","""","""","""","""",3/1/2021 22:15,50.237.60.170,Mozilla/5.0 (Windows NT 10.0; Win64; x64; rv:84.0) Gecko/20100101 Firefox/84.0,,Firefox,84,Windows,10
2,1,null,"""",html-keyboard-response,21,179805,0.0-21.0,"<div style=""font-size:60px;"">+</div>","""",1,ITI,Practice,null,1000,"""","""","""","""","""","""","""","""",3/1/2021 22:15,50.237.60.170,Mozilla/5.0 (Windows NT 10.0; Win64; x64; rv:84.0) Gecko/20100101 Firefox/84.0,,Firefox,84,Windows,10
2,1,null,"""",image-keyboard-response,22,180066,0.0-22.0,jspsych/scrambledNeutralFaces/scrambledBM27NES.JPG,"""",1,forwardMask,Practice,null,250,n,"""","""","""","""","""","""","""",3/1/2021 22:15,50.237.60.170,Mozilla/5.0 (Windows NT 10.0; Win64; x64; rv:84.0) Gecko/20100101 Firefox/84.0,,Firefox,84,Windows,10
2,1,null,"""",image-keyboard-response,23,180089,0.0-23.0,jspsych/neutralFaces/BM27NES.JPG,"""",1,Cue,Practice,null,16,"""","""","""","""","""","""","""","""",3/1/2021 22:15,50.237.60.170,Mozilla/5.0 (Windows NT 10.0; Win64; x64; rv:84.0) Gecko/20100101 Firefox/84.0,,Firefox,84,Windows,10
2,1,null,"""",image-keyboard-response,24,180194,0.0-24.0,jspsych/neutralFaces/AM02NES.JPG,"""",1,backwardMask,Practice,null,100,"""","""","""","""","""","""","""","""",3/1/2021 22:15,50.237.60.170,Mozilla/5.0 (Windows NT 10.0; Win64; x64; rv:84.0) Gecko/20100101 Firefox/84.0,,Firefox,84,Windows,10
2,1,null,"""",html-keyboard-response,25,181205,0.0-25.0,"<div style=""font-size:60px;"">+</div>","""",1,fixationBtwnNeutralMaskAndPrompt,Practice,null,1000,"""","""","""","""","""","""","""","""",3/1/2021 22:15,50.237.60.170,Mozilla/5.0 (Windows NT 10.0; Win64; x64; rv:84.0) Gecko/20100101 Firefox/84.0,,Firefox,84,Windows,10
2,1,null,"""",html-button-response,26,186207,0.0-26.0,"<img src='jspsych/CFDfaces/CFD-WM-222-057-N.jpg'height=""250px""></br><b>Carlos</b>",null,1,IntactOrRearranged,Practice,"""","""","""",CFD-BM-029-024-N.jpg,Stephen,1,"""","""","""","""",3/1/2021 22:15,50.237.60.170,Mozilla/5.0 (Windows NT 10.0; Win64; x64; rv:84.0) Gecko/20100101 Firefox/84.0,,Firefox,84,Windows,10
2,1,null,"""",html-slider-response,27,191236,0.0-27.0,"<img src='jspsych/CFDfaces/CFD-WM-222-057-N.jpg'height=""250px""></br><b>Carlos</b>","""",1,ConfidenceQuery,Practice,"""","""","""",CFD-BM-029-024-N.jpg,Stephen,1,0,null,"""","""",3/1/2021 22:15,50.237.60.170,Mozilla/5.0 (Windows NT 10.0; Win64; x64; rv:84.0) Gecko/20100101 Firefox/84.0,,Firefox,84,Windows,10
2,1,2941,"""",html-button-response,28,194181,0.0-28.0,Please remember to click either button REARRANGED or INTACT!,0,1,feedback,Practice,"""","""","""","""","""","""","""","""","""","""",3/1/2021 22:15,50.237.60.170,Mozilla/5.0 (Windows NT 10.0; Win64; x64; rv:84.0) Gecko/20100101 Firefox/84.0,,Firefox,84,Windows,10
2,1,null,"""",html-keyboard-response,29,195184,0.0-29.0,"<div style=""font-size:60px;"">+</div>","""",2,ITI,Practice,null,1000,"""","""","""","""","""","""","""","""",3/1/2021 22:15,50.237.60.170,Mozilla/5.0 (Windows NT 10.0; Win64; x64; rv:84.0) Gecko/20100101 Firefox/84.0,,Firefox,84,Windows,10
2,1,null,"""",image-keyboard-response,30,195438,0.0-30.0,jspsych/scrambledNeutralFaces/scrambledBM09NES.JPG,"""",2,forwardMask,Practice,null,250,n,"""","""","""","""","""","""","""",3/1/2021 22:15,50.237.60.170,Mozilla/5.0 (Windows NT 10.0; Win64; x64; rv:84.0) Gecko/20100101 Firefox/84.0,,Firefox,84,Windows,10
2,1,null,"""",image-keyboard-response,31,195459,0.0-31.0,jspsych/neutralFaces/BM09NES.JPG,"""",2,Cue,Practice,null,16,"""","""","""","""","""","""","""","""",3/1/2021 22:15,50.237.60.170,Mozilla/5.0 (Windows NT 10.0; Win64; x64; rv:84.0) Gecko/20100101 Firefox/84.0,,Firefox,84,Windows,10
2,1,null,"""",image-keyboard-response,32,195564,0.0-32.0,jspsych/neutralFaces/BM31NES.JPG,"""",2,backwardMask,Practice,null,100,"""","""","""","""","""","""","""","""",3/1/2021 22:15,50.237.60.170,Mozilla/5.0 (Windows NT 10.0; Win64; x64; rv:84.0) Gecko/20100101 Firefox/84.0,,Firefox,84,Windows,10
2,1,null,"""",html-keyboard-response,33,196566,0.0-33.0,"<div style=""font-size:60px;"">+</div>","""",2,fixationBtwnNeutralMaskAndPrompt,Practice,null,1000,"""","""","""","""","""","""","""","""",3/1/2021 22:15,50.237.60.170,Mozilla/5.0 (Windows NT 10.0; Win64; x64; rv:84.0) Gecko/20100101 Firefox/84.0,,Firefox,84,Windows,10
2,1,2826,"""",html-button-response,34,199394,0.0-34.0,"<img src='jspsych/CFDfaces/CFD-WF-217-085-N.jpg'height=""250px""></br><b>Tara</b>",1,2,IntactOrRearranged,Practice,"""","""","""",CFD-BF-005-001-N.jpg,Courtney,0,"""","""",1,"""",3/1/2021 22:15,50.237.60.170,Mozilla/5.0 (Windows NT 10.0; Win64; x64; rv:84.0) Gecko/20100101 Firefox/84.0,,Firefox,84,Windows,10
2,1,4657,"""",html-slider-response,35,204057,0.0-35.0,"<img src='jspsych/CFDfaces/CFD-WF-217-085-N.jpg'height=""250px""></br><b>Tara</b>","""",2,ConfidenceQuery,Practice,"""","""","""",CFD-BF-005-001-N.jpg,Courtney,0,0,82,"""","""",3/1/2021 22:15,50.237.60.170,Mozilla/5.0 (Windows NT 10.0; Win64; x64; rv:84.0) Gecko/20100101 Firefox/84.0,,Firefox,84,Windows,10
2,1,4052,"""",html-button-response,36,208111,0.0-36.0,You are Incorrect. You Called an Intact Pair Rearranged,0,2,feedback,Practice,"""","""","""","""","""","""","""","""","""","""",3/1/2021 22:15,50.237.60.170,Mozilla/5.0 (Windows NT 10.0; Win64; x64; rv:84.0) Gecko/20100101 Firefox/84.0,,Firefox,84,Windows,10
2,1,null,"""",html-keyboard-response,37,209113,0.0-37.0,"<div style=""font-size:60px;"">+</div>","""",3,ITI,Practice,null,1000,"""","""","""","""","""","""","""","""",3/1/2021 22:15,50.237.60.170,Mozilla/5.0 (Windows NT 10.0; Win64; x64; rv:84.0) Gecko/20100101 Firefox/84.0,,Firefox,84,Windows,10
2,1,null,"""",image-keyboard-response,38,209368,0.0-38.0,jspsych/scrambledDisgustFaces/scrambledBM21DIS.JPG,"""",3,forwardMask,Practice,null,250,d,"""","""","""","""","""","""","""",3/1/2021 22:15,50.237.60.170,Mozilla/5.0 (Windows NT 10.0; Win64; x64; rv:84.0) Gecko/20100101 Firefox/84.0,,Firefox,84,Windows,10
2,1,null,"""",image-keyboard-response,39,209395,0.0-39.0,jspsych/disgustFaces/BM22DIS.JPG,"""",3,Cue,Practice,null,16,"""","""","""","""","""","""","""","""",3/1/2021 22:15,50.237.60.170,Mozilla/5.0 (Windows NT 10.0; Win64; x64; rv:84.0) Gecko/20100101 Firefox/84.0,,Firefox,84,Windows,10
2,1,null,"""",image-keyboard-response,40,209514,0.0-40.0,jspsych/neutralFaces/AM28NES.JPG,"""",3,backwardMask,Practice,null,100,"""","""","""","""","""","""","""","""",3/1/2021 22:15,50.237.60.170,Mozilla/5.0 (Windows NT 10.0; Win64; x64; rv:84.0) Gecko/20100101 Firefox/84.0,,Firefox,84,Windows,10
2,1,null,"""",html-keyboard-response,41,210518,0.0-41.0,"<div style=""font-size:60px;"">+</div>","""",3,fixationBtwnNeutralMaskAndPrompt,Practice,null,1000,"""","""","""","""","""","""","""","""",3/1/2021 22:15,50.237.60.170,Mozilla/5.0 (Windows NT 10.0; Win64; x64; rv:84.0) Gecko/20100101 Firefox/84.0,,Firefox,84,Windows,10
2,1,2813,"""",html-button-response,42,213332,0.0-42.0,"<img src='jspsych/CFDfaces/CFD-WF-215-145-N.jpg'height=""250px""></br><b>Cassandra</b>",1,3,IntactOrRearranged,Practice,"""","""","""",CFD-LF-236-221-N.jpg,Angela,1,"""","""",1,"""",3/1/2021 22:15,50.237.60.170,Mozilla/5.0 (Windows NT 10.0; Win64; x64; rv:84.0) Gecko/20100101 Firefox/84.0,,Firefox,84,Windows,10
2,1,null,"""",html-slider-response,43,218335,0.0-43.0,"<img src='jspsych/CFDfaces/CFD-WF-215-145-N.jpg'height=""250px""></br><b>Cassandra</b>","""",3,ConfidenceQuery,Practice,"""","""","""",CFD-LF-236-221-N.jpg,Angela,1,0,null,"""","""",3/1/2021 22:15,50.237.60.170,Mozilla/5.0 (Windows NT 10.0; Win64; x64; rv:84.0) Gecko/20100101 Firefox/84.0,,Firefox,84,Windows,10
2,1,2653,"""",html-button-response,44,220992,0.0-44.0,You are Correct. You Called A Rearranged Pair Rearranged,0,3,feedback,Practice,"""","""","""","""","""","""","""","""","""","""",3/1/2021 22:15,50.237.60.170,Mozilla/5.0 (Windows NT 10.0; Win64; x64; rv:84.0) Gecko/20100101 Firefox/84.0,,Firefox,84,Windows,10
2,1,null,"""",html-keyboard-response,45,221994,0.0-45.0,"<div style=""font-size:60px;"">+</div>","""",4,ITI,Practice,null,1000,"""","""","""","""","""","""","""","""",3/1/2021 22:15,50.237.60.170,Mozilla/5.0 (Windows NT 10.0; Win64; x64; rv:84.0) Gecko/20100101 Firefox/84.0,,Firefox,84,Windows,10
2,1,null,"""",image-keyboard-response,46,222247,0.0-46.0,jspsych/scrambledNeutralFaces/scrambledAM28NES.JPG,"""",4,forwardMask,Practice,null,250,n,"""","""","""","""","""","""","""",3/1/2021 22:15,50.237.60.170,Mozilla/5.0 (Windows NT 10.0; Win64; x64; rv:84.0) Gecko/20100101 Firefox/84.0,,Firefox,84,Windows,10
2,1,null,"""",image-keyboard-response,47,222269,0.0-47.0,jspsych/neutralFaces/AM28NES.JPG,"""",4,Cue,Practice,null,16,"""","""","""","""","""","""","""","""",3/1/2021 22:15,50.237.60.170,Mozilla/5.0 (Windows NT 10.0; Win64; x64; rv:84.0) Gecko/20100101 Firefox/84.0,,Firefox,84,Windows,10
2,1,null,"""",image-keyboard-response,48,222374,0.0-48.0,jspsych/neutralFaces/AM25NES.JPG,"""",4,backwardMask,Practice,null,100,"""","""","""","""","""","""","""","""",3/1/2021 22:15,50.237.60.170,Mozilla/5.0 (Windows NT 10.0; Win64; x64; rv:84.0) Gecko/20100101 Firefox/84.0,,Firefox,84,Windows,10
2,1,null,"""",html-keyboard-response,49,223375,0.0-49.0,"<div style=""font-size:60px;"">+</div>","""",4,fixationBtwnNeutralMaskAndPrompt,Practice,null,1000,"""","""","""","""","""","""","""","""",3/1/2021 22:15,50.237.60.170,Mozilla/5.0 (Windows NT 10.0; Win64; x64; rv:84.0) Gecko/20100101 Firefox/84.0,,Firefox,84,Windows,10
2,1,2732,"""",html-button-response,50,226111,0.0-50.0,"<img src='jspsych/CFDfaces/CFD-WM-216-061-N.jpg'height=""250px""></br><b>Samuel</b>",0,4,IntactOrRearranged,Practice,"""","""","""",CFD-BM-001-014-N.jpg,Alex,0,"""","""",0,"""",3/1/2021 22:15,50.237.60.170,Mozilla/5.0 (Windows NT 10.0; Win64; x64; rv:84.0) Gecko/20100101 Firefox/84.0,,Firefox,84,Windows,10
2,1,3938,"""",html-slider-response,51,230052,0.0-51.0,"<img src='jspsych/CFDfaces/CFD-WM-216-061-N.jpg'height=""250px""></br><b>Samuel</b>","""",4,ConfidenceQuery,Practice,"""","""","""",CFD-BM-001-014-N.jpg,Alex,0,0,100,"""","""",3/1/2021 22:15,50.237.60.170,Mozilla/5.0 (Windows NT 10.0; Win64; x64; rv:84.0) Gecko/20100101 Firefox/84.0,,Firefox,84,Windows,10
2,1,2869,"""",html-button-response,52,232924,0.0-52.0,You are Correct. You called an Intact Pair Intact,0,4,feedback,Practice,"""","""","""","""","""","""","""","""","""","""",3/1/2021 22:15,50.237.60.170,Mozilla/5.0 (Windows NT 10.0; Win64; x64; rv:84.0) Gecko/20100101 Firefox/84.0,,Firefox,84,Windows,10
2,1,null,"""",html-keyboard-response,53,233926,0.0-53.0,"<div style=""font-size:60px;"">+</div>","""",5,ITI,Practice,null,1000,"""","""","""","""","""","""","""","""",3/1/2021 22:15,50.237.60.170,Mozilla/5.0 (Windows NT 10.0; Win64; x64; rv:84.0) Gecko/20100101 Firefox/84.0,,Firefox,84,Windows,10
2,1,null,"""",image-keyboard-response,54,234179,0.0-54.0,jspsych/scrambledDisgustFaces/scrambledBM21DIS.JPG,"""",5,forwardMask,Practice,null,250,d,"""","""","""","""","""","""","""",3/1/2021 22:15,50.237.60.170,Mozilla/5.0 (Windows NT 10.0; Win64; x64; rv:84.0) Gecko/20100101 Firefox/84.0,,Firefox,84,Windows,10
2,1,null,"""",image-keyboard-response,55,234198,0.0-55.0,jspsych/disgustFaces/BM22DIS.JPG,"""",5,Cue,Practice,null,16,"""","""","""","""","""","""","""","""",3/1/2021 22:15,50.237.60.170,Mozilla/5.0 (Windows NT 10.0; Win64; x64; rv:84.0) Gecko/20100101 Firefox/84.0,,Firefox,84,Windows,10
2,1,null,"""",image-keyboard-response,56,234302,0.0-56.0,jspsych/neutralFaces/BM31NES.JPG,"""",5,backwardMask,Practice,null,100,"""","""","""","""","""","""","""","""",3/1/2021 22:15,50.237.60.170,Mozilla/5.0 (Windows NT 10.0; Win64; x64; rv:84.0) Gecko/20100101 Firefox/84.0,,Firefox,84,Windows,10
2,1,null,"""",html-keyboard-response,57,235303,0.0-57.0,"<div style=""font-size:60px;"">+</div>","""",5,fixationBtwnNeutralMaskAndPrompt,Practice,null,1000,"""","""","""","""","""","""","""","""",3/1/2021 22:15,50.237.60.170,Mozilla/5.0 (Windows NT 10.0; Win64; x64; rv:84.0) Gecko/20100101 Firefox/84.0,,Firefox,84,Windows,10
2,1,2569,"""",html-button-response,58,237873,0.0-58.0,"<img src='jspsych/CFDfaces/CFD-WF-220-101-N.jpg'height=""250px""></br><b>Shannon</b>",1,5,IntactOrRearranged,Practice,"""","""","""",CFD-AF-201-060-N.jpg,Michelle,0,"""","""",1,"""",3/1/2021 22:15,50.237.60.170,Mozilla/5.0 (Windows NT 10.0; Win64; x64; rv:84.0) Gecko/20100101 Firefox/84.0,,Firefox,84,Windows,10
2,1,4491,"""",html-slider-response,59,242367,0.0-59.0,"<img src='jspsych/CFDfaces/CFD-WF-220-101-N.jpg'height=""250px""></br><b>Shannon</b>","""",5,ConfidenceQuery,Practice,"""","""","""",CFD-AF-201-060-N.jpg,Michelle,0,0,100,"""","""",3/1/2021 22:15,50.237.60.170,Mozilla/5.0 (Windows NT 10.0; Win64; x64; rv:84.0) Gecko/20100101 Firefox/84.0,,Firefox,84,Windows,10
2,1,2941,"""",html-button-response,60,245309,0.0-60.0,You are Incorrect. You Called an Intact Pair Rearranged,0,5,feedback,Practice,"""","""","""","""","""","""","""","""","""","""",3/1/2021 22:15,50.237.60.170,Mozilla/5.0 (Windows NT 10.0; Win64; x64; rv:84.0) Gecko/20100101 Firefox/84.0,,Firefox,84,Windows,10
2,1,null,"""",html-keyboard-response,61,246312,0.0-61.0,"<div style=""font-size:60px;"">+</div>","""",6,ITI,Practice,null,1000,"""","""","""","""","""","""","""","""",3/1/2021 22:15,50.237.60.170,Mozilla/5.0 (Windows NT 10.0; Win64; x64; rv:84.0) Gecko/20100101 Firefox/84.0,,Firefox,84,Windows,10
2,1,null,"""",image-keyboard-response,62,246568,0.0-62.0,jspsych/scrambledNeutralFaces/scrambledAM35NES.JPG,"""",6,forwardMask,Practice,null,250,n,"""","""","""","""","""","""","""",3/1/2021 22:15,50.237.60.170,Mozilla/5.0 (Windows NT 10.0; Win64; x64; rv:84.0) Gecko/20100101 Firefox/84.0,,Firefox,84,Windows,10
2,1,null,"""",image-keyboard-response,63,246587,0.0-63.0,jspsych/neutralFaces/AM35NES.JPG,"""",6,Cue,Practice,null,16,"""","""","""","""","""","""","""","""",3/1/2021 22:15,50.237.60.170,Mozilla/5.0 (Windows NT 10.0; Win64; x64; rv:84.0) Gecko/20100101 Firefox/84.0,,Firefox,84,Windows,10
2,1,null,"""",image-keyboard-response,64,246690,0.0-64.0,jspsych/neutralFaces/BM24NES.JPG,"""",6,backwardMask,Practice,null,100,"""","""","""","""","""","""","""","""",3/1/2021 22:15,50.237.60.170,Mozilla/5.0 (Windows NT 10.0; Win64; x64; rv:84.0) Gecko/20100101 Firefox/84.0,,Firefox,84,Windows,10
2,1,null,"""",html-keyboard-response,65,247691,0.0-65.0,"<div style=""font-size:60px;"">+</div>","""",6,fixationBtwnNeutralMaskAndPrompt,Practice,null,1000,"""","""","""","""","""","""","""","""",3/1/2021 22:15,50.237.60.170,Mozilla/5.0 (Windows NT 10.0; Win64; x64; rv:84.0) Gecko/20100101 Firefox/84.0,,Firefox,84,Windows,10
2,1,3790,"""",html-button-response,66,251482,0.0-66.0,"<img src='jspsych/CFDfaces/CFD-WM-215-041-N.jpg'height=""250px""></br><b>Marcus</b>",1,6,IntactOrRearranged,Practice,"""","""","""",CFD-BM-022-022-N.jpg,Scott,1,"""","""",1,"""",3/1/2021 22:15,50.237.60.170,Mozilla/5.0 (Windows NT 10.0; Win64; x64; rv:84.0) Gecko/20100101 Firefox/84.0,,Firefox,84,Windows,10
2,1,3666,"""",html-slider-response,67,255153,0.0-67.0,"<img src='jspsych/CFDfaces/CFD-WM-215-041-N.jpg'height=""250px""></br><b>Marcus</b>","""",6,ConfidenceQuery,Practice,"""","""","""",CFD-BM-022-022-N.jpg,Scott,1,0,80,"""","""",3/1/2021 22:15,50.237.60.170,Mozilla/5.0 (Windows NT 10.0; Win64; x64; rv:84.0) Gecko/20100101 Firefox/84.0,,Firefox,84,Windows,10
2,1,1901,"""",html-button-response,68,257056,0.0-68.0,You are Correct. You Called A Rearranged Pair Rearranged,0,6,feedback,Practice,"""","""","""","""","""","""","""","""","""","""",3/1/2021 22:15,50.237.60.170,Mozilla/5.0 (Windows NT 10.0; Win64; x64; rv:84.0) Gecko/20100101 Firefox/84.0,,Firefox,84,Windows,10
2,1,null,"""",html-keyboard-response,69,258059,0.0-69.0,"<div style=""font-size:60px;"">+</div>","""",7,ITI,Practice,null,1000,"""","""","""","""","""","""","""","""",3/1/2021 22:15,50.237.60.170,Mozilla/5.0 (Windows NT 10.0; Win64; x64; rv:84.0) Gecko/20100101 Firefox/84.0,,Firefox,84,Windows,10
2,1,null,"""",image-keyboard-response,70,258324,0.0-70.0,jspsych/scrambledNeutralFaces/scrambledAM23NES.JPG,"""",7,forwardMask,Practice,null,250,n,"""","""","""","""","""","""","""",3/1/2021 22:15,50.237.60.170,Mozilla/5.0 (Windows NT 10.0; Win64; x64; rv:84.0) Gecko/20100101 Firefox/84.0,,Firefox,84,Windows,10
2,1,null,"""",image-keyboard-response,71,258344,0.0-71.0,jspsych/neutralFaces/AM23NES.JPG,"""",7,Cue,Practice,null,16,"""","""","""","""","""","""","""","""",3/1/2021 22:15,50.237.60.170,Mozilla/5.0 (Windows NT 10.0; Win64; x64; rv:84.0) Gecko/20100101 Firefox/84.0,,Firefox,84,Windows,10
2,1,null,"""",image-keyboard-response,72,258464,0.0-72.0,jspsych/neutralFaces/AM11NES.JPG,"""",7,backwardMask,Practice,null,100,"""","""","""","""","""","""","""","""",3/1/2021 22:15,50.237.60.170,Mozilla/5.0 (Windows NT 10.0; Win64; x64; rv:84.0) Gecko/20100101 Firefox/84.0,,Firefox,84,Windows,10
2,1,null,"""",html-keyboard-response,73,259466,0.0-73.0,"<div style=""font-size:60px;"">+</div>","""",7,fixationBtwnNeutralMaskAndPrompt,Practice,null,1000,"""","""","""","""","""","""","""","""",3/1/2021 22:15,50.237.60.170,Mozilla/5.0 (Windows NT 10.0; Win64; x64; rv:84.0) Gecko/20100101 Firefox/84.0,,Firefox,84,Windows,10
2,1,2843,"""",html-button-response,74,262310,0.0-74.0,"<img src='jspsych/CFDfaces/CFD-WF-218-087-N.jpg'height=""250px""></br><b>Katelyn</b>",1,7,IntactOrRearranged,Practice,"""","""","""",CFD-BM-011-016-N.jpg,Anthony,1,"""","""",1,"""",3/1/2021 22:15,50.237.60.170,Mozilla/5.0 (Windows NT 10.0; Win64; x64; rv:84.0) Gecko/20100101 Firefox/84.0,,Firefox,84,Windows,10
2,1,3618,"""",html-slider-response,75,265932,0.0-75.0,"<img src='jspsych/CFDfaces/CFD-WF-218-087-N.jpg'height=""250px""></br><b>Katelyn</b>","""",7,ConfidenceQuery,Practice,"""","""","""",CFD-BM-011-016-N.jpg,Anthony,1,0,100,"""","""",3/1/2021 22:15,50.237.60.170,Mozilla/5.0 (Windows NT 10.0; Win64; x64; rv:84.0) Gecko/20100101 Firefox/84.0,,Firefox,84,Windows,10
2,1,1942,"""",html-button-response,76,267875,0.0-76.0,You are Correct. You Called A Rearranged Pair Rearranged,0,7,feedback,Practice,"""","""","""","""","""","""","""","""","""","""",3/1/2021 22:15,50.237.60.170,Mozilla/5.0 (Windows NT 10.0; Win64; x64; rv:84.0) Gecko/20100101 Firefox/84.0,,Firefox,84,Windows,10
2,1,null,"""",html-keyboard-response,77,268895,0.0-77.0,"<div style=""font-size:60px;"">+</div>","""",8,ITI,Practice,null,1000,"""","""","""","""","""","""","""","""",3/1/2021 22:15,50.237.60.170,Mozilla/5.0 (Windows NT 10.0; Win64; x64; rv:84.0) Gecko/20100101 Firefox/84.0,,Firefox,84,Windows,10
2,1,null,"""",image-keyboard-response,78,269148,0.0-78.0,jspsych/scrambledDisgustFaces/scrambledAM15DIS.JPG,"""",8,forwardMask,Practice,null,250,d,"""","""","""","""","""","""","""",3/1/2021 22:15,50.237.60.170,Mozilla/5.0 (Windows NT 10.0; Win64; x64; rv:84.0) Gecko/20100101 Firefox/84.0,,Firefox,84,Windows,10
2,1,null,"""",image-keyboard-response,79,269167,0.0-79.0,jspsych/disgustFaces/AM15DIS.JPG,"""",8,Cue,Practice,null,16,"""","""","""","""","""","""","""","""",3/1/2021 22:15,50.237.60.170,Mozilla/5.0 (Windows NT 10.0; Win64; x64; rv:84.0) Gecko/20100101 Firefox/84.0,,Firefox,84,Windows,10
2,1,null,"""",image-keyboard-response,80,269269,0.0-80.0,jspsych/neutralFaces/BM24NES.JPG,"""",8,backwardMask,Practice,null,100,"""","""","""","""","""","""","""","""",3/1/2021 22:15,50.237.60.170,Mozilla/5.0 (Windows NT 10.0; Win64; x64; rv:84.0) Gecko/20100101 Firefox/84.0,,Firefox,84,Windows,10
2,1,null,"""",html-keyboard-response,81,270270,0.0-81.0,"<div style=""font-size:60px;"">+</div>","""",8,fixationBtwnNeutralMaskAndPrompt,Practice,null,1000,"""","""","""","""","""","""","""","""",3/1/2021 22:15,50.237.60.170,Mozilla/5.0 (Windows NT 10.0; Win64; x64; rv:84.0) Gecko/20100101 Firefox/84.0,,Firefox,84,Windows,10
2,1,4303,"""",html-button-response,82,274576,0.0-82.0,"<img src='jspsych/CFDfaces/CFD-WM-232-070-N.jpg'height=""250px""></br><b>Patrick</b>",0,8,IntactOrRearranged,Practice,"""","""","""",CFD-AM-234-355-N.jpg,Jason,0,"""","""",0,"""",3/1/2021 22:15,50.237.60.170,Mozilla/5.0 (Windows NT 10.0; Win64; x64; rv:84.0) Gecko/20100101 Firefox/84.0,,Firefox,84,Windows,10
2,1,4442,"""",html-slider-response,83,279022,0.0-83.0,"<img src='jspsych/CFDfaces/CFD-WM-232-070-N.jpg'height=""250px""></br><b>Patrick</b>","""",8,ConfidenceQuery,Practice,"""","""","""",CFD-AM-234-355-N.jpg,Jason,0,0,68,"""","""",3/1/2021 22:15,50.237.60.170,Mozilla/5.0 (Windows NT 10.0; Win64; x64; rv:84.0) Gecko/20100101 Firefox/84.0,,Firefox,84,Windows,10
2,1,1901,"""",html-button-response,84,280925,0.0-84.0,You are Correct. You called an Intact Pair Intact,0,8,feedback,Practice,"""","""","""","""","""","""","""","""","""","""",3/1/2021 22:15,50.237.60.170,Mozilla/5.0 (Windows NT 10.0; Win64; x64; rv:84.0) Gecko/20100101 Firefox/84.0,,Firefox,84,Windows,10
2,1,8673,"""",image-button-response,85,289608,0.0-85.0,directionsMemoryAssociation3.JPG,0,1,DirectionsBeforeActualTEst,Break,"""","""","""","""","""","""","""","""","""","""",3/1/2021 22:15,50.237.60.170,Mozilla/5.0 (Windows NT 10.0; Win64; x64; rv:84.0) Gecko/20100101 Firefox/84.0,,Firefox,84,Windows,10
2,1,9387,"""",image-button-response,86,299005,0.0-86.0,directionsForTest2.JPG,0,1,directionsForTest2,break,"""","""","""","""","""","""","""","""","""","""",3/1/2021 22:15,50.237.60.170,Mozilla/5.0 (Windows NT 10.0; Win64; x64; rv:84.0) Gecko/20100101 Firefox/84.0,,Firefox,84,Windows,10
2,1,3773,"""",html-keyboard-response,87,304008,0.0-87.0,"<img src='jspsych/CFDfaces/CFD-BF-221-223-N.jpg' height=""250px""></br><b>Natalie</b>","""",1,IntactFace,Memorization,70,5000,"""",CFD-BF-221-223-N.jpg,Natalie,0,"""","""","""","""",3/1/2021 22:15,50.237.60.170,Mozilla/5.0 (Windows NT 10.0; Win64; x64; rv:84.0) Gecko/20100101 Firefox/84.0,,Firefox,84,Windows,10
2,1,null,"""",html-keyboard-response,88,304510,0.0-88.0,"<div style=""font-size:60px;"">+</div>","""",1,fixation,Memorization,null,500,"""","""","""","""","""","""","""","""",3/1/2021 22:15,50.237.60.170,Mozilla/5.0 (Windows NT 10.0; Win64; x64; rv:84.0) Gecko/20100101 Firefox/84.0,,Firefox,84,Windows,10
2,1,2764,"""",html-keyboard-response,89,309514,0.0-89.0,"<img src='jspsych/CFDfaces/CFD-LF-220-120-N.jpg' height=""250px""></br><b>Erin</b>","""",2,IntactFace,Memorization,78,5000,"""",CFD-LF-220-120-N.jpg,Erin,0,"""","""","""","""",3/1/2021 22:15,50.237.60.170,Mozilla/5.0 (Windows NT 10.0; Win64; x64; rv:84.0) Gecko/20100101 Firefox/84.0,,Firefox,84,Windows,10
2,1,null,"""",html-keyboard-response,90,310016,0.0-90.0,"<div style=""font-size:60px;"">+</div>","""",2,fixation,Memorization,null,500,"""","""","""","""","""","""","""","""",3/1/2021 22:15,50.237.60.170,Mozilla/5.0 (Windows NT 10.0; Win64; x64; rv:84.0) Gecko/20100101 Firefox/84.0,,Firefox,84,Windows,10
2,1,3240,"""",html-keyboard-response,91,315021,0.0-91.0,"<img src='jspsych/CFDfaces/CFD-AF-233-190-N.jpg' height=""250px""></br><b>Christina</b>","""",3,IntactFace,Memorization,70,5000,"""",CFD-AF-233-190-N.jpg,Christina,0,"""","""","""","""",3/1/2021 22:15,50.237.60.170,Mozilla/5.0 (Windows NT 10.0; Win64; x64; rv:84.0) Gecko/20100101 Firefox/84.0,,Firefox,84,Windows,10
2,1,null,"""",html-keyboard-response,92,315534,0.0-92.0,"<div style=""font-size:60px;"">+</div>","""",3,fixation,Memorization,null,500,"""","""","""","""","""","""","""","""",3/1/2021 22:15,50.237.60.170,Mozilla/5.0 (Windows NT 10.0; Win64; x64; rv:84.0) Gecko/20100101 Firefox/84.0,,Firefox,84,Windows,10
2,1,3178,"""",html-keyboard-response,93,320544,0.0-93.0,"<img src='jspsych/CFDfaces/CFD-WF-018-017-N.jpg' height=""250px""></br><b>Sara</b>","""",4,IntactFace,Memorization,70,5000,"""",CFD-WF-018-017-N.jpg,Sara,0,"""","""","""","""",3/1/2021 22:15,50.237.60.170,Mozilla/5.0 (Windows NT 10.0; Win64; x64; rv:84.0) Gecko/20100101 Firefox/84.0,,Firefox,84,Windows,10
2,1,null,"""",html-keyboard-response,94,321059,0.0-94.0,"<div style=""font-size:60px;"">+</div>","""",4,fixation,Memorization,null,500,"""","""","""","""","""","""","""","""",3/1/2021 22:15,50.237.60.170,Mozilla/5.0 (Windows NT 10.0; Win64; x64; rv:84.0) Gecko/20100101 Firefox/84.0,,Firefox,84,Windows,10
2,1,2741,"""",html-keyboard-response,95,326074,0.0-95.0,"<img src='jspsych/CFDfaces/CFD-AF-226-251-N.jpg' height=""250px""></br><b>Vanessa</b>","""",5,IntactFace,Memorization,78,5000,"""",CFD-AF-226-251-N.jpg,Vanessa,0,"""","""","""","""",3/1/2021 22:15,50.237.60.170,Mozilla/5.0 (Windows NT 10.0; Win64; x64; rv:84.0) Gecko/20100101 Firefox/84.0,,Firefox,84,Windows,10
2,1,null,"""",html-keyboard-response,96,326594,0.0-96.0,"<div style=""font-size:60px;"">+</div>","""",5,fixation,Memorization,null,500,"""","""","""","""","""","""","""","""",3/1/2021 22:15,50.237.60.170,Mozilla/5.0 (Windows NT 10.0; Win64; x64; rv:84.0) Gecko/20100101 Firefox/84.0,,Firefox,84,Windows,10
2,1,2662,"""",html-keyboard-response,97,331604,0.0-97.0,"<img src='jspsych/CFDfaces/CFD-AF-243-170-N.jpg' height=""250px""></br><b>Alicia</b>","""",6,IntactFace,Memorization,78,5000,"""",CFD-AF-243-170-N.jpg,Alicia,0,"""","""","""","""",3/1/2021 22:15,50.237.60.170,Mozilla/5.0 (Windows NT 10.0; Win64; x64; rv:84.0) Gecko/20100101 Firefox/84.0,,Firefox,84,Windows,10
2,1,null,"""",html-keyboard-response,98,332124,0.0-98.0,"<div style=""font-size:60px;"">+</div>","""",6,fixation,Memorization,null,500,"""","""","""","""","""","""","""","""",3/1/2021 22:15,50.237.60.170,Mozilla/5.0 (Windows NT 10.0; Win64; x64; rv:84.0) Gecko/20100101 Firefox/84.0,,Firefox,84,Windows,10
2,1,3276,"""",html-keyboard-response,99,337130,0.0-99.0,"<img src='jspsych/CFDfaces/CFD-AF-230-193-N.jpg' height=""250px""></br><b>Samantha</b>","""",7,IntactFace,Memorization,78,5000,"""",CFD-AF-230-193-N.jpg,Samantha,0,"""","""","""","""",3/1/2021 22:15,50.237.60.170,Mozilla/5.0 (Windows NT 10.0; Win64; x64; rv:84.0) Gecko/20100101 Firefox/84.0,,Firefox,84,Windows,10
2,1,null,"""",html-keyboard-response,100,337632,0.0-100.0,"<div style=""font-size:60px;"">+</div>","""",7,fixation,Memorization,null,500,"""","""","""","""","""","""","""","""",3/1/2021 22:15,50.237.60.170,Mozilla/5.0 (Windows NT 10.0; Win64; x64; rv:84.0) Gecko/20100101 Firefox/84.0,,Firefox,84,Windows,10
2,1,4489,"""",html-keyboard-response,101,342654,0.0-101.0,"<img src='jspsych/CFDfaces/CFD-AF-235-170-N.jpg' height=""250px""></br><b>Julie</b>","""",8,IntactFace,Memorization,70,5000,"""",CFD-AF-235-170-N.jpg,Julie,0,"""","""","""","""",3/1/2021 22:15,50.237.60.170,Mozilla/5.0 (Windows NT 10.0; Win64; x64; rv:84.0) Gecko/20100101 Firefox/84.0,,Firefox,84,Windows,10
2,1,null,"""",html-keyboard-response,102,343155,0.0-102.0,"<div style=""font-size:60px;"">+</div>","""",8,fixation,Memorization,null,500,"""","""","""","""","""","""","""","""",3/1/2021 22:15,50.237.60.170,Mozilla/5.0 (Windows NT 10.0; Win64; x64; rv:84.0) Gecko/20100101 Firefox/84.0,,Firefox,84,Windows,10
2,1,3573,"""",html-keyboard-response,103,348174,0.0-103.0,"<img src='jspsych/CFDfaces/CFD-BM-032-024-N.jpg' height=""250px""></br><b>Jose</b>","""",9,IntactFace,Memorization,78,5000,"""",CFD-BM-032-024-N.jpg,Jose,0,"""","""","""","""",3/1/2021 22:15,50.237.60.170,Mozilla/5.0 (Windows NT 10.0; Win64; x64; rv:84.0) Gecko/20100101 Firefox/84.0,,Firefox,84,Windows,10
2,1,null,"""",html-keyboard-response,104,348693,0.0-104.0,"<div style=""font-size:60px;"">+</div>","""",9,fixation,Memorization,null,500,"""","""","""","""","""","""","""","""",3/1/2021 22:15,50.237.60.170,Mozilla/5.0 (Windows NT 10.0; Win64; x64; rv:84.0) Gecko/20100101 Firefox/84.0,,Firefox,84,Windows,10
2,1,2113,"""",html-keyboard-response,105,353704,0.0-105.0,"<img src='jspsych/CFDfaces/CFD-BM-211-174-N.jpg' height=""250px""></br><b>Shane</b>","""",10,IntactFace,Memorization,78,5000,"""",CFD-BM-211-174-N.jpg,Shane,0,"""","""","""","""",3/1/2021 22:15,50.237.60.170,Mozilla/5.0 (Windows NT 10.0; Win64; x64; rv:84.0) Gecko/20100101 Firefox/84.0,,Firefox,84,Windows,10
2,1,null,"""",html-keyboard-response,106,354223,0.0-106.0,"<div style=""font-size:60px;"">+</div>","""",10,fixation,Memorization,null,500,"""","""","""","""","""","""","""","""",3/1/2021 22:15,50.237.60.170,Mozilla/5.0 (Windows NT 10.0; Win64; x64; rv:84.0) Gecko/20100101 Firefox/84.0,,Firefox,84,Windows,10
2,1,2137,"""",html-keyboard-response,107,359233,0.0-107.0,"<img src='jspsych/CFDfaces/CFD-BM-205-001-N.jpg' height=""250px""></br><b>Adam</b>","""",11,IntactFace,Memorization,78,5000,"""",CFD-BM-205-001-N.jpg,Adam,0,"""","""","""","""",3/1/2021 22:15,50.237.60.170,Mozilla/5.0 (Windows NT 10.0; Win64; x64; rv:84.0) Gecko/20100101 Firefox/84.0,,Firefox,84,Windows,10
2,1,null,"""",html-keyboard-response,108,359754,0.0-108.0,"<div style=""font-size:60px;"">+</div>","""",11,fixation,Memorization,null,500,"""","""","""","""","""","""","""","""",3/1/2021 22:15,50.237.60.170,Mozilla/5.0 (Windows NT 10.0; Win64; x64; rv:84.0) Gecko/20100101 Firefox/84.0,,Firefox,84,Windows,10
2,1,3040,"""",html-keyboard-response,109,364774,0.0-109.0,"<img src='jspsych/CFDfaces/CFD-LF-201-035-N.jpg' height=""250px""></br><b>Chelsea</b>","""",12,IntactFace,Memorization,78,5000,"""",CFD-LF-201-035-N.jpg,Chelsea,0,"""","""","""","""",3/1/2021 22:15,50.237.60.170,Mozilla/5.0 (Windows NT 10.0; Win64; x64; rv:84.0) Gecko/20100101 Firefox/84.0,,Firefox,84,Windows,10
2,1,null,"""",html-keyboard-response,110,365284,0.0-110.0,"<div style=""font-size:60px;"">+</div>","""",12,fixation,Memorization,null,500,"""","""","""","""","""","""","""","""",3/1/2021 22:15,50.237.60.170,Mozilla/5.0 (Windows NT 10.0; Win64; x64; rv:84.0) Gecko/20100101 Firefox/84.0,,Firefox,84,Windows,10
2,1,4021,"""",html-keyboard-response,111,370304,0.0-111.0,"<img src='jspsych/CFDfaces/CFD-LM-223-175-N.jpg' height=""250px""></br><b>Shawn</b>","""",13,IntactFace,Memorization,78,5000,"""",CFD-LM-223-175-N.jpg,Shawn,0,"""","""","""","""",3/1/2021 22:15,50.237.60.170,Mozilla/5.0 (Windows NT 10.0; Win64; x64; rv:84.0) Gecko/20100101 Firefox/84.0,,Firefox,84,Windows,10
2,1,null,"""",html-keyboard-response,112,370824,0.0-112.0,"<div style=""font-size:60px;"">+</div>","""",13,fixation,Memorization,null,500,"""","""","""","""","""","""","""","""",3/1/2021 22:15,50.237.60.170,Mozilla/5.0 (Windows NT 10.0; Win64; x64; rv:84.0) Gecko/20100101 Firefox/84.0,,Firefox,84,Windows,10
2,1,4017,"""",html-keyboard-response,113,375833,0.0-113.0,"<img src='jspsych/CFDfaces/CFD-LF-213-079-N.jpg' height=""250px""></br><b>Rebecca</b>","""",14,IntactFace,Memorization,78,5000,"""",CFD-LF-213-079-N.jpg,Rebecca,0,"""","""","""","""",3/1/2021 22:15,50.237.60.170,Mozilla/5.0 (Windows NT 10.0; Win64; x64; rv:84.0) Gecko/20100101 Firefox/84.0,,Firefox,84,Windows,10
2,1,null,"""",html-keyboard-response,114,376353,0.0-114.0,"<div style=""font-size:60px;"">+</div>","""",14,fixation,Memorization,null,500,"""","""","""","""","""","""","""","""",3/1/2021 22:15,50.237.60.170,Mozilla/5.0 (Windows NT 10.0; Win64; x64; rv:84.0) Gecko/20100101 Firefox/84.0,,Firefox,84,Windows,10
2,1,3046,"""",html-keyboard-response,115,381364,0.0-115.0,"<img src='jspsych/CFDfaces/CFD-BM-039-029-N.jpg' height=""250px""></br><b>George</b>","""",15,IntactFace,Memorization,70,5000,"""",CFD-BM-039-029-N.jpg,George,0,"""","""","""","""",3/1/2021 22:15,50.237.60.170,Mozilla/5.0 (Windows NT 10.0; Win64; x64; rv:84.0) Gecko/20100101 Firefox/84.0,,Firefox,84,Windows,10
2,1,null,"""",html-keyboard-response,116,381884,0.0-116.0,"<div style=""font-size:60px;"">+</div>","""",15,fixation,Memorization,null,500,"""","""","""","""","""","""","""","""",3/1/2021 22:15,50.237.60.170,Mozilla/5.0 (Windows NT 10.0; Win64; x64; rv:84.0) Gecko/20100101 Firefox/84.0,,Firefox,84,Windows,10
2,1,1499,"""",html-keyboard-response,117,386894,0.0-117.0,"<img src='jspsych/CFDfaces/CFD-LM-225-130-N.jpg' height=""250px""></br><b>Tyler</b>","""",16,IntactFace,Memorization,78,5000,"""",CFD-LM-225-130-N.jpg,Tyler,0,"""","""","""","""",3/1/2021 22:15,50.237.60.170,Mozilla/5.0 (Windows NT 10.0; Win64; x64; rv:84.0) Gecko/20100101 Firefox/84.0,,Firefox,84,Windows,10
2,1,null,"""",html-keyboard-response,118,387403,0.0-118.0,"<div style=""font-size:60px;"">+</div>","""",16,fixation,Memorization,null,500,"""","""","""","""","""","""","""","""",3/1/2021 22:15,50.237.60.170,Mozilla/5.0 (Windows NT 10.0; Win64; x64; rv:84.0) Gecko/20100101 Firefox/84.0,,Firefox,84,Windows,10
2,1,1819,"""",html-keyboard-response,119,392423,0.0-119.0,"<img src='jspsych/CFDfaces/CFD-BM-029-024-N.jpg' height=""250px""></br><b>Stephen</b>","""",17,IntactFace,Memorization,78,5000,"""",CFD-BM-029-024-N.jpg,Stephen,0,"""","""","""","""",3/1/2021 22:15,50.237.60.170,Mozilla/5.0 (Windows NT 10.0; Win64; x64; rv:84.0) Gecko/20100101 Firefox/84.0,,Firefox,84,Windows,10
2,1,null,"""",html-keyboard-response,120,392943,0.0-120.0,"<div style=""font-size:60px;"">+</div>","""",17,fixation,Memorization,null,500,"""","""","""","""","""","""","""","""",3/1/2021 22:15,50.237.60.170,Mozilla/5.0 (Windows NT 10.0; Win64; x64; rv:84.0) Gecko/20100101 Firefox/84.0,,Firefox,84,Windows,10
2,1,1640,"""",html-keyboard-response,121,397964,0.0-121.0,"<img src='jspsych/CFDfaces/CFD-BF-047-003-N.jpg' height=""250px""></br><b>Kelly</b>","""",18,IntactFace,Memorization,78,5000,"""",CFD-BF-047-003-N.jpg,Kelly,0,"""","""","""","""",3/1/2021 22:15,50.237.60.170,Mozilla/5.0 (Windows NT 10.0; Win64; x64; rv:84.0) Gecko/20100101 Firefox/84.0,,Firefox,84,Windows,10
2,1,null,"""",html-keyboard-response,122,398483,0.0-122.0,"<div style=""font-size:60px;"">+</div>","""",18,fixation,Memorization,null,500,"""","""","""","""","""","""","""","""",3/1/2021 22:15,50.237.60.170,Mozilla/5.0 (Windows NT 10.0; Win64; x64; rv:84.0) Gecko/20100101 Firefox/84.0,,Firefox,84,Windows,10
2,1,2884,"""",html-keyboard-response,123,403504,0.0-123.0,"<img src='jspsych/CFDfaces/CFD-WF-016-015-N.jpg' height=""250px""></br><b>Lauren</b>","""",19,IntactFace,Memorization,78,5000,"""",CFD-WF-016-015-N.jpg,Lauren,0,"""","""","""","""",3/1/2021 22:15,50.237.60.170,Mozilla/5.0 (Windows NT 10.0; Win64; x64; rv:84.0) Gecko/20100101 Firefox/84.0,,Firefox,84,Windows,10
2,1,null,"""",html-keyboard-response,124,404024,0.0-124.0,"<div style=""font-size:60px;"">+</div>","""",19,fixation,Memorization,null,500,"""","""","""","""","""","""","""","""",3/1/2021 22:15,50.237.60.170,Mozilla/5.0 (Windows NT 10.0; Win64; x64; rv:84.0) Gecko/20100101 Firefox/84.0,,Firefox,84,Windows,10
2,1,2415,"""",html-keyboard-response,125,409033,0.0-125.0,"<img src='jspsych/CFDfaces/CFD-BM-207-024-N.jpg' height=""250px""></br><b>John</b>","""",20,IntactFace,Memorization,70,5000,"""",CFD-BM-207-024-N.jpg,John,0,"""","""","""","""",3/1/2021 22:15,50.237.60.170,Mozilla/5.0 (Windows NT 10.0; Win64; x64; rv:84.0) Gecko/20100101 Firefox/84.0,,Firefox,84,Windows,10
2,1,null,"""",html-keyboard-response,126,409553,0.0-126.0,"<div style=""font-size:60px;"">+</div>","""",20,fixation,Memorization,null,500,"""","""","""","""","""","""","""","""",3/1/2021 22:15,50.237.60.170,Mozilla/5.0 (Windows NT 10.0; Win64; x64; rv:84.0) Gecko/20100101 Firefox/84.0,,Firefox,84,Windows,10
2,1,3302,"""",html-keyboard-response,127,414564,0.0-127.0,"<img src='jspsych/CFDfaces/CFD-WF-006-002-N.jpg' height=""250px""></br><b>Taylor</b>","""",21,IntactFace,Memorization,78,5000,"""",CFD-WF-006-002-N.jpg,Taylor,0,"""","""","""","""",3/1/2021 22:15,50.237.60.170,Mozilla/5.0 (Windows NT 10.0; Win64; x64; rv:84.0) Gecko/20100101 Firefox/84.0,,Firefox,84,Windows,10
2,1,null,"""",html-keyboard-response,128,415083,0.0-128.0,"<div style=""font-size:60px;"">+</div>","""",21,fixation,Memorization,null,500,"""","""","""","""","""","""","""","""",3/1/2021 22:15,50.237.60.170,Mozilla/5.0 (Windows NT 10.0; Win64; x64; rv:84.0) Gecko/20100101 Firefox/84.0,,Firefox,84,Windows,10
2,1,1787,"""",html-keyboard-response,129,420092,0.0-129.0,"<img src='jspsych/CFDfaces/CFD-AM-205-153-N.jpg' height=""250px""></br><b>Brian</b>","""",22,IntactFace,Memorization,78,5000,"""",CFD-AM-205-153-N.jpg,Brian,0,"""","""","""","""",3/1/2021 22:15,50.237.60.170,Mozilla/5.0 (Windows NT 10.0; Win64; x64; rv:84.0) Gecko/20100101 Firefox/84.0,,Firefox,84,Windows,10
2,1,null,"""",html-keyboard-response,130,420603,0.0-130.0,"<div style=""font-size:60px;"">+</div>","""",22,fixation,Memorization,null,500,"""","""","""","""","""","""","""","""",3/1/2021 22:15,50.237.60.170,Mozilla/5.0 (Windows NT 10.0; Win64; x64; rv:84.0) Gecko/20100101 Firefox/84.0,,Firefox,84,Windows,10
2,1,1755,"""",html-keyboard-response,131,425612,0.0-131.0,"<img src='jspsych/CFDfaces/CFD-BM-011-016-N.jpg' height=""250px""></br><b>Anthony</b>","""",23,IntactFace,Memorization,78,5000,"""",CFD-BM-011-016-N.jpg,Anthony,0,"""","""","""","""",3/1/2021 22:15,50.237.60.170,Mozilla/5.0 (Windows NT 10.0; Win64; x64; rv:84.0) Gecko/20100101 Firefox/84.0,,Firefox,84,Windows,10
2,1,null,"""",html-keyboard-response,132,426116,0.0-132.0,"<div style=""font-size:60px;"">+</div>","""",23,fixation,Memorization,null,500,"""","""","""","""","""","""","""","""",3/1/2021 22:15,50.237.60.170,Mozilla/5.0 (Windows NT 10.0; Win64; x64; rv:84.0) Gecko/20100101 Firefox/84.0,,Firefox,84,Windows,10
2,1,2531,"""",html-keyboard-response,133,431122,0.0-133.0,"<img src='jspsych/CFDfaces/CFD-WM-017-002-N.jpg' height=""250px""></br><b>Steven</b>","""",24,IntactFace,Memorization,70,5000,"""",CFD-WM-017-002-N.jpg,Steven,0,"""","""","""","""",3/1/2021 22:15,50.237.60.170,Mozilla/5.0 (Windows NT 10.0; Win64; x64; rv:84.0) Gecko/20100101 Firefox/84.0,,Firefox,84,Windows,10
2,1,null,"""",html-keyboard-response,134,431633,0.0-134.0,"<div style=""font-size:60px;"">+</div>","""",24,fixation,Memorization,null,500,"""","""","""","""","""","""","""","""",3/1/2021 22:15,50.237.60.170,Mozilla/5.0 (Windows NT 10.0; Win64; x64; rv:84.0) Gecko/20100101 Firefox/84.0,,Firefox,84,Windows,10
2,1,3668,"""",html-keyboard-response,135,436653,0.0-135.0,"<img src='jspsych/CFDfaces/CFD-BM-017-021-N.jpg' height=""250px""></br><b>Scott</b>","""",25,IntactFace,Memorization,78,5000,"""",CFD-BM-017-021-N.jpg,Scott,0,"""","""","""","""",3/1/2021 22:15,50.237.60.170,Mozilla/5.0 (Windows NT 10.0; Win64; x64; rv:84.0) Gecko/20100101 Firefox/84.0,,Firefox,84,Windows,10
2,1,null,"""",html-keyboard-response,136,437174,0.0-136.0,"<div style=""font-size:60px;"">+</div>","""",25,fixation,Memorization,null,500,"""","""","""","""","""","""","""","""",3/1/2021 22:15,50.237.60.170,Mozilla/5.0 (Windows NT 10.0; Win64; x64; rv:84.0) Gecko/20100101 Firefox/84.0,,Firefox,84,Windows,10
2,1,4256,"""",html-keyboard-response,137,442180,0.0-137.0,"<img src='jspsych/CFDfaces/CFD-AM-246-184-N.jpg' height=""250px""></br><b>Alex</b>","""",26,IntactFace,Memorization,78,5000,"""",CFD-AM-246-184-N.jpg,Alex,0,"""","""","""","""",3/1/2021 22:15,50.237.60.170,Mozilla/5.0 (Windows NT 10.0; Win64; x64; rv:84.0) Gecko/20100101 Firefox/84.0,,Firefox,84,Windows,10
2,1,null,"""",html-keyboard-response,138,442693,0.0-138.0,"<div style=""font-size:60px;"">+</div>","""",26,fixation,Memorization,null,500,"""","""","""","""","""","""","""","""",3/1/2021 22:15,50.237.60.170,Mozilla/5.0 (Windows NT 10.0; Win64; x64; rv:84.0) Gecko/20100101 Firefox/84.0,,Firefox,84,Windows,10
2,1,1718,"""",html-keyboard-response,139,447714,0.0-139.0,"<img src='jspsych/CFDfaces/CFD-LM-234-176-N.jpg' height=""250px""></br><b>Justin</b>","""",27,IntactFace,Memorization,78,5000,"""",CFD-LM-234-176-N.jpg,Justin,0,"""","""","""","""",3/1/2021 22:15,50.237.60.170,Mozilla/5.0 (Windows NT 10.0; Win64; x64; rv:84.0) Gecko/20100101 Firefox/84.0,,Firefox,84,Windows,10
2,1,null,"""",html-keyboard-response,140,448233,0.0-140.0,"<div style=""font-size:60px;"">+</div>","""",27,fixation,Memorization,null,500,"""","""","""","""","""","""","""","""",3/1/2021 22:15,50.237.60.170,Mozilla/5.0 (Windows NT 10.0; Win64; x64; rv:84.0) Gecko/20100101 Firefox/84.0,,Firefox,84,Windows,10
2,1,1441,"""",html-keyboard-response,141,453243,0.0-141.0,"<img src='jspsych/CFDfaces/CFD-AM-221-184-N.jpg' height=""250px""></br><b>James</b>","""",28,IntactFace,Memorization,78,5000,"""",CFD-AM-221-184-N.jpg,James,0,"""","""","""","""",3/1/2021 22:15,50.237.60.170,Mozilla/5.0 (Windows NT 10.0; Win64; x64; rv:84.0) Gecko/20100101 Firefox/84.0,,Firefox,84,Windows,10
2,1,null,"""",html-keyboard-response,142,453763,0.0-142.0,"<div style=""font-size:60px;"">+</div>","""",28,fixation,Memorization,null,500,"""","""","""","""","""","""","""","""",3/1/2021 22:15,50.237.60.170,Mozilla/5.0 (Windows NT 10.0; Win64; x64; rv:84.0) Gecko/20100101 Firefox/84.0,,Firefox,84,Windows,10
2,1,1400,"""",html-keyboard-response,143,458784,0.0-143.0,"<img src='jspsych/CFDfaces/CFD-BF-023-010-N.jpg' height=""250px""></br><b>Jessica</b>","""",29,IntactFace,Memorization,78,5000,"""",CFD-BF-023-010-N.jpg,Jessica,0,"""","""","""","""",3/1/2021 22:15,50.237.60.170,Mozilla/5.0 (Windows NT 10.0; Win64; x64; rv:84.0) Gecko/20100101 Firefox/84.0,,Firefox,84,Windows,10
2,1,null,"""",html-keyboard-response,144,459303,0.0-144.0,"<div style=""font-size:60px;"">+</div>","""",29,fixation,Memorization,null,500,"""","""","""","""","""","""","""","""",3/1/2021 22:15,50.237.60.170,Mozilla/5.0 (Windows NT 10.0; Win64; x64; rv:84.0) Gecko/20100101 Firefox/84.0,,Firefox,84,Windows,10
2,1,1810,"""",html-keyboard-response,145,464313,0.0-145.0,"<img src='jspsych/CFDfaces/CFD-LF-202-065-N.jpg' height=""250px""></br><b>Brooke</b>","""",30,IntactFace,Memorization,78,5000,"""",CFD-LF-202-065-N.jpg,Brooke,0,"""","""","""","""",3/1/2021 22:15,50.237.60.170,Mozilla/5.0 (Windows NT 10.0; Win64; x64; rv:84.0) Gecko/20100101 Firefox/84.0,,Firefox,84,Windows,10
2,1,null,"""",html-keyboard-response,146,464833,0.0-146.0,"<div style=""font-size:60px;"">+</div>","""",30,fixation,Memorization,null,500,"""","""","""","""","""","""","""","""",3/1/2021 22:15,50.237.60.170,Mozilla/5.0 (Windows NT 10.0; Win64; x64; rv:84.0) Gecko/20100101 Firefox/84.0,,Firefox,84,Windows,10
2,1,1562,"""",html-keyboard-response,147,469853,0.0-147.0,"<img src='jspsych/CFDfaces/CFD-AF-240-206-N.jpg' height=""250px""></br><b>Andrea</b>","""",31,IntactFace,Memorization,78,5000,"""",CFD-AF-240-206-N.jpg,Andrea,0,"""","""","""","""",3/1/2021 22:15,50.237.60.170,Mozilla/5.0 (Windows NT 10.0; Win64; x64; rv:84.0) Gecko/20100101 Firefox/84.0,,Firefox,84,Windows,10
2,1,null,"""",html-keyboard-response,148,470374,0.0-148.0,"<div style=""font-size:60px;"">+</div>","""",31,fixation,Memorization,null,500,"""","""","""","""","""","""","""","""",3/1/2021 22:15,50.237.60.170,Mozilla/5.0 (Windows NT 10.0; Win64; x64; rv:84.0) Gecko/20100101 Firefox/84.0,,Firefox,84,Windows,10
2,1,1333,"""",html-keyboard-response,149,475376,0.0-149.0,"<img src='jspsych/CFDfaces/CFD-BF-212-315-N.jpg' height=""250px""></br><b>Crystal</b>","""",32,IntactFace,Memorization,78,5000,"""",CFD-BF-212-315-N.jpg,Crystal,0,"""","""","""","""",3/1/2021 22:15,50.237.60.170,Mozilla/5.0 (Windows NT 10.0; Win64; x64; rv:84.0) Gecko/20100101 Firefox/84.0,,Firefox,84,Windows,10
2,1,null,"""",html-keyboard-response,150,475893,0.0-150.0,"<div style=""font-size:60px;"">+</div>","""",32,fixation,Memorization,null,500,"""","""","""","""","""","""","""","""",3/1/2021 22:15,50.237.60.170,Mozilla/5.0 (Windows NT 10.0; Win64; x64; rv:84.0) Gecko/20100101 Firefox/84.0,,Firefox,84,Windows,10
2,1,2614,"""",html-keyboard-response,151,480903,0.0-151.0,"<img src='jspsych/CFDfaces/CFD-LM-200-045-N.jpg' height=""250px""></br><b>Thomas</b>","""",33,IntactFace,Memorization,70,5000,"""",CFD-LM-200-045-N.jpg,Thomas,0,"""","""","""","""",3/1/2021 22:15,50.237.60.170,Mozilla/5.0 (Windows NT 10.0; Win64; x64; rv:84.0) Gecko/20100101 Firefox/84.0,,Firefox,84,Windows,10
2,1,null,"""",html-keyboard-response,152,481423,0.0-152.0,"<div style=""font-size:60px;"">+</div>","""",33,fixation,Memorization,null,500,"""","""","""","""","""","""","""","""",3/1/2021 22:15,50.237.60.170,Mozilla/5.0 (Windows NT 10.0; Win64; x64; rv:84.0) Gecko/20100101 Firefox/84.0,,Firefox,84,Windows,10
2,1,2971,"""",html-keyboard-response,153,486433,0.0-153.0,"<img src='jspsych/CFDfaces/CFD-AF-220-107-N.jpg' height=""250px""></br><b>Stephanie</b>","""",34,IntactFace,Memorization,70,5000,"""",CFD-AF-220-107-N.jpg,Stephanie,0,"""","""","""","""",3/1/2021 22:15,50.237.60.170,Mozilla/5.0 (Windows NT 10.0; Win64; x64; rv:84.0) Gecko/20100101 Firefox/84.0,,Firefox,84,Windows,10
2,1,null,"""",html-keyboard-response,154,486953,0.0-154.0,"<div style=""font-size:60px;"">+</div>","""",34,fixation,Memorization,null,500,"""","""","""","""","""","""","""","""",3/1/2021 22:15,50.237.60.170,Mozilla/5.0 (Windows NT 10.0; Win64; x64; rv:84.0) Gecko/20100101 Firefox/84.0,,Firefox,84,Windows,10
2,1,2944,"""",html-keyboard-response,155,491973,0.0-155.0,"<img src='jspsych/CFDfaces/CFD-AM-213-056-N.jpg' height=""250px""></br><b>Peter</b>","""",35,IntactFace,Memorization,78,5000,"""",CFD-AM-213-056-N.jpg,Peter,0,"""","""","""","""",3/1/2021 22:15,50.237.60.170,Mozilla/5.0 (Windows NT 10.0; Win64; x64; rv:84.0) Gecko/20100101 Firefox/84.0,,Firefox,84,Windows,10
2,1,null,"""",html-keyboard-response,156,492483,0.0-156.0,"<div style=""font-size:60px;"">+</div>","""",35,fixation,Memorization,null,500,"""","""","""","""","""","""","""","""",3/1/2021 22:15,50.237.60.170,Mozilla/5.0 (Windows NT 10.0; Win64; x64; rv:84.0) Gecko/20100101 Firefox/84.0,,Firefox,84,Windows,10
2,1,2711,"""",html-keyboard-response,157,497503,0.0-157.0,"<img src='jspsych/CFDfaces/CFD-LF-200-058-N.jpg' height=""250px""></br><b>Jacqueline</b>","""",36,IntactFace,Memorization,78,5000,"""",CFD-LF-200-058-N.jpg,Jacqueline,0,"""","""","""","""",3/1/2021 22:15,50.237.60.170,Mozilla/5.0 (Windows NT 10.0; Win64; x64; rv:84.0) Gecko/20100101 Firefox/84.0,,Firefox,84,Windows,10
2,1,null,"""",html-keyboard-response,158,498023,0.0-158.0,"<div style=""font-size:60px;"">+</div>","""",36,fixation,Memorization,null,500,"""","""","""","""","""","""","""","""",3/1/2021 22:15,50.237.60.170,Mozilla/5.0 (Windows NT 10.0; Win64; x64; rv:84.0) Gecko/20100101 Firefox/84.0,,Firefox,84,Windows,10
2,1,3299,"""",html-keyboard-response,159,503043,0.0-159.0,"<img src='jspsych/CFDfaces/CFD-LF-208-127-N.jpg' height=""250px""></br><b>Caitlin</b>","""",37,IntactFace,Memorization,70,5000,"""",CFD-LF-208-127-N.jpg,Caitlin,0,"""","""","""","""",3/1/2021 22:15,50.237.60.170,Mozilla/5.0 (Windows NT 10.0; Win64; x64; rv:84.0) Gecko/20100101 Firefox/84.0,,Firefox,84,Windows,10
2,1,null,"""",html-keyboard-response,160,503563,0.0-160.0,"<div style=""font-size:60px;"">+</div>","""",37,fixation,Memorization,null,500,"""","""","""","""","""","""","""","""",3/1/2021 22:15,50.237.60.170,Mozilla/5.0 (Windows NT 10.0; Win64; x64; rv:84.0) Gecko/20100101 Firefox/84.0,,Firefox,84,Windows,10
2,1,2688,"""",html-keyboard-response,161,508573,0.0-161.0,"<img src='jspsych/CFDfaces/CFD-LM-246-087-N.jpg' height=""250px""></br><b>Luis</b>","""",38,IntactFace,Memorization,70,5000,"""",CFD-LM-246-087-N.jpg,Luis,0,"""","""","""","""",3/1/2021 22:15,50.237.60.170,Mozilla/5.0 (Windows NT 10.0; Win64; x64; rv:84.0) Gecko/20100101 Firefox/84.0,,Firefox,84,Windows,10
2,1,null,"""",html-keyboard-response,162,509092,0.0-162.0,"<div style=""font-size:60px;"">+</div>","""",38,fixation,Memorization,null,500,"""","""","""","""","""","""","""","""",3/1/2021 22:15,50.237.60.170,Mozilla/5.0 (Windows NT 10.0; Win64; x64; rv:84.0) Gecko/20100101 Firefox/84.0,,Firefox,84,Windows,10
2,1,1637,"""",html-keyboard-response,163,514095,0.0-163.0,"<img src='jspsych/CFDfaces/CFD-AF-242-158-N.jpg' height=""250px""></br><b>Maria</b>","""",39,IntactFace,Memorization,70,5000,"""",CFD-AF-242-158-N.jpg,Maria,0,"""","""","""","""",3/1/2021 22:15,50.237.60.170,Mozilla/5.0 (Windows NT 10.0; Win64; x64; rv:84.0) Gecko/20100101 Firefox/84.0,,Firefox,84,Windows,10
2,1,null,"""",html-keyboard-response,164,514603,0.0-164.0,"<div style=""font-size:60px;"">+</div>","""",39,fixation,Memorization,null,500,"""","""","""","""","""","""","""","""",3/1/2021 22:15,50.237.60.170,Mozilla/5.0 (Windows NT 10.0; Win64; x64; rv:84.0) Gecko/20100101 Firefox/84.0,,Firefox,84,Windows,10
2,1,2175,"""",html-keyboard-response,165,519613,0.0-165.0,"<img src='jspsych/CFDfaces/CFD-BF-016-017-N.jpg' height=""250px""></br><b>Morgan</b>","""",40,IntactFace,Memorization,78,5000,"""",CFD-BF-016-017-N.jpg,Morgan,0,"""","""","""","""",3/1/2021 22:15,50.237.60.170,Mozilla/5.0 (Windows NT 10.0; Win64; x64; rv:84.0) Gecko/20100101 Firefox/84.0,,Firefox,84,Windows,10
2,1,null,"""",html-keyboard-response,166,520120,0.0-166.0,"<div style=""font-size:60px;"">+</div>","""",40,fixation,Memorization,null,500,"""","""","""","""","""","""","""","""",3/1/2021 22:15,50.237.60.170,Mozilla/5.0 (Windows NT 10.0; Win64; x64; rv:84.0) Gecko/20100101 Firefox/84.0,,Firefox,84,Windows,10
2,1,2483,"""",html-keyboard-response,167,525122,0.0-167.0,"<img src='jspsych/CFDfaces/CFD-WM-011-002-N.jpg' height=""250px""></br><b>Jacob</b>","""",41,IntactFace,Memorization,70,5000,"""",CFD-WM-011-002-N.jpg,Jacob,0,"""","""","""","""",3/1/2021 22:15,50.237.60.170,Mozilla/5.0 (Windows NT 10.0; Win64; x64; rv:84.0) Gecko/20100101 Firefox/84.0,,Firefox,84,Windows,10
2,1,null,"""",html-keyboard-response,168,525633,0.0-168.0,"<div style=""font-size:60px;"">+</div>","""",41,fixation,Memorization,null,500,"""","""","""","""","""","""","""","""",3/1/2021 22:15,50.237.60.170,Mozilla/5.0 (Windows NT 10.0; Win64; x64; rv:84.0) Gecko/20100101 Firefox/84.0,,Firefox,84,Windows,10
2,1,2825,"""",html-keyboard-response,169,530643,0.0-169.0,"<img src='jspsych/CFDfaces/CFD-AF-239-171-N.jpg' height=""250px""></br><b>Brittany</b>","""",42,IntactFace,Memorization,78,5000,"""",CFD-AF-239-171-N.jpg,Brittany,0,"""","""","""","""",3/1/2021 22:15,50.237.60.170,Mozilla/5.0 (Windows NT 10.0; Win64; x64; rv:84.0) Gecko/20100101 Firefox/84.0,,Firefox,84,Windows,10
2,1,null,"""",html-keyboard-response,170,531149,0.0-170.0,"<div style=""font-size:60px;"">+</div>","""",42,fixation,Memorization,null,500,"""","""","""","""","""","""","""","""",3/1/2021 22:15,50.237.60.170,Mozilla/5.0 (Windows NT 10.0; Win64; x64; rv:84.0) Gecko/20100101 Firefox/84.0,,Firefox,84,Windows,10
2,1,3404,"""",html-keyboard-response,171,536151,0.0-171.0,"<img src='jspsych/CFDfaces/CFD-BF-019-001-N.jpg' height=""250px""></br><b>Erika</b>","""",43,IntactFace,Memorization,78,5000,"""",CFD-BF-019-001-N.jpg,Erika,0,"""","""","""","""",3/1/2021 22:15,50.237.60.170,Mozilla/5.0 (Windows NT 10.0; Win64; x64; rv:84.0) Gecko/20100101 Firefox/84.0,,Firefox,84,Windows,10
2,1,null,"""",html-keyboard-response,172,536673,0.0-172.0,"<div style=""font-size:60px;"">+</div>","""",43,fixation,Memorization,null,500,"""","""","""","""","""","""","""","""",3/1/2021 22:15,50.237.60.170,Mozilla/5.0 (Windows NT 10.0; Win64; x64; rv:84.0) Gecko/20100101 Firefox/84.0,,Firefox,84,Windows,10
2,1,2873,"""",html-keyboard-response,173,541683,0.0-173.0,"<img src='jspsych/CFDfaces/CFD-LF-239-148-N.jpg' height=""250px""></br><b>Whitney</b>","""",44,IntactFace,Memorization,78,5000,"""",CFD-LF-239-148-N.jpg,Whitney,0,"""","""","""","""",3/1/2021 22:15,50.237.60.170,Mozilla/5.0 (Windows NT 10.0; Win64; x64; rv:84.0) Gecko/20100101 Firefox/84.0,,Firefox,84,Windows,10
2,1,null,"""",html-keyboard-response,174,542203,0.0-174.0,"<div style=""font-size:60px;"">+</div>","""",44,fixation,Memorization,null,500,"""","""","""","""","""","""","""","""",3/1/2021 22:15,50.237.60.170,Mozilla/5.0 (Windows NT 10.0; Win64; x64; rv:84.0) Gecko/20100101 Firefox/84.0,,Firefox,84,Windows,10
2,1,2719,"""",html-keyboard-response,175,547223,0.0-175.0,"<img src='jspsych/CFDfaces/CFD-LF-244-096-N.jpg' height=""250px""></br><b>Amy</b>","""",45,IntactFace,Memorization,70,5000,"""",CFD-LF-244-096-N.jpg,Amy,0,"""","""","""","""",3/1/2021 22:15,50.237.60.170,Mozilla/5.0 (Windows NT 10.0; Win64; x64; rv:84.0) Gecko/20100101 Firefox/84.0,,Firefox,84,Windows,10
2,1,null,"""",html-keyboard-response,176,547729,0.0-176.0,"<div style=""font-size:60px;"">+</div>","""",45,fixation,Memorization,null,500,"""","""","""","""","""","""","""","""",3/1/2021 22:15,50.237.60.170,Mozilla/5.0 (Windows NT 10.0; Win64; x64; rv:84.0) Gecko/20100101 Firefox/84.0,,Firefox,84,Windows,10
2,1,2328,"""",html-keyboard-response,177,552742,0.0-177.0,"<img src='jspsych/CFDfaces/CFD-AM-238-269-N.jpg' height=""250px""></br><b>Brandon</b>","""",46,IntactFace,Memorization,78,5000,"""",CFD-AM-238-269-N.jpg,Brandon,0,"""","""","""","""",3/1/2021 22:15,50.237.60.170,Mozilla/5.0 (Windows NT 10.0; Win64; x64; rv:84.0) Gecko/20100101 Firefox/84.0,,Firefox,84,Windows,10
2,1,null,"""",html-keyboard-response,178,553252,0.0-178.0,"<div style=""font-size:60px;"">+</div>","""",46,fixation,Memorization,null,500,"""","""","""","""","""","""","""","""",3/1/2021 22:15,50.237.60.170,Mozilla/5.0 (Windows NT 10.0; Win64; x64; rv:84.0) Gecko/20100101 Firefox/84.0,,Firefox,84,Windows,10
2,1,2820,"""",html-keyboard-response,179,558273,0.0-179.0,"<img src='jspsych/CFDfaces/CFD-LF-243-175-N.jpg' height=""250px""></br><b>Jenna</b>","""",47,IntactFace,Memorization,70,5000,"""",CFD-LF-243-175-N.jpg,Jenna,0,"""","""","""","""",3/1/2021 22:15,50.237.60.170,Mozilla/5.0 (Windows NT 10.0; Win64; x64; rv:84.0) Gecko/20100101 Firefox/84.0,,Firefox,84,Windows,10
2,1,null,"""",html-keyboard-response,180,558792,0.0-180.0,"<div style=""font-size:60px;"">+</div>","""",47,fixation,Memorization,null,500,"""","""","""","""","""","""","""","""",3/1/2021 22:15,50.237.60.170,Mozilla/5.0 (Windows NT 10.0; Win64; x64; rv:84.0) Gecko/20100101 Firefox/84.0,,Firefox,84,Windows,10
2,1,2577,"""",html-keyboard-response,181,563803,0.0-181.0,"<img src='jspsych/CFDfaces/CFD-LM-221-216-N.jpg' height=""250px""></br><b>Paul</b>","""",48,IntactFace,Memorization,70,5000,"""",CFD-LM-221-216-N.jpg,Paul,0,"""","""","""","""",3/1/2021 22:15,50.237.60.170,Mozilla/5.0 (Windows NT 10.0; Win64; x64; rv:84.0) Gecko/20100101 Firefox/84.0,,Firefox,84,Windows,10
2,1,null,"""",html-keyboard-response,182,564312,0.0-182.0,"<div style=""font-size:60px;"">+</div>","""",48,fixation,Memorization,null,500,"""","""","""","""","""","""","""","""",3/1/2021 22:15,50.237.60.170,Mozilla/5.0 (Windows NT 10.0; Win64; x64; rv:84.0) Gecko/20100101 Firefox/84.0,,Firefox,84,Windows,10
2,1,1904,"""",html-keyboard-response,183,569322,0.0-183.0,"<img src='jspsych/CFDfaces/CFD-WM-015-002-N.jpg' height=""250px""></br><b>Jeremy</b>","""",49,IntactFace,Memorization,70,5000,"""",CFD-WM-015-002-N.jpg,Jeremy,0,"""","""","""","""",3/1/2021 22:15,50.237.60.170,Mozilla/5.0 (Windows NT 10.0; Win64; x64; rv:84.0) Gecko/20100101 Firefox/84.0,,Firefox,84,Windows,10
2,1,null,"""",html-keyboard-response,184,569832,0.0-184.0,"<div style=""font-size:60px;"">+</div>","""",49,fixation,Memorization,null,500,"""","""","""","""","""","""","""","""",3/1/2021 22:15,50.237.60.170,Mozilla/5.0 (Windows NT 10.0; Win64; x64; rv:84.0) Gecko/20100101 Firefox/84.0,,Firefox,84,Windows,10
2,1,3266,"""",html-keyboard-response,185,574852,0.0-185.0,"<img src='jspsych/CFDfaces/CFD-AM-207-108-N.jpg' height=""250px""></br><b>Christian</b>","""",50,IntactFace,Memorization,78,5000,"""",CFD-AM-207-108-N.jpg,Christian,0,"""","""","""","""",3/1/2021 22:15,50.237.60.170,Mozilla/5.0 (Windows NT 10.0; Win64; x64; rv:84.0) Gecko/20100101 Firefox/84.0,,Firefox,84,Windows,10
2,1,null,"""",html-keyboard-response,186,575372,0.0-186.0,"<div style=""font-size:60px;"">+</div>","""",50,fixation,Memorization,null,500,"""","""","""","""","""","""","""","""",3/1/2021 22:15,50.237.60.170,Mozilla/5.0 (Windows NT 10.0; Win64; x64; rv:84.0) Gecko/20100101 Firefox/84.0,,Firefox,84,Windows,10
2,1,3501,"""",html-keyboard-response,187,580375,0.0-187.0,"<img src='jspsych/CFDfaces/CFD-BM-043-071-N.jpg' height=""250px""></br><b>Jordan</b>","""",51,IntactFace,Memorization,70,5000,"""",CFD-BM-043-071-N.jpg,Jordan,0,"""","""","""","""",3/1/2021 22:15,50.237.60.170,Mozilla/5.0 (Windows NT 10.0; Win64; x64; rv:84.0) Gecko/20100101 Firefox/84.0,,Firefox,84,Windows,10
2,1,null,"""",html-keyboard-response,188,580892,0.0-188.0,"<div style=""font-size:60px;"">+</div>","""",51,fixation,Memorization,null,500,"""","""","""","""","""","""","""","""",3/1/2021 22:15,50.237.60.170,Mozilla/5.0 (Windows NT 10.0; Win64; x64; rv:84.0) Gecko/20100101 Firefox/84.0,,Firefox,84,Windows,10
2,1,2574,"""",html-keyboard-response,189,585902,0.0-189.0,"<img src='jspsych/CFDfaces/CFD-AF-241-141-N.jpg' height=""250px""></br><b>Kelsey</b>","""",52,IntactFace,Memorization,78,5000,"""",CFD-AF-241-141-N.jpg,Kelsey,0,"""","""","""","""",3/1/2021 22:15,50.237.60.170,Mozilla/5.0 (Windows NT 10.0; Win64; x64; rv:84.0) Gecko/20100101 Firefox/84.0,,Firefox,84,Windows,10
2,1,null,"""",html-keyboard-response,190,586412,0.0-190.0,"<div style=""font-size:60px;"">+</div>","""",52,fixation,Memorization,null,500,"""","""","""","""","""","""","""","""",3/1/2021 22:15,50.237.60.170,Mozilla/5.0 (Windows NT 10.0; Win64; x64; rv:84.0) Gecko/20100101 Firefox/84.0,,Firefox,84,Windows,10
2,1,1357,"""",html-keyboard-response,191,591422,0.0-191.0,"<img src='jspsych/CFDfaces/CFD-AF-215-70-N.jpg' height=""250px""></br><b>Elizabeth</b>","""",53,IntactFace,Memorization,78,5000,"""",CFD-AF-215-70-N.jpg,Elizabeth,0,"""","""","""","""",3/1/2021 22:15,50.237.60.170,Mozilla/5.0 (Windows NT 10.0; Win64; x64; rv:84.0) Gecko/20100101 Firefox/84.0,,Firefox,84,Windows,10
2,1,null,"""",html-keyboard-response,192,591932,0.0-192.0,"<div style=""font-size:60px;"">+</div>","""",53,fixation,Memorization,null,500,"""","""","""","""","""","""","""","""",3/1/2021 22:15,50.237.60.170,Mozilla/5.0 (Windows NT 10.0; Win64; x64; rv:84.0) Gecko/20100101 Firefox/84.0,,Firefox,84,Windows,10
2,1,1341,"""",html-keyboard-response,193,596943,0.0-193.0,"<img src='jspsych/CFDfaces/CFD-LF-236-221-N.jpg' height=""250px""></br><b>Jasmine</b>","""",54,IntactFace,Memorization,78,5000,"""",CFD-LF-236-221-N.jpg,Jasmine,0,"""","""","""","""",3/1/2021 22:15,50.237.60.170,Mozilla/5.0 (Windows NT 10.0; Win64; x64; rv:84.0) Gecko/20100101 Firefox/84.0,,Firefox,84,Windows,10
2,1,null,"""",html-keyboard-response,194,597449,0.0-194.0,"<div style=""font-size:60px;"">+</div>","""",54,fixation,Memorization,null,500,"""","""","""","""","""","""","""","""",3/1/2021 22:15,50.237.60.170,Mozilla/5.0 (Windows NT 10.0; Win64; x64; rv:84.0) Gecko/20100101 Firefox/84.0,,Firefox,84,Windows,10
2,1,1937,"""",html-keyboard-response,195,602452,0.0-195.0,"<img src='jspsych/CFDfaces/CFD-AF-222-134-N.jpg' height=""250px""></br><b>Ashley</b>","""",55,IntactFace,Memorization,78,5000,"""",CFD-AF-222-134-N.jpg,Ashley,0,"""","""","""","""",3/1/2021 22:15,50.237.60.170,Mozilla/5.0 (Windows NT 10.0; Win64; x64; rv:84.0) Gecko/20100101 Firefox/84.0,,Firefox,84,Windows,10
2,1,null,"""",html-keyboard-response,196,602972,0.0-196.0,"<div style=""font-size:60px;"">+</div>","""",55,fixation,Memorization,null,500,"""","""","""","""","""","""","""","""",3/1/2021 22:15,50.237.60.170,Mozilla/5.0 (Windows NT 10.0; Win64; x64; rv:84.0) Gecko/20100101 Firefox/84.0,,Firefox,84,Windows,10
2,1,1982,"""",html-keyboard-response,197,607992,0.0-197.0,"<img src='jspsych/CFDfaces/CFD-WM-003-002-N.jpg' height=""250px""></br><b>Cameron</b>","""",56,IntactFace,Memorization,70,5000,"""",CFD-WM-003-002-N.jpg,Cameron,0,"""","""","""","""",3/1/2021 22:15,50.237.60.170,Mozilla/5.0 (Windows NT 10.0; Win64; x64; rv:84.0) Gecko/20100101 Firefox/84.0,,Firefox,84,Windows,10
2,1,null,"""",html-keyboard-response,198,608512,0.0-198.0,"<div style=""font-size:60px;"">+</div>","""",56,fixation,Memorization,null,500,"""","""","""","""","""","""","""","""",3/1/2021 22:15,50.237.60.170,Mozilla/5.0 (Windows NT 10.0; Win64; x64; rv:84.0) Gecko/20100101 Firefox/84.0,,Firefox,84,Windows,10
2,1,2345,"""",html-keyboard-response,199,613522,0.0-199.0,"<img src='jspsych/CFDfaces/CFD-AM-237-154-N.jpg' height=""250px""></br><b>Eric</b>","""",57,IntactFace,Memorization,78,5000,"""",CFD-AM-237-154-N.jpg,Eric,0,"""","""","""","""",3/1/2021 22:15,50.237.60.170,Mozilla/5.0 (Windows NT 10.0; Win64; x64; rv:84.0) Gecko/20100101 Firefox/84.0,,Firefox,84,Windows,10
2,1,null,"""",html-keyboard-response,200,614032,0.0-200.0,"<div style=""font-size:60px;"">+</div>","""",57,fixation,Memorization,null,500,"""","""","""","""","""","""","""","""",3/1/2021 22:15,50.237.60.170,Mozilla/5.0 (Windows NT 10.0; Win64; x64; rv:84.0) Gecko/20100101 Firefox/84.0,,Firefox,84,Windows,10
2,1,1576,"""",html-keyboard-response,201,619042,0.0-201.0,"<img src='jspsych/CFDfaces/CFD-AM-211-052-N.jpg' height=""250px""></br><b>Ian</b>","""",58,IntactFace,Memorization,78,5000,"""",CFD-AM-211-052-N.jpg,Ian,0,"""","""","""","""",3/1/2021 22:15,50.237.60.170,Mozilla/5.0 (Windows NT 10.0; Win64; x64; rv:84.0) Gecko/20100101 Firefox/84.0,,Firefox,84,Windows,10
2,1,null,"""",html-keyboard-response,202,619562,0.0-202.0,"<div style=""font-size:60px;"">+</div>","""",58,fixation,Memorization,null,500,"""","""","""","""","""","""","""","""",3/1/2021 22:15,50.237.60.170,Mozilla/5.0 (Windows NT 10.0; Win64; x64; rv:84.0) Gecko/20100101 Firefox/84.0,,Firefox,84,Windows,10
2,1,1487,"""",html-keyboard-response,203,624582,0.0-203.0,"<img src='jspsych/CFDfaces/CFD-LF-204-133-N.jpg' height=""250px""></br><b>Hannah</b>","""",59,IntactFace,Memorization,78,5000,"""",CFD-LF-204-133-N.jpg,Hannah,0,"""","""","""","""",3/1/2021 22:15,50.237.60.170,Mozilla/5.0 (Windows NT 10.0; Win64; x64; rv:84.0) Gecko/20100101 Firefox/84.0,,Firefox,84,Windows,10
2,1,null,"""",html-keyboard-response,204,625097,0.0-204.0,"<div style=""font-size:60px;"">+</div>","""",59,fixation,Memorization,null,500,"""","""","""","""","""","""","""","""",3/1/2021 22:15,50.237.60.170,Mozilla/5.0 (Windows NT 10.0; Win64; x64; rv:84.0) Gecko/20100101 Firefox/84.0,,Firefox,84,Windows,10
2,1,1712,"""",html-keyboard-response,205,630102,0.0-205.0,"<img src='jspsych/CFDfaces/CFD-LF-203-066-N.jpg' height=""250px""></br><b>Catherine</b>","""",60,IntactFace,Memorization,78,5000,"""",CFD-LF-203-066-N.jpg,Catherine,0,"""","""","""","""",3/1/2021 22:15,50.237.60.170,Mozilla/5.0 (Windows NT 10.0; Win64; x64; rv:84.0) Gecko/20100101 Firefox/84.0,,Firefox,84,Windows,10
2,1,null,"""",html-keyboard-response,206,630621,0.0-206.0,"<div style=""font-size:60px;"">+</div>","""",60,fixation,Memorization,null,500,"""","""","""","""","""","""","""","""",3/1/2021 22:15,50.237.60.170,Mozilla/5.0 (Windows NT 10.0; Win64; x64; rv:84.0) Gecko/20100101 Firefox/84.0,,Firefox,84,Windows,10
2,1,1722,"""",html-keyboard-response,207,635632,0.0-207.0,"<img src='jspsych/CFDfaces/CFD-BF-039-031-N.jpg' height=""250px""></br><b>April</b>","""",61,IntactFace,Memorization,78,5000,"""",CFD-BF-039-031-N.jpg,April,0,"""","""","""","""",3/1/2021 22:15,50.237.60.170,Mozilla/5.0 (Windows NT 10.0; Win64; x64; rv:84.0) Gecko/20100101 Firefox/84.0,,Firefox,84,Windows,10
2,1,null,"""",html-keyboard-response,208,636152,0.0-208.0,"<div style=""font-size:60px;"">+</div>","""",61,fixation,Memorization,null,500,"""","""","""","""","""","""","""","""",3/1/2021 22:15,50.237.60.170,Mozilla/5.0 (Windows NT 10.0; Win64; x64; rv:84.0) Gecko/20100101 Firefox/84.0,,Firefox,84,Windows,10
2,1,1665,"""",html-keyboard-response,209,641162,0.0-209.0,"<img src='jspsych/CFDfaces/CFD-AM-243-212-N.jpg' height=""250px""></br><b>Phillip</b>","""",62,IntactFace,Memorization,78,5000,"""",CFD-AM-243-212-N.jpg,Phillip,0,"""","""","""","""",3/1/2021 22:15,50.237.60.170,Mozilla/5.0 (Windows NT 10.0; Win64; x64; rv:84.0) Gecko/20100101 Firefox/84.0,,Firefox,84,Windows,10
2,1,null,"""",html-keyboard-response,210,641681,0.0-210.0,"<div style=""font-size:60px;"">+</div>","""",62,fixation,Memorization,null,500,"""","""","""","""","""","""","""","""",3/1/2021 22:15,50.237.60.170,Mozilla/5.0 (Windows NT 10.0; Win64; x64; rv:84.0) Gecko/20100101 Firefox/84.0,,Firefox,84,Windows,10
2,1,2312,"""",html-keyboard-response,211,646702,0.0-211.0,"<img src='jspsych/CFDfaces/CFD-LM-201-057-N.jpg' height=""250px""></br><b>Zachary</b>","""",63,IntactFace,Memorization,70,5000,"""",CFD-LM-201-057-N.jpg,Zachary,0,"""","""","""","""",3/1/2021 22:15,50.237.60.170,Mozilla/5.0 (Windows NT 10.0; Win64; x64; rv:84.0) Gecko/20100101 Firefox/84.0,,Firefox,84,Windows,10
2,1,null,"""",html-keyboard-response,212,647210,0.0-212.0,"<div style=""font-size:60px;"">+</div>","""",63,fixation,Memorization,null,500,"""","""","""","""","""","""","""","""",3/1/2021 22:15,50.237.60.170,Mozilla/5.0 (Windows NT 10.0; Win64; x64; rv:84.0) Gecko/20100101 Firefox/84.0,,Firefox,84,Windows,10
2,1,2432,"""",html-keyboard-response,213,652222,0.0-213.0,"<img src='jspsych/CFDfaces/CFD-AM-248-104-N.jpg' height=""250px""></br><b>Benjamin</b>","""",64,IntactFace,Memorization,78,5000,"""",CFD-AM-248-104-N.jpg,Benjamin,0,"""","""","""","""",3/1/2021 22:15,50.237.60.170,Mozilla/5.0 (Windows NT 10.0; Win64; x64; rv:84.0) Gecko/20100101 Firefox/84.0,,Firefox,84,Windows,10
2,1,null,"""",html-keyboard-response,214,652742,0.0-214.0,"<div style=""font-size:60px;"">+</div>","""",64,fixation,Memorization,null,500,"""","""","""","""","""","""","""","""",3/1/2021 22:15,50.237.60.170,Mozilla/5.0 (Windows NT 10.0; Win64; x64; rv:84.0) Gecko/20100101 Firefox/84.0,,Firefox,84,Windows,10
2,1,2291,"""",html-keyboard-response,215,657762,0.0-215.0,"<img src='jspsych/CFDfaces/CFD-LM-252-076-N.jpg' height=""250px""></br><b>Sean</b>","""",65,IntactFace,Memorization,78,5000,"""",CFD-LM-252-076-N.jpg,Sean,0,"""","""","""","""",3/1/2021 22:15,50.237.60.170,Mozilla/5.0 (Windows NT 10.0; Win64; x64; rv:84.0) Gecko/20100101 Firefox/84.0,,Firefox,84,Windows,10
2,1,null,"""",html-keyboard-response,216,658291,0.0-216.0,"<div style=""font-size:60px;"">+</div>","""",65,fixation,Memorization,null,500,"""","""","""","""","""","""","""","""",3/1/2021 22:15,50.237.60.170,Mozilla/5.0 (Windows NT 10.0; Win64; x64; rv:84.0) Gecko/20100101 Firefox/84.0,,Firefox,84,Windows,10
2,1,1941,"""",html-keyboard-response,217,663312,0.0-217.0,"<img src='jspsych/CFDfaces/CFD-BF-222-240-N.jpg' height=""250px""></br><b>Jamie</b>","""",66,IntactFace,Memorization,78,5000,"""",CFD-BF-222-240-N.jpg,Jamie,0,"""","""","""","""",3/1/2021 22:15,50.237.60.170,Mozilla/5.0 (Windows NT 10.0; Win64; x64; rv:84.0) Gecko/20100101 Firefox/84.0,,Firefox,84,Windows,10
2,1,null,"""",html-keyboard-response,218,663831,0.0-218.0,"<div style=""font-size:60px;"">+</div>","""",66,fixation,Memorization,null,500,"""","""","""","""","""","""","""","""",3/1/2021 22:15,50.237.60.170,Mozilla/5.0 (Windows NT 10.0; Win64; x64; rv:84.0) Gecko/20100101 Firefox/84.0,,Firefox,84,Windows,10
2,1,4769,"""",html-keyboard-response,219,668852,0.0-219.0,"<img src='jspsych/CFDfaces/CFD-AF-228-173-N.jpg' height=""250px""></br><b>Victoria</b>","""",67,IntactFace,Memorization,78,5000,"""",CFD-AF-228-173-N.jpg,Victoria,0,"""","""","""","""",3/1/2021 22:15,50.237.60.170,Mozilla/5.0 (Windows NT 10.0; Win64; x64; rv:84.0) Gecko/20100101 Firefox/84.0,,Firefox,84,Windows,10
2,1,null,"""",html-keyboard-response,220,669362,0.0-220.0,"<div style=""font-size:60px;"">+</div>","""",67,fixation,Memorization,null,500,"""","""","""","""","""","""","""","""",3/1/2021 22:15,50.237.60.170,Mozilla/5.0 (Windows NT 10.0; Win64; x64; rv:84.0) Gecko/20100101 Firefox/84.0,,Firefox,84,Windows,10
2,1,3175,"""",html-keyboard-response,221,674372,0.0-221.0,"<img src='jspsych/CFDfaces/CFD-AM-214-168-N.jpg' height=""250px""></br><b>Jeffrey</b>","""",68,IntactFace,Memorization,78,5000,"""",CFD-AM-214-168-N.jpg,Jeffrey,0,"""","""","""","""",3/1/2021 22:15,50.237.60.170,Mozilla/5.0 (Windows NT 10.0; Win64; x64; rv:84.0) Gecko/20100101 Firefox/84.0,,Firefox,84,Windows,10
2,1,null,"""",html-keyboard-response,222,674892,0.0-222.0,"<div style=""font-size:60px;"">+</div>","""",68,fixation,Memorization,null,500,"""","""","""","""","""","""","""","""",3/1/2021 22:15,50.237.60.170,Mozilla/5.0 (Windows NT 10.0; Win64; x64; rv:84.0) Gecko/20100101 Firefox/84.0,,Firefox,84,Windows,10
2,1,4205,"""",html-keyboard-response,223,679901,0.0-223.0,"<img src='jspsych/CFDfaces/CFD-BM-027-001-N.jpg' height=""250px""></br><b>Keith</b>","""",69,IntactFace,Memorization,78,5000,"""",CFD-BM-027-001-N.jpg,Keith,0,"""","""","""","""",3/1/2021 22:15,50.237.60.170,Mozilla/5.0 (Windows NT 10.0; Win64; x64; rv:84.0) Gecko/20100101 Firefox/84.0,,Firefox,84,Windows,10
2,1,null,"""",html-keyboard-response,224,680421,0.0-224.0,"<div style=""font-size:60px;"">+</div>","""",69,fixation,Memorization,null,500,"""","""","""","""","""","""","""","""",3/1/2021 22:15,50.237.60.170,Mozilla/5.0 (Windows NT 10.0; Win64; x64; rv:84.0) Gecko/20100101 Firefox/84.0,,Firefox,84,Windows,10
2,1,2340,"""",html-keyboard-response,225,685442,0.0-225.0,"<img src='jspsych/CFDfaces/CFD-AF-201-060-N.jpg' height=""250px""></br><b>Michelle</b>","""",70,IntactFace,Memorization,78,5000,"""",CFD-AF-201-060-N.jpg,Michelle,0,"""","""","""","""",3/1/2021 22:15,50.237.60.170,Mozilla/5.0 (Windows NT 10.0; Win64; x64; rv:84.0) Gecko/20100101 Firefox/84.0,,Firefox,84,Windows,10
2,1,null,"""",html-keyboard-response,226,685962,0.0-226.0,"<div style=""font-size:60px;"">+</div>","""",70,fixation,Memorization,null,500,"""","""","""","""","""","""","""","""",3/1/2021 22:15,50.237.60.170,Mozilla/5.0 (Windows NT 10.0; Win64; x64; rv:84.0) Gecko/20100101 Firefox/84.0,,Firefox,84,Windows,10
2,1,null,"""",html-keyboard-response,227,690971,0.0-227.0,"<img src='jspsych/CFDfaces/CFD-LM-217-162-N.jpg' height=""250px""></br><b>Aaron</b>","""",71,IntactFace,Memorization,null,5000,"""",CFD-LM-217-162-N.jpg,Aaron,0,"""","""","""","""",3/1/2021 22:15,50.237.60.170,Mozilla/5.0 (Windows NT 10.0; Win64; x64; rv:84.0) Gecko/20100101 Firefox/84.0,,Firefox,84,Windows,10
2,1,null,"""",html-keyboard-response,228,691491,0.0-228.0,"<div style=""font-size:60px;"">+</div>","""",71,fixation,Memorization,null,500,"""","""","""","""","""","""","""","""",3/1/2021 22:15,50.237.60.170,Mozilla/5.0 (Windows NT 10.0; Win64; x64; rv:84.0) Gecko/20100101 Firefox/84.0,,Firefox,84,Windows,10
2,1,85,"""",html-keyboard-response,229,696502,0.0-229.0,"<img src='jspsych/CFDfaces/CFD-LM-239-075-N.jpg' height=""250px""></br><b>Austin</b>","""",72,IntactFace,Memorization,78,5000,"""",CFD-LM-239-075-N.jpg,Austin,0,"""","""","""","""",3/1/2021 22:15,50.237.60.170,Mozilla/5.0 (Windows NT 10.0; Win64; x64; rv:84.0) Gecko/20100101 Firefox/84.0,,Firefox,84,Windows,10
2,1,null,"""",html-keyboard-response,230,697021,0.0-230.0,"<div style=""font-size:60px;"">+</div>","""",72,fixation,Memorization,null,500,"""","""","""","""","""","""","""","""",3/1/2021 22:15,50.237.60.170,Mozilla/5.0 (Windows NT 10.0; Win64; x64; rv:84.0) Gecko/20100101 Firefox/84.0,,Firefox,84,Windows,10
2,1,2507,"""",html-keyboard-response,231,702031,0.0-231.0,"<img src='jspsych/CFDfaces/CFD-AM-230-150-N.jpg' height=""250px""></br><b>Juan</b>","""",73,IntactFace,Memorization,70,5000,"""",CFD-AM-230-150-N.jpg,Juan,0,"""","""","""","""",3/1/2021 22:15,50.237.60.170,Mozilla/5.0 (Windows NT 10.0; Win64; x64; rv:84.0) Gecko/20100101 Firefox/84.0,,Firefox,84,Windows,10
2,1,null,"""",html-keyboard-response,232,702541,0.0-232.0,"<div style=""font-size:60px;"">+</div>","""",73,fixation,Memorization,null,500,"""","""","""","""","""","""","""","""",3/1/2021 22:15,50.237.60.170,Mozilla/5.0 (Windows NT 10.0; Win64; x64; rv:84.0) Gecko/20100101 Firefox/84.0,,Firefox,84,Windows,10
2,1,1323,"""",html-keyboard-response,233,707543,0.0-233.0,"<img src='jspsych/CFDfaces/CFD-LM-220-329-N.jpg' height=""250px""></br><b>David</b>","""",74,IntactFace,Memorization,70,5000,"""",CFD-LM-220-329-N.jpg,David,0,"""","""","""","""",3/1/2021 22:15,50.237.60.170,Mozilla/5.0 (Windows NT 10.0; Win64; x64; rv:84.0) Gecko/20100101 Firefox/84.0,,Firefox,84,Windows,10
2,1,null,"""",html-keyboard-response,234,708053,0.0-234.0,"<div style=""font-size:60px;"">+</div>","""",74,fixation,Memorization,null,500,"""","""","""","""","""","""","""","""",3/1/2021 22:15,50.237.60.170,Mozilla/5.0 (Windows NT 10.0; Win64; x64; rv:84.0) Gecko/20100101 Firefox/84.0,,Firefox,84,Windows,10
2,1,3764,"""",html-keyboard-response,235,713071,0.0-235.0,"<img src='jspsych/CFDfaces/CFD-LF-215-157-N.jpg' height=""250px""></br><b>Laura</b>","""",75,IntactFace,Memorization,78,5000,"""",CFD-LF-215-157-N.jpg,Laura,0,"""","""","""","""",3/1/2021 22:15,50.237.60.170,Mozilla/5.0 (Windows NT 10.0; Win64; x64; rv:84.0) Gecko/20100101 Firefox/84.0,,Firefox,84,Windows,10
2,1,null,"""",html-keyboard-response,236,713591,0.0-236.0,"<div style=""font-size:60px;"">+</div>","""",75,fixation,Memorization,null,500,"""","""","""","""","""","""","""","""",3/1/2021 22:15,50.237.60.170,Mozilla/5.0 (Windows NT 10.0; Win64; x64; rv:84.0) Gecko/20100101 Firefox/84.0,,Firefox,84,Windows,10
2,1,1376,"""",html-keyboard-response,237,718612,0.0-237.0,"<img src='jspsych/CFDfaces/CFD-AF-203-077-N.jpg' height=""250px""></br><b>Emily</b>","""",76,IntactFace,Memorization,70,5000,"""",CFD-AF-203-077-N.jpg,Emily,0,"""","""","""","""",3/1/2021 22:15,50.237.60.170,Mozilla/5.0 (Windows NT 10.0; Win64; x64; rv:84.0) Gecko/20100101 Firefox/84.0,,Firefox,84,Windows,10
2,1,null,"""",html-keyboard-response,238,719119,0.0-238.0,"<div style=""font-size:60px;"">+</div>","""",76,fixation,Memorization,null,500,"""","""","""","""","""","""","""","""",3/1/2021 22:15,50.237.60.170,Mozilla/5.0 (Windows NT 10.0; Win64; x64; rv:84.0) Gecko/20100101 Firefox/84.0,,Firefox,84,Windows,10
2,1,2282,"""",html-keyboard-response,239,724121,0.0-239.0,"<img src='jspsych/CFDfaces/CFD-LF-232-199-N.jpg' height=""250px""></br><b>Tiffany</b>","""",77,IntactFace,Memorization,78,5000,"""",CFD-LF-232-199-N.jpg,Tiffany,0,"""","""","""","""",3/1/2021 22:15,50.237.60.170,Mozilla/5.0 (Windows NT 10.0; Win64; x64; rv:84.0) Gecko/20100101 Firefox/84.0,,Firefox,84,Windows,10
2,1,null,"""",html-keyboard-response,240,724631,0.0-240.0,"<div style=""font-size:60px;"">+</div>","""",77,fixation,Memorization,null,500,"""","""","""","""","""","""","""","""",3/1/2021 22:15,50.237.60.170,Mozilla/5.0 (Windows NT 10.0; Win64; x64; rv:84.0) Gecko/20100101 Firefox/84.0,,Firefox,84,Windows,10
2,1,2289,"""",html-keyboard-response,241,729634,0.0-241.0,"<img src='jspsych/CFDfaces/CFD-LF-218-072-N.jpg' height=""250px""></br><b>Heather</b>","""",78,IntactFace,Memorization,78,5000,"""",CFD-LF-218-072-N.jpg,Heather,0,"""","""","""","""",3/1/2021 22:15,50.237.60.170,Mozilla/5.0 (Windows NT 10.0; Win64; x64; rv:84.0) Gecko/20100101 Firefox/84.0,,Firefox,84,Windows,10
2,1,null,"""",html-keyboard-response,242,730141,0.0-242.0,"<div style=""font-size:60px;"">+</div>","""",78,fixation,Memorization,null,500,"""","""","""","""","""","""","""","""",3/1/2021 22:15,50.237.60.170,Mozilla/5.0 (Windows NT 10.0; Win64; x64; rv:84.0) Gecko/20100101 Firefox/84.0,,Firefox,84,Windows,10
2,1,2108,"""",html-keyboard-response,243,735144,0.0-243.0,"<img src='jspsych/CFDfaces/CFD-LF-210-220-N.jpg' height=""250px""></br><b>Rachel</b>","""",79,IntactFace,Memorization,70,5000,"""",CFD-LF-210-220-N.jpg,Rachel,0,"""","""","""","""",3/1/2021 22:15,50.237.60.170,Mozilla/5.0 (Windows NT 10.0; Win64; x64; rv:84.0) Gecko/20100101 Firefox/84.0,,Firefox,84,Windows,10
2,1,null,"""",html-keyboard-response,244,735671,0.0-244.0,"<div style=""font-size:60px;"">+</div>","""",79,fixation,Memorization,null,500,"""","""","""","""","""","""","""","""",3/1/2021 22:15,50.237.60.170,Mozilla/5.0 (Windows NT 10.0; Win64; x64; rv:84.0) Gecko/20100101 Firefox/84.0,,Firefox,84,Windows,10
2,1,1874,"""",html-keyboard-response,245,740691,0.0-245.0,"<img src='jspsych/CFDfaces/CFD-WF-003-003-N.jpg' height=""250px""></br><b>Jordan</b>","""",80,IntactFace,Memorization,70,5000,"""",CFD-WF-003-003-N.jpg,Jordan,0,"""","""","""","""",3/1/2021 22:15,50.237.60.170,Mozilla/5.0 (Windows NT 10.0; Win64; x64; rv:84.0) Gecko/20100101 Firefox/84.0,,Firefox,84,Windows,10
2,1,null,"""",html-keyboard-response,246,741211,0.0-246.0,"<div style=""font-size:60px;"">+</div>","""",80,fixation,Memorization,null,500,"""","""","""","""","""","""","""","""",3/1/2021 22:15,50.237.60.170,Mozilla/5.0 (Windows NT 10.0; Win64; x64; rv:84.0) Gecko/20100101 Firefox/84.0,,Firefox,84,Windows,10
2,1,2510,"""",html-keyboard-response,247,746214,0.0-247.0,"<img src='jspsych/CFDfaces/CFD-BF-209-172-N.jpg' height=""250px""></br><b>Monica</b>","""",81,IntactFace,Memorization,78,5000,"""",CFD-BF-209-172-N.jpg,Monica,0,"""","""","""","""",3/1/2021 22:15,50.237.60.170,Mozilla/5.0 (Windows NT 10.0; Win64; x64; rv:84.0) Gecko/20100101 Firefox/84.0,,Firefox,84,Windows,10
2,1,null,"""",html-keyboard-response,248,746731,0.0-248.0,"<div style=""font-size:60px;"">+</div>","""",81,fixation,Memorization,null,500,"""","""","""","""","""","""","""","""",3/1/2021 22:15,50.237.60.170,Mozilla/5.0 (Windows NT 10.0; Win64; x64; rv:84.0) Gecko/20100101 Firefox/84.0,,Firefox,84,Windows,10
2,1,2077,"""",html-keyboard-response,249,751741,0.0-249.0,"<img src='jspsych/CFDfaces/CFD-AF-214-139-N.jpg' height=""250px""></br><b>Meghan</b>","""",82,IntactFace,Memorization,78,5000,"""",CFD-AF-214-139-N.jpg,Meghan,0,"""","""","""","""",3/1/2021 22:15,50.237.60.170,Mozilla/5.0 (Windows NT 10.0; Win64; x64; rv:84.0) Gecko/20100101 Firefox/84.0,,Firefox,84,Windows,10
2,1,null,"""",html-keyboard-response,250,752251,0.0-250.0,"<div style=""font-size:60px;"">+</div>","""",82,fixation,Memorization,null,500,"""","""","""","""","""","""","""","""",3/1/2021 22:15,50.237.60.170,Mozilla/5.0 (Windows NT 10.0; Win64; x64; rv:84.0) Gecko/20100101 Firefox/84.0,,Firefox,84,Windows,10
2,1,1597,"""",html-keyboard-response,251,757271,0.0-251.0,"<img src='jspsych/CFDfaces/CFD-BM-002-013-N.jpg' height=""250px""></br><b>Charles</b>","""",83,IntactFace,Memorization,70,5000,"""",CFD-BM-002-013-N.jpg,Charles,0,"""","""","""","""",3/1/2021 22:15,50.237.60.170,Mozilla/5.0 (Windows NT 10.0; Win64; x64; rv:84.0) Gecko/20100101 Firefox/84.0,,Firefox,84,Windows,10
2,1,null,"""",html-keyboard-response,252,757781,0.0-252.0,"<div style=""font-size:60px;"">+</div>","""",83,fixation,Memorization,null,500,"""","""","""","""","""","""","""","""",3/1/2021 22:15,50.237.60.170,Mozilla/5.0 (Windows NT 10.0; Win64; x64; rv:84.0) Gecko/20100101 Firefox/84.0,,Firefox,84,Windows,10
2,1,2387,"""",html-keyboard-response,253,762791,0.0-253.0,"<img src='jspsych/CFDfaces/CFD-BM-041-035-N.jpg' height=""250px""></br><b>Jonathan</b>","""",84,IntactFace,Memorization,78,5000,"""",CFD-BM-041-035-N.jpg,Jonathan,0,"""","""","""","""",3/1/2021 22:15,50.237.60.170,Mozilla/5.0 (Windows NT 10.0; Win64; x64; rv:84.0) Gecko/20100101 Firefox/84.0,,Firefox,84,Windows,10
2,1,null,"""",html-keyboard-response,254,763301,0.0-254.0,"<div style=""font-size:60px;"">+</div>","""",84,fixation,Memorization,null,500,"""","""","""","""","""","""","""","""",3/1/2021 22:15,50.237.60.170,Mozilla/5.0 (Windows NT 10.0; Win64; x64; rv:84.0) Gecko/20100101 Firefox/84.0,,Firefox,84,Windows,10
2,1,1907,"""",html-keyboard-response,255,768321,0.0-255.0,"<img src='jspsych/CFDfaces/CFD-AF-208-003-N.jpg' height=""250px""></br><b>Kayla</b>","""",85,IntactFace,Memorization,78,5000,"""",CFD-AF-208-003-N.jpg,Kayla,0,"""","""","""","""",3/1/2021 22:15,50.237.60.170,Mozilla/5.0 (Windows NT 10.0; Win64; x64; rv:84.0) Gecko/20100101 Firefox/84.0,,Firefox,84,Windows,10
2,1,null,"""",html-keyboard-response,256,768841,0.0-256.0,"<div style=""font-size:60px;"">+</div>","""",85,fixation,Memorization,null,500,"""","""","""","""","""","""","""","""",3/1/2021 22:15,50.237.60.170,Mozilla/5.0 (Windows NT 10.0; Win64; x64; rv:84.0) Gecko/20100101 Firefox/84.0,,Firefox,84,Windows,10
2,1,2479,"""",html-keyboard-response,257,773861,0.0-257.0,"<img src='jspsych/CFDfaces/CFD-AF-237-223-N.jpg' height=""250px""></br><b>Amanda</b>","""",86,IntactFace,Memorization,78,5000,"""",CFD-AF-237-223-N.jpg,Amanda,0,"""","""","""","""",3/1/2021 22:15,50.237.60.170,Mozilla/5.0 (Windows NT 10.0; Win64; x64; rv:84.0) Gecko/20100101 Firefox/84.0,,Firefox,84,Windows,10
2,1,null,"""",html-keyboard-response,258,774380,0.0-258.0,"<div style=""font-size:60px;"">+</div>","""",86,fixation,Memorization,null,500,"""","""","""","""","""","""","""","""",3/1/2021 22:15,50.237.60.170,Mozilla/5.0 (Windows NT 10.0; Win64; x64; rv:84.0) Gecko/20100101 Firefox/84.0,,Firefox,84,Windows,10
2,1,1803,"""",html-keyboard-response,259,779391,0.0-259.0,"<img src='jspsych/CFDfaces/CFD-WM-006-002-N.jpg' height=""250px""></br><b>Dustin</b>","""",87,IntactFace,Memorization,70,5000,"""",CFD-WM-006-002-N.jpg,Dustin,0,"""","""","""","""",3/1/2021 22:15,50.237.60.170,Mozilla/5.0 (Windows NT 10.0; Win64; x64; rv:84.0) Gecko/20100101 Firefox/84.0,,Firefox,84,Windows,10
2,1,null,"""",html-keyboard-response,260,779901,0.0-260.0,"<div style=""font-size:60px;"">+</div>","""",87,fixation,Memorization,null,500,"""","""","""","""","""","""","""","""",3/1/2021 22:15,50.237.60.170,Mozilla/5.0 (Windows NT 10.0; Win64; x64; rv:84.0) Gecko/20100101 Firefox/84.0,,Firefox,84,Windows,10
2,1,3131,"""",html-keyboard-response,261,784921,0.0-261.0,"<img src='jspsych/CFDfaces/CFD-LM-233-171-N.jpg' height=""250px""></br><b>Kevin</b>","""",88,IntactFace,Memorization,78,5000,"""",CFD-LM-233-171-N.jpg,Kevin,0,"""","""","""","""",3/1/2021 22:15,50.237.60.170,Mozilla/5.0 (Windows NT 10.0; Win64; x64; rv:84.0) Gecko/20100101 Firefox/84.0,,Firefox,84,Windows,10
2,1,null,"""",html-keyboard-response,262,785440,0.0-262.0,"<div style=""font-size:60px;"">+</div>","""",88,fixation,Memorization,null,500,"""","""","""","""","""","""","""","""",3/1/2021 22:15,50.237.60.170,Mozilla/5.0 (Windows NT 10.0; Win64; x64; rv:84.0) Gecko/20100101 Firefox/84.0,,Firefox,84,Windows,10
2,1,2807,"""",html-keyboard-response,263,790451,0.0-263.0,"<img src='jspsych/CFDfaces/CFD-BF-004-014-N.jpg' height=""250px""></br><b>Alexandra</b>","""",89,IntactFace,Memorization,78,5000,"""",CFD-BF-004-014-N.jpg,Alexandra,0,"""","""","""","""",3/1/2021 22:15,50.237.60.170,Mozilla/5.0 (Windows NT 10.0; Win64; x64; rv:84.0) Gecko/20100101 Firefox/84.0,,Firefox,84,Windows,10
2,1,null,"""",html-keyboard-response,264,790971,0.0-264.0,"<div style=""font-size:60px;"">+</div>","""",89,fixation,Memorization,null,500,"""","""","""","""","""","""","""","""",3/1/2021 22:15,50.237.60.170,Mozilla/5.0 (Windows NT 10.0; Win64; x64; rv:84.0) Gecko/20100101 Firefox/84.0,,Firefox,84,Windows,10
2,1,1661,"""",html-keyboard-response,265,795991,0.0-265.0,"<img src='jspsych/CFDfaces/CFD-BM-010-003-N.jpg' height=""250px""></br><b>Derek</b>","""",90,IntactFace,Memorization,70,5000,"""",CFD-BM-010-003-N.jpg,Derek,0,"""","""","""","""",3/1/2021 22:15,50.237.60.170,Mozilla/5.0 (Windows NT 10.0; Win64; x64; rv:84.0) Gecko/20100101 Firefox/84.0,,Firefox,84,Windows,10
2,1,null,"""",html-keyboard-response,266,796511,0.0-266.0,"<div style=""font-size:60px;"">+</div>","""",90,fixation,Memorization,null,500,"""","""","""","""","""","""","""","""",3/1/2021 22:15,50.237.60.170,Mozilla/5.0 (Windows NT 10.0; Win64; x64; rv:84.0) Gecko/20100101 Firefox/84.0,,Firefox,84,Windows,10
2,1,1817,"""",html-keyboard-response,267,801521,0.0-267.0,"<img src='jspsych/CFDfaces/CFD-WM-009-002-N.jpg' height=""250px""></br><b>Ryan</b>","""",91,IntactFace,Memorization,70,5000,"""",CFD-WM-009-002-N.jpg,Ryan,0,"""","""","""","""",3/1/2021 22:15,50.237.60.170,Mozilla/5.0 (Windows NT 10.0; Win64; x64; rv:84.0) Gecko/20100101 Firefox/84.0,,Firefox,84,Windows,10
2,1,null,"""",html-keyboard-response,268,802040,0.0-268.0,"<div style=""font-size:60px;"">+</div>","""",91,fixation,Memorization,null,500,"""","""","""","""","""","""","""","""",3/1/2021 22:15,50.237.60.170,Mozilla/5.0 (Windows NT 10.0; Win64; x64; rv:84.0) Gecko/20100101 Firefox/84.0,,Firefox,84,Windows,10
2,1,2175,"""",html-keyboard-response,269,807051,0.0-269.0,"<img src='jspsych/CFDfaces/CFD-AM-220-134-N.jpg' height=""250px""></br><b>Nicholas</b>","""",92,IntactFace,Memorization,78,5000,"""",CFD-AM-220-134-N.jpg,Nicholas,0,"""","""","""","""",3/1/2021 22:15,50.237.60.170,Mozilla/5.0 (Windows NT 10.0; Win64; x64; rv:84.0) Gecko/20100101 Firefox/84.0,,Firefox,84,Windows,10
2,1,null,"""",html-keyboard-response,270,807560,0.0-270.0,"<div style=""font-size:60px;"">+</div>","""",92,fixation,Memorization,null,500,"""","""","""","""","""","""","""","""",3/1/2021 22:15,50.237.60.170,Mozilla/5.0 (Windows NT 10.0; Win64; x64; rv:84.0) Gecko/20100101 Firefox/84.0,,Firefox,84,Windows,10
2,1,2030,"""",html-keyboard-response,271,812570,0.0-271.0,"<img src='jspsych/CFDfaces/CFD-LF-205-100-N.jpg' height=""250px""></br><b>Holly</b>","""",93,IntactFace,Memorization,78,5000,"""",CFD-LF-205-100-N.jpg,Holly,0,"""","""","""","""",3/1/2021 22:15,50.237.60.170,Mozilla/5.0 (Windows NT 10.0; Win64; x64; rv:84.0) Gecko/20100101 Firefox/84.0,,Firefox,84,Windows,10
2,1,null,"""",html-keyboard-response,272,813090,0.0-272.0,"<div style=""font-size:60px;"">+</div>","""",93,fixation,Memorization,null,500,"""","""","""","""","""","""","""","""",3/1/2021 22:15,50.237.60.170,Mozilla/5.0 (Windows NT 10.0; Win64; x64; rv:84.0) Gecko/20100101 Firefox/84.0,,Firefox,84,Windows,10
2,1,1926,"""",html-keyboard-response,273,818111,0.0-273.0,"<img src='jspsych/CFDfaces/CFD-BF-010-001-N.jpg' height=""250px""></br><b>Allison</b>","""",94,IntactFace,Memorization,78,5000,"""",CFD-BF-010-001-N.jpg,Allison,0,"""","""","""","""",3/1/2021 22:15,50.237.60.170,Mozilla/5.0 (Windows NT 10.0; Win64; x64; rv:84.0) Gecko/20100101 Firefox/84.0,,Firefox,84,Windows,10
2,1,null,"""",html-keyboard-response,274,818630,0.0-274.0,"<div style=""font-size:60px;"">+</div>","""",94,fixation,Memorization,null,500,"""","""","""","""","""","""","""","""",3/1/2021 22:15,50.237.60.170,Mozilla/5.0 (Windows NT 10.0; Win64; x64; rv:84.0) Gecko/20100101 Firefox/84.0,,Firefox,84,Windows,10
2,1,2193,"""",html-keyboard-response,275,823651,0.0-275.0,"<img src='jspsych/CFDfaces/CFD-BF-218-207-N.jpg' height=""250px""></br><b>Danielle</b>","""",95,IntactFace,Memorization,78,5000,"""",CFD-BF-218-207-N.jpg,Danielle,0,"""","""","""","""",3/1/2021 22:15,50.237.60.170,Mozilla/5.0 (Windows NT 10.0; Win64; x64; rv:84.0) Gecko/20100101 Firefox/84.0,,Firefox,84,Windows,10
2,1,null,"""",html-keyboard-response,276,824170,0.0-276.0,"<div style=""font-size:60px;"">+</div>","""",95,fixation,Memorization,null,500,"""","""","""","""","""","""","""","""",3/1/2021 22:15,50.237.60.170,Mozilla/5.0 (Windows NT 10.0; Win64; x64; rv:84.0) Gecko/20100101 Firefox/84.0,,Firefox,84,Windows,10
2,1,3213,"""",html-keyboard-response,277,829181,0.0-277.0,"<img src='jspsych/CFDfaces/CFD-BM-210-148-N.jpg' height=""250px""></br><b>Bradley</b>","""",96,IntactFace,Memorization,70,5000,"""",CFD-BM-210-148-N.jpg,Bradley,0,"""","""","""","""",3/1/2021 22:15,50.237.60.170,Mozilla/5.0 (Windows NT 10.0; Win64; x64; rv:84.0) Gecko/20100101 Firefox/84.0,,Firefox,84,Windows,10
2,1,null,"""",html-keyboard-response,278,829700,0.0-278.0,"<div style=""font-size:60px;"">+</div>","""",96,fixation,Memorization,null,500,"""","""","""","""","""","""","""","""",3/1/2021 22:15,50.237.60.170,Mozilla/5.0 (Windows NT 10.0; Win64; x64; rv:84.0) Gecko/20100101 Firefox/84.0,,Firefox,84,Windows,10
2,1,2915,"""",html-keyboard-response,279,834711,0.0-279.0,"<img src='jspsych/CFDfaces/CFD-AM-234-355-N.jpg' height=""250px""></br><b>Jason</b>","""",97,IntactFace,Memorization,78,5000,"""",CFD-AM-234-355-N.jpg,Jason,0,"""","""","""","""",3/1/2021 22:15,50.237.60.170,Mozilla/5.0 (Windows NT 10.0; Win64; x64; rv:84.0) Gecko/20100101 Firefox/84.0,,Firefox,84,Windows,10
2,1,null,"""",html-keyboard-response,280,835221,0.0-280.0,"<div style=""font-size:60px;"">+</div>","""",97,fixation,Memorization,null,500,"""","""","""","""","""","""","""","""",3/1/2021 22:15,50.237.60.170,Mozilla/5.0 (Windows NT 10.0; Win64; x64; rv:84.0) Gecko/20100101 Firefox/84.0,,Firefox,84,Windows,10
2,1,2147,"""",html-keyboard-response,281,840231,0.0-281.0,"<img src='jspsych/CFDfaces/CFD-LM-224-162-N.jpg' height=""250px""></br><b>Christopher</b>","""",98,IntactFace,Memorization,70,5000,"""",CFD-LM-224-162-N.jpg,Christopher,0,"""","""","""","""",3/1/2021 22:15,50.237.60.170,Mozilla/5.0 (Windows NT 10.0; Win64; x64; rv:84.0) Gecko/20100101 Firefox/84.0,,Firefox,84,Windows,10
2,1,null,"""",html-keyboard-response,282,840750,0.0-282.0,"<div style=""font-size:60px;"">+</div>","""",98,fixation,Memorization,null,500,"""","""","""","""","""","""","""","""",3/1/2021 22:15,50.237.60.170,Mozilla/5.0 (Windows NT 10.0; Win64; x64; rv:84.0) Gecko/20100101 Firefox/84.0,,Firefox,84,Windows,10
2,1,2393,"""",html-keyboard-response,283,845770,0.0-283.0,"<img src='jspsych/CFDfaces/CFD-AM-231-136-N.jpg' height=""250px""></br><b>Gregory</b>","""",99,IntactFace,Memorization,78,5000,"""",CFD-AM-231-136-N.jpg,Gregory,0,"""","""","""","""",3/1/2021 22:15,50.237.60.170,Mozilla/5.0 (Windows NT 10.0; Win64; x64; rv:84.0) Gecko/20100101 Firefox/84.0,,Firefox,84,Windows,10
2,1,null,"""",html-keyboard-response,284,846290,0.0-284.0,"<div style=""font-size:60px;"">+</div>","""",99,fixation,Memorization,null,500,"""","""","""","""","""","""","""","""",3/1/2021 22:15,50.237.60.170,Mozilla/5.0 (Windows NT 10.0; Win64; x64; rv:84.0) Gecko/20100101 Firefox/84.0,,Firefox,84,Windows,10
2,1,2902,"""",html-keyboard-response,285,851300,0.0-285.0,"<img src='jspsych/CFDfaces/CFD-LF-206-078-N.jpg' height=""250px""></br><b>Brianna</b>","""",100,IntactFace,Memorization,70,5000,"""",CFD-LF-206-078-N.jpg,Brianna,0,"""","""","""","""",3/1/2021 22:15,50.237.60.170,Mozilla/5.0 (Windows NT 10.0; Win64; x64; rv:84.0) Gecko/20100101 Firefox/84.0,,Firefox,84,Windows,10
2,1,null,"""",html-keyboard-response,286,851820,0.0-286.0,"<div style=""font-size:60px;"">+</div>","""",100,fixation,Memorization,null,500,"""","""","""","""","""","""","""","""",3/1/2021 22:15,50.237.60.170,Mozilla/5.0 (Windows NT 10.0; Win64; x64; rv:84.0) Gecko/20100101 Firefox/84.0,,Firefox,84,Windows,10
2,1,2075,"""",html-keyboard-response,287,856840,0.0-287.0,"<img src='jspsych/CFDfaces/CFD-LM-213-061-N.jpg' height=""250px""></br><b>Michael</b>","""",101,IntactFace,Memorization,70,5000,"""",CFD-LM-213-061-N.jpg,Michael,0,"""","""","""","""",3/1/2021 22:15,50.237.60.170,Mozilla/5.0 (Windows NT 10.0; Win64; x64; rv:84.0) Gecko/20100101 Firefox/84.0,,Firefox,84,Windows,10
2,1,null,"""",html-keyboard-response,288,857360,0.0-288.0,"<div style=""font-size:60px;"">+</div>","""",101,fixation,Memorization,null,500,"""","""","""","""","""","""","""","""",3/1/2021 22:15,50.237.60.170,Mozilla/5.0 (Windows NT 10.0; Win64; x64; rv:84.0) Gecko/20100101 Firefox/84.0,,Firefox,84,Windows,10
2,1,2151,"""",html-keyboard-response,289,862380,0.0-289.0,"<img src='jspsych/CFDfaces/CFD-LF-231-260-N.jpg' height=""250px""></br><b>Angela</b>","""",102,IntactFace,Memorization,78,5000,"""",CFD-LF-231-260-N.jpg,Angela,0,"""","""","""","""",3/1/2021 22:15,50.237.60.170,Mozilla/5.0 (Windows NT 10.0; Win64; x64; rv:84.0) Gecko/20100101 Firefox/84.0,,Firefox,84,Windows,10
2,1,null,"""",html-keyboard-response,290,862900,0.0-290.0,"<div style=""font-size:60px;"">+</div>","""",102,fixation,Memorization,null,500,"""","""","""","""","""","""","""","""",3/1/2021 22:15,50.237.60.170,Mozilla/5.0 (Windows NT 10.0; Win64; x64; rv:84.0) Gecko/20100101 Firefox/84.0,,Firefox,84,Windows,10
2,1,2050,"""",html-keyboard-response,291,867920,0.0-291.0,"<img src='jspsych/CFDfaces/CFD-BM-022-022-N.jpg' height=""250px""></br><b>Nathan</b>","""",103,IntactFace,Memorization,70,5000,"""",CFD-BM-022-022-N.jpg,Nathan,0,"""","""","""","""",3/1/2021 22:15,50.237.60.170,Mozilla/5.0 (Windows NT 10.0; Win64; x64; rv:84.0) Gecko/20100101 Firefox/84.0,,Firefox,84,Windows,10
2,1,null,"""",html-keyboard-response,292,868440,0.0-292.0,"<div style=""font-size:60px;"">+</div>","""",103,fixation,Memorization,null,500,"""","""","""","""","""","""","""","""",3/1/2021 22:15,50.237.60.170,Mozilla/5.0 (Windows NT 10.0; Win64; x64; rv:84.0) Gecko/20100101 Firefox/84.0,,Firefox,84,Windows,10
2,1,2415,"""",html-keyboard-response,293,873461,0.0-293.0,"<img src='jspsych/CFDfaces/CFD-BM-018-001-N.jpg' height=""250px""></br><b>Joseph</b>","""",104,IntactFace,Memorization,70,5000,"""",CFD-BM-018-001-N.jpg,Joseph,0,"""","""","""","""",3/1/2021 22:15,50.237.60.170,Mozilla/5.0 (Windows NT 10.0; Win64; x64; rv:84.0) Gecko/20100101 Firefox/84.0,,Firefox,84,Windows,10
2,1,null,"""",html-keyboard-response,294,873980,0.0-294.0,"<div style=""font-size:60px;"">+</div>","""",104,fixation,Memorization,null,500,"""","""","""","""","""","""","""","""",3/1/2021 22:15,50.237.60.170,Mozilla/5.0 (Windows NT 10.0; Win64; x64; rv:84.0) Gecko/20100101 Firefox/84.0,,Firefox,84,Windows,10
2,1,1834,"""",html-keyboard-response,295,879000,0.0-295.0,"<img src='jspsych/CFDfaces/CFD-BF-025-002-N.jpg' height=""250px""></br><b>Kristen</b>","""",105,IntactFace,Memorization,78,5000,"""",CFD-BF-025-002-N.jpg,Kristen,0,"""","""","""","""",3/1/2021 22:15,50.237.60.170,Mozilla/5.0 (Windows NT 10.0; Win64; x64; rv:84.0) Gecko/20100101 Firefox/84.0,,Firefox,84,Windows,10
2,1,null,"""",html-keyboard-response,296,879510,0.0-296.0,"<div style=""font-size:60px;"">+</div>","""",105,fixation,Memorization,null,500,"""","""","""","""","""","""","""","""",3/1/2021 22:15,50.237.60.170,Mozilla/5.0 (Windows NT 10.0; Win64; x64; rv:84.0) Gecko/20100101 Firefox/84.0,,Firefox,84,Windows,10
2,1,2401,"""",html-keyboard-response,297,884520,0.0-297.0,"<img src='jspsych/CFDfaces/CFD-LM-219-295-N.jpg' height=""250px""></br><b>Edward</b>","""",106,IntactFace,Memorization,70,5000,"""",CFD-LM-219-295-N.jpg,Edward,0,"""","""","""","""",3/1/2021 22:15,50.237.60.170,Mozilla/5.0 (Windows NT 10.0; Win64; x64; rv:84.0) Gecko/20100101 Firefox/84.0,,Firefox,84,Windows,10
