run_id,condition,rt,responses,trial_type,trial_index,time_elapsed,internal_node_id,stimulus,button_pressed,iTrial,Phase,ExperimentPhase,key_press,StimulusDurationSetting,CharacterResponse,correctResponse,Face,Name,rearranged,slider_start,response,didSubjectEnterRearranged,Block,recorded_at,ip,user_agent,device,browser,browser_version,platform,platform_version
12,1,23263,"{""Q0"":""A2VAL2BRKVSUB5""}",survey-text,0,23293,0.0-0.0,"""","""","""","""","""","""","""","""","""","""","""","""","""","""","""","""",3/11/2021 19:48,73.80.90.55,Mozilla/5.0 (Windows NT 10.0; Win64; x64; rv:66.0) Gecko/20100101 Firefox/66.0,,Firefox,66,Windows,10
12,1,25730,"""",image-button-response,1,49108,0.0-1.0,directionsMemoryAssociation1.JPG,0,1,IntroDirections1,break,"""","""","""","""","""","""","""","""","""","""","""",3/11/2021 19:48,73.80.90.55,Mozilla/5.0 (Windows NT 10.0; Win64; x64; rv:66.0) Gecko/20100101 Firefox/66.0,,Firefox,66,Windows,10
12,1,25590,"""",image-button-response,2,74731,0.0-2.0,directionsMemoryAssociation2.JPG,0,1,IntroDirections2,break,"""","""","""","""","""","""","""","""","""","""","""",3/11/2021 19:48,73.80.90.55,Mozilla/5.0 (Windows NT 10.0; Win64; x64; rv:66.0) Gecko/20100101 Firefox/66.0,,Firefox,66,Windows,10
12,1,null,"""",html-keyboard-response,3,79778,0.0-3.0,"<img src='jspsych/CFDfaces/CFD-BF-226-119-N.jpg' height=""250px"">,</br><b>Katelyn</b>","""",1,IntactFace,Practice,null,5000,"""","""","""","""","""","""","""","""","""",3/11/2021 19:48,73.80.90.55,Mozilla/5.0 (Windows NT 10.0; Win64; x64; rv:66.0) Gecko/20100101 Firefox/66.0,,Firefox,66,Windows,10
12,1,null,"""",html-keyboard-response,4,80295,0.0-4.0,"<div style=""font-size:60px;"">+</div>","""",1,ITI,Practice,null,1000,"""","""","""","""","""","""","""","""","""",3/11/2021 19:48,73.80.90.55,Mozilla/5.0 (Windows NT 10.0; Win64; x64; rv:66.0) Gecko/20100101 Firefox/66.0,,Firefox,66,Windows,10
12,1,4662,"""",html-keyboard-response,5,85337,0.0-5.0,"<img src='jspsych/CFDfaces/CFD-LM-201-057-N.jpg' height=""250px"">,</br><b>Carlos</b>","""",2,IntactFace,Practice,70,5000,f,"""","""","""","""","""","""","""","""",3/11/2021 19:48,73.80.90.55,Mozilla/5.0 (Windows NT 10.0; Win64; x64; rv:66.0) Gecko/20100101 Firefox/66.0,,Firefox,66,Windows,10
12,1,null,"""",html-keyboard-response,6,85858,0.0-6.0,"<div style=""font-size:60px;"">+</div>","""",2,ITI,Practice,null,1000,"""","""","""","""","""","""","""","""","""",3/11/2021 19:48,73.80.90.55,Mozilla/5.0 (Windows NT 10.0; Win64; x64; rv:66.0) Gecko/20100101 Firefox/66.0,,Firefox,66,Windows,10
12,1,2304,"""",html-keyboard-response,7,90909,0.0-7.0,"<img src='jspsych/CFDfaces/CFD-LM-213-061-N.jpg' height=""250px"">,</br><b>Samuel</b>","""",3,IntactFace,Practice,78,5000,n,"""","""","""","""","""","""","""","""",3/11/2021 19:48,73.80.90.55,Mozilla/5.0 (Windows NT 10.0; Win64; x64; rv:66.0) Gecko/20100101 Firefox/66.0,,Firefox,66,Windows,10
12,1,null,"""",html-keyboard-response,8,91429,0.0-8.0,"<div style=""font-size:60px;"">+</div>","""",3,ITI,Practice,null,1000,"""","""","""","""","""","""","""","""","""",3/11/2021 19:48,73.80.90.55,Mozilla/5.0 (Windows NT 10.0; Win64; x64; rv:66.0) Gecko/20100101 Firefox/66.0,,Firefox,66,Windows,10
12,1,3233,"""",html-keyboard-response,9,96464,0.0-9.0,"<img src='jspsych/CFDfaces/CFD-BF-209-172-N.jpg' height=""250px"">,</br><b>Tara</b>","""",4,IntactFace,Practice,78,5000,n,"""","""","""","""","""","""","""","""",3/11/2021 19:48,73.80.90.55,Mozilla/5.0 (Windows NT 10.0; Win64; x64; rv:66.0) Gecko/20100101 Firefox/66.0,,Firefox,66,Windows,10
12,1,null,"""",html-keyboard-response,10,96971,0.0-10.0,"<div style=""font-size:60px;"">+</div>","""",4,ITI,Practice,null,1000,"""","""","""","""","""","""","""","""","""",3/11/2021 19:48,73.80.90.55,Mozilla/5.0 (Windows NT 10.0; Win64; x64; rv:66.0) Gecko/20100101 Firefox/66.0,,Firefox,66,Windows,10
12,1,3098,"""",html-keyboard-response,11,101997,0.0-11.0,"<img src='jspsych/CFDfaces/CFD-LF-201-035-N.jpg' height=""250px"">,</br><b>Cassandra</b>","""",5,IntactFace,Practice,70,5000,f,"""","""","""","""","""","""","""","""",3/11/2021 19:48,73.80.90.55,Mozilla/5.0 (Windows NT 10.0; Win64; x64; rv:66.0) Gecko/20100101 Firefox/66.0,,Firefox,66,Windows,10
12,1,null,"""",html-keyboard-response,12,102519,0.0-12.0,"<div style=""font-size:60px;"">+</div>","""",5,ITI,Practice,null,1000,"""","""","""","""","""","""","""","""","""",3/11/2021 19:48,73.80.90.55,Mozilla/5.0 (Windows NT 10.0; Win64; x64; rv:66.0) Gecko/20100101 Firefox/66.0,,Firefox,66,Windows,10
12,1,2250,"""",html-keyboard-response,13,107583,0.0-13.0,"<img src='jspsych/CFDfaces/CFD-LM-220-329-N.jpg' height=""250px"">,</br><b>Patrick</b>","""",6,IntactFace,Practice,78,5000,n,"""","""","""","""","""","""","""","""",3/11/2021 19:48,73.80.90.55,Mozilla/5.0 (Windows NT 10.0; Win64; x64; rv:66.0) Gecko/20100101 Firefox/66.0,,Firefox,66,Windows,10
12,1,null,"""",html-keyboard-response,14,108096,0.0-14.0,"<div style=""font-size:60px;"">+</div>","""",6,ITI,Practice,null,1000,"""","""","""","""","""","""","""","""","""",3/11/2021 19:48,73.80.90.55,Mozilla/5.0 (Windows NT 10.0; Win64; x64; rv:66.0) Gecko/20100101 Firefox/66.0,,Firefox,66,Windows,10
12,1,1431,"""",html-keyboard-response,15,113120,0.0-15.0,"<img src='jspsych/CFDfaces/CFD-AM-231-136-N.jpg' height=""250px"">,</br><b>Marcus</b>","""",7,IntactFace,Practice,78,5000,n,"""","""","""","""","""","""","""","""",3/11/2021 19:48,73.80.90.55,Mozilla/5.0 (Windows NT 10.0; Win64; x64; rv:66.0) Gecko/20100101 Firefox/66.0,,Firefox,66,Windows,10
12,1,null,"""",html-keyboard-response,16,113636,0.0-16.0,"<div style=""font-size:60px;"">+</div>","""",7,ITI,Practice,null,1000,"""","""","""","""","""","""","""","""","""",3/11/2021 19:48,73.80.90.55,Mozilla/5.0 (Windows NT 10.0; Win64; x64; rv:66.0) Gecko/20100101 Firefox/66.0,,Firefox,66,Windows,10
12,1,1895,"""",html-keyboard-response,17,118657,0.0-17.0,"<img src='jspsych/CFDfaces/CFD-WF-029-002-N.jpg' height=""250px"">,</br><b>Shannon</b>","""",8,IntactFace,Practice,70,5000,f,"""","""","""","""","""","""","""","""",3/11/2021 19:48,73.80.90.55,Mozilla/5.0 (Windows NT 10.0; Win64; x64; rv:66.0) Gecko/20100101 Firefox/66.0,,Firefox,66,Windows,10
12,1,null,"""",html-keyboard-response,18,119166,0.0-18.0,"<div style=""font-size:60px;"">+</div>","""",8,ITI,Practice,null,1000,"""","""","""","""","""","""","""","""","""",3/11/2021 19:48,73.80.90.55,Mozilla/5.0 (Windows NT 10.0; Win64; x64; rv:66.0) Gecko/20100101 Firefox/66.0,,Firefox,66,Windows,10
12,1,23045,"""",image-button-response,19,142257,0.0-19.0,directionsForTest.JPG,0,1,directionsForTest,break,"""","""","""","""","""","""","""","""","""","""","""",3/11/2021 19:48,73.80.90.55,Mozilla/5.0 (Windows NT 10.0; Win64; x64; rv:66.0) Gecko/20100101 Firefox/66.0,,Firefox,66,Windows,10
12,1,15311,"""",image-button-response,20,157591,0.0-20.0,directionsForTest2.JPG,0,1,directionsForTest2,break,"""","""","""","""","""","""","""","""","""","""","""",3/11/2021 19:48,73.80.90.55,Mozilla/5.0 (Windows NT 10.0; Win64; x64; rv:66.0) Gecko/20100101 Firefox/66.0,,Firefox,66,Windows,10
12,1,null,"""",html-keyboard-response,21,158640,0.0-21.0,"<div style=""font-size:60px;"">+</div>","""",1,ITI,Practice,null,1000,"""","""","""","""","""","""","""","""","""",3/11/2021 19:48,73.80.90.55,Mozilla/5.0 (Windows NT 10.0; Win64; x64; rv:66.0) Gecko/20100101 Firefox/66.0,,Firefox,66,Windows,10
12,1,null,"""",image-keyboard-response,22,158913,0.0-22.0,jspsych/scrambledNeutralFaces/scrambledAM05NES.JPG,"""",1,forwardMask,Practice,null,250,"""",n,"""","""","""","""","""","""","""",3/11/2021 19:48,73.80.90.55,Mozilla/5.0 (Windows NT 10.0; Win64; x64; rv:66.0) Gecko/20100101 Firefox/66.0,,Firefox,66,Windows,10
12,1,null,"""",image-keyboard-response,23,158944,0.0-23.0,jspsych/neutralFaces/AM05NES.JPG,"""",1,Cue,Practice,null,16,"""","""","""","""","""","""","""","""","""",3/11/2021 19:48,73.80.90.55,Mozilla/5.0 (Windows NT 10.0; Win64; x64; rv:66.0) Gecko/20100101 Firefox/66.0,,Firefox,66,Windows,10
12,1,null,"""",image-keyboard-response,24,159069,0.0-24.0,jspsych/neutralFaces/AM13NES.JPG,"""",1,backwardMask,Practice,null,100,"""","""","""","""","""","""","""","""","""",3/11/2021 19:48,73.80.90.55,Mozilla/5.0 (Windows NT 10.0; Win64; x64; rv:66.0) Gecko/20100101 Firefox/66.0,,Firefox,66,Windows,10
12,1,null,"""",html-keyboard-response,25,160078,0.0-25.0,"<div style=""font-size:60px;"">+</div>","""",1,fixationBtwnNeutralMaskAndPrompt,Practice,null,1000,"""","""","""","""","""","""","""","""","""",3/11/2021 19:48,73.80.90.55,Mozilla/5.0 (Windows NT 10.0; Win64; x64; rv:66.0) Gecko/20100101 Firefox/66.0,,Firefox,66,Windows,10
12,1,null,"""",html-button-response,26,165098,0.0-26.0,"<img src='jspsych/CFDfaces/CFD-LM-220-329-N.jpg'height=""250px""></br><b>Patrick</b>",null,1,IntactOrRearranged,Practice,"""","""","""","""",CFD-LM-220-329-N.jpg,Patrick,0,"""","""","""","""",3/11/2021 19:48,73.80.90.55,Mozilla/5.0 (Windows NT 10.0; Win64; x64; rv:66.0) Gecko/20100101 Firefox/66.0,,Firefox,66,Windows,10
12,1,null,"""",html-slider-response,27,170167,0.0-27.0,"<img src='jspsych/CFDfaces/CFD-LM-220-329-N.jpg'height=""250px""></br><b>Patrick</b>","""",1,ConfidenceQuery,Practice,"""","""","""","""",CFD-BM-027-001-N.jpg,Kenneth,0,0,null,"""","""",3/11/2021 19:48,73.80.90.55,Mozilla/5.0 (Windows NT 10.0; Win64; x64; rv:66.0) Gecko/20100101 Firefox/66.0,,Firefox,66,Windows,10
12,1,6907,"""",html-button-response,28,177080,0.0-28.0,Please click either button: REARRANGED or INTACT. There is a 5 second time-limit!,0,1,feedback,Practice,"""","""","""","""","""","""","""","""","""","""","""",3/11/2021 19:48,73.80.90.55,Mozilla/5.0 (Windows NT 10.0; Win64; x64; rv:66.0) Gecko/20100101 Firefox/66.0,,Firefox,66,Windows,10
12,1,null,"""",html-keyboard-response,29,178107,0.0-29.0,"<div style=""font-size:60px;"">+</div>","""",2,ITI,Practice,null,1000,"""","""","""","""","""","""","""","""","""",3/11/2021 19:48,73.80.90.55,Mozilla/5.0 (Windows NT 10.0; Win64; x64; rv:66.0) Gecko/20100101 Firefox/66.0,,Firefox,66,Windows,10
12,1,null,"""",image-keyboard-response,30,178389,0.0-30.0,jspsych/scrambledDisgustFaces/scrambledBM28DIS.JPG,"""",2,forwardMask,Practice,null,250,"""",d,"""","""","""","""","""","""","""",3/11/2021 19:48,73.80.90.55,Mozilla/5.0 (Windows NT 10.0; Win64; x64; rv:66.0) Gecko/20100101 Firefox/66.0,,Firefox,66,Windows,10
12,1,null,"""",image-keyboard-response,31,178435,0.0-31.0,jspsych/disgustFaces/BM29DIS.JPG,"""",2,Cue,Practice,null,16,"""","""","""","""","""","""","""","""","""",3/11/2021 19:48,73.80.90.55,Mozilla/5.0 (Windows NT 10.0; Win64; x64; rv:66.0) Gecko/20100101 Firefox/66.0,,Firefox,66,Windows,10
12,1,null,"""",image-keyboard-response,32,178563,0.0-32.0,jspsych/neutralFaces/BM04NES.JPG,"""",2,backwardMask,Practice,null,100,"""","""","""","""","""","""","""","""","""",3/11/2021 19:48,73.80.90.55,Mozilla/5.0 (Windows NT 10.0; Win64; x64; rv:66.0) Gecko/20100101 Firefox/66.0,,Firefox,66,Windows,10
12,1,null,"""",html-keyboard-response,33,179579,0.0-33.0,"<div style=""font-size:60px;"">+</div>","""",2,fixationBtwnNeutralMaskAndPrompt,Practice,null,1000,"""","""","""","""","""","""","""","""","""",3/11/2021 19:48,73.80.90.55,Mozilla/5.0 (Windows NT 10.0; Win64; x64; rv:66.0) Gecko/20100101 Firefox/66.0,,Firefox,66,Windows,10
12,1,2283,"""",html-button-response,34,181868,0.0-34.0,"<img src='jspsych/CFDfaces/CFD-AM-231-136-N.jpg'height=""250px""></br><b>Carlos</b>",0,2,IntactOrRearranged,Practice,"""","""","""","""",CFD-AM-231-136-N.jpg,Carlos,1,"""","""",0,"""",3/11/2021 19:48,73.80.90.55,Mozilla/5.0 (Windows NT 10.0; Win64; x64; rv:66.0) Gecko/20100101 Firefox/66.0,,Firefox,66,Windows,10
12,1,null,"""",html-slider-response,35,186888,0.0-35.0,"<img src='jspsych/CFDfaces/CFD-AM-231-136-N.jpg'height=""250px""></br><b>Carlos</b>","""",2,ConfidenceQuery,Practice,"""","""","""","""",CFD-BM-027-001-N.jpg,Kenneth,1,0,null,"""","""",3/11/2021 19:48,73.80.90.55,Mozilla/5.0 (Windows NT 10.0; Win64; x64; rv:66.0) Gecko/20100101 Firefox/66.0,,Firefox,66,Windows,10
12,1,5068,"""",html-button-response,36,191961,0.0-36.0,You are Incorrect. You called a Rearranged Pair Intact,0,2,feedback,Practice,"""","""","""","""","""","""","""","""","""","""","""",3/11/2021 19:48,73.80.90.55,Mozilla/5.0 (Windows NT 10.0; Win64; x64; rv:66.0) Gecko/20100101 Firefox/66.0,,Firefox,66,Windows,10
12,1,null,"""",html-keyboard-response,37,192984,0.0-37.0,"<div style=""font-size:60px;"">+</div>","""",3,ITI,Practice,null,1000,"""","""","""","""","""","""","""","""","""",3/11/2021 19:48,73.80.90.55,Mozilla/5.0 (Windows NT 10.0; Win64; x64; rv:66.0) Gecko/20100101 Firefox/66.0,,Firefox,66,Windows,10
12,1,null,"""",image-keyboard-response,38,193252,0.0-38.0,jspsych/scrambledDisgustFaces/scrambledAM29DIS.JPG,"""",3,forwardMask,Practice,null,250,"""",d,"""","""","""","""","""","""","""",3/11/2021 19:48,73.80.90.55,Mozilla/5.0 (Windows NT 10.0; Win64; x64; rv:66.0) Gecko/20100101 Firefox/66.0,,Firefox,66,Windows,10
12,1,null,"""",image-keyboard-response,39,193283,0.0-39.0,jspsych/disgustFaces/AM29DIS.JPG,"""",3,Cue,Practice,null,16,"""","""","""","""","""","""","""","""","""",3/11/2021 19:48,73.80.90.55,Mozilla/5.0 (Windows NT 10.0; Win64; x64; rv:66.0) Gecko/20100101 Firefox/66.0,,Firefox,66,Windows,10
12,1,null,"""",image-keyboard-response,40,193396,0.0-40.0,jspsych/neutralFaces/AM25NES.JPG,"""",3,backwardMask,Practice,null,100,"""","""","""","""","""","""","""","""","""",3/11/2021 19:48,73.80.90.55,Mozilla/5.0 (Windows NT 10.0; Win64; x64; rv:66.0) Gecko/20100101 Firefox/66.0,,Firefox,66,Windows,10
12,1,null,"""",html-keyboard-response,41,194413,0.0-41.0,"<div style=""font-size:60px;"">+</div>","""",3,fixationBtwnNeutralMaskAndPrompt,Practice,null,1000,"""","""","""","""","""","""","""","""","""",3/11/2021 19:48,73.80.90.55,Mozilla/5.0 (Windows NT 10.0; Win64; x64; rv:66.0) Gecko/20100101 Firefox/66.0,,Firefox,66,Windows,10
12,1,2122,"""",html-button-response,42,196541,0.0-42.0,"<img src='jspsych/CFDfaces/CFD-WF-029-002-N.jpg'height=""250px""></br><b>Shannon</b>",0,3,IntactOrRearranged,Practice,"""","""","""","""",CFD-WF-029-002-N.jpg,Shannon,0,"""","""",0,"""",3/11/2021 19:48,73.80.90.55,Mozilla/5.0 (Windows NT 10.0; Win64; x64; rv:66.0) Gecko/20100101 Firefox/66.0,,Firefox,66,Windows,10
12,1,3677,"""",html-slider-response,43,200231,0.0-43.0,"<img src='jspsych/CFDfaces/CFD-WF-029-002-N.jpg'height=""250px""></br><b>Shannon</b>","""",3,ConfidenceQuery,Practice,"""","""","""","""",CFD-BM-027-001-N.jpg,Kenneth,0,0,78,"""","""",3/11/2021 19:48,73.80.90.55,Mozilla/5.0 (Windows NT 10.0; Win64; x64; rv:66.0) Gecko/20100101 Firefox/66.0,,Firefox,66,Windows,10
12,1,3162,"""",html-button-response,44,203398,0.0-44.0,You are Correct. You called an Intact Pair Intact,0,3,feedback,Practice,"""","""","""","""","""","""","""","""","""","""","""",3/11/2021 19:48,73.80.90.55,Mozilla/5.0 (Windows NT 10.0; Win64; x64; rv:66.0) Gecko/20100101 Firefox/66.0,,Firefox,66,Windows,10
12,1,null,"""",html-keyboard-response,45,204417,0.0-45.0,"<div style=""font-size:60px;"">+</div>","""",4,ITI,Practice,null,1000,"""","""","""","""","""","""","""","""","""",3/11/2021 19:48,73.80.90.55,Mozilla/5.0 (Windows NT 10.0; Win64; x64; rv:66.0) Gecko/20100101 Firefox/66.0,,Firefox,66,Windows,10
12,1,null,"""",image-keyboard-response,46,204688,0.0-46.0,jspsych/scrambledNeutralFaces/scrambledBM32NES.JPG,"""",4,forwardMask,Practice,null,250,"""",n,"""","""","""","""","""","""","""",3/11/2021 19:48,73.80.90.55,Mozilla/5.0 (Windows NT 10.0; Win64; x64; rv:66.0) Gecko/20100101 Firefox/66.0,,Firefox,66,Windows,10
12,1,null,"""",image-keyboard-response,47,204734,0.0-47.0,jspsych/neutralFaces/BM32NES.JPG,"""",4,Cue,Practice,null,16,"""","""","""","""","""","""","""","""","""",3/11/2021 19:48,73.80.90.55,Mozilla/5.0 (Windows NT 10.0; Win64; x64; rv:66.0) Gecko/20100101 Firefox/66.0,,Firefox,66,Windows,10
12,1,null,"""",image-keyboard-response,48,204859,0.0-48.0,jspsych/neutralFaces/BM22NES.JPG,"""",4,backwardMask,Practice,null,100,"""","""","""","""","""","""","""","""","""",3/11/2021 19:48,73.80.90.55,Mozilla/5.0 (Windows NT 10.0; Win64; x64; rv:66.0) Gecko/20100101 Firefox/66.0,,Firefox,66,Windows,10
12,1,null,"""",html-keyboard-response,49,205872,0.0-49.0,"<div style=""font-size:60px;"">+</div>","""",4,fixationBtwnNeutralMaskAndPrompt,Practice,null,1000,"""","""","""","""","""","""","""","""","""",3/11/2021 19:48,73.80.90.55,Mozilla/5.0 (Windows NT 10.0; Win64; x64; rv:66.0) Gecko/20100101 Firefox/66.0,,Firefox,66,Windows,10
12,1,3046,"""",html-button-response,50,208923,0.0-50.0,"<img src='jspsych/CFDfaces/CFD-BF-209-172-N.jpg'height=""250px""></br><b>Tara</b>",0,4,IntactOrRearranged,Practice,"""","""","""","""",CFD-BF-209-172-N.jpg,Tara,0,"""","""",0,"""",3/11/2021 19:48,73.80.90.55,Mozilla/5.0 (Windows NT 10.0; Win64; x64; rv:66.0) Gecko/20100101 Firefox/66.0,,Firefox,66,Windows,10
12,1,3080,"""",html-slider-response,51,212015,0.0-51.0,"<img src='jspsych/CFDfaces/CFD-BF-209-172-N.jpg'height=""250px""></br><b>Tara</b>","""",4,ConfidenceQuery,Practice,"""","""","""","""",CFD-BM-027-001-N.jpg,Kenneth,0,0,38,"""","""",3/11/2021 19:48,73.80.90.55,Mozilla/5.0 (Windows NT 10.0; Win64; x64; rv:66.0) Gecko/20100101 Firefox/66.0,,Firefox,66,Windows,10
12,1,4605,"""",html-button-response,52,216624,0.0-52.0,You are Correct. You called an Intact Pair Intact,0,4,feedback,Practice,"""","""","""","""","""","""","""","""","""","""","""",3/11/2021 19:48,73.80.90.55,Mozilla/5.0 (Windows NT 10.0; Win64; x64; rv:66.0) Gecko/20100101 Firefox/66.0,,Firefox,66,Windows,10
12,1,null,"""",html-keyboard-response,53,217650,0.0-53.0,"<div style=""font-size:60px;"">+</div>","""",5,ITI,Practice,null,1000,"""","""","""","""","""","""","""","""","""",3/11/2021 19:48,73.80.90.55,Mozilla/5.0 (Windows NT 10.0; Win64; x64; rv:66.0) Gecko/20100101 Firefox/66.0,,Firefox,66,Windows,10
12,1,null,"""",image-keyboard-response,54,217917,0.0-54.0,jspsych/scrambledDisgustFaces/scrambledBF32DIS.JPG,"""",5,forwardMask,Practice,null,250,"""",d,"""","""","""","""","""","""","""",3/11/2021 19:48,73.80.90.55,Mozilla/5.0 (Windows NT 10.0; Win64; x64; rv:66.0) Gecko/20100101 Firefox/66.0,,Firefox,66,Windows,10
12,1,null,"""",image-keyboard-response,55,217947,0.0-55.0,jspsych/disgustFaces/BF32DIS.JPG,"""",5,Cue,Practice,null,16,"""","""","""","""","""","""","""","""","""",3/11/2021 19:48,73.80.90.55,Mozilla/5.0 (Windows NT 10.0; Win64; x64; rv:66.0) Gecko/20100101 Firefox/66.0,,Firefox,66,Windows,10
12,1,null,"""",image-keyboard-response,56,218057,0.0-56.0,jspsych/neutralFaces/BF31NES.JPG,"""",5,backwardMask,Practice,null,100,"""","""","""","""","""","""","""","""","""",3/11/2021 19:48,73.80.90.55,Mozilla/5.0 (Windows NT 10.0; Win64; x64; rv:66.0) Gecko/20100101 Firefox/66.0,,Firefox,66,Windows,10
12,1,null,"""",html-keyboard-response,57,219060,0.0-57.0,"<div style=""font-size:60px;"">+</div>","""",5,fixationBtwnNeutralMaskAndPrompt,Practice,null,1000,"""","""","""","""","""","""","""","""","""",3/11/2021 19:48,73.80.90.55,Mozilla/5.0 (Windows NT 10.0; Win64; x64; rv:66.0) Gecko/20100101 Firefox/66.0,,Firefox,66,Windows,10
12,1,2498,"""",html-button-response,58,221561,0.0-58.0,"<img src='jspsych/CFDfaces/CFD-LF-201-035-N.jpg'height=""250px""></br><b>Katelyn</b>",1,5,IntactOrRearranged,Practice,"""","""","""","""",CFD-LF-201-035-N.jpg,Katelyn,1,"""","""",1,"""",3/11/2021 19:48,73.80.90.55,Mozilla/5.0 (Windows NT 10.0; Win64; x64; rv:66.0) Gecko/20100101 Firefox/66.0,,Firefox,66,Windows,10
12,1,3211,"""",html-slider-response,59,224801,0.0-59.0,"<img src='jspsych/CFDfaces/CFD-LF-201-035-N.jpg'height=""250px""></br><b>Katelyn</b>","""",5,ConfidenceQuery,Practice,"""","""","""","""",CFD-BM-027-001-N.jpg,Kenneth,1,0,69,"""","""",3/11/2021 19:48,73.80.90.55,Mozilla/5.0 (Windows NT 10.0; Win64; x64; rv:66.0) Gecko/20100101 Firefox/66.0,,Firefox,66,Windows,10
12,1,2649,"""",html-button-response,60,227455,0.0-60.0,You are Correct. You Called A Rearranged Pair Rearranged,0,5,feedback,Practice,"""","""","""","""","""","""","""","""","""","""","""",3/11/2021 19:48,73.80.90.55,Mozilla/5.0 (Windows NT 10.0; Win64; x64; rv:66.0) Gecko/20100101 Firefox/66.0,,Firefox,66,Windows,10
12,1,null,"""",html-keyboard-response,61,228492,0.0-61.0,"<div style=""font-size:60px;"">+</div>","""",6,ITI,Practice,null,1000,"""","""","""","""","""","""","""","""","""",3/11/2021 19:48,73.80.90.55,Mozilla/5.0 (Windows NT 10.0; Win64; x64; rv:66.0) Gecko/20100101 Firefox/66.0,,Firefox,66,Windows,10
12,1,null,"""",image-keyboard-response,62,228763,0.0-62.0,jspsych/scrambledDisgustFaces/scrambledBM27DIS.JPG,"""",6,forwardMask,Practice,null,250,"""",d,"""","""","""","""","""","""","""",3/11/2021 19:48,73.80.90.55,Mozilla/5.0 (Windows NT 10.0; Win64; x64; rv:66.0) Gecko/20100101 Firefox/66.0,,Firefox,66,Windows,10
12,1,null,"""",image-keyboard-response,63,228799,0.0-63.0,jspsych/disgustFaces/BM28DIS.JPG,"""",6,Cue,Practice,null,16,"""","""","""","""","""","""","""","""","""",3/11/2021 19:48,73.80.90.55,Mozilla/5.0 (Windows NT 10.0; Win64; x64; rv:66.0) Gecko/20100101 Firefox/66.0,,Firefox,66,Windows,10
12,1,null,"""",image-keyboard-response,64,228921,0.0-64.0,jspsych/neutralFaces/BM02NES.JPG,"""",6,backwardMask,Practice,null,100,"""","""","""","""","""","""","""","""","""",3/11/2021 19:48,73.80.90.55,Mozilla/5.0 (Windows NT 10.0; Win64; x64; rv:66.0) Gecko/20100101 Firefox/66.0,,Firefox,66,Windows,10
12,1,null,"""",html-keyboard-response,65,229933,0.0-65.0,"<div style=""font-size:60px;"">+</div>","""",6,fixationBtwnNeutralMaskAndPrompt,Practice,null,1000,"""","""","""","""","""","""","""","""","""",3/11/2021 19:48,73.80.90.55,Mozilla/5.0 (Windows NT 10.0; Win64; x64; rv:66.0) Gecko/20100101 Firefox/66.0,,Firefox,66,Windows,10
12,1,2691,"""",html-button-response,66,232628,0.0-66.0,"<img src='jspsych/CFDfaces/CFD-LM-201-057-N.jpg'height=""250px""></br><b>Marcus</b>",1,6,IntactOrRearranged,Practice,"""","""","""","""",CFD-LM-201-057-N.jpg,Marcus,1,"""","""",1,"""",3/11/2021 19:48,73.80.90.55,Mozilla/5.0 (Windows NT 10.0; Win64; x64; rv:66.0) Gecko/20100101 Firefox/66.0,,Firefox,66,Windows,10
12,1,3469,"""",html-slider-response,67,236124,0.0-67.0,"<img src='jspsych/CFDfaces/CFD-LM-201-057-N.jpg'height=""250px""></br><b>Marcus</b>","""",6,ConfidenceQuery,Practice,"""","""","""","""",CFD-BM-027-001-N.jpg,Kenneth,1,0,42,"""","""",3/11/2021 19:48,73.80.90.55,Mozilla/5.0 (Windows NT 10.0; Win64; x64; rv:66.0) Gecko/20100101 Firefox/66.0,,Firefox,66,Windows,10
12,1,2579,"""",html-button-response,68,238707,0.0-68.0,You are Correct. You Called A Rearranged Pair Rearranged,0,6,feedback,Practice,"""","""","""","""","""","""","""","""","""","""","""",3/11/2021 19:48,73.80.90.55,Mozilla/5.0 (Windows NT 10.0; Win64; x64; rv:66.0) Gecko/20100101 Firefox/66.0,,Firefox,66,Windows,10
12,1,null,"""",html-keyboard-response,69,239719,0.0-69.0,"<div style=""font-size:60px;"">+</div>","""",7,ITI,Practice,null,1000,"""","""","""","""","""","""","""","""","""",3/11/2021 19:48,73.80.90.55,Mozilla/5.0 (Windows NT 10.0; Win64; x64; rv:66.0) Gecko/20100101 Firefox/66.0,,Firefox,66,Windows,10
12,1,null,"""",image-keyboard-response,70,239985,0.0-70.0,jspsych/scrambledNeutralFaces/scrambledAM28NES.JPG,"""",7,forwardMask,Practice,null,250,"""",n,"""","""","""","""","""","""","""",3/11/2021 19:48,73.80.90.55,Mozilla/5.0 (Windows NT 10.0; Win64; x64; rv:66.0) Gecko/20100101 Firefox/66.0,,Firefox,66,Windows,10
12,1,null,"""",image-keyboard-response,71,240017,0.0-71.0,jspsych/neutralFaces/AM28NES.JPG,"""",7,Cue,Practice,null,16,"""","""","""","""","""","""","""","""","""",3/11/2021 19:48,73.80.90.55,Mozilla/5.0 (Windows NT 10.0; Win64; x64; rv:66.0) Gecko/20100101 Firefox/66.0,,Firefox,66,Windows,10
12,1,null,"""",image-keyboard-response,72,240129,0.0-72.0,jspsych/neutralFaces/AM23NES.JPG,"""",7,backwardMask,Practice,null,100,"""","""","""","""","""","""","""","""","""",3/11/2021 19:48,73.80.90.55,Mozilla/5.0 (Windows NT 10.0; Win64; x64; rv:66.0) Gecko/20100101 Firefox/66.0,,Firefox,66,Windows,10
12,1,null,"""",html-keyboard-response,73,241142,0.0-73.0,"<div style=""font-size:60px;"">+</div>","""",7,fixationBtwnNeutralMaskAndPrompt,Practice,null,1000,"""","""","""","""","""","""","""","""","""",3/11/2021 19:48,73.80.90.55,Mozilla/5.0 (Windows NT 10.0; Win64; x64; rv:66.0) Gecko/20100101 Firefox/66.0,,Firefox,66,Windows,10
12,1,1951,"""",html-button-response,74,243097,0.0-74.0,"<img src='jspsych/CFDfaces/CFD-LM-213-061-N.jpg'height=""250px""></br><b>Samuel</b>",0,7,IntactOrRearranged,Practice,"""","""","""","""",CFD-LM-213-061-N.jpg,Samuel,0,"""","""",0,"""",3/11/2021 19:48,73.80.90.55,Mozilla/5.0 (Windows NT 10.0; Win64; x64; rv:66.0) Gecko/20100101 Firefox/66.0,,Firefox,66,Windows,10
12,1,3430,"""",html-slider-response,75,246539,0.0-75.0,"<img src='jspsych/CFDfaces/CFD-LM-213-061-N.jpg'height=""250px""></br><b>Samuel</b>","""",7,ConfidenceQuery,Practice,"""","""","""","""",CFD-BM-027-001-N.jpg,Kenneth,0,0,78,"""","""",3/11/2021 19:48,73.80.90.55,Mozilla/5.0 (Windows NT 10.0; Win64; x64; rv:66.0) Gecko/20100101 Firefox/66.0,,Firefox,66,Windows,10
12,1,2293,"""",html-button-response,76,248837,0.0-76.0,You are Correct. You called an Intact Pair Intact,0,7,feedback,Practice,"""","""","""","""","""","""","""","""","""","""","""",3/11/2021 19:48,73.80.90.55,Mozilla/5.0 (Windows NT 10.0; Win64; x64; rv:66.0) Gecko/20100101 Firefox/66.0,,Firefox,66,Windows,10
12,1,null,"""",html-keyboard-response,77,249845,0.0-77.0,"<div style=""font-size:60px;"">+</div>","""",8,ITI,Practice,null,1000,"""","""","""","""","""","""","""","""","""",3/11/2021 19:48,73.80.90.55,Mozilla/5.0 (Windows NT 10.0; Win64; x64; rv:66.0) Gecko/20100101 Firefox/66.0,,Firefox,66,Windows,10
12,1,null,"""",image-keyboard-response,78,250117,0.0-78.0,jspsych/scrambledNeutralFaces/scrambledAF12NES.JPG,"""",8,forwardMask,Practice,null,250,"""",n,"""","""","""","""","""","""","""",3/11/2021 19:48,73.80.90.55,Mozilla/5.0 (Windows NT 10.0; Win64; x64; rv:66.0) Gecko/20100101 Firefox/66.0,,Firefox,66,Windows,10
12,1,null,"""",image-keyboard-response,79,250147,0.0-79.0,jspsych/neutralFaces/AF12NES.JPG,"""",8,Cue,Practice,null,16,"""","""","""","""","""","""","""","""","""",3/11/2021 19:48,73.80.90.55,Mozilla/5.0 (Windows NT 10.0; Win64; x64; rv:66.0) Gecko/20100101 Firefox/66.0,,Firefox,66,Windows,10
12,1,null,"""",image-keyboard-response,80,250273,0.0-80.0,jspsych/neutralFaces/BF28NES.JPG,"""",8,backwardMask,Practice,null,100,"""","""","""","""","""","""","""","""","""",3/11/2021 19:48,73.80.90.55,Mozilla/5.0 (Windows NT 10.0; Win64; x64; rv:66.0) Gecko/20100101 Firefox/66.0,,Firefox,66,Windows,10
12,1,null,"""",html-keyboard-response,81,251289,0.0-81.0,"<div style=""font-size:60px;"">+</div>","""",8,fixationBtwnNeutralMaskAndPrompt,Practice,null,1000,"""","""","""","""","""","""","""","""","""",3/11/2021 19:48,73.80.90.55,Mozilla/5.0 (Windows NT 10.0; Win64; x64; rv:66.0) Gecko/20100101 Firefox/66.0,,Firefox,66,Windows,10
12,1,2531,"""",html-button-response,82,253826,0.0-82.0,"<img src='jspsych/CFDfaces/CFD-BF-226-119-N.jpg'height=""250px""></br><b>Cassandra</b>",1,8,IntactOrRearranged,Practice,"""","""","""","""",CFD-BF-226-119-N.jpg,Cassandra,1,"""","""",1,"""",3/11/2021 19:48,73.80.90.55,Mozilla/5.0 (Windows NT 10.0; Win64; x64; rv:66.0) Gecko/20100101 Firefox/66.0,,Firefox,66,Windows,10
12,1,3059,"""",html-slider-response,83,256899,0.0-83.0,"<img src='jspsych/CFDfaces/CFD-BF-226-119-N.jpg'height=""250px""></br><b>Cassandra</b>","""",8,ConfidenceQuery,Practice,"""","""","""","""",CFD-BM-027-001-N.jpg,Kenneth,1,0,89,"""","""",3/11/2021 19:48,73.80.90.55,Mozilla/5.0 (Windows NT 10.0; Win64; x64; rv:66.0) Gecko/20100101 Firefox/66.0,,Firefox,66,Windows,10
12,1,1959,"""",html-button-response,84,258868,0.0-84.0,You are Correct. You Called A Rearranged Pair Rearranged,0,8,feedback,Practice,"""","""","""","""","""","""","""","""","""","""","""",3/11/2021 19:48,73.80.90.55,Mozilla/5.0 (Windows NT 10.0; Win64; x64; rv:66.0) Gecko/20100101 Firefox/66.0,,Firefox,66,Windows,10
12,1,12039,"""",image-button-response,85,270940,0.0-85.0,directionsMemoryAssociation3.JPG,0,128,DirectionsBeforeActualTEst,Break,"""","""","""","""","""","""","""","""","""","""","""",3/11/2021 19:48,73.80.90.55,Mozilla/5.0 (Windows NT 10.0; Win64; x64; rv:66.0) Gecko/20100101 Firefox/66.0,,Firefox,66,Windows,10
12,1,4293,"""",image-button-response,86,275254,0.0-86.0,directionsForTest2.JPG,0,1,directionsForTest2,break,"""","""","""","""","""","""","""","""","""","""","""",3/11/2021 19:48,73.80.90.55,Mozilla/5.0 (Windows NT 10.0; Win64; x64; rv:66.0) Gecko/20100101 Firefox/66.0,,Firefox,66,Windows,10
12,1,15759,"""",html-button-response,87,291025,0.0-87.0,"<p>You will be asked to memorize and then recall four sets of face-name pairs. </p> <p> Each set will have 32 pairs. </p> <p>After the fourth set, there will be a brief follow-up experiment (<40 min alltogether)</p>",0,"""","""","""","""","""","""","""","""","""","""","""","""","""","""",3/11/2021 19:48,73.80.90.55,Mozilla/5.0 (Windows NT 10.0; Win64; x64; rv:66.0) Gecko/20100101 Firefox/66.0,,Firefox,66,Windows,10
12,1,3182,"""",html-keyboard-response,88,296038,0.0-88.0,"<img src='jspsych/CFDfaces/CFD-BF-005-001-N.jpg' height=""250px""></br><b>Vanessa</b>","""",256,IntactFace,Memorization,70,5000,f,"""",CFD-LM-233-171-N.jpg,Justin,0,"""","""","""",1,3/11/2021 19:48,73.80.90.55,Mozilla/5.0 (Windows NT 10.0; Win64; x64; rv:66.0) Gecko/20100101 Firefox/66.0,,Firefox,66,Windows,10
12,1,null,"""",html-keyboard-response,89,296571,0.0-89.0,"<div style=""font-size:60px;"">+</div>","""",256,fixation,Memorization,null,500,"""","""","""","""","""","""","""","""",1,3/11/2021 19:48,73.80.90.55,Mozilla/5.0 (Windows NT 10.0; Win64; x64; rv:66.0) Gecko/20100101 Firefox/66.0,,Firefox,66,Windows,10
12,1,3359,"""",html-keyboard-response,90,301579,0.0-90.0,"<img src='jspsych/CFDfaces/CFD-WF-215-145-N.jpg' height=""250px""></br><b>Kimberly</b>","""",256,IntactFace,Memorization,70,5000,f,"""",CFD-WF-023-003-N.jpg,Jenna,0,"""","""","""",1,3/11/2021 19:48,73.80.90.55,Mozilla/5.0 (Windows NT 10.0; Win64; x64; rv:66.0) Gecko/20100101 Firefox/66.0,,Firefox,66,Windows,10
12,1,null,"""",html-keyboard-response,91,302098,0.0-91.0,"<div style=""font-size:60px;"">+</div>","""",256,fixation,Memorization,null,500,"""","""","""","""","""","""","""","""",1,3/11/2021 19:48,73.80.90.55,Mozilla/5.0 (Windows NT 10.0; Win64; x64; rv:66.0) Gecko/20100101 Firefox/66.0,,Firefox,66,Windows,10
12,1,2515,"""",html-keyboard-response,92,307120,0.0-92.0,"<img src='jspsych/CFDfaces/CFD-LF-210-220-N.jpg' height=""250px""></br><b>Meghan</b>","""",256,IntactFace,Memorization,70,5000,f,"""",CFD-BF-039-031-N.jpg,Erin,0,"""","""","""",1,3/11/2021 19:48,73.80.90.55,Mozilla/5.0 (Windows NT 10.0; Win64; x64; rv:66.0) Gecko/20100101 Firefox/66.0,,Firefox,66,Windows,10
12,1,null,"""",html-keyboard-response,93,307652,0.0-93.0,"<div style=""font-size:60px;"">+</div>","""",256,fixation,Memorization,null,500,"""","""","""","""","""","""","""","""",1,3/11/2021 19:48,73.80.90.55,Mozilla/5.0 (Windows NT 10.0; Win64; x64; rv:66.0) Gecko/20100101 Firefox/66.0,,Firefox,66,Windows,10
12,1,1707,"""",html-keyboard-response,94,312668,0.0-94.0,"<img src='jspsych/CFDfaces/CFD-LF-232-199-N.jpg' height=""250px""></br><b>Brittany</b>","""",256,IntactFace,Memorization,78,5000,n,"""",CFD-WM-215-041-N.jpg,Timothy,0,"""","""","""",1,3/11/2021 19:48,73.80.90.55,Mozilla/5.0 (Windows NT 10.0; Win64; x64; rv:66.0) Gecko/20100101 Firefox/66.0,,Firefox,66,Windows,10
12,1,null,"""",html-keyboard-response,95,313203,0.0-95.0,"<div style=""font-size:60px;"">+</div>","""",256,fixation,Memorization,null,500,"""","""","""","""","""","""","""","""",1,3/11/2021 19:48,73.80.90.55,Mozilla/5.0 (Windows NT 10.0; Win64; x64; rv:66.0) Gecko/20100101 Firefox/66.0,,Firefox,66,Windows,10
12,1,1651,"""",html-keyboard-response,96,318220,0.0-96.0,"<img src='jspsych/CFDfaces/CFD-AF-214-139-N.jpg' height=""250px""></br><b>Michelle</b>","""",256,IntactFace,Memorization,78,5000,n,"""",CFD-BF-025-002-N.jpg,Jordan,0,"""","""","""",1,3/11/2021 19:48,73.80.90.55,Mozilla/5.0 (Windows NT 10.0; Win64; x64; rv:66.0) Gecko/20100101 Firefox/66.0,,Firefox,66,Windows,10
12,1,null,"""",html-keyboard-response,97,318752,0.0-97.0,"<div style=""font-size:60px;"">+</div>","""",256,fixation,Memorization,null,500,"""","""","""","""","""","""","""","""",1,3/11/2021 19:48,73.80.90.55,Mozilla/5.0 (Windows NT 10.0; Win64; x64; rv:66.0) Gecko/20100101 Firefox/66.0,,Firefox,66,Windows,10
12,1,2168,"""",html-keyboard-response,98,323777,0.0-98.0,"<img src='jspsych/CFDfaces/CFD-AF-215-70-N.jpg' height=""250px""></br><b>Amanda</b>","""",256,IntactFace,Memorization,78,5000,n,"""",CFD-LM-223-175-N.jpg,Austin,0,"""","""","""",1,3/11/2021 19:48,73.80.90.55,Mozilla/5.0 (Windows NT 10.0; Win64; x64; rv:66.0) Gecko/20100101 Firefox/66.0,,Firefox,66,Windows,10
12,1,null,"""",html-keyboard-response,99,324324,0.0-99.0,"<div style=""font-size:60px;"">+</div>","""",256,fixation,Memorization,null,500,"""","""","""","""","""","""","""","""",1,3/11/2021 19:48,73.80.90.55,Mozilla/5.0 (Windows NT 10.0; Win64; x64; rv:66.0) Gecko/20100101 Firefox/66.0,,Firefox,66,Windows,10
12,1,1951,"""",html-keyboard-response,100,329339,0.0-100.0,"<img src='jspsych/CFDfaces/CFD-LF-230-203-N.jpg' height=""250px""></br><b>Andrea</b>","""",256,IntactFace,Memorization,70,5000,f,"""",CFD-BF-001-025-N.jpg,Amy,0,"""","""","""",1,3/11/2021 19:48,73.80.90.55,Mozilla/5.0 (Windows NT 10.0; Win64; x64; rv:66.0) Gecko/20100101 Firefox/66.0,,Firefox,66,Windows,10
12,1,null,"""",html-keyboard-response,101,329872,0.0-101.0,"<div style=""font-size:60px;"">+</div>","""",256,fixation,Memorization,null,500,"""","""","""","""","""","""","""","""",1,3/11/2021 19:48,73.80.90.55,Mozilla/5.0 (Windows NT 10.0; Win64; x64; rv:66.0) Gecko/20100101 Firefox/66.0,,Firefox,66,Windows,10
12,1,1586,"""",html-keyboard-response,102,334887,0.0-102.0,"<img src='jspsych/CFDfaces/CFD-BF-201-080-N.jpg' height=""250px""></br><b>Julie</b>","""",256,IntactFace,Memorization,78,5000,n,"""",CFD-BM-032-024-N.jpg,Jeremy,0,"""","""","""",1,3/11/2021 19:48,73.80.90.55,Mozilla/5.0 (Windows NT 10.0; Win64; x64; rv:66.0) Gecko/20100101 Firefox/66.0,,Firefox,66,Windows,10
12,1,null,"""",html-keyboard-response,103,335414,0.0-103.0,"<div style=""font-size:60px;"">+</div>","""",256,fixation,Memorization,null,500,"""","""","""","""","""","""","""","""",1,3/11/2021 19:48,73.80.90.55,Mozilla/5.0 (Windows NT 10.0; Win64; x64; rv:66.0) Gecko/20100101 Firefox/66.0,,Firefox,66,Windows,10
12,1,1995,"""",html-keyboard-response,104,340429,0.0-104.0,"<img src='jspsych/CFDfaces/CFD-WM-222-057-N.jpg' height=""250px""></br><b>Daniel</b>","""",256,IntactFace,Memorization,70,5000,f,"""",CFD-LF-215-157-N.jpg,Sara,0,"""","""","""",1,3/11/2021 19:48,73.80.90.55,Mozilla/5.0 (Windows NT 10.0; Win64; x64; rv:66.0) Gecko/20100101 Firefox/66.0,,Firefox,66,Windows,10
12,1,null,"""",html-keyboard-response,105,340956,0.0-105.0,"<div style=""font-size:60px;"">+</div>","""",256,fixation,Memorization,null,500,"""","""","""","""","""","""","""","""",1,3/11/2021 19:48,73.80.90.55,Mozilla/5.0 (Windows NT 10.0; Win64; x64; rv:66.0) Gecko/20100101 Firefox/66.0,,Firefox,66,Windows,10
12,1,1830,"""",html-keyboard-response,106,345974,0.0-106.0,"<img src='jspsych/CFDfaces/CFD-BM-203-001-N.jpg' height=""250px""></br><b>Gregory</b>","""",256,IntactFace,Memorization,78,5000,n,"""",CFD-WF-205-006-N.jpg,Lauren,0,"""","""","""",1,3/11/2021 19:48,73.80.90.55,Mozilla/5.0 (Windows NT 10.0; Win64; x64; rv:66.0) Gecko/20100101 Firefox/66.0,,Firefox,66,Windows,10
12,1,null,"""",html-keyboard-response,107,346491,0.0-107.0,"<div style=""font-size:60px;"">+</div>","""",256,fixation,Memorization,null,500,"""","""","""","""","""","""","""","""",1,3/11/2021 19:48,73.80.90.55,Mozilla/5.0 (Windows NT 10.0; Win64; x64; rv:66.0) Gecko/20100101 Firefox/66.0,,Firefox,66,Windows,10
12,1,1562,"""",html-keyboard-response,108,351500,0.0-108.0,"<img src='jspsych/CFDfaces/CFD-WM-019-003-N.jpg' height=""250px""></br><b>Brian</b>","""",256,IntactFace,Memorization,70,5000,f,"""",CFD-WF-018-017-N.jpg,Tiffany,0,"""","""","""",1,3/11/2021 19:48,73.80.90.55,Mozilla/5.0 (Windows NT 10.0; Win64; x64; rv:66.0) Gecko/20100101 Firefox/66.0,,Firefox,66,Windows,10
12,1,null,"""",html-keyboard-response,109,352014,0.0-109.0,"<div style=""font-size:60px;"">+</div>","""",256,fixation,Memorization,null,500,"""","""","""","""","""","""","""","""",1,3/11/2021 19:48,73.80.90.55,Mozilla/5.0 (Windows NT 10.0; Win64; x64; rv:66.0) Gecko/20100101 Firefox/66.0,,Firefox,66,Windows,10
12,1,2011,"""",html-keyboard-response,110,357032,0.0-110.0,"<img src='jspsych/CFDfaces/CFD-LF-208-127-N.jpg' height=""250px""></br><b>Emily</b>","""",256,IntactFace,Memorization,70,5000,f,"""",CFD-BM-041-035-N.jpg,Travis,0,"""","""","""",1,3/11/2021 19:48,73.80.90.55,Mozilla/5.0 (Windows NT 10.0; Win64; x64; rv:66.0) Gecko/20100101 Firefox/66.0,,Firefox,66,Windows,10
12,1,null,"""",html-keyboard-response,111,357566,0.0-111.0,"<div style=""font-size:60px;"">+</div>","""",256,fixation,Memorization,null,500,"""","""","""","""","""","""","""","""",1,3/11/2021 19:48,73.80.90.55,Mozilla/5.0 (Windows NT 10.0; Win64; x64; rv:66.0) Gecko/20100101 Firefox/66.0,,Firefox,66,Windows,10
12,1,1963,"""",html-keyboard-response,112,362585,0.0-112.0,"<img src='jspsych/CFDfaces/CFD-WM-009-002-N.jpg' height=""250px""></br><b>Nicholas</b>","""",256,IntactFace,Memorization,70,5000,f,"""",CFD-WM-022-001-N.jpg,Mark,0,"""","""","""",1,3/11/2021 19:48,73.80.90.55,Mozilla/5.0 (Windows NT 10.0; Win64; x64; rv:66.0) Gecko/20100101 Firefox/66.0,,Firefox,66,Windows,10
12,1,null,"""",html-keyboard-response,113,363124,0.0-113.0,"<div style=""font-size:60px;"">+</div>","""",256,fixation,Memorization,null,500,"""","""","""","""","""","""","""","""",1,3/11/2021 19:48,73.80.90.55,Mozilla/5.0 (Windows NT 10.0; Win64; x64; rv:66.0) Gecko/20100101 Firefox/66.0,,Firefox,66,Windows,10
12,1,2038,"""",html-keyboard-response,114,368134,0.0-114.0,"<img src='jspsych/CFDfaces/CFD-BF-009-002-N.jpg' height=""250px""></br><b>Elizabeth</b>","""",256,IntactFace,Memorization,78,5000,n,"""",CFD-BM-027-001-N.jpg,Jesse,0,"""","""","""",1,3/11/2021 19:48,73.80.90.55,Mozilla/5.0 (Windows NT 10.0; Win64; x64; rv:66.0) Gecko/20100101 Firefox/66.0,,Firefox,66,Windows,10
12,1,null,"""",html-keyboard-response,115,368664,0.0-115.0,"<div style=""font-size:60px;"">+</div>","""",256,fixation,Memorization,null,500,"""","""","""","""","""","""","""","""",1,3/11/2021 19:48,73.80.90.55,Mozilla/5.0 (Windows NT 10.0; Win64; x64; rv:66.0) Gecko/20100101 Firefox/66.0,,Firefox,66,Windows,10
12,1,1844,"""",html-keyboard-response,116,373671,0.0-116.0,"<img src='jspsych/CFDfaces/CFD-LM-200-045-N.jpg' height=""250px""></br><b>Joshua</b>","""",256,IntactFace,Memorization,70,5000,f,"""",CFD-LF-203-066-N.jpg,Rebecca,0,"""","""","""",1,3/11/2021 19:48,73.80.90.55,Mozilla/5.0 (Windows NT 10.0; Win64; x64; rv:66.0) Gecko/20100101 Firefox/66.0,,Firefox,66,Windows,10
12,1,null,"""",html-keyboard-response,117,374207,0.0-117.0,"<div style=""font-size:60px;"">+</div>","""",256,fixation,Memorization,null,500,"""","""","""","""","""","""","""","""",1,3/11/2021 19:48,73.80.90.55,Mozilla/5.0 (Windows NT 10.0; Win64; x64; rv:66.0) Gecko/20100101 Firefox/66.0,,Firefox,66,Windows,10
12,1,2085,"""",html-keyboard-response,118,379235,0.0-118.0,"<img src='jspsych/CFDfaces/CFD-LF-205-100-N.jpg' height=""250px""></br><b>Ashley</b>","""",256,IntactFace,Memorization,78,5000,n,"""",CFD-LF-231-260-N.jpg,Angela,0,"""","""","""",1,3/11/2021 19:48,73.80.90.55,Mozilla/5.0 (Windows NT 10.0; Win64; x64; rv:66.0) Gecko/20100101 Firefox/66.0,,Firefox,66,Windows,10
12,1,null,"""",html-keyboard-response,119,379770,0.0-119.0,"<div style=""font-size:60px;"">+</div>","""",256,fixation,Memorization,null,500,"""","""","""","""","""","""","""","""",1,3/11/2021 19:48,73.80.90.55,Mozilla/5.0 (Windows NT 10.0; Win64; x64; rv:66.0) Gecko/20100101 Firefox/66.0,,Firefox,66,Windows,10
12,1,2105,"""",html-keyboard-response,120,384780,0.0-120.0,"<img src='jspsych/CFDfaces/CFD-WM-207-048-N.jpg' height=""250px""></br><b>Robert</b>","""",256,IntactFace,Memorization,70,5000,f,"""",CFD-WM-216-061-N.jpg,Sean,0,"""","""","""",1,3/11/2021 19:48,73.80.90.55,Mozilla/5.0 (Windows NT 10.0; Win64; x64; rv:66.0) Gecko/20100101 Firefox/66.0,,Firefox,66,Windows,10
12,1,null,"""",html-keyboard-response,121,385317,0.0-121.0,"<div style=""font-size:60px;"">+</div>","""",256,fixation,Memorization,null,500,"""","""","""","""","""","""","""","""",1,3/11/2021 19:48,73.80.90.55,Mozilla/5.0 (Windows NT 10.0; Win64; x64; rv:66.0) Gecko/20100101 Firefox/66.0,,Firefox,66,Windows,10
12,1,2279,"""",html-keyboard-response,122,390335,0.0-122.0,"<img src='jspsych/CFDfaces/CFD-LM-225-130-N.jpg' height=""250px""></br><b>Juan</b>","""",256,IntactFace,Memorization,70,5000,f,"""",CFD-WM-015-002-N.jpg,Kenneth,0,"""","""","""",1,3/11/2021 19:48,73.80.90.55,Mozilla/5.0 (Windows NT 10.0; Win64; x64; rv:66.0) Gecko/20100101 Firefox/66.0,,Firefox,66,Windows,10
12,1,null,"""",html-keyboard-response,123,390867,0.0-123.0,"<div style=""font-size:60px;"">+</div>","""",256,fixation,Memorization,null,500,"""","""","""","""","""","""","""","""",1,3/11/2021 19:48,73.80.90.55,Mozilla/5.0 (Windows NT 10.0; Win64; x64; rv:66.0) Gecko/20100101 Firefox/66.0,,Firefox,66,Windows,10
12,1,1970,"""",html-keyboard-response,124,395886,0.0-124.0,"<img src='jspsych/CFDfaces/CFD-AM-228-214-N.jpg' height=""250px""></br><b>Ian</b>","""",256,IntactFace,Memorization,78,5000,n,"""",CFD-BF-221-223-N.jpg,Laura,0,"""","""","""",1,3/11/2021 19:48,73.80.90.55,Mozilla/5.0 (Windows NT 10.0; Win64; x64; rv:66.0) Gecko/20100101 Firefox/66.0,,Firefox,66,Windows,10
12,1,null,"""",html-keyboard-response,125,396421,0.0-125.0,"<div style=""font-size:60px;"">+</div>","""",256,fixation,Memorization,null,500,"""","""","""","""","""","""","""","""",1,3/11/2021 19:48,73.80.90.55,Mozilla/5.0 (Windows NT 10.0; Win64; x64; rv:66.0) Gecko/20100101 Firefox/66.0,,Firefox,66,Windows,10
12,1,1774,"""",html-keyboard-response,126,401440,0.0-126.0,"<img src='jspsych/CFDfaces/CFD-BM-043-071-N.jpg' height=""250px""></br><b>James</b>","""",256,IntactFace,Memorization,78,5000,n,"""",CFD-BM-208-065-N.jpg,Dustin,0,"""","""","""",1,3/11/2021 19:48,73.80.90.55,Mozilla/5.0 (Windows NT 10.0; Win64; x64; rv:66.0) Gecko/20100101 Firefox/66.0,,Firefox,66,Windows,10
12,1,null,"""",html-keyboard-response,127,401985,0.0-127.0,"<div style=""font-size:60px;"">+</div>","""",256,fixation,Memorization,null,500,"""","""","""","""","""","""","""","""",1,3/11/2021 19:48,73.80.90.55,Mozilla/5.0 (Windows NT 10.0; Win64; x64; rv:66.0) Gecko/20100101 Firefox/66.0,,Firefox,66,Windows,10
12,1,1587,"""",html-keyboard-response,128,407002,0.0-128.0,"<img src='jspsych/CFDfaces/CFD-BM-002-013-N.jpg' height=""250px""></br><b>Richard</b>","""",256,IntactFace,Memorization,78,5000,n,"""",CFD-BF-212-315-N.jpg,Melissa,0,"""","""","""",1,3/11/2021 19:48,73.80.90.55,Mozilla/5.0 (Windows NT 10.0; Win64; x64; rv:66.0) Gecko/20100101 Firefox/66.0,,Firefox,66,Windows,10
12,1,null,"""",html-keyboard-response,129,407513,0.0-129.0,"<div style=""font-size:60px;"">+</div>","""",256,fixation,Memorization,null,500,"""","""","""","""","""","""","""","""",1,3/11/2021 19:48,73.80.90.55,Mozilla/5.0 (Windows NT 10.0; Win64; x64; rv:66.0) Gecko/20100101 Firefox/66.0,,Firefox,66,Windows,10
12,1,1442,"""",html-keyboard-response,130,412526,0.0-130.0,"<img src='jspsych/CFDfaces/CFD-LM-221-216-N.jpg' height=""250px""></br><b>Jeffrey</b>","""",256,IntactFace,Memorization,70,5000,f,"""",CFD-AM-238-269-N.jpg,Steven,0,"""","""","""",1,3/11/2021 19:48,73.80.90.55,Mozilla/5.0 (Windows NT 10.0; Win64; x64; rv:66.0) Gecko/20100101 Firefox/66.0,,Firefox,66,Windows,10
12,1,null,"""",html-keyboard-response,131,413075,0.0-131.0,"<div style=""font-size:60px;"">+</div>","""",256,fixation,Memorization,null,500,"""","""","""","""","""","""","""","""",1,3/11/2021 19:48,73.80.90.55,Mozilla/5.0 (Windows NT 10.0; Win64; x64; rv:66.0) Gecko/20100101 Firefox/66.0,,Firefox,66,Windows,10
12,1,1785,"""",html-keyboard-response,132,418102,0.0-132.0,"<img src='jspsych/CFDfaces/CFD-LM-239-075-N.jpg' height=""250px""></br><b>Brandon</b>","""",256,IntactFace,Memorization,78,5000,n,"""",CFD-AM-205-153-N.jpg,Cameron,0,"""","""","""",1,3/11/2021 19:48,73.80.90.55,Mozilla/5.0 (Windows NT 10.0; Win64; x64; rv:66.0) Gecko/20100101 Firefox/66.0,,Firefox,66,Windows,10
12,1,null,"""",html-keyboard-response,133,418641,0.0-133.0,"<div style=""font-size:60px;"">+</div>","""",256,fixation,Memorization,null,500,"""","""","""","""","""","""","""","""",1,3/11/2021 19:48,73.80.90.55,Mozilla/5.0 (Windows NT 10.0; Win64; x64; rv:66.0) Gecko/20100101 Firefox/66.0,,Firefox,66,Windows,10
12,1,1395,"""",html-keyboard-response,134,423656,0.0-134.0,"<img src='jspsych/CFDfaces/CFD-LF-200-058-N.jpg' height=""250px""></br><b>Samantha</b>","""",256,IntactFace,Memorization,70,5000,f,"""",CFD-WM-006-002-N.jpg,Ryan,0,"""","""","""",1,3/11/2021 19:48,73.80.90.55,Mozilla/5.0 (Windows NT 10.0; Win64; x64; rv:66.0) Gecko/20100101 Firefox/66.0,,Firefox,66,Windows,10
12,1,null,"""",html-keyboard-response,135,424191,0.0-135.0,"<div style=""font-size:60px;"">+</div>","""",256,fixation,Memorization,null,500,"""","""","""","""","""","""","""","""",1,3/11/2021 19:48,73.80.90.55,Mozilla/5.0 (Windows NT 10.0; Win64; x64; rv:66.0) Gecko/20100101 Firefox/66.0,,Firefox,66,Windows,10
12,1,1660,"""",html-keyboard-response,136,429213,0.0-136.0,"<img src='jspsych/CFDfaces/CFD-BM-210-148-N.jpg' height=""250px""></br><b>Peter</b>","""",256,IntactFace,Memorization,78,5000,n,"""",CFD-AF-208-003-N.jpg,Jasmine,0,"""","""","""",1,3/11/2021 19:48,73.80.90.55,Mozilla/5.0 (Windows NT 10.0; Win64; x64; rv:66.0) Gecko/20100101 Firefox/66.0,,Firefox,66,Windows,10
12,1,null,"""",html-keyboard-response,137,429747,0.0-137.0,"<div style=""font-size:60px;"">+</div>","""",256,fixation,Memorization,null,500,"""","""","""","""","""","""","""","""",1,3/11/2021 19:48,73.80.90.55,Mozilla/5.0 (Windows NT 10.0; Win64; x64; rv:66.0) Gecko/20100101 Firefox/66.0,,Firefox,66,Windows,10
12,1,1960,"""",html-keyboard-response,138,434762,0.0-138.0,"<img src='jspsych/CFDfaces/CFD-LM-219-295-N.jpg' height=""250px""></br><b>Jason</b>","""",256,IntactFace,Memorization,78,5000,n,"""",CFD-LF-239-148-N.jpg,Heather,0,"""","""","""",1,3/11/2021 19:48,73.80.90.55,Mozilla/5.0 (Windows NT 10.0; Win64; x64; rv:66.0) Gecko/20100101 Firefox/66.0,,Firefox,66,Windows,10
12,1,null,"""",html-keyboard-response,139,435296,0.0-139.0,"<div style=""font-size:60px;"">+</div>","""",256,fixation,Memorization,null,500,"""","""","""","""","""","""","""","""",1,3/11/2021 19:48,73.80.90.55,Mozilla/5.0 (Windows NT 10.0; Win64; x64; rv:66.0) Gecko/20100101 Firefox/66.0,,Firefox,66,Windows,10
12,1,1782,"""",html-keyboard-response,140,440316,0.0-140.0,"<img src='jspsych/CFDfaces/CFD-LF-202-065-N.jpg' height=""250px""></br><b>Christina</b>","""",256,IntactFace,Memorization,70,5000,f,"""",CFD-LF-236-221-N.jpg,Whitney,0,"""","""","""",1,3/11/2021 19:48,73.80.90.55,Mozilla/5.0 (Windows NT 10.0; Win64; x64; rv:66.0) Gecko/20100101 Firefox/66.0,,Firefox,66,Windows,10
12,1,null,"""",html-keyboard-response,141,440847,0.0-141.0,"<div style=""font-size:60px;"">+</div>","""",256,fixation,Memorization,null,500,"""","""","""","""","""","""","""","""",1,3/11/2021 19:48,73.80.90.55,Mozilla/5.0 (Windows NT 10.0; Win64; x64; rv:66.0) Gecko/20100101 Firefox/66.0,,Firefox,66,Windows,10
12,1,1892,"""",html-keyboard-response,142,445874,0.0-142.0,"<img src='jspsych/CFDfaces/CFD-BF-008-001-N.jpg' height=""250px""></br><b>Kayla</b>","""",256,IntactFace,Memorization,78,5000,n,"""",CFD-WF-038-021-N.jpg,Lindsey,0,"""","""","""",1,3/11/2021 19:48,73.80.90.55,Mozilla/5.0 (Windows NT 10.0; Win64; x64; rv:66.0) Gecko/20100101 Firefox/66.0,,Firefox,66,Windows,10
12,1,null,"""",html-keyboard-response,143,446413,0.0-143.0,"<div style=""font-size:60px;"">+</div>","""",256,fixation,Memorization,null,500,"""","""","""","""","""","""","""","""",1,3/11/2021 19:48,73.80.90.55,Mozilla/5.0 (Windows NT 10.0; Win64; x64; rv:66.0) Gecko/20100101 Firefox/66.0,,Firefox,66,Windows,10
12,1,2224,"""",html-keyboard-response,144,451433,0.0-144.0,"<img src='jspsych/CFDfaces/CFD-LM-209-111-N.jpg' height=""250px""></br><b>Eric</b>","""",256,IntactFace,Memorization,78,5000,n,"""",CFD-LM-252-076-N.jpg,Vincent,0,"""","""","""",1,3/11/2021 19:48,73.80.90.55,Mozilla/5.0 (Windows NT 10.0; Win64; x64; rv:66.0) Gecko/20100101 Firefox/66.0,,Firefox,66,Windows,10
12,1,null,"""",html-keyboard-response,145,451963,0.0-145.0,"<div style=""font-size:60px;"">+</div>","""",256,fixation,Memorization,null,500,"""","""","""","""","""","""","""","""",1,3/11/2021 19:48,73.80.90.55,Mozilla/5.0 (Windows NT 10.0; Win64; x64; rv:66.0) Gecko/20100101 Firefox/66.0,,Firefox,66,Windows,10
12,1,1610,"""",html-keyboard-response,146,456981,0.0-146.0,"<img src='jspsych/CFDfaces/CFD-AF-220-107-N.jpg' height=""250px""></br><b>Stephanie</b>","""",256,IntactFace,Memorization,78,5000,n,"""",CFD-AM-213-056-N.jpg,Jacob,0,"""","""","""",1,3/11/2021 19:48,73.80.90.55,Mozilla/5.0 (Windows NT 10.0; Win64; x64; rv:66.0) Gecko/20100101 Firefox/66.0,,Firefox,66,Windows,10
12,1,null,"""",html-keyboard-response,147,457502,0.0-147.0,"<div style=""font-size:60px;"">+</div>","""",256,fixation,Memorization,null,500,"""","""","""","""","""","""","""","""",1,3/11/2021 19:48,73.80.90.55,Mozilla/5.0 (Windows NT 10.0; Win64; x64; rv:66.0) Gecko/20100101 Firefox/66.0,,Firefox,66,Windows,10
12,1,1630,"""",html-keyboard-response,148,462513,0.0-148.0,"<img src='jspsych/CFDfaces/CFD-AM-221-184-N.jpg' height=""250px""></br><b>Christian</b>","""",256,IntactFace,Memorization,78,5000,n,"""",CFD-BF-019-001-N.jpg,Taylor,0,"""","""","""",1,3/11/2021 19:48,73.80.90.55,Mozilla/5.0 (Windows NT 10.0; Win64; x64; rv:66.0) Gecko/20100101 Firefox/66.0,,Firefox,66,Windows,10
12,1,null,"""",html-keyboard-response,149,463032,0.0-149.0,"<div style=""font-size:60px;"">+</div>","""",256,fixation,Memorization,null,500,"""","""","""","""","""","""","""","""",1,3/11/2021 19:48,73.80.90.55,Mozilla/5.0 (Windows NT 10.0; Win64; x64; rv:66.0) Gecko/20100101 Firefox/66.0,,Firefox,66,Windows,10
12,1,1708,"""",html-keyboard-response,150,468053,0.0-150.0,"<img src='jspsych/CFDfaces/CFD-BF-016-017-N.jpg' height=""250px""></br><b>Victoria</b>","""",256,IntactFace,Memorization,78,5000,n,"""",CFD-BM-029-024-N.jpg,Luis,0,"""","""","""",1,3/11/2021 19:48,73.80.90.55,Mozilla/5.0 (Windows NT 10.0; Win64; x64; rv:66.0) Gecko/20100101 Firefox/66.0,,Firefox,66,Windows,10
12,1,null,"""",html-keyboard-response,151,468588,0.0-151.0,"<div style=""font-size:60px;"">+</div>","""",256,fixation,Memorization,null,500,"""","""","""","""","""","""","""","""",1,3/11/2021 19:48,73.80.90.55,Mozilla/5.0 (Windows NT 10.0; Win64; x64; rv:66.0) Gecko/20100101 Firefox/66.0,,Firefox,66,Windows,10
12,1,4149,"""",html-keyboard-response,152,472739,0.0-152.0,Press Any Key to Begin Memory Test,"""",1,welcomeScreen,Break,78,"""","""","""","""","""","""","""","""","""",1,3/11/2021 19:48,73.80.90.55,Mozilla/5.0 (Windows NT 10.0; Win64; x64; rv:66.0) Gecko/20100101 Firefox/66.0,,Firefox,66,Windows,10
12,1,null,"""",html-keyboard-response,153,473780,0.0-153.0,"<div style=""font-size:60px;"">+</div>","""",256,ITI,Test,null,1000,"""","""","""","""","""","""","""","""",1,3/11/2021 19:48,73.80.90.55,Mozilla/5.0 (Windows NT 10.0; Win64; x64; rv:66.0) Gecko/20100101 Firefox/66.0,,Firefox,66,Windows,10
12,1,null,"""",image-keyboard-response,154,474049,0.0-154.0,jspsych/scrambledNeutralFaces/scrambledAM05NES.JPG,"""",256,forwardMask,Test,null,250,"""",n,"""","""","""","""","""","""",1,3/11/2021 19:48,73.80.90.55,Mozilla/5.0 (Windows NT 10.0; Win64; x64; rv:66.0) Gecko/20100101 Firefox/66.0,,Firefox,66,Windows,10
12,1,null,"""",image-keyboard-response,155,474082,0.0-155.0,jspsych/neutralFaces/AM05NES.JPG,"""",256,Cue,Test,null,16,"""","""","""","""","""","""","""","""",1,3/11/2021 19:48,73.80.90.55,Mozilla/5.0 (Windows NT 10.0; Win64; x64; rv:66.0) Gecko/20100101 Firefox/66.0,,Firefox,66,Windows,10
12,1,null,"""",image-keyboard-response,156,474205,0.0-156.0,jspsych/neutralFaces/AM13NES.JPG,"""",256,backwardMask,Test,null,100,"""","""","""","""","""","""","""","""",1,3/11/2021 19:48,73.80.90.55,Mozilla/5.0 (Windows NT 10.0; Win64; x64; rv:66.0) Gecko/20100101 Firefox/66.0,,Firefox,66,Windows,10
12,1,null,"""",html-keyboard-response,157,475217,0.0-157.0,"<div style=""font-size:60px;"">+</div>","""",256,fixationBtwnNeutralMaskAndPrompt,Test,null,1000,"""","""","""","""","""","""","""","""",1,3/11/2021 19:48,73.80.90.55,Mozilla/5.0 (Windows NT 10.0; Win64; x64; rv:66.0) Gecko/20100101 Firefox/66.0,,Firefox,66,Windows,10
12,1,2980,"""",html-button-response,158,478205,0.0-158.0,"<img src='jspsych/CFDfaces/CFD-WF-215-145-N.jpg' height=""250px"">,</br><b>Emily</b>",1,256,IntactOrRearranged,Test,"""","""","""","""",CFD-LM-252-076-N.jpg,Vincent,1,"""","""",1,1,3/11/2021 19:48,73.80.90.55,Mozilla/5.0 (Windows NT 10.0; Win64; x64; rv:66.0) Gecko/20100101 Firefox/66.0,,Firefox,66,Windows,10
12,1,3357,"""",html-slider-response,159,481582,0.0-159.0,"<img src='jspsych/CFDfaces/CFD-WF-215-145-N.jpg' height=""250px"">,</br><b>Emily</b>","""",256,ConfidenceQuery,Test,"""","""","""","""",CFD-LM-252-076-N.jpg,Vincent,1,0,35,"""",1,3/11/2021 19:48,73.80.90.55,Mozilla/5.0 (Windows NT 10.0; Win64; x64; rv:66.0) Gecko/20100101 Firefox/66.0,,Firefox,66,Windows,10
12,1,null,"""",html-keyboard-response,160,482603,0.0-160.0,"<div style=""font-size:60px;"">+</div>","""",256,ITI,Test,null,1000,"""","""","""","""","""","""","""","""",1,3/11/2021 19:48,73.80.90.55,Mozilla/5.0 (Windows NT 10.0; Win64; x64; rv:66.0) Gecko/20100101 Firefox/66.0,,Firefox,66,Windows,10
12,1,null,"""",image-keyboard-response,161,482884,0.0-161.0,jspsych/scrambledDisgustFaces/scrambledBM28DIS.JPG,"""",256,forwardMask,Test,null,250,"""",d,"""","""","""","""","""","""",1,3/11/2021 19:48,73.80.90.55,Mozilla/5.0 (Windows NT 10.0; Win64; x64; rv:66.0) Gecko/20100101 Firefox/66.0,,Firefox,66,Windows,10
12,1,null,"""",image-keyboard-response,162,482917,0.0-162.0,jspsych/disgustFaces/BM29DIS.JPG,"""",256,Cue,Test,null,16,"""","""","""","""","""","""","""","""",1,3/11/2021 19:48,73.80.90.55,Mozilla/5.0 (Windows NT 10.0; Win64; x64; rv:66.0) Gecko/20100101 Firefox/66.0,,Firefox,66,Windows,10
12,1,null,"""",image-keyboard-response,163,483028,0.0-163.0,jspsych/neutralFaces/BM04NES.JPG,"""",256,backwardMask,Test,null,100,"""","""","""","""","""","""","""","""",1,3/11/2021 19:48,73.80.90.55,Mozilla/5.0 (Windows NT 10.0; Win64; x64; rv:66.0) Gecko/20100101 Firefox/66.0,,Firefox,66,Windows,10
12,1,null,"""",html-keyboard-response,164,484043,0.0-164.0,"<div style=""font-size:60px;"">+</div>","""",256,fixationBtwnNeutralMaskAndPrompt,Test,null,1000,"""","""","""","""","""","""","""","""",1,3/11/2021 19:48,73.80.90.55,Mozilla/5.0 (Windows NT 10.0; Win64; x64; rv:66.0) Gecko/20100101 Firefox/66.0,,Firefox,66,Windows,10
12,1,3341,"""",html-button-response,165,487389,0.0-165.0,"<img src='jspsych/CFDfaces/CFD-LF-205-100-N.jpg' height=""250px"">,</br><b>Elizabeth</b>",1,256,IntactOrRearranged,Test,"""","""","""","""",CFD-BM-032-024-N.jpg,Ryan,1,"""","""",1,1,3/11/2021 19:48,73.80.90.55,Mozilla/5.0 (Windows NT 10.0; Win64; x64; rv:66.0) Gecko/20100101 Firefox/66.0,,Firefox,66,Windows,10
12,1,3411,"""",html-slider-response,166,490820,0.0-166.0,"<img src='jspsych/CFDfaces/CFD-LF-205-100-N.jpg' height=""250px"">,</br><b>Elizabeth</b>","""",256,ConfidenceQuery,Test,"""","""","""","""",CFD-BM-032-024-N.jpg,Ryan,1,0,40,"""",1,3/11/2021 19:48,73.80.90.55,Mozilla/5.0 (Windows NT 10.0; Win64; x64; rv:66.0) Gecko/20100101 Firefox/66.0,,Firefox,66,Windows,10
12,1,null,"""",html-keyboard-response,167,491833,0.0-167.0,"<div style=""font-size:60px;"">+</div>","""",256,ITI,Test,null,1000,"""","""","""","""","""","""","""","""",1,3/11/2021 19:48,73.80.90.55,Mozilla/5.0 (Windows NT 10.0; Win64; x64; rv:66.0) Gecko/20100101 Firefox/66.0,,Firefox,66,Windows,10
12,1,null,"""",image-keyboard-response,168,492116,0.0-168.0,jspsych/scrambledDisgustFaces/scrambledAM29DIS.JPG,"""",256,forwardMask,Test,null,250,"""",d,"""","""","""","""","""","""",1,3/11/2021 19:48,73.80.90.55,Mozilla/5.0 (Windows NT 10.0; Win64; x64; rv:66.0) Gecko/20100101 Firefox/66.0,,Firefox,66,Windows,10
12,1,null,"""",image-keyboard-response,169,492145,0.0-169.0,jspsych/disgustFaces/AM29DIS.JPG,"""",256,Cue,Test,null,16,"""","""","""","""","""","""","""","""",1,3/11/2021 19:48,73.80.90.55,Mozilla/5.0 (Windows NT 10.0; Win64; x64; rv:66.0) Gecko/20100101 Firefox/66.0,,Firefox,66,Windows,10
12,1,null,"""",image-keyboard-response,170,492256,0.0-170.0,jspsych/neutralFaces/AM25NES.JPG,"""",256,backwardMask,Test,null,100,"""","""","""","""","""","""","""","""",1,3/11/2021 19:48,73.80.90.55,Mozilla/5.0 (Windows NT 10.0; Win64; x64; rv:66.0) Gecko/20100101 Firefox/66.0,,Firefox,66,Windows,10
12,1,null,"""",html-keyboard-response,171,493262,0.0-171.0,"<div style=""font-size:60px;"">+</div>","""",256,fixationBtwnNeutralMaskAndPrompt,Test,null,1000,"""","""","""","""","""","""","""","""",1,3/11/2021 19:48,73.80.90.55,Mozilla/5.0 (Windows NT 10.0; Win64; x64; rv:66.0) Gecko/20100101 Firefox/66.0,,Firefox,66,Windows,10
12,1,1863,"""",html-button-response,172,495128,0.0-172.0,"<img src='jspsych/CFDfaces/CFD-AM-228-214-N.jpg' height=""250px"">,</br><b>Ian</b>",0,256,IntactOrRearranged,Test,"""","""","""","""",CFD-AM-205-153-N.jpg,Timothy,0,"""","""",0,1,3/11/2021 19:48,73.80.90.55,Mozilla/5.0 (Windows NT 10.0; Win64; x64; rv:66.0) Gecko/20100101 Firefox/66.0,,Firefox,66,Windows,10
12,1,3364,"""",html-slider-response,173,498508,0.0-173.0,"<img src='jspsych/CFDfaces/CFD-AM-228-214-N.jpg' height=""250px"">,</br><b>Ian</b>","""",256,ConfidenceQuery,Test,"""","""","""","""",CFD-AM-205-153-N.jpg,Timothy,0,0,75,"""",1,3/11/2021 19:48,73.80.90.55,Mozilla/5.0 (Windows NT 10.0; Win64; x64; rv:66.0) Gecko/20100101 Firefox/66.0,,Firefox,66,Windows,10
12,1,null,"""",html-keyboard-response,174,499525,0.0-174.0,"<div style=""font-size:60px;"">+</div>","""",256,ITI,Test,null,1000,"""","""","""","""","""","""","""","""",1,3/11/2021 19:48,73.80.90.55,Mozilla/5.0 (Windows NT 10.0; Win64; x64; rv:66.0) Gecko/20100101 Firefox/66.0,,Firefox,66,Windows,10
12,1,null,"""",image-keyboard-response,175,499821,0.0-175.0,jspsych/scrambledNeutralFaces/scrambledBM32NES.JPG,"""",256,forwardMask,Test,null,250,"""",n,"""","""","""","""","""","""",1,3/11/2021 19:48,73.80.90.55,Mozilla/5.0 (Windows NT 10.0; Win64; x64; rv:66.0) Gecko/20100101 Firefox/66.0,,Firefox,66,Windows,10
12,1,null,"""",image-keyboard-response,176,499852,0.0-176.0,jspsych/neutralFaces/BM32NES.JPG,"""",256,Cue,Test,null,16,"""","""","""","""","""","""","""","""",1,3/11/2021 19:48,73.80.90.55,Mozilla/5.0 (Windows NT 10.0; Win64; x64; rv:66.0) Gecko/20100101 Firefox/66.0,,Firefox,66,Windows,10
12,1,null,"""",image-keyboard-response,177,499962,0.0-177.0,jspsych/neutralFaces/BM22NES.JPG,"""",256,backwardMask,Test,null,100,"""","""","""","""","""","""","""","""",1,3/11/2021 19:48,73.80.90.55,Mozilla/5.0 (Windows NT 10.0; Win64; x64; rv:66.0) Gecko/20100101 Firefox/66.0,,Firefox,66,Windows,10
12,1,null,"""",html-keyboard-response,178,500970,0.0-178.0,"<div style=""font-size:60px;"">+</div>","""",256,fixationBtwnNeutralMaskAndPrompt,Test,null,1000,"""","""","""","""","""","""","""","""",1,3/11/2021 19:48,73.80.90.55,Mozilla/5.0 (Windows NT 10.0; Win64; x64; rv:66.0) Gecko/20100101 Firefox/66.0,,Firefox,66,Windows,10
12,1,2791,"""",html-button-response,179,503767,0.0-179.0,"<img src='jspsych/CFDfaces/CFD-LF-232-199-N.jpg' height=""250px"">,</br><b>Brittany</b>",1,256,IntactOrRearranged,Test,"""","""","""","""",CFD-WF-023-003-N.jpg,Jasmine,0,"""","""",1,1,3/11/2021 19:48,73.80.90.55,Mozilla/5.0 (Windows NT 10.0; Win64; x64; rv:66.0) Gecko/20100101 Firefox/66.0,,Firefox,66,Windows,10
12,1,2804,"""",html-slider-response,180,506591,0.0-180.0,"<img src='jspsych/CFDfaces/CFD-LF-232-199-N.jpg' height=""250px"">,</br><b>Brittany</b>","""",256,ConfidenceQuery,Test,"""","""","""","""",CFD-WF-023-003-N.jpg,Jasmine,0,0,21,"""",1,3/11/2021 19:48,73.80.90.55,Mozilla/5.0 (Windows NT 10.0; Win64; x64; rv:66.0) Gecko/20100101 Firefox/66.0,,Firefox,66,Windows,10
12,1,null,"""",html-keyboard-response,181,507598,0.0-181.0,"<div style=""font-size:60px;"">+</div>","""",256,ITI,Test,null,1000,"""","""","""","""","""","""","""","""",1,3/11/2021 19:48,73.80.90.55,Mozilla/5.0 (Windows NT 10.0; Win64; x64; rv:66.0) Gecko/20100101 Firefox/66.0,,Firefox,66,Windows,10
12,1,null,"""",image-keyboard-response,182,507884,0.0-182.0,jspsych/scrambledDisgustFaces/scrambledBF32DIS.JPG,"""",256,forwardMask,Test,null,250,"""",d,"""","""","""","""","""","""",1,3/11/2021 19:48,73.80.90.55,Mozilla/5.0 (Windows NT 10.0; Win64; x64; rv:66.0) Gecko/20100101 Firefox/66.0,,Firefox,66,Windows,10
12,1,null,"""",image-keyboard-response,183,507912,0.0-183.0,jspsych/disgustFaces/BF32DIS.JPG,"""",256,Cue,Test,null,16,"""","""","""","""","""","""","""","""",1,3/11/2021 19:48,73.80.90.55,Mozilla/5.0 (Windows NT 10.0; Win64; x64; rv:66.0) Gecko/20100101 Firefox/66.0,,Firefox,66,Windows,10
12,1,null,"""",image-keyboard-response,184,508023,0.0-184.0,jspsych/neutralFaces/BF31NES.JPG,"""",256,backwardMask,Test,null,100,"""","""","""","""","""","""","""","""",1,3/11/2021 19:48,73.80.90.55,Mozilla/5.0 (Windows NT 10.0; Win64; x64; rv:66.0) Gecko/20100101 Firefox/66.0,,Firefox,66,Windows,10
12,1,null,"""",html-keyboard-response,185,509037,0.0-185.0,"<div style=""font-size:60px;"">+</div>","""",256,fixationBtwnNeutralMaskAndPrompt,Test,null,1000,"""","""","""","""","""","""","""","""",1,3/11/2021 19:48,73.80.90.55,Mozilla/5.0 (Windows NT 10.0; Win64; x64; rv:66.0) Gecko/20100101 Firefox/66.0,,Firefox,66,Windows,10
12,1,2084,"""",html-button-response,186,511125,0.0-186.0,"<img src='jspsych/CFDfaces/CFD-AF-220-107-N.jpg' height=""250px"">,</br><b>Stephanie</b>",0,256,IntactOrRearranged,Test,"""","""","""","""",CFD-AM-238-269-N.jpg,Steven,0,"""","""",0,1,3/11/2021 19:48,73.80.90.55,Mozilla/5.0 (Windows NT 10.0; Win64; x64; rv:66.0) Gecko/20100101 Firefox/66.0,,Firefox,66,Windows,10
12,1,2930,"""",html-slider-response,187,514074,0.0-187.0,"<img src='jspsych/CFDfaces/CFD-AF-220-107-N.jpg' height=""250px"">,</br><b>Stephanie</b>","""",256,ConfidenceQuery,Test,"""","""","""","""",CFD-AM-238-269-N.jpg,Steven,0,0,59,"""",1,3/11/2021 19:48,73.80.90.55,Mozilla/5.0 (Windows NT 10.0; Win64; x64; rv:66.0) Gecko/20100101 Firefox/66.0,,Firefox,66,Windows,10
12,1,null,"""",html-keyboard-response,188,515081,0.0-188.0,"<div style=""font-size:60px;"">+</div>","""",256,ITI,Test,null,1000,"""","""","""","""","""","""","""","""",1,3/11/2021 19:48,73.80.90.55,Mozilla/5.0 (Windows NT 10.0; Win64; x64; rv:66.0) Gecko/20100101 Firefox/66.0,,Firefox,66,Windows,10
12,1,null,"""",image-keyboard-response,189,515383,0.0-189.0,jspsych/scrambledDisgustFaces/scrambledBM27DIS.JPG,"""",256,forwardMask,Test,null,250,"""",d,"""","""","""","""","""","""",1,3/11/2021 19:48,73.80.90.55,Mozilla/5.0 (Windows NT 10.0; Win64; x64; rv:66.0) Gecko/20100101 Firefox/66.0,,Firefox,66,Windows,10
12,1,null,"""",image-keyboard-response,190,515430,0.0-190.0,jspsych/disgustFaces/BM28DIS.JPG,"""",256,Cue,Test,null,16,"""","""","""","""","""","""","""","""",1,3/11/2021 19:48,73.80.90.55,Mozilla/5.0 (Windows NT 10.0; Win64; x64; rv:66.0) Gecko/20100101 Firefox/66.0,,Firefox,66,Windows,10
12,1,null,"""",image-keyboard-response,191,515557,0.0-191.0,jspsych/neutralFaces/BM02NES.JPG,"""",256,backwardMask,Test,null,100,"""","""","""","""","""","""","""","""",1,3/11/2021 19:48,73.80.90.55,Mozilla/5.0 (Windows NT 10.0; Win64; x64; rv:66.0) Gecko/20100101 Firefox/66.0,,Firefox,66,Windows,10
12,1,null,"""",html-keyboard-response,192,516572,0.0-192.0,"<div style=""font-size:60px;"">+</div>","""",256,fixationBtwnNeutralMaskAndPrompt,Test,null,1000,"""","""","""","""","""","""","""","""",1,3/11/2021 19:48,73.80.90.55,Mozilla/5.0 (Windows NT 10.0; Win64; x64; rv:66.0) Gecko/20100101 Firefox/66.0,,Firefox,66,Windows,10
12,1,2524,"""",html-button-response,193,519099,0.0-193.0,"<img src='jspsych/CFDfaces/CFD-LM-239-075-N.jpg' height=""250px"">,</br><b>Brandon</b>",1,256,IntactOrRearranged,Test,"""","""","""","""",CFD-BF-212-315-N.jpg,Melissa,0,"""","""",1,1,3/11/2021 19:48,73.80.90.55,Mozilla/5.0 (Windows NT 10.0; Win64; x64; rv:66.0) Gecko/20100101 Firefox/66.0,,Firefox,66,Windows,10
12,1,3488,"""",html-slider-response,194,522610,0.0-194.0,"<img src='jspsych/CFDfaces/CFD-LM-239-075-N.jpg' height=""250px"">,</br><b>Brandon</b>","""",256,ConfidenceQuery,Test,"""","""","""","""",CFD-BF-212-315-N.jpg,Melissa,0,0,59,"""",1,3/11/2021 19:48,73.80.90.55,Mozilla/5.0 (Windows NT 10.0; Win64; x64; rv:66.0) Gecko/20100101 Firefox/66.0,,Firefox,66,Windows,10
12,1,null,"""",html-keyboard-response,195,523623,0.0-195.0,"<div style=""font-size:60px;"">+</div>","""",256,ITI,Test,null,1000,"""","""","""","""","""","""","""","""",1,3/11/2021 19:48,73.80.90.55,Mozilla/5.0 (Windows NT 10.0; Win64; x64; rv:66.0) Gecko/20100101 Firefox/66.0,,Firefox,66,Windows,10
12,1,null,"""",image-keyboard-response,196,523919,0.0-196.0,jspsych/scrambledNeutralFaces/scrambledAM28NES.JPG,"""",256,forwardMask,Test,null,250,"""",n,"""","""","""","""","""","""",1,3/11/2021 19:48,73.80.90.55,Mozilla/5.0 (Windows NT 10.0; Win64; x64; rv:66.0) Gecko/20100101 Firefox/66.0,,Firefox,66,Windows,10
12,1,null,"""",image-keyboard-response,197,523951,0.0-197.0,jspsych/neutralFaces/AM28NES.JPG,"""",256,Cue,Test,null,16,"""","""","""","""","""","""","""","""",1,3/11/2021 19:48,73.80.90.55,Mozilla/5.0 (Windows NT 10.0; Win64; x64; rv:66.0) Gecko/20100101 Firefox/66.0,,Firefox,66,Windows,10
12,1,null,"""",image-keyboard-response,198,524063,0.0-198.0,jspsych/neutralFaces/AM23NES.JPG,"""",256,backwardMask,Test,null,100,"""","""","""","""","""","""","""","""",1,3/11/2021 19:48,73.80.90.55,Mozilla/5.0 (Windows NT 10.0; Win64; x64; rv:66.0) Gecko/20100101 Firefox/66.0,,Firefox,66,Windows,10
12,1,null,"""",html-keyboard-response,199,525067,0.0-199.0,"<div style=""font-size:60px;"">+</div>","""",256,fixationBtwnNeutralMaskAndPrompt,Test,null,1000,"""","""","""","""","""","""","""","""",1,3/11/2021 19:48,73.80.90.55,Mozilla/5.0 (Windows NT 10.0; Win64; x64; rv:66.0) Gecko/20100101 Firefox/66.0,,Firefox,66,Windows,10
12,1,2688,"""",html-button-response,200,527760,0.0-200.0,"<img src='jspsych/CFDfaces/CFD-LM-200-045-N.jpg' height=""250px"">,</br><b>Eric</b>",1,256,IntactOrRearranged,Test,"""","""","""","""",CFD-BF-025-002-N.jpg,Jenna,1,"""","""",1,1,3/11/2021 19:48,73.80.90.55,Mozilla/5.0 (Windows NT 10.0; Win64; x64; rv:66.0) Gecko/20100101 Firefox/66.0,,Firefox,66,Windows,10
12,1,3446,"""",html-slider-response,201,531224,0.0-201.0,"<img src='jspsych/CFDfaces/CFD-LM-200-045-N.jpg' height=""250px"">,</br><b>Eric</b>","""",256,ConfidenceQuery,Test,"""","""","""","""",CFD-BF-025-002-N.jpg,Jenna,1,0,46,"""",1,3/11/2021 19:48,73.80.90.55,Mozilla/5.0 (Windows NT 10.0; Win64; x64; rv:66.0) Gecko/20100101 Firefox/66.0,,Firefox,66,Windows,10
12,1,null,"""",html-keyboard-response,202,532241,0.0-202.0,"<div style=""font-size:60px;"">+</div>","""",256,ITI,Test,null,1000,"""","""","""","""","""","""","""","""",1,3/11/2021 19:48,73.80.90.55,Mozilla/5.0 (Windows NT 10.0; Win64; x64; rv:66.0) Gecko/20100101 Firefox/66.0,,Firefox,66,Windows,10
12,1,null,"""",image-keyboard-response,203,532522,0.0-203.0,jspsych/scrambledNeutralFaces/scrambledAF12NES.JPG,"""",256,forwardMask,Test,null,250,"""",n,"""","""","""","""","""","""",1,3/11/2021 19:48,73.80.90.55,Mozilla/5.0 (Windows NT 10.0; Win64; x64; rv:66.0) Gecko/20100101 Firefox/66.0,,Firefox,66,Windows,10
12,1,null,"""",image-keyboard-response,204,532553,0.0-204.0,jspsych/neutralFaces/AF12NES.JPG,"""",256,Cue,Test,null,16,"""","""","""","""","""","""","""","""",1,3/11/2021 19:48,73.80.90.55,Mozilla/5.0 (Windows NT 10.0; Win64; x64; rv:66.0) Gecko/20100101 Firefox/66.0,,Firefox,66,Windows,10
12,1,null,"""",image-keyboard-response,205,532680,0.0-205.0,jspsych/neutralFaces/BF28NES.JPG,"""",256,backwardMask,Test,null,100,"""","""","""","""","""","""","""","""",1,3/11/2021 19:48,73.80.90.55,Mozilla/5.0 (Windows NT 10.0; Win64; x64; rv:66.0) Gecko/20100101 Firefox/66.0,,Firefox,66,Windows,10
12,1,null,"""",html-keyboard-response,206,533698,0.0-206.0,"<div style=""font-size:60px;"">+</div>","""",256,fixationBtwnNeutralMaskAndPrompt,Test,null,1000,"""","""","""","""","""","""","""","""",1,3/11/2021 19:48,73.80.90.55,Mozilla/5.0 (Windows NT 10.0; Win64; x64; rv:66.0) Gecko/20100101 Firefox/66.0,,Firefox,66,Windows,10
12,1,2389,"""",html-button-response,207,536092,0.0-207.0,"<img src='jspsych/CFDfaces/CFD-BM-210-148-N.jpg' height=""250px"">,</br><b>Peter</b>",0,256,IntactOrRearranged,Test,"""","""","""","""",CFD-WF-038-021-N.jpg,Lindsey,0,"""","""",0,1,3/11/2021 19:48,73.80.90.55,Mozilla/5.0 (Windows NT 10.0; Win64; x64; rv:66.0) Gecko/20100101 Firefox/66.0,,Firefox,66,Windows,10
12,1,3520,"""",html-slider-response,208,539634,0.0-208.0,"<img src='jspsych/CFDfaces/CFD-BM-210-148-N.jpg' height=""250px"">,</br><b>Peter</b>","""",256,ConfidenceQuery,Test,"""","""","""","""",CFD-WF-038-021-N.jpg,Lindsey,0,0,39,"""",1,3/11/2021 19:48,73.80.90.55,Mozilla/5.0 (Windows NT 10.0; Win64; x64; rv:66.0) Gecko/20100101 Firefox/66.0,,Firefox,66,Windows,10
12,1,null,"""",html-keyboard-response,209,540650,0.0-209.0,"<div style=""font-size:60px;"">+</div>","""",256,ITI,Test,null,1000,"""","""","""","""","""","""","""","""",1,3/11/2021 19:48,73.80.90.55,Mozilla/5.0 (Windows NT 10.0; Win64; x64; rv:66.0) Gecko/20100101 Firefox/66.0,,Firefox,66,Windows,10
12,1,null,"""",image-keyboard-response,210,540960,0.0-210.0,jspsych/scrambledDisgustFaces/scrambledAM05DIS.JPG,"""",256,forwardMask,Test,null,250,"""",d,"""","""","""","""","""","""",1,3/11/2021 19:48,73.80.90.55,Mozilla/5.0 (Windows NT 10.0; Win64; x64; rv:66.0) Gecko/20100101 Firefox/66.0,,Firefox,66,Windows,10
12,1,null,"""",image-keyboard-response,211,540992,0.0-211.0,jspsych/disgustFaces/AM05DIS.JPG,"""",256,Cue,Test,null,16,"""","""","""","""","""","""","""","""",1,3/11/2021 19:48,73.80.90.55,Mozilla/5.0 (Windows NT 10.0; Win64; x64; rv:66.0) Gecko/20100101 Firefox/66.0,,Firefox,66,Windows,10
12,1,null,"""",image-keyboard-response,212,541121,0.0-212.0,jspsych/neutralFaces/AM03NES.JPG,"""",256,backwardMask,Test,null,100,"""","""","""","""","""","""","""","""",1,3/11/2021 19:48,73.80.90.55,Mozilla/5.0 (Windows NT 10.0; Win64; x64; rv:66.0) Gecko/20100101 Firefox/66.0,,Firefox,66,Windows,10
12,1,null,"""",html-keyboard-response,213,542132,0.0-213.0,"<div style=""font-size:60px;"">+</div>","""",256,fixationBtwnNeutralMaskAndPrompt,Test,null,1000,"""","""","""","""","""","""","""","""",1,3/11/2021 19:48,73.80.90.55,Mozilla/5.0 (Windows NT 10.0; Win64; x64; rv:66.0) Gecko/20100101 Firefox/66.0,,Firefox,66,Windows,10
12,1,2461,"""",html-button-response,214,544598,0.0-214.0,"<img src='jspsych/CFDfaces/CFD-AF-215-70-N.jpg' height=""250px"">,</br><b>Christina</b>",0,256,IntactOrRearranged,Test,"""","""","""","""",CFD-BM-208-065-N.jpg,Dustin,1,"""","""",0,1,3/11/2021 19:48,73.80.90.55,Mozilla/5.0 (Windows NT 10.0; Win64; x64; rv:66.0) Gecko/20100101 Firefox/66.0,,Firefox,66,Windows,10
12,1,3417,"""",html-slider-response,215,548040,0.0-215.0,"<img src='jspsych/CFDfaces/CFD-AF-215-70-N.jpg' height=""250px"">,</br><b>Christina</b>","""",256,ConfidenceQuery,Test,"""","""","""","""",CFD-BM-208-065-N.jpg,Dustin,1,0,38,"""",1,3/11/2021 19:48,73.80.90.55,Mozilla/5.0 (Windows NT 10.0; Win64; x64; rv:66.0) Gecko/20100101 Firefox/66.0,,Firefox,66,Windows,10
12,1,null,"""",html-keyboard-response,216,549059,0.0-216.0,"<div style=""font-size:60px;"">+</div>","""",256,ITI,Test,null,1000,"""","""","""","""","""","""","""","""",1,3/11/2021 19:48,73.80.90.55,Mozilla/5.0 (Windows NT 10.0; Win64; x64; rv:66.0) Gecko/20100101 Firefox/66.0,,Firefox,66,Windows,10
12,1,null,"""",image-keyboard-response,217,549357,0.0-217.0,jspsych/scrambledNeutralFaces/scrambledBF05NES.JPG,"""",256,forwardMask,Test,null,250,"""",n,"""","""","""","""","""","""",1,3/11/2021 19:48,73.80.90.55,Mozilla/5.0 (Windows NT 10.0; Win64; x64; rv:66.0) Gecko/20100101 Firefox/66.0,,Firefox,66,Windows,10
12,1,null,"""",image-keyboard-response,218,549389,0.0-218.0,jspsych/neutralFaces/BF05NES.JPG,"""",256,Cue,Test,null,16,"""","""","""","""","""","""","""","""",1,3/11/2021 19:48,73.80.90.55,Mozilla/5.0 (Windows NT 10.0; Win64; x64; rv:66.0) Gecko/20100101 Firefox/66.0,,Firefox,66,Windows,10
12,1,null,"""",image-keyboard-response,219,549513,0.0-219.0,jspsych/neutralFaces/AF32NES.JPG,"""",256,backwardMask,Test,null,100,"""","""","""","""","""","""","""","""",1,3/11/2021 19:48,73.80.90.55,Mozilla/5.0 (Windows NT 10.0; Win64; x64; rv:66.0) Gecko/20100101 Firefox/66.0,,Firefox,66,Windows,10
12,1,null,"""",html-keyboard-response,220,550519,0.0-220.0,"<div style=""font-size:60px;"">+</div>","""",256,fixationBtwnNeutralMaskAndPrompt,Test,null,1000,"""","""","""","""","""","""","""","""",1,3/11/2021 19:48,73.80.90.55,Mozilla/5.0 (Windows NT 10.0; Win64; x64; rv:66.0) Gecko/20100101 Firefox/66.0,,Firefox,66,Windows,10
12,1,2680,"""",html-button-response,221,553205,0.0-221.0,"<img src='jspsych/CFDfaces/CFD-LF-210-220-N.jpg' height=""250px"">,</br><b>Meghan</b>",0,256,IntactOrRearranged,Test,"""","""","""","""",CFD-BF-019-001-N.jpg,Taylor,0,"""","""",0,1,3/11/2021 19:48,73.80.90.55,Mozilla/5.0 (Windows NT 10.0; Win64; x64; rv:66.0) Gecko/20100101 Firefox/66.0,,Firefox,66,Windows,10
12,1,3720,"""",html-slider-response,222,556950,0.0-222.0,"<img src='jspsych/CFDfaces/CFD-LF-210-220-N.jpg' height=""250px"">,</br><b>Meghan</b>","""",256,ConfidenceQuery,Test,"""","""","""","""",CFD-BF-019-001-N.jpg,Taylor,0,0,53,"""",1,3/11/2021 19:48,73.80.90.55,Mozilla/5.0 (Windows NT 10.0; Win64; x64; rv:66.0) Gecko/20100101 Firefox/66.0,,Firefox,66,Windows,10
12,1,null,"""",html-keyboard-response,223,557957,0.0-223.0,"<div style=""font-size:60px;"">+</div>","""",256,ITI,Test,null,1000,"""","""","""","""","""","""","""","""",1,3/11/2021 19:48,73.80.90.55,Mozilla/5.0 (Windows NT 10.0; Win64; x64; rv:66.0) Gecko/20100101 Firefox/66.0,,Firefox,66,Windows,10
12,1,null,"""",image-keyboard-response,224,558254,0.0-224.0,jspsych/scrambledNeutralFaces/scrambledBM08NES.JPG,"""",256,forwardMask,Test,null,250,"""",n,"""","""","""","""","""","""",1,3/11/2021 19:48,73.80.90.55,Mozilla/5.0 (Windows NT 10.0; Win64; x64; rv:66.0) Gecko/20100101 Firefox/66.0,,Firefox,66,Windows,10
12,1,null,"""",image-keyboard-response,225,558285,0.0-225.0,jspsych/neutralFaces/BM08NES.JPG,"""",256,Cue,Test,null,16,"""","""","""","""","""","""","""","""",1,3/11/2021 19:48,73.80.90.55,Mozilla/5.0 (Windows NT 10.0; Win64; x64; rv:66.0) Gecko/20100101 Firefox/66.0,,Firefox,66,Windows,10
12,1,null,"""",image-keyboard-response,226,558397,0.0-226.0,jspsych/neutralFaces/BM24NES.JPG,"""",256,backwardMask,Test,null,100,"""","""","""","""","""","""","""","""",1,3/11/2021 19:48,73.80.90.55,Mozilla/5.0 (Windows NT 10.0; Win64; x64; rv:66.0) Gecko/20100101 Firefox/66.0,,Firefox,66,Windows,10
12,1,null,"""",html-keyboard-response,227,559412,0.0-227.0,"<div style=""font-size:60px;"">+</div>","""",256,fixationBtwnNeutralMaskAndPrompt,Test,null,1000,"""","""","""","""","""","""","""","""",1,3/11/2021 19:48,73.80.90.55,Mozilla/5.0 (Windows NT 10.0; Win64; x64; rv:66.0) Gecko/20100101 Firefox/66.0,,Firefox,66,Windows,10
12,1,3157,"""",html-button-response,228,562575,0.0-228.0,"<img src='jspsych/CFDfaces/CFD-LF-200-058-N.jpg' height=""250px"">,</br><b>Samantha</b>",1,256,IntactOrRearranged,Test,"""","""","""","""",CFD-LF-215-157-N.jpg,Lauren,0,"""","""",1,1,3/11/2021 19:48,73.80.90.55,Mozilla/5.0 (Windows NT 10.0; Win64; x64; rv:66.0) Gecko/20100101 Firefox/66.0,,Firefox,66,Windows,10
12,1,2785,"""",html-slider-response,229,565383,0.0-229.0,"<img src='jspsych/CFDfaces/CFD-LF-200-058-N.jpg' height=""250px"">,</br><b>Samantha</b>","""",256,ConfidenceQuery,Test,"""","""","""","""",CFD-LF-215-157-N.jpg,Lauren,0,0,32,"""",1,3/11/2021 19:48,73.80.90.55,Mozilla/5.0 (Windows NT 10.0; Win64; x64; rv:66.0) Gecko/20100101 Firefox/66.0,,Firefox,66,Windows,10
12,1,null,"""",html-keyboard-response,230,566388,0.0-230.0,"<div style=""font-size:60px;"">+</div>","""",256,ITI,Test,null,1000,"""","""","""","""","""","""","""","""",1,3/11/2021 19:48,73.80.90.55,Mozilla/5.0 (Windows NT 10.0; Win64; x64; rv:66.0) Gecko/20100101 Firefox/66.0,,Firefox,66,Windows,10
12,1,null,"""",image-keyboard-response,231,566673,0.0-231.0,jspsych/scrambledDisgustFaces/scrambledBF17DIS.JPG,"""",256,forwardMask,Test,null,250,"""",d,"""","""","""","""","""","""",1,3/11/2021 19:48,73.80.90.55,Mozilla/5.0 (Windows NT 10.0; Win64; x64; rv:66.0) Gecko/20100101 Firefox/66.0,,Firefox,66,Windows,10
12,1,null,"""",image-keyboard-response,232,566704,0.0-232.0,jspsych/disgustFaces/BF17DIS.JPG,"""",256,Cue,Test,null,16,"""","""","""","""","""","""","""","""",1,3/11/2021 19:48,73.80.90.55,Mozilla/5.0 (Windows NT 10.0; Win64; x64; rv:66.0) Gecko/20100101 Firefox/66.0,,Firefox,66,Windows,10
12,1,null,"""",image-keyboard-response,233,566816,0.0-233.0,jspsych/neutralFaces/AF02NES.JPG,"""",256,backwardMask,Test,null,100,"""","""","""","""","""","""","""","""",1,3/11/2021 19:48,73.80.90.55,Mozilla/5.0 (Windows NT 10.0; Win64; x64; rv:66.0) Gecko/20100101 Firefox/66.0,,Firefox,66,Windows,10
12,1,null,"""",html-keyboard-response,234,567829,0.0-234.0,"<div style=""font-size:60px;"">+</div>","""",256,fixationBtwnNeutralMaskAndPrompt,Test,null,1000,"""","""","""","""","""","""","""","""",1,3/11/2021 19:48,73.80.90.55,Mozilla/5.0 (Windows NT 10.0; Win64; x64; rv:66.0) Gecko/20100101 Firefox/66.0,,Firefox,66,Windows,10
12,1,2958,"""",html-button-response,235,570791,0.0-235.0,"<img src='jspsych/CFDfaces/CFD-LF-202-065-N.jpg' height=""250px"">,</br><b>Victoria</b>",1,256,IntactOrRearranged,Test,"""","""","""","""",CFD-WM-015-002-N.jpg,Jeremy,1,"""","""",1,1,3/11/2021 19:48,73.80.90.55,Mozilla/5.0 (Windows NT 10.0; Win64; x64; rv:66.0) Gecko/20100101 Firefox/66.0,,Firefox,66,Windows,10
12,1,3314,"""",html-slider-response,236,574146,0.0-236.0,"<img src='jspsych/CFDfaces/CFD-LF-202-065-N.jpg' height=""250px"">,</br><b>Victoria</b>","""",256,ConfidenceQuery,Test,"""","""","""","""",CFD-WM-015-002-N.jpg,Jeremy,1,0,33,"""",1,3/11/2021 19:48,73.80.90.55,Mozilla/5.0 (Windows NT 10.0; Win64; x64; rv:66.0) Gecko/20100101 Firefox/66.0,,Firefox,66,Windows,10
12,1,null,"""",html-keyboard-response,237,575153,0.0-237.0,"<div style=""font-size:60px;"">+</div>","""",256,ITI,Test,null,1000,"""","""","""","""","""","""","""","""",1,3/11/2021 19:48,73.80.90.55,Mozilla/5.0 (Windows NT 10.0; Win64; x64; rv:66.0) Gecko/20100101 Firefox/66.0,,Firefox,66,Windows,10
12,1,null,"""",image-keyboard-response,238,575435,0.0-238.0,jspsych/scrambledDisgustFaces/scrambledBM21DIS.JPG,"""",256,forwardMask,Test,null,250,"""",d,"""","""","""","""","""","""",1,3/11/2021 19:48,73.80.90.55,Mozilla/5.0 (Windows NT 10.0; Win64; x64; rv:66.0) Gecko/20100101 Firefox/66.0,,Firefox,66,Windows,10
12,1,null,"""",image-keyboard-response,239,575481,0.0-239.0,jspsych/disgustFaces/BM22DIS.JPG,"""",256,Cue,Test,null,16,"""","""","""","""","""","""","""","""",1,3/11/2021 19:48,73.80.90.55,Mozilla/5.0 (Windows NT 10.0; Win64; x64; rv:66.0) Gecko/20100101 Firefox/66.0,,Firefox,66,Windows,10
12,1,null,"""",image-keyboard-response,240,575606,0.0-240.0,jspsych/neutralFaces/BM30NES.JPG,"""",256,backwardMask,Test,null,100,"""","""","""","""","""","""","""","""",1,3/11/2021 19:48,73.80.90.55,Mozilla/5.0 (Windows NT 10.0; Win64; x64; rv:66.0) Gecko/20100101 Firefox/66.0,,Firefox,66,Windows,10
12,1,null,"""",html-keyboard-response,241,576620,0.0-241.0,"<div style=""font-size:60px;"">+</div>","""",256,fixationBtwnNeutralMaskAndPrompt,Test,null,1000,"""","""","""","""","""","""","""","""",1,3/11/2021 19:48,73.80.90.55,Mozilla/5.0 (Windows NT 10.0; Win64; x64; rv:66.0) Gecko/20100101 Firefox/66.0,,Firefox,66,Windows,10
12,1,3484,"""",html-button-response,242,580108,0.0-242.0,"<img src='jspsych/CFDfaces/CFD-LM-209-111-N.jpg' height=""250px"">,</br><b>Gregory</b>",1,256,IntactOrRearranged,Test,"""","""","""","""",CFD-WM-216-061-N.jpg,Sean,1,"""","""",1,1,3/11/2021 19:48,73.80.90.55,Mozilla/5.0 (Windows NT 10.0; Win64; x64; rv:66.0) Gecko/20100101 Firefox/66.0,,Firefox,66,Windows,10
12,1,3792,"""",html-slider-response,243,583923,0.0-243.0,"<img src='jspsych/CFDfaces/CFD-LM-209-111-N.jpg' height=""250px"">,</br><b>Gregory</b>","""",256,ConfidenceQuery,Test,"""","""","""","""",CFD-WM-216-061-N.jpg,Sean,1,0,77,"""",1,3/11/2021 19:48,73.80.90.55,Mozilla/5.0 (Windows NT 10.0; Win64; x64; rv:66.0) Gecko/20100101 Firefox/66.0,,Firefox,66,Windows,10
12,1,null,"""",html-keyboard-response,244,584942,0.0-244.0,"<div style=""font-size:60px;"">+</div>","""",256,ITI,Test,null,1000,"""","""","""","""","""","""","""","""",1,3/11/2021 19:48,73.80.90.55,Mozilla/5.0 (Windows NT 10.0; Win64; x64; rv:66.0) Gecko/20100101 Firefox/66.0,,Firefox,66,Windows,10
12,1,null,"""",image-keyboard-response,245,585240,0.0-245.0,jspsych/scrambledDisgustFaces/scrambledBF33DIS.JPG,"""",256,forwardMask,Test,null,250,"""",d,"""","""","""","""","""","""",1,3/11/2021 19:48,73.80.90.55,Mozilla/5.0 (Windows NT 10.0; Win64; x64; rv:66.0) Gecko/20100101 Firefox/66.0,,Firefox,66,Windows,10
12,1,null,"""",image-keyboard-response,246,585271,0.0-246.0,jspsych/disgustFaces/BF33DIS.JPG,"""",256,Cue,Test,null,16,"""","""","""","""","""","""","""","""",1,3/11/2021 19:48,73.80.90.55,Mozilla/5.0 (Windows NT 10.0; Win64; x64; rv:66.0) Gecko/20100101 Firefox/66.0,,Firefox,66,Windows,10
12,1,null,"""",image-keyboard-response,247,585398,0.0-247.0,jspsych/neutralFaces/BF21NES.JPG,"""",256,backwardMask,Test,null,100,"""","""","""","""","""","""","""","""",1,3/11/2021 19:48,73.80.90.55,Mozilla/5.0 (Windows NT 10.0; Win64; x64; rv:66.0) Gecko/20100101 Firefox/66.0,,Firefox,66,Windows,10
12,1,null,"""",html-keyboard-response,248,586402,0.0-248.0,"<div style=""font-size:60px;"">+</div>","""",256,fixationBtwnNeutralMaskAndPrompt,Test,null,1000,"""","""","""","""","""","""","""","""",1,3/11/2021 19:48,73.80.90.55,Mozilla/5.0 (Windows NT 10.0; Win64; x64; rv:66.0) Gecko/20100101 Firefox/66.0,,Firefox,66,Windows,10
12,1,2534,"""",html-button-response,249,588939,0.0-249.0,"<img src='jspsych/CFDfaces/CFD-BF-009-002-N.jpg' height=""250px"">,</br><b>Kimberly</b>",1,256,IntactOrRearranged,Test,"""","""","""","""",CFD-BM-029-024-N.jpg,Luis,1,"""","""",1,1,3/11/2021 19:48,73.80.90.55,Mozilla/5.0 (Windows NT 10.0; Win64; x64; rv:66.0) Gecko/20100101 Firefox/66.0,,Firefox,66,Windows,10
12,1,3351,"""",html-slider-response,250,592319,0.0-250.0,"<img src='jspsych/CFDfaces/CFD-BF-009-002-N.jpg' height=""250px"">,</br><b>Kimberly</b>","""",256,ConfidenceQuery,Test,"""","""","""","""",CFD-BM-029-024-N.jpg,Luis,1,0,70,"""",1,3/11/2021 19:48,73.80.90.55,Mozilla/5.0 (Windows NT 10.0; Win64; x64; rv:66.0) Gecko/20100101 Firefox/66.0,,Firefox,66,Windows,10
12,1,null,"""",html-keyboard-response,251,593331,0.0-251.0,"<div style=""font-size:60px;"">+</div>","""",256,ITI,Test,null,1000,"""","""","""","""","""","""","""","""",1,3/11/2021 19:48,73.80.90.55,Mozilla/5.0 (Windows NT 10.0; Win64; x64; rv:66.0) Gecko/20100101 Firefox/66.0,,Firefox,66,Windows,10
12,1,null,"""",image-keyboard-response,252,593629,0.0-252.0,jspsych/scrambledNeutralFaces/scrambledBM30NES.JPG,"""",256,forwardMask,Test,null,250,"""",n,"""","""","""","""","""","""",1,3/11/2021 19:48,73.80.90.55,Mozilla/5.0 (Windows NT 10.0; Win64; x64; rv:66.0) Gecko/20100101 Firefox/66.0,,Firefox,66,Windows,10
12,1,null,"""",image-keyboard-response,253,593659,0.0-253.0,jspsych/neutralFaces/BM30NES.JPG,"""",256,Cue,Test,null,16,"""","""","""","""","""","""","""","""",1,3/11/2021 19:48,73.80.90.55,Mozilla/5.0 (Windows NT 10.0; Win64; x64; rv:66.0) Gecko/20100101 Firefox/66.0,,Firefox,66,Windows,10
12,1,null,"""",image-keyboard-response,254,593766,0.0-254.0,jspsych/neutralFaces/AM29NES.JPG,"""",256,backwardMask,Test,null,100,"""","""","""","""","""","""","""","""",1,3/11/2021 19:48,73.80.90.55,Mozilla/5.0 (Windows NT 10.0; Win64; x64; rv:66.0) Gecko/20100101 Firefox/66.0,,Firefox,66,Windows,10
12,1,null,"""",html-keyboard-response,255,594779,0.0-255.0,"<div style=""font-size:60px;"">+</div>","""",256,fixationBtwnNeutralMaskAndPrompt,Test,null,1000,"""","""","""","""","""","""","""","""",1,3/11/2021 19:48,73.80.90.55,Mozilla/5.0 (Windows NT 10.0; Win64; x64; rv:66.0) Gecko/20100101 Firefox/66.0,,Firefox,66,Windows,10
12,1,2515,"""",html-button-response,256,597298,0.0-256.0,"<img src='jspsych/CFDfaces/CFD-LF-208-127-N.jpg' height=""250px"">,</br><b>Andrea</b>",1,256,IntactOrRearranged,Test,"""","""","""","""",CFD-LF-239-148-N.jpg,Heather,1,"""","""",1,1,3/11/2021 19:48,73.80.90.55,Mozilla/5.0 (Windows NT 10.0; Win64; x64; rv:66.0) Gecko/20100101 Firefox/66.0,,Firefox,66,Windows,10
12,1,3401,"""",html-slider-response,257,600722,0.0-257.0,"<img src='jspsych/CFDfaces/CFD-LF-208-127-N.jpg' height=""250px"">,</br><b>Andrea</b>","""",256,ConfidenceQuery,Test,"""","""","""","""",CFD-LF-239-148-N.jpg,Heather,1,0,43,"""",1,3/11/2021 19:48,73.80.90.55,Mozilla/5.0 (Windows NT 10.0; Win64; x64; rv:66.0) Gecko/20100101 Firefox/66.0,,Firefox,66,Windows,10
12,1,null,"""",html-keyboard-response,258,601739,0.0-258.0,"<div style=""font-size:60px;"">+</div>","""",256,ITI,Test,null,1000,"""","""","""","""","""","""","""","""",1,3/11/2021 19:48,73.80.90.55,Mozilla/5.0 (Windows NT 10.0; Win64; x64; rv:66.0) Gecko/20100101 Firefox/66.0,,Firefox,66,Windows,10
12,1,null,"""",image-keyboard-response,259,602053,0.0-259.0,jspsych/scrambledNeutralFaces/scrambledAM31NES.JPG,"""",256,forwardMask,Test,null,250,"""",n,"""","""","""","""","""","""",1,3/11/2021 19:48,73.80.90.55,Mozilla/5.0 (Windows NT 10.0; Win64; x64; rv:66.0) Gecko/20100101 Firefox/66.0,,Firefox,66,Windows,10
12,1,null,"""",image-keyboard-response,260,602085,0.0-260.0,jspsych/neutralFaces/AM31NES.JPG,"""",256,Cue,Test,null,16,"""","""","""","""","""","""","""","""",1,3/11/2021 19:48,73.80.90.55,Mozilla/5.0 (Windows NT 10.0; Win64; x64; rv:66.0) Gecko/20100101 Firefox/66.0,,Firefox,66,Windows,10
12,1,null,"""",image-keyboard-response,261,602209,0.0-261.0,jspsych/neutralFaces/AM02NES.JPG,"""",256,backwardMask,Test,null,100,"""","""","""","""","""","""","""","""",1,3/11/2021 19:48,73.80.90.55,Mozilla/5.0 (Windows NT 10.0; Win64; x64; rv:66.0) Gecko/20100101 Firefox/66.0,,Firefox,66,Windows,10
12,1,null,"""",html-keyboard-response,262,603226,0.0-262.0,"<div style=""font-size:60px;"">+</div>","""",256,fixationBtwnNeutralMaskAndPrompt,Test,null,1000,"""","""","""","""","""","""","""","""",1,3/11/2021 19:48,73.80.90.55,Mozilla/5.0 (Windows NT 10.0; Win64; x64; rv:66.0) Gecko/20100101 Firefox/66.0,,Firefox,66,Windows,10
12,1,3080,"""",html-button-response,263,606310,0.0-263.0,"<img src='jspsych/CFDfaces/CFD-WM-207-048-N.jpg' height=""250px"">,</br><b>Robert</b>",1,256,IntactOrRearranged,Test,"""","""","""","""",CFD-AM-213-056-N.jpg,Jacob,0,"""","""",1,1,3/11/2021 19:48,73.80.90.55,Mozilla/5.0 (Windows NT 10.0; Win64; x64; rv:66.0) Gecko/20100101 Firefox/66.0,,Firefox,66,Windows,10
12,1,3031,"""",html-slider-response,264,609369,0.0-264.0,"<img src='jspsych/CFDfaces/CFD-WM-207-048-N.jpg' height=""250px"">,</br><b>Robert</b>","""",256,ConfidenceQuery,Test,"""","""","""","""",CFD-AM-213-056-N.jpg,Jacob,0,0,30,"""",1,3/11/2021 19:48,73.80.90.55,Mozilla/5.0 (Windows NT 10.0; Win64; x64; rv:66.0) Gecko/20100101 Firefox/66.0,,Firefox,66,Windows,10
12,1,null,"""",html-keyboard-response,265,610375,0.0-265.0,"<div style=""font-size:60px;"">+</div>","""",256,ITI,Test,null,1000,"""","""","""","""","""","""","""","""",1,3/11/2021 19:48,73.80.90.55,Mozilla/5.0 (Windows NT 10.0; Win64; x64; rv:66.0) Gecko/20100101 Firefox/66.0,,Firefox,66,Windows,10
12,1,null,"""",image-keyboard-response,266,610695,0.0-266.0,jspsych/scrambledDisgustFaces/scrambledAF19DIS.JPG,"""",256,forwardMask,Test,null,250,"""",d,"""","""","""","""","""","""",1,3/11/2021 19:48,73.80.90.55,Mozilla/5.0 (Windows NT 10.0; Win64; x64; rv:66.0) Gecko/20100101 Firefox/66.0,,Firefox,66,Windows,10
12,1,null,"""",image-keyboard-response,267,610733,0.0-267.0,jspsych/disgustFaces/AF19DIS.JPG,"""",256,Cue,Test,null,16,"""","""","""","""","""","""","""","""",1,3/11/2021 19:48,73.80.90.55,Mozilla/5.0 (Windows NT 10.0; Win64; x64; rv:66.0) Gecko/20100101 Firefox/66.0,,Firefox,66,Windows,10
12,1,null,"""",image-keyboard-response,268,610847,0.0-268.0,jspsych/neutralFaces/BF20NES.JPG,"""",256,backwardMask,Test,null,100,"""","""","""","""","""","""","""","""",1,3/11/2021 19:48,73.80.90.55,Mozilla/5.0 (Windows NT 10.0; Win64; x64; rv:66.0) Gecko/20100101 Firefox/66.0,,Firefox,66,Windows,10
12,1,null,"""",html-keyboard-response,269,611859,0.0-269.0,"<div style=""font-size:60px;"">+</div>","""",256,fixationBtwnNeutralMaskAndPrompt,Test,null,1000,"""","""","""","""","""","""","""","""",1,3/11/2021 19:48,73.80.90.55,Mozilla/5.0 (Windows NT 10.0; Win64; x64; rv:66.0) Gecko/20100101 Firefox/66.0,,Firefox,66,Windows,10
12,1,3553,"""",html-button-response,270,615416,0.0-270.0,"<img src='jspsych/CFDfaces/CFD-WM-222-057-N.jpg' height=""250px"">,</br><b>James</b>",1,256,IntactOrRearranged,Test,"""","""","""","""",CFD-AF-208-003-N.jpg,Angela,1,"""","""",1,1,3/11/2021 19:48,73.80.90.55,Mozilla/5.0 (Windows NT 10.0; Win64; x64; rv:66.0) Gecko/20100101 Firefox/66.0,,Firefox,66,Windows,10
12,1,3303,"""",html-slider-response,271,618757,0.0-271.0,"<img src='jspsych/CFDfaces/CFD-WM-222-057-N.jpg' height=""250px"">,</br><b>James</b>","""",256,ConfidenceQuery,Test,"""","""","""","""",CFD-AF-208-003-N.jpg,Angela,1,0,52,"""",1,3/11/2021 19:48,73.80.90.55,Mozilla/5.0 (Windows NT 10.0; Win64; x64; rv:66.0) Gecko/20100101 Firefox/66.0,,Firefox,66,Windows,10
12,1,null,"""",html-keyboard-response,272,619769,0.0-272.0,"<div style=""font-size:60px;"">+</div>","""",256,ITI,Test,null,1000,"""","""","""","""","""","""","""","""",1,3/11/2021 19:48,73.80.90.55,Mozilla/5.0 (Windows NT 10.0; Win64; x64; rv:66.0) Gecko/20100101 Firefox/66.0,,Firefox,66,Windows,10
12,1,null,"""",image-keyboard-response,273,620069,0.0-273.0,jspsych/scrambledNeutralFaces/scrambledAM35NES.JPG,"""",256,forwardMask,Test,null,250,"""",n,"""","""","""","""","""","""",1,3/11/2021 19:48,73.80.90.55,Mozilla/5.0 (Windows NT 10.0; Win64; x64; rv:66.0) Gecko/20100101 Firefox/66.0,,Firefox,66,Windows,10
12,1,null,"""",image-keyboard-response,274,620100,0.0-274.0,jspsych/neutralFaces/AM35NES.JPG,"""",256,Cue,Test,null,16,"""","""","""","""","""","""","""","""",1,3/11/2021 19:48,73.80.90.55,Mozilla/5.0 (Windows NT 10.0; Win64; x64; rv:66.0) Gecko/20100101 Firefox/66.0,,Firefox,66,Windows,10
12,1,null,"""",image-keyboard-response,275,620211,0.0-275.0,jspsych/neutralFaces/BM14NES.JPG,"""",256,backwardMask,Test,null,100,"""","""","""","""","""","""","""","""",1,3/11/2021 19:48,73.80.90.55,Mozilla/5.0 (Windows NT 10.0; Win64; x64; rv:66.0) Gecko/20100101 Firefox/66.0,,Firefox,66,Windows,10
12,1,null,"""",html-keyboard-response,276,621232,0.0-276.0,"<div style=""font-size:60px;"">+</div>","""",256,fixationBtwnNeutralMaskAndPrompt,Test,null,1000,"""","""","""","""","""","""","""","""",1,3/11/2021 19:48,73.80.90.55,Mozilla/5.0 (Windows NT 10.0; Win64; x64; rv:66.0) Gecko/20100101 Firefox/66.0,,Firefox,66,Windows,10
12,1,2099,"""",html-button-response,277,623336,0.0-277.0,"<img src='jspsych/CFDfaces/CFD-WM-019-003-N.jpg' height=""250px"">,</br><b>Brian</b>",0,256,IntactOrRearranged,Test,"""","""","""","""",CFD-LF-236-221-N.jpg,Whitney,0,"""","""",0,1,3/11/2021 19:48,73.80.90.55,Mozilla/5.0 (Windows NT 10.0; Win64; x64; rv:66.0) Gecko/20100101 Firefox/66.0,,Firefox,66,Windows,10
12,1,3448,"""",html-slider-response,278,626801,0.0-278.0,"<img src='jspsych/CFDfaces/CFD-WM-019-003-N.jpg' height=""250px"">,</br><b>Brian</b>","""",256,ConfidenceQuery,Test,"""","""","""","""",CFD-LF-236-221-N.jpg,Whitney,0,0,44,"""",1,3/11/2021 19:48,73.80.90.55,Mozilla/5.0 (Windows NT 10.0; Win64; x64; rv:66.0) Gecko/20100101 Firefox/66.0,,Firefox,66,Windows,10
12,1,null,"""",html-keyboard-response,279,627811,0.0-279.0,"<div style=""font-size:60px;"">+</div>","""",256,ITI,Test,null,1000,"""","""","""","""","""","""","""","""",1,3/11/2021 19:48,73.80.90.55,Mozilla/5.0 (Windows NT 10.0; Win64; x64; rv:66.0) Gecko/20100101 Firefox/66.0,,Firefox,66,Windows,10
12,1,null,"""",image-keyboard-response,280,628095,0.0-280.0,jspsych/scrambledDisgustFaces/scrambledAF23DIS.JPG,"""",256,forwardMask,Test,null,250,"""",d,"""","""","""","""","""","""",1,3/11/2021 19:48,73.80.90.55,Mozilla/5.0 (Windows NT 10.0; Win64; x64; rv:66.0) Gecko/20100101 Firefox/66.0,,Firefox,66,Windows,10
12,1,null,"""",image-keyboard-response,281,628124,0.0-281.0,jspsych/disgustFaces/AF23DIS.JPG,"""",256,Cue,Test,null,16,"""","""","""","""","""","""","""","""",1,3/11/2021 19:48,73.80.90.55,Mozilla/5.0 (Windows NT 10.0; Win64; x64; rv:66.0) Gecko/20100101 Firefox/66.0,,Firefox,66,Windows,10
12,1,null,"""",image-keyboard-response,282,628233,0.0-282.0,jspsych/neutralFaces/BF17NES.JPG,"""",256,backwardMask,Test,null,100,"""","""","""","""","""","""","""","""",1,3/11/2021 19:48,73.80.90.55,Mozilla/5.0 (Windows NT 10.0; Win64; x64; rv:66.0) Gecko/20100101 Firefox/66.0,,Firefox,66,Windows,10
12,1,null,"""",html-keyboard-response,283,629243,0.0-283.0,"<div style=""font-size:60px;"">+</div>","""",256,fixationBtwnNeutralMaskAndPrompt,Test,null,1000,"""","""","""","""","""","""","""","""",1,3/11/2021 19:48,73.80.90.55,Mozilla/5.0 (Windows NT 10.0; Win64; x64; rv:66.0) Gecko/20100101 Firefox/66.0,,Firefox,66,Windows,10
12,1,3237,"""",html-button-response,284,632483,0.0-284.0,"<img src='jspsych/CFDfaces/CFD-AF-214-139-N.jpg' height=""250px"">,</br><b>Michelle</b>",0,256,IntactOrRearranged,Test,"""","""","""","""",CFD-WM-022-001-N.jpg,Jesse,0,"""","""",0,1,3/11/2021 19:48,73.80.90.55,Mozilla/5.0 (Windows NT 10.0; Win64; x64; rv:66.0) Gecko/20100101 Firefox/66.0,,Firefox,66,Windows,10
12,1,2856,"""",html-slider-response,285,635365,0.0-285.0,"<img src='jspsych/CFDfaces/CFD-AF-214-139-N.jpg' height=""250px"">,</br><b>Michelle</b>","""",256,ConfidenceQuery,Test,"""","""","""","""",CFD-WM-022-001-N.jpg,Jesse,0,0,18,"""",1,3/11/2021 19:48,73.80.90.55,Mozilla/5.0 (Windows NT 10.0; Win64; x64; rv:66.0) Gecko/20100101 Firefox/66.0,,Firefox,66,Windows,10
12,1,null,"""",html-keyboard-response,286,636378,0.0-286.0,"<div style=""font-size:60px;"">+</div>","""",256,ITI,Test,null,1000,"""","""","""","""","""","""","""","""",1,3/11/2021 19:48,73.80.90.55,Mozilla/5.0 (Windows NT 10.0; Win64; x64; rv:66.0) Gecko/20100101 Firefox/66.0,,Firefox,66,Windows,10
12,1,null,"""",image-keyboard-response,287,636678,0.0-287.0,jspsych/scrambledNeutralFaces/scrambledBM01NES.JPG,"""",256,forwardMask,Test,null,250,"""",n,"""","""","""","""","""","""",1,3/11/2021 19:48,73.80.90.55,Mozilla/5.0 (Windows NT 10.0; Win64; x64; rv:66.0) Gecko/20100101 Firefox/66.0,,Firefox,66,Windows,10
12,1,null,"""",image-keyboard-response,288,636723,0.0-288.0,jspsych/neutralFaces/BM01NES.JPG,"""",256,Cue,Test,null,16,"""","""","""","""","""","""","""","""",1,3/11/2021 19:48,73.80.90.55,Mozilla/5.0 (Windows NT 10.0; Win64; x64; rv:66.0) Gecko/20100101 Firefox/66.0,,Firefox,66,Windows,10
12,1,null,"""",image-keyboard-response,289,636833,0.0-289.0,jspsych/neutralFaces/AM13NES.JPG,"""",256,backwardMask,Test,null,100,"""","""","""","""","""","""","""","""",1,3/11/2021 19:48,73.80.90.55,Mozilla/5.0 (Windows NT 10.0; Win64; x64; rv:66.0) Gecko/20100101 Firefox/66.0,,Firefox,66,Windows,10
12,1,null,"""",html-keyboard-response,290,637852,0.0-290.0,"<div style=""font-size:60px;"">+</div>","""",256,fixationBtwnNeutralMaskAndPrompt,Test,null,1000,"""","""","""","""","""","""","""","""",1,3/11/2021 19:48,73.80.90.55,Mozilla/5.0 (Windows NT 10.0; Win64; x64; rv:66.0) Gecko/20100101 Firefox/66.0,,Firefox,66,Windows,10
12,1,2118,"""",html-button-response,291,639976,0.0-291.0,"<img src='jspsych/CFDfaces/CFD-LM-225-130-N.jpg' height=""250px"">,</br><b>Juan</b>",0,256,IntactOrRearranged,Test,"""","""","""","""",CFD-BF-001-025-N.jpg,Amy,0,"""","""",0,1,3/11/2021 19:48,73.80.90.55,Mozilla/5.0 (Windows NT 10.0; Win64; x64; rv:66.0) Gecko/20100101 Firefox/66.0,,Firefox,66,Windows,10
12,1,3011,"""",html-slider-response,292,643017,0.0-292.0,"<img src='jspsych/CFDfaces/CFD-LM-225-130-N.jpg' height=""250px"">,</br><b>Juan</b>","""",256,ConfidenceQuery,Test,"""","""","""","""",CFD-BF-001-025-N.jpg,Amy,0,0,100,"""",1,3/11/2021 19:48,73.80.90.55,Mozilla/5.0 (Windows NT 10.0; Win64; x64; rv:66.0) Gecko/20100101 Firefox/66.0,,Firefox,66,Windows,10
12,1,null,"""",html-keyboard-response,293,644034,0.0-293.0,"<div style=""font-size:60px;"">+</div>","""",256,ITI,Test,null,1000,"""","""","""","""","""","""","""","""",1,3/11/2021 19:48,73.80.90.55,Mozilla/5.0 (Windows NT 10.0; Win64; x64; rv:66.0) Gecko/20100101 Firefox/66.0,,Firefox,66,Windows,10
12,1,null,"""",image-keyboard-response,294,644343,0.0-294.0,jspsych/scrambledDisgustFaces/scrambledAF34DIS.JPG,"""",256,forwardMask,Test,null,250,"""",d,"""","""","""","""","""","""",1,3/11/2021 19:48,73.80.90.55,Mozilla/5.0 (Windows NT 10.0; Win64; x64; rv:66.0) Gecko/20100101 Firefox/66.0,,Firefox,66,Windows,10
12,1,null,"""",image-keyboard-response,295,644373,0.0-295.0,jspsych/disgustFaces/AF34DIS.JPG,"""",256,Cue,Test,null,16,"""","""","""","""","""","""","""","""",1,3/11/2021 19:48,73.80.90.55,Mozilla/5.0 (Windows NT 10.0; Win64; x64; rv:66.0) Gecko/20100101 Firefox/66.0,,Firefox,66,Windows,10
12,1,null,"""",image-keyboard-response,296,644485,0.0-296.0,jspsych/neutralFaces/BF33NES.JPG,"""",256,backwardMask,Test,null,100,"""","""","""","""","""","""","""","""",1,3/11/2021 19:48,73.80.90.55,Mozilla/5.0 (Windows NT 10.0; Win64; x64; rv:66.0) Gecko/20100101 Firefox/66.0,,Firefox,66,Windows,10
12,1,null,"""",html-keyboard-response,297,645492,0.0-297.0,"<div style=""font-size:60px;"">+</div>","""",256,fixationBtwnNeutralMaskAndPrompt,Test,null,1000,"""","""","""","""","""","""","""","""",1,3/11/2021 19:48,73.80.90.55,Mozilla/5.0 (Windows NT 10.0; Win64; x64; rv:66.0) Gecko/20100101 Firefox/66.0,,Firefox,66,Windows,10
12,1,2788,"""",html-button-response,298,648285,0.0-298.0,"<img src='jspsych/CFDfaces/CFD-BF-201-080-N.jpg' height=""250px"">,</br><b>Julie</b>",1,256,IntactOrRearranged,Test,"""","""","""","""",CFD-BF-039-031-N.jpg,Laura,0,"""","""",1,1,3/11/2021 19:48,73.80.90.55,Mozilla/5.0 (Windows NT 10.0; Win64; x64; rv:66.0) Gecko/20100101 Firefox/66.0,,Firefox,66,Windows,10
12,1,3224,"""",html-slider-response,299,651538,0.0-299.0,"<img src='jspsych/CFDfaces/CFD-BF-201-080-N.jpg' height=""250px"">,</br><b>Julie</b>","""",256,ConfidenceQuery,Test,"""","""","""","""",CFD-BF-039-031-N.jpg,Laura,0,0,27,"""",1,3/11/2021 19:48,73.80.90.55,Mozilla/5.0 (Windows NT 10.0; Win64; x64; rv:66.0) Gecko/20100101 Firefox/66.0,,Firefox,66,Windows,10
12,1,null,"""",html-keyboard-response,300,652545,0.0-300.0,"<div style=""font-size:60px;"">+</div>","""",256,ITI,Test,null,1000,"""","""","""","""","""","""","""","""",1,3/11/2021 19:48,73.80.90.55,Mozilla/5.0 (Windows NT 10.0; Win64; x64; rv:66.0) Gecko/20100101 Firefox/66.0,,Firefox,66,Windows,10
12,1,null,"""",image-keyboard-response,301,652845,0.0-301.0,jspsych/scrambledDisgustFaces/scrambledAM07DIS.JPG,"""",256,forwardMask,Test,null,250,"""",d,"""","""","""","""","""","""",1,3/11/2021 19:48,73.80.90.55,Mozilla/5.0 (Windows NT 10.0; Win64; x64; rv:66.0) Gecko/20100101 Firefox/66.0,,Firefox,66,Windows,10
12,1,null,"""",image-keyboard-response,302,652890,0.0-302.0,jspsych/disgustFaces/AM07DIS.JPG,"""",256,Cue,Test,null,16,"""","""","""","""","""","""","""","""",1,3/11/2021 19:48,73.80.90.55,Mozilla/5.0 (Windows NT 10.0; Win64; x64; rv:66.0) Gecko/20100101 Firefox/66.0,,Firefox,66,Windows,10
