run_id,condition,rt,responses,trial_type,trial_index,time_elapsed,internal_node_id,stimulus,button_pressed,iTrial,Phase,ExperimentPhase,key_press,StimulusDurationSetting,CharacterResponse,correctResponse,Face,Name,rearranged,slider_start,response,didSubjectEnterRearranged,Block,recorded_at,ip,user_agent,device,browser,browser_version,platform,platform_version
6,1,7790,"{""Q0"":""ACJNWSBIVI46H""}",survey-text,0,7798,0.0-0.0,"""","""","""","""","""","""","""","""","""","""","""","""","""","""","""","""",3/11/2021 19:11,71.86.185.24,Mozilla/5.0 (Windows NT 10.0; Win64; x64; rv:86.0) Gecko/20100101 Firefox/86.0,,Firefox,86,Windows,10
6,1,24615,"""",image-button-response,1,32565,0.0-1.0,directionsMemoryAssociation1.JPG,0,1,IntroDirections1,break,"""","""","""","""","""","""","""","""","""","""","""",3/11/2021 19:11,71.86.185.24,Mozilla/5.0 (Windows NT 10.0; Win64; x64; rv:86.0) Gecko/20100101 Firefox/86.0,,Firefox,86,Windows,10
6,1,30138,"""",image-button-response,2,62732,0.0-2.0,directionsMemoryAssociation2.JPG,0,1,IntroDirections2,break,"""","""","""","""","""","""","""","""","""","""","""",3/11/2021 19:11,71.86.185.24,Mozilla/5.0 (Windows NT 10.0; Win64; x64; rv:86.0) Gecko/20100101 Firefox/86.0,,Firefox,86,Windows,10
6,1,4935,"""",html-keyboard-response,3,67752,0.0-3.0,"<img src='jspsych/CFDfaces/CFD-BF-010-001-N.jpg' height=""250px"">,</br><b>Tara</b>","""",1,IntactFace,Practice,78,5000,n,"""","""","""","""","""","""","""","""",3/11/2021 19:11,71.86.185.24,Mozilla/5.0 (Windows NT 10.0; Win64; x64; rv:86.0) Gecko/20100101 Firefox/86.0,,Firefox,86,Windows,10
6,1,null,"""",html-keyboard-response,4,68260,0.0-4.0,"<div style=""font-size:60px;"">+</div>","""",1,ITI,Practice,null,1000,"""","""","""","""","""","""","""","""","""",3/11/2021 19:11,71.86.185.24,Mozilla/5.0 (Windows NT 10.0; Win64; x64; rv:86.0) Gecko/20100101 Firefox/86.0,,Firefox,86,Windows,10
6,1,4970,"""",html-keyboard-response,5,73272,0.0-5.0,"<img src='jspsych/CFDfaces/CFD-WF-006-002-N.jpg' height=""250px"">,</br><b>Shannon</b>","""",2,IntactFace,Practice,70,5000,f,"""","""","""","""","""","""","""","""",3/11/2021 19:11,71.86.185.24,Mozilla/5.0 (Windows NT 10.0; Win64; x64; rv:86.0) Gecko/20100101 Firefox/86.0,,Firefox,86,Windows,10
6,1,null,"""",html-keyboard-response,6,73774,0.0-6.0,"<div style=""font-size:60px;"">+</div>","""",2,ITI,Practice,null,1000,"""","""","""","""","""","""","""","""","""",3/11/2021 19:11,71.86.185.24,Mozilla/5.0 (Windows NT 10.0; Win64; x64; rv:86.0) Gecko/20100101 Firefox/86.0,,Firefox,86,Windows,10
6,1,2531,"""",html-keyboard-response,7,78783,0.0-7.0,"<img src='jspsych/CFDfaces/CFD-LM-201-057-N.jpg' height=""250px"">,</br><b>Patrick</b>","""",3,IntactFace,Practice,70,5000,f,"""","""","""","""","""","""","""","""",3/11/2021 19:11,71.86.185.24,Mozilla/5.0 (Windows NT 10.0; Win64; x64; rv:86.0) Gecko/20100101 Firefox/86.0,,Firefox,86,Windows,10
6,1,null,"""",html-keyboard-response,8,79287,0.0-8.0,"<div style=""font-size:60px;"">+</div>","""",3,ITI,Practice,null,1000,"""","""","""","""","""","""","""","""","""",3/11/2021 19:11,71.86.185.24,Mozilla/5.0 (Windows NT 10.0; Win64; x64; rv:86.0) Gecko/20100101 Firefox/86.0,,Firefox,86,Windows,10
6,1,2568,"""",html-keyboard-response,9,84296,0.0-9.0,"<img src='jspsych/CFDfaces/CFD-WM-034-030-N.jpg' height=""250px"">,</br><b>Marcus</b>","""",4,IntactFace,Practice,78,5000,n,"""","""","""","""","""","""","""","""",3/11/2021 19:11,71.86.185.24,Mozilla/5.0 (Windows NT 10.0; Win64; x64; rv:86.0) Gecko/20100101 Firefox/86.0,,Firefox,86,Windows,10
6,1,null,"""",html-keyboard-response,10,84799,0.0-10.0,"<div style=""font-size:60px;"">+</div>","""",4,ITI,Practice,null,1000,"""","""","""","""","""","""","""","""","""",3/11/2021 19:11,71.86.185.24,Mozilla/5.0 (Windows NT 10.0; Win64; x64; rv:86.0) Gecko/20100101 Firefox/86.0,,Firefox,86,Windows,10
6,1,3705,"""",html-keyboard-response,11,89807,0.0-11.0,"<img src='jspsych/CFDfaces/CFD-BF-221-223-N.jpg' height=""250px"">,</br><b>Cassandra</b>","""",5,IntactFace,Practice,78,5000,n,"""","""","""","""","""","""","""","""",3/11/2021 19:11,71.86.185.24,Mozilla/5.0 (Windows NT 10.0; Win64; x64; rv:86.0) Gecko/20100101 Firefox/86.0,,Firefox,86,Windows,10
6,1,null,"""",html-keyboard-response,12,90311,0.0-12.0,"<div style=""font-size:60px;"">+</div>","""",5,ITI,Practice,null,1000,"""","""","""","""","""","""","""","""","""",3/11/2021 19:11,71.86.185.24,Mozilla/5.0 (Windows NT 10.0; Win64; x64; rv:86.0) Gecko/20100101 Firefox/86.0,,Firefox,86,Windows,10
6,1,2757,"""",html-keyboard-response,13,95319,0.0-13.0,"<img src='jspsych/CFDfaces/CFD-LM-209-111-N.jpg' height=""250px"">,</br><b>Samuel</b>","""",6,IntactFace,Practice,78,5000,n,"""","""","""","""","""","""","""","""",3/11/2021 19:11,71.86.185.24,Mozilla/5.0 (Windows NT 10.0; Win64; x64; rv:86.0) Gecko/20100101 Firefox/86.0,,Firefox,86,Windows,10
6,1,null,"""",html-keyboard-response,14,95821,0.0-14.0,"<div style=""font-size:60px;"">+</div>","""",6,ITI,Practice,null,1000,"""","""","""","""","""","""","""","""","""",3/11/2021 19:11,71.86.185.24,Mozilla/5.0 (Windows NT 10.0; Win64; x64; rv:86.0) Gecko/20100101 Firefox/86.0,,Firefox,86,Windows,10
6,1,3316,"""",html-keyboard-response,15,100831,0.0-15.0,"<img src='jspsych/CFDfaces/CFD-AM-211-052-N.jpg' height=""250px"">,</br><b>Carlos</b>","""",7,IntactFace,Practice,78,5000,n,"""","""","""","""","""","""","""","""",3/11/2021 19:11,71.86.185.24,Mozilla/5.0 (Windows NT 10.0; Win64; x64; rv:86.0) Gecko/20100101 Firefox/86.0,,Firefox,86,Windows,10
6,1,null,"""",html-keyboard-response,16,101334,0.0-16.0,"<div style=""font-size:60px;"">+</div>","""",7,ITI,Practice,null,1000,"""","""","""","""","""","""","""","""","""",3/11/2021 19:11,71.86.185.24,Mozilla/5.0 (Windows NT 10.0; Win64; x64; rv:86.0) Gecko/20100101 Firefox/86.0,,Firefox,86,Windows,10
6,1,1618,"""",html-keyboard-response,17,106342,0.0-17.0,"<img src='jspsych/CFDfaces/CFD-LF-206-078-N.jpg' height=""250px"">,</br><b>Katelyn</b>","""",8,IntactFace,Practice,70,5000,f,"""","""","""","""","""","""","""","""",3/11/2021 19:11,71.86.185.24,Mozilla/5.0 (Windows NT 10.0; Win64; x64; rv:86.0) Gecko/20100101 Firefox/86.0,,Firefox,86,Windows,10
6,1,null,"""",html-keyboard-response,18,106845,0.0-18.0,"<div style=""font-size:60px;"">+</div>","""",8,ITI,Practice,null,1000,"""","""","""","""","""","""","""","""","""",3/11/2021 19:11,71.86.185.24,Mozilla/5.0 (Windows NT 10.0; Win64; x64; rv:86.0) Gecko/20100101 Firefox/86.0,,Firefox,86,Windows,10
6,1,19790,"""",image-button-response,19,126667,0.0-19.0,directionsForTest.JPG,0,1,directionsForTest,break,"""","""","""","""","""","""","""","""","""","""","""",3/11/2021 19:11,71.86.185.24,Mozilla/5.0 (Windows NT 10.0; Win64; x64; rv:86.0) Gecko/20100101 Firefox/86.0,,Firefox,86,Windows,10
6,1,11270,"""",image-button-response,20,137964,0.0-20.0,directionsForTest2.JPG,0,1,directionsForTest2,break,"""","""","""","""","""","""","""","""","""","""","""",3/11/2021 19:11,71.86.185.24,Mozilla/5.0 (Windows NT 10.0; Win64; x64; rv:86.0) Gecko/20100101 Firefox/86.0,,Firefox,86,Windows,10
6,1,null,"""",html-keyboard-response,21,138988,0.0-21.0,"<div style=""font-size:60px;"">+</div>","""",1,ITI,Practice,null,1000,"""","""","""","""","""","""","""","""","""",3/11/2021 19:11,71.86.185.24,Mozilla/5.0 (Windows NT 10.0; Win64; x64; rv:86.0) Gecko/20100101 Firefox/86.0,,Firefox,86,Windows,10
6,1,null,"""",image-keyboard-response,22,139246,0.0-22.0,jspsych/scrambledNeutralFaces/scrambledAF29NES.JPG,"""",1,forwardMask,Practice,null,250,"""",n,"""","""","""","""","""","""","""",3/11/2021 19:11,71.86.185.24,Mozilla/5.0 (Windows NT 10.0; Win64; x64; rv:86.0) Gecko/20100101 Firefox/86.0,,Firefox,86,Windows,10
6,1,null,"""",image-keyboard-response,23,139271,0.0-23.0,jspsych/neutralFaces/AF29NES.JPG,"""",1,Cue,Practice,null,16,"""","""","""","""","""","""","""","""","""",3/11/2021 19:11,71.86.185.24,Mozilla/5.0 (Windows NT 10.0; Win64; x64; rv:86.0) Gecko/20100101 Firefox/86.0,,Firefox,86,Windows,10
6,1,null,"""",image-keyboard-response,24,139381,0.0-24.0,jspsych/neutralFaces/BF04NES.JPG,"""",1,backwardMask,Practice,null,100,"""","""","""","""","""","""","""","""","""",3/11/2021 19:11,71.86.185.24,Mozilla/5.0 (Windows NT 10.0; Win64; x64; rv:86.0) Gecko/20100101 Firefox/86.0,,Firefox,86,Windows,10
6,1,null,"""",html-keyboard-response,25,140384,0.0-25.0,"<div style=""font-size:60px;"">+</div>","""",1,fixationBtwnNeutralMaskAndPrompt,Practice,null,1000,"""","""","""","""","""","""","""","""","""",3/11/2021 19:11,71.86.185.24,Mozilla/5.0 (Windows NT 10.0; Win64; x64; rv:86.0) Gecko/20100101 Firefox/86.0,,Firefox,86,Windows,10
6,1,null,"""",html-button-response,26,145391,0.0-26.0,"<img src='jspsych/CFDfaces/CFD-BF-221-223-N.jpg'height=""250px""></br><b>Katelyn</b>",null,1,IntactOrRearranged,Practice,"""","""","""","""",CFD-BF-221-223-N.jpg,Katelyn,1,"""","""","""","""",3/11/2021 19:11,71.86.185.24,Mozilla/5.0 (Windows NT 10.0; Win64; x64; rv:86.0) Gecko/20100101 Firefox/86.0,,Firefox,86,Windows,10
6,1,null,"""",html-slider-response,27,150414,0.0-27.0,"<img src='jspsych/CFDfaces/CFD-BF-221-223-N.jpg'height=""250px""></br><b>Katelyn</b>","""",1,ConfidenceQuery,Practice,"""","""","""","""",CFD-BF-009-002-N.jpg,Amy,1,0,null,"""","""",3/11/2021 19:11,71.86.185.24,Mozilla/5.0 (Windows NT 10.0; Win64; x64; rv:86.0) Gecko/20100101 Firefox/86.0,,Firefox,86,Windows,10
6,1,4442,"""",html-button-response,28,154862,0.0-28.0,Please click either button: REARRANGED or INTACT. There is a 5 second time-limit!,0,1,feedback,Practice,"""","""","""","""","""","""","""","""","""","""","""",3/11/2021 19:11,71.86.185.24,Mozilla/5.0 (Windows NT 10.0; Win64; x64; rv:86.0) Gecko/20100101 Firefox/86.0,,Firefox,86,Windows,10
6,1,null,"""",html-keyboard-response,29,155876,0.0-29.0,"<div style=""font-size:60px;"">+</div>","""",2,ITI,Practice,null,1000,"""","""","""","""","""","""","""","""","""",3/11/2021 19:11,71.86.185.24,Mozilla/5.0 (Windows NT 10.0; Win64; x64; rv:86.0) Gecko/20100101 Firefox/86.0,,Firefox,86,Windows,10
6,1,null,"""",image-keyboard-response,30,156131,0.0-30.0,jspsych/scrambledNeutralFaces/scrambledAF19NES.JPG,"""",2,forwardMask,Practice,null,250,"""",n,"""","""","""","""","""","""","""",3/11/2021 19:11,71.86.185.24,Mozilla/5.0 (Windows NT 10.0; Win64; x64; rv:86.0) Gecko/20100101 Firefox/86.0,,Firefox,86,Windows,10
6,1,null,"""",image-keyboard-response,31,156154,0.0-31.0,jspsych/neutralFaces/AF19NES.JPG,"""",2,Cue,Practice,null,16,"""","""","""","""","""","""","""","""","""",3/11/2021 19:11,71.86.185.24,Mozilla/5.0 (Windows NT 10.0; Win64; x64; rv:86.0) Gecko/20100101 Firefox/86.0,,Firefox,86,Windows,10
6,1,null,"""",image-keyboard-response,32,156262,0.0-32.0,jspsych/neutralFaces/AF35NES.JPG,"""",2,backwardMask,Practice,null,100,"""","""","""","""","""","""","""","""","""",3/11/2021 19:11,71.86.185.24,Mozilla/5.0 (Windows NT 10.0; Win64; x64; rv:86.0) Gecko/20100101 Firefox/86.0,,Firefox,86,Windows,10
6,1,null,"""",html-keyboard-response,33,157266,0.0-33.0,"<div style=""font-size:60px;"">+</div>","""",2,fixationBtwnNeutralMaskAndPrompt,Practice,null,1000,"""","""","""","""","""","""","""","""","""",3/11/2021 19:11,71.86.185.24,Mozilla/5.0 (Windows NT 10.0; Win64; x64; rv:86.0) Gecko/20100101 Firefox/86.0,,Firefox,86,Windows,10
6,1,4362,"""",html-button-response,34,161631,0.0-34.0,"<img src='jspsych/CFDfaces/CFD-LF-206-078-N.jpg'height=""250px""></br><b>Cassandra</b>",1,2,IntactOrRearranged,Practice,"""","""","""","""",CFD-LF-206-078-N.jpg,Cassandra,1,"""","""",1,"""",3/11/2021 19:11,71.86.185.24,Mozilla/5.0 (Windows NT 10.0; Win64; x64; rv:86.0) Gecko/20100101 Firefox/86.0,,Firefox,86,Windows,10
6,1,3841,"""",html-slider-response,35,165485,0.0-35.0,"<img src='jspsych/CFDfaces/CFD-LF-206-078-N.jpg'height=""250px""></br><b>Cassandra</b>","""",2,ConfidenceQuery,Practice,"""","""","""","""",CFD-BF-009-002-N.jpg,Amy,1,0,74,"""","""",3/11/2021 19:11,71.86.185.24,Mozilla/5.0 (Windows NT 10.0; Win64; x64; rv:86.0) Gecko/20100101 Firefox/86.0,,Firefox,86,Windows,10
6,1,2043,"""",html-button-response,36,167533,0.0-36.0,You are Correct. You Called A Rearranged Pair Rearranged,0,2,feedback,Practice,"""","""","""","""","""","""","""","""","""","""","""",3/11/2021 19:11,71.86.185.24,Mozilla/5.0 (Windows NT 10.0; Win64; x64; rv:86.0) Gecko/20100101 Firefox/86.0,,Firefox,86,Windows,10
6,1,null,"""",html-keyboard-response,37,168540,0.0-37.0,"<div style=""font-size:60px;"">+</div>","""",3,ITI,Practice,null,1000,"""","""","""","""","""","""","""","""","""",3/11/2021 19:11,71.86.185.24,Mozilla/5.0 (Windows NT 10.0; Win64; x64; rv:86.0) Gecko/20100101 Firefox/86.0,,Firefox,86,Windows,10
6,1,null,"""",image-keyboard-response,38,168794,0.0-38.0,jspsych/scrambledDisgustFaces/scrambledAM08DIS.JPG,"""",3,forwardMask,Practice,null,250,"""",d,"""","""","""","""","""","""","""",3/11/2021 19:11,71.86.185.24,Mozilla/5.0 (Windows NT 10.0; Win64; x64; rv:86.0) Gecko/20100101 Firefox/86.0,,Firefox,86,Windows,10
6,1,null,"""",image-keyboard-response,39,168819,0.0-39.0,jspsych/disgustFaces/AM08DIS.JPG,"""",3,Cue,Practice,null,16,"""","""","""","""","""","""","""","""","""",3/11/2021 19:11,71.86.185.24,Mozilla/5.0 (Windows NT 10.0; Win64; x64; rv:86.0) Gecko/20100101 Firefox/86.0,,Firefox,86,Windows,10
6,1,null,"""",image-keyboard-response,40,168927,0.0-40.0,jspsych/neutralFaces/BM06NES.JPG,"""",3,backwardMask,Practice,null,100,"""","""","""","""","""","""","""","""","""",3/11/2021 19:11,71.86.185.24,Mozilla/5.0 (Windows NT 10.0; Win64; x64; rv:86.0) Gecko/20100101 Firefox/86.0,,Firefox,86,Windows,10
6,1,null,"""",html-keyboard-response,41,169928,0.0-41.0,"<div style=""font-size:60px;"">+</div>","""",3,fixationBtwnNeutralMaskAndPrompt,Practice,null,1000,"""","""","""","""","""","""","""","""","""",3/11/2021 19:11,71.86.185.24,Mozilla/5.0 (Windows NT 10.0; Win64; x64; rv:86.0) Gecko/20100101 Firefox/86.0,,Firefox,86,Windows,10
6,1,4832,"""",html-button-response,42,174764,0.0-42.0,"<img src='jspsych/CFDfaces/CFD-WM-034-030-N.jpg'height=""250px""></br><b>Carlos</b>",0,3,IntactOrRearranged,Practice,"""","""","""","""",CFD-WM-034-030-N.jpg,Carlos,1,"""","""",0,"""",3/11/2021 19:11,71.86.185.24,Mozilla/5.0 (Windows NT 10.0; Win64; x64; rv:86.0) Gecko/20100101 Firefox/86.0,,Firefox,86,Windows,10
6,1,2890,"""",html-slider-response,43,177667,0.0-43.0,"<img src='jspsych/CFDfaces/CFD-WM-034-030-N.jpg'height=""250px""></br><b>Carlos</b>","""",3,ConfidenceQuery,Practice,"""","""","""","""",CFD-BF-009-002-N.jpg,Amy,1,0,21,"""","""",3/11/2021 19:11,71.86.185.24,Mozilla/5.0 (Windows NT 10.0; Win64; x64; rv:86.0) Gecko/20100101 Firefox/86.0,,Firefox,86,Windows,10
6,1,1377,"""",html-button-response,44,179049,0.0-44.0,You are Incorrect. You called a Rearranged Pair Intact,0,3,feedback,Practice,"""","""","""","""","""","""","""","""","""","""","""",3/11/2021 19:11,71.86.185.24,Mozilla/5.0 (Windows NT 10.0; Win64; x64; rv:86.0) Gecko/20100101 Firefox/86.0,,Firefox,86,Windows,10
6,1,null,"""",html-keyboard-response,45,180057,0.0-45.0,"<div style=""font-size:60px;"">+</div>","""",4,ITI,Practice,null,1000,"""","""","""","""","""","""","""","""","""",3/11/2021 19:11,71.86.185.24,Mozilla/5.0 (Windows NT 10.0; Win64; x64; rv:86.0) Gecko/20100101 Firefox/86.0,,Firefox,86,Windows,10
6,1,null,"""",image-keyboard-response,46,180312,0.0-46.0,jspsych/scrambledNeutralFaces/scrambledBF02NES.JPG,"""",4,forwardMask,Practice,null,250,"""",n,"""","""","""","""","""","""","""",3/11/2021 19:11,71.86.185.24,Mozilla/5.0 (Windows NT 10.0; Win64; x64; rv:86.0) Gecko/20100101 Firefox/86.0,,Firefox,86,Windows,10
6,1,null,"""",image-keyboard-response,47,180335,0.0-47.0,jspsych/neutralFaces/BF02NES.JPG,"""",4,Cue,Practice,null,16,"""","""","""","""","""","""","""","""","""",3/11/2021 19:11,71.86.185.24,Mozilla/5.0 (Windows NT 10.0; Win64; x64; rv:86.0) Gecko/20100101 Firefox/86.0,,Firefox,86,Windows,10
6,1,null,"""",image-keyboard-response,48,180443,0.0-48.0,jspsych/neutralFaces/AF31NES.JPG,"""",4,backwardMask,Practice,null,100,"""","""","""","""","""","""","""","""","""",3/11/2021 19:11,71.86.185.24,Mozilla/5.0 (Windows NT 10.0; Win64; x64; rv:86.0) Gecko/20100101 Firefox/86.0,,Firefox,86,Windows,10
6,1,null,"""",html-keyboard-response,49,181446,0.0-49.0,"<div style=""font-size:60px;"">+</div>","""",4,fixationBtwnNeutralMaskAndPrompt,Practice,null,1000,"""","""","""","""","""","""","""","""","""",3/11/2021 19:11,71.86.185.24,Mozilla/5.0 (Windows NT 10.0; Win64; x64; rv:86.0) Gecko/20100101 Firefox/86.0,,Firefox,86,Windows,10
6,1,2032,"""",html-button-response,50,183482,0.0-50.0,"<img src='jspsych/CFDfaces/CFD-LM-209-111-N.jpg'height=""250px""></br><b>Samuel</b>",0,4,IntactOrRearranged,Practice,"""","""","""","""",CFD-LM-209-111-N.jpg,Samuel,0,"""","""",0,"""",3/11/2021 19:11,71.86.185.24,Mozilla/5.0 (Windows NT 10.0; Win64; x64; rv:86.0) Gecko/20100101 Firefox/86.0,,Firefox,86,Windows,10
6,1,3026,"""",html-slider-response,51,186519,0.0-51.0,"<img src='jspsych/CFDfaces/CFD-LM-209-111-N.jpg'height=""250px""></br><b>Samuel</b>","""",4,ConfidenceQuery,Practice,"""","""","""","""",CFD-BF-009-002-N.jpg,Amy,0,0,100,"""","""",3/11/2021 19:11,71.86.185.24,Mozilla/5.0 (Windows NT 10.0; Win64; x64; rv:86.0) Gecko/20100101 Firefox/86.0,,Firefox,86,Windows,10
6,1,1507,"""",html-button-response,52,188029,0.0-52.0,You are Correct. You called an Intact Pair Intact,0,4,feedback,Practice,"""","""","""","""","""","""","""","""","""","""","""",3/11/2021 19:11,71.86.185.24,Mozilla/5.0 (Windows NT 10.0; Win64; x64; rv:86.0) Gecko/20100101 Firefox/86.0,,Firefox,86,Windows,10
6,1,null,"""",html-keyboard-response,53,189037,0.0-53.0,"<div style=""font-size:60px;"">+</div>","""",5,ITI,Practice,null,1000,"""","""","""","""","""","""","""","""","""",3/11/2021 19:11,71.86.185.24,Mozilla/5.0 (Windows NT 10.0; Win64; x64; rv:86.0) Gecko/20100101 Firefox/86.0,,Firefox,86,Windows,10
6,1,null,"""",image-keyboard-response,54,189292,0.0-54.0,jspsych/scrambledNeutralFaces/scrambledAM29NES.JPG,"""",5,forwardMask,Practice,null,250,"""",n,"""","""","""","""","""","""","""",3/11/2021 19:11,71.86.185.24,Mozilla/5.0 (Windows NT 10.0; Win64; x64; rv:86.0) Gecko/20100101 Firefox/86.0,,Firefox,86,Windows,10
6,1,null,"""",image-keyboard-response,55,189316,0.0-55.0,jspsych/neutralFaces/AM29NES.JPG,"""",5,Cue,Practice,null,16,"""","""","""","""","""","""","""","""","""",3/11/2021 19:11,71.86.185.24,Mozilla/5.0 (Windows NT 10.0; Win64; x64; rv:86.0) Gecko/20100101 Firefox/86.0,,Firefox,86,Windows,10
6,1,null,"""",image-keyboard-response,56,189423,0.0-56.0,jspsych/neutralFaces/AM06NES.JPG,"""",5,backwardMask,Practice,null,100,"""","""","""","""","""","""","""","""","""",3/11/2021 19:11,71.86.185.24,Mozilla/5.0 (Windows NT 10.0; Win64; x64; rv:86.0) Gecko/20100101 Firefox/86.0,,Firefox,86,Windows,10
6,1,null,"""",html-keyboard-response,57,190426,0.0-57.0,"<div style=""font-size:60px;"">+</div>","""",5,fixationBtwnNeutralMaskAndPrompt,Practice,null,1000,"""","""","""","""","""","""","""","""","""",3/11/2021 19:11,71.86.185.24,Mozilla/5.0 (Windows NT 10.0; Win64; x64; rv:86.0) Gecko/20100101 Firefox/86.0,,Firefox,86,Windows,10
6,1,2557,"""",html-button-response,58,192986,0.0-58.0,"<img src='jspsych/CFDfaces/CFD-LM-201-057-N.jpg'height=""250px""></br><b>Patrick</b>",0,5,IntactOrRearranged,Practice,"""","""","""","""",CFD-LM-201-057-N.jpg,Patrick,0,"""","""",0,"""",3/11/2021 19:11,71.86.185.24,Mozilla/5.0 (Windows NT 10.0; Win64; x64; rv:86.0) Gecko/20100101 Firefox/86.0,,Firefox,86,Windows,10
6,1,2233,"""",html-slider-response,59,195230,0.0-59.0,"<img src='jspsych/CFDfaces/CFD-LM-201-057-N.jpg'height=""250px""></br><b>Patrick</b>","""",5,ConfidenceQuery,Practice,"""","""","""","""",CFD-BF-009-002-N.jpg,Amy,0,0,100,"""","""",3/11/2021 19:11,71.86.185.24,Mozilla/5.0 (Windows NT 10.0; Win64; x64; rv:86.0) Gecko/20100101 Firefox/86.0,,Firefox,86,Windows,10
6,1,1237,"""",html-button-response,60,196469,0.0-60.0,You are Correct. You called an Intact Pair Intact,0,5,feedback,Practice,"""","""","""","""","""","""","""","""","""","""","""",3/11/2021 19:11,71.86.185.24,Mozilla/5.0 (Windows NT 10.0; Win64; x64; rv:86.0) Gecko/20100101 Firefox/86.0,,Firefox,86,Windows,10
6,1,null,"""",html-keyboard-response,61,197478,0.0-61.0,"<div style=""font-size:60px;"">+</div>","""",6,ITI,Practice,null,1000,"""","""","""","""","""","""","""","""","""",3/11/2021 19:11,71.86.185.24,Mozilla/5.0 (Windows NT 10.0; Win64; x64; rv:86.0) Gecko/20100101 Firefox/86.0,,Firefox,86,Windows,10
6,1,null,"""",image-keyboard-response,62,197732,0.0-62.0,jspsych/scrambledDisgustFaces/scrambledAM08DIS.JPG,"""",6,forwardMask,Practice,null,250,"""",d,"""","""","""","""","""","""","""",3/11/2021 19:11,71.86.185.24,Mozilla/5.0 (Windows NT 10.0; Win64; x64; rv:86.0) Gecko/20100101 Firefox/86.0,,Firefox,86,Windows,10
6,1,null,"""",image-keyboard-response,63,197751,0.0-63.0,jspsych/disgustFaces/AM08DIS.JPG,"""",6,Cue,Practice,null,16,"""","""","""","""","""","""","""","""","""",3/11/2021 19:11,71.86.185.24,Mozilla/5.0 (Windows NT 10.0; Win64; x64; rv:86.0) Gecko/20100101 Firefox/86.0,,Firefox,86,Windows,10
6,1,null,"""",image-keyboard-response,64,197859,0.0-64.0,jspsych/neutralFaces/BM34NES.JPG,"""",6,backwardMask,Practice,null,100,"""","""","""","""","""","""","""","""","""",3/11/2021 19:11,71.86.185.24,Mozilla/5.0 (Windows NT 10.0; Win64; x64; rv:86.0) Gecko/20100101 Firefox/86.0,,Firefox,86,Windows,10
6,1,null,"""",html-keyboard-response,65,198862,0.0-65.0,"<div style=""font-size:60px;"">+</div>","""",6,fixationBtwnNeutralMaskAndPrompt,Practice,null,1000,"""","""","""","""","""","""","""","""","""",3/11/2021 19:11,71.86.185.24,Mozilla/5.0 (Windows NT 10.0; Win64; x64; rv:86.0) Gecko/20100101 Firefox/86.0,,Firefox,86,Windows,10
6,1,2775,"""",html-button-response,66,201641,0.0-66.0,"<img src='jspsych/CFDfaces/CFD-AM-211-052-N.jpg'height=""250px""></br><b>Marcus</b>",1,6,IntactOrRearranged,Practice,"""","""","""","""",CFD-AM-211-052-N.jpg,Marcus,1,"""","""",1,"""",3/11/2021 19:11,71.86.185.24,Mozilla/5.0 (Windows NT 10.0; Win64; x64; rv:86.0) Gecko/20100101 Firefox/86.0,,Firefox,86,Windows,10
6,1,1861,"""",html-slider-response,67,203512,0.0-67.0,"<img src='jspsych/CFDfaces/CFD-AM-211-052-N.jpg'height=""250px""></br><b>Marcus</b>","""",6,ConfidenceQuery,Practice,"""","""","""","""",CFD-BF-009-002-N.jpg,Amy,1,0,100,"""","""",3/11/2021 19:11,71.86.185.24,Mozilla/5.0 (Windows NT 10.0; Win64; x64; rv:86.0) Gecko/20100101 Firefox/86.0,,Firefox,86,Windows,10
6,1,985,"""",html-button-response,68,204502,0.0-68.0,You are Correct. You Called A Rearranged Pair Rearranged,0,6,feedback,Practice,"""","""","""","""","""","""","""","""","""","""","""",3/11/2021 19:11,71.86.185.24,Mozilla/5.0 (Windows NT 10.0; Win64; x64; rv:86.0) Gecko/20100101 Firefox/86.0,,Firefox,86,Windows,10
6,1,null,"""",html-keyboard-response,69,205511,0.0-69.0,"<div style=""font-size:60px;"">+</div>","""",7,ITI,Practice,null,1000,"""","""","""","""","""","""","""","""","""",3/11/2021 19:11,71.86.185.24,Mozilla/5.0 (Windows NT 10.0; Win64; x64; rv:86.0) Gecko/20100101 Firefox/86.0,,Firefox,86,Windows,10
6,1,null,"""",image-keyboard-response,70,205766,0.0-70.0,jspsych/scrambledNeutralFaces/scrambledAF18NES.JPG,"""",7,forwardMask,Practice,null,250,"""",n,"""","""","""","""","""","""","""",3/11/2021 19:11,71.86.185.24,Mozilla/5.0 (Windows NT 10.0; Win64; x64; rv:86.0) Gecko/20100101 Firefox/86.0,,Firefox,86,Windows,10
6,1,null,"""",image-keyboard-response,71,205789,0.0-71.0,jspsych/neutralFaces/AF18NES.JPG,"""",7,Cue,Practice,null,16,"""","""","""","""","""","""","""","""","""",3/11/2021 19:11,71.86.185.24,Mozilla/5.0 (Windows NT 10.0; Win64; x64; rv:86.0) Gecko/20100101 Firefox/86.0,,Firefox,86,Windows,10
6,1,null,"""",image-keyboard-response,72,205898,0.0-72.0,jspsych/neutralFaces/BF28NES.JPG,"""",7,backwardMask,Practice,null,100,"""","""","""","""","""","""","""","""","""",3/11/2021 19:11,71.86.185.24,Mozilla/5.0 (Windows NT 10.0; Win64; x64; rv:86.0) Gecko/20100101 Firefox/86.0,,Firefox,86,Windows,10
6,1,null,"""",html-keyboard-response,73,206900,0.0-73.0,"<div style=""font-size:60px;"">+</div>","""",7,fixationBtwnNeutralMaskAndPrompt,Practice,null,1000,"""","""","""","""","""","""","""","""","""",3/11/2021 19:11,71.86.185.24,Mozilla/5.0 (Windows NT 10.0; Win64; x64; rv:86.0) Gecko/20100101 Firefox/86.0,,Firefox,86,Windows,10
6,1,2597,"""",html-button-response,74,209501,0.0-74.0,"<img src='jspsych/CFDfaces/CFD-BF-010-001-N.jpg'height=""250px""></br><b>Tara</b>",0,7,IntactOrRearranged,Practice,"""","""","""","""",CFD-BF-010-001-N.jpg,Tara,0,"""","""",0,"""",3/11/2021 19:11,71.86.185.24,Mozilla/5.0 (Windows NT 10.0; Win64; x64; rv:86.0) Gecko/20100101 Firefox/86.0,,Firefox,86,Windows,10
6,1,1938,"""",html-slider-response,75,211449,0.0-75.0,"<img src='jspsych/CFDfaces/CFD-BF-010-001-N.jpg'height=""250px""></br><b>Tara</b>","""",7,ConfidenceQuery,Practice,"""","""","""","""",CFD-BF-009-002-N.jpg,Amy,0,0,66,"""","""",3/11/2021 19:11,71.86.185.24,Mozilla/5.0 (Windows NT 10.0; Win64; x64; rv:86.0) Gecko/20100101 Firefox/86.0,,Firefox,86,Windows,10
6,1,1142,"""",html-button-response,76,212595,0.0-76.0,You are Correct. You called an Intact Pair Intact,0,7,feedback,Practice,"""","""","""","""","""","""","""","""","""","""","""",3/11/2021 19:11,71.86.185.24,Mozilla/5.0 (Windows NT 10.0; Win64; x64; rv:86.0) Gecko/20100101 Firefox/86.0,,Firefox,86,Windows,10
6,1,null,"""",html-keyboard-response,77,213605,0.0-77.0,"<div style=""font-size:60px;"">+</div>","""",8,ITI,Practice,null,1000,"""","""","""","""","""","""","""","""","""",3/11/2021 19:11,71.86.185.24,Mozilla/5.0 (Windows NT 10.0; Win64; x64; rv:86.0) Gecko/20100101 Firefox/86.0,,Firefox,86,Windows,10
6,1,null,"""",image-keyboard-response,78,213859,0.0-78.0,jspsych/scrambledNeutralFaces/scrambledAM07NES.JPG,"""",8,forwardMask,Practice,null,250,"""",n,"""","""","""","""","""","""","""",3/11/2021 19:11,71.86.185.24,Mozilla/5.0 (Windows NT 10.0; Win64; x64; rv:86.0) Gecko/20100101 Firefox/86.0,,Firefox,86,Windows,10
6,1,null,"""",image-keyboard-response,79,213883,0.0-79.0,jspsych/neutralFaces/AM07NES.JPG,"""",8,Cue,Practice,null,16,"""","""","""","""","""","""","""","""","""",3/11/2021 19:11,71.86.185.24,Mozilla/5.0 (Windows NT 10.0; Win64; x64; rv:86.0) Gecko/20100101 Firefox/86.0,,Firefox,86,Windows,10
6,1,null,"""",image-keyboard-response,80,213990,0.0-80.0,jspsych/neutralFaces/BM22NES.JPG,"""",8,backwardMask,Practice,null,100,"""","""","""","""","""","""","""","""","""",3/11/2021 19:11,71.86.185.24,Mozilla/5.0 (Windows NT 10.0; Win64; x64; rv:86.0) Gecko/20100101 Firefox/86.0,,Firefox,86,Windows,10
6,1,null,"""",html-keyboard-response,81,214992,0.0-81.0,"<div style=""font-size:60px;"">+</div>","""",8,fixationBtwnNeutralMaskAndPrompt,Practice,null,1000,"""","""","""","""","""","""","""","""","""",3/11/2021 19:11,71.86.185.24,Mozilla/5.0 (Windows NT 10.0; Win64; x64; rv:86.0) Gecko/20100101 Firefox/86.0,,Firefox,86,Windows,10
6,1,2846,"""",html-button-response,82,217841,0.0-82.0,"<img src='jspsych/CFDfaces/CFD-WF-006-002-N.jpg'height=""250px""></br><b>Shannon</b>",0,8,IntactOrRearranged,Practice,"""","""","""","""",CFD-WF-006-002-N.jpg,Shannon,0,"""","""",0,"""",3/11/2021 19:11,71.86.185.24,Mozilla/5.0 (Windows NT 10.0; Win64; x64; rv:86.0) Gecko/20100101 Firefox/86.0,,Firefox,86,Windows,10
6,1,2159,"""",html-slider-response,83,220013,0.0-83.0,"<img src='jspsych/CFDfaces/CFD-WF-006-002-N.jpg'height=""250px""></br><b>Shannon</b>","""",8,ConfidenceQuery,Practice,"""","""","""","""",CFD-BF-009-002-N.jpg,Amy,0,0,85,"""","""",3/11/2021 19:11,71.86.185.24,Mozilla/5.0 (Windows NT 10.0; Win64; x64; rv:86.0) Gecko/20100101 Firefox/86.0,,Firefox,86,Windows,10
6,1,1444,"""",html-button-response,84,221461,0.0-84.0,You are Correct. You called an Intact Pair Intact,0,8,feedback,Practice,"""","""","""","""","""","""","""","""","""","""","""",3/11/2021 19:11,71.86.185.24,Mozilla/5.0 (Windows NT 10.0; Win64; x64; rv:86.0) Gecko/20100101 Firefox/86.0,,Firefox,86,Windows,10
6,1,9716,"""",image-button-response,85,231205,0.0-85.0,directionsMemoryAssociation3.JPG,0,128,DirectionsBeforeActualTEst,Break,"""","""","""","""","""","""","""","""","""","""","""",3/11/2021 19:11,71.86.185.24,Mozilla/5.0 (Windows NT 10.0; Win64; x64; rv:86.0) Gecko/20100101 Firefox/86.0,,Firefox,86,Windows,10
6,1,2382,"""",image-button-response,86,233616,0.0-86.0,directionsForTest2.JPG,0,1,directionsForTest2,break,"""","""","""","""","""","""","""","""","""","""","""",3/11/2021 19:11,71.86.185.24,Mozilla/5.0 (Windows NT 10.0; Win64; x64; rv:86.0) Gecko/20100101 Firefox/86.0,,Firefox,86,Windows,10
6,1,36053,"""",html-button-response,87,269672,0.0-87.0,"<p>You will be asked to memorize and then recall four sets of face-name pairs. </p> <p> Each set will have 32 pairs. </p> <p>After the fourth set, there will be a brief follow-up experiment (<40 min alltogether)</p>",0,"""","""","""","""","""","""","""","""","""","""","""","""","""","""",3/11/2021 19:11,71.86.185.24,Mozilla/5.0 (Windows NT 10.0; Win64; x64; rv:86.0) Gecko/20100101 Firefox/86.0,,Firefox,86,Windows,10
6,1,2774,"""",html-keyboard-response,88,274683,0.0-88.0,"<img src='jspsych/CFDfaces/CFD-AM-213-056-N.jpg' height=""250px""></br><b>Peter</b>","""",256,IntactFace,Memorization,78,5000,n,"""",CFD-BF-009-002-N.jpg,Amy,0,"""","""","""",1,3/11/2021 19:11,71.86.185.24,Mozilla/5.0 (Windows NT 10.0; Win64; x64; rv:86.0) Gecko/20100101 Firefox/86.0,,Firefox,86,Windows,10
6,1,null,"""",html-keyboard-response,89,275186,0.0-89.0,"<div style=""font-size:60px;"">+</div>","""",256,fixation,Memorization,null,500,"""","""","""","""","""","""","""","""",1,3/11/2021 19:11,71.86.185.24,Mozilla/5.0 (Windows NT 10.0; Win64; x64; rv:86.0) Gecko/20100101 Firefox/86.0,,Firefox,86,Windows,10
6,1,2376,"""",html-keyboard-response,90,280195,0.0-90.0,"<img src='jspsych/CFDfaces/CFD-LF-210-220-N.jpg' height=""250px""></br><b>Vanessa</b>","""",256,IntactFace,Memorization,78,5000,n,"""",CFD-LF-230-203-N.jpg,Angela,0,"""","""","""",1,3/11/2021 19:11,71.86.185.24,Mozilla/5.0 (Windows NT 10.0; Win64; x64; rv:86.0) Gecko/20100101 Firefox/86.0,,Firefox,86,Windows,10
6,1,null,"""",html-keyboard-response,91,280698,0.0-91.0,"<div style=""font-size:60px;"">+</div>","""",256,fixation,Memorization,null,500,"""","""","""","""","""","""","""","""",1,3/11/2021 19:11,71.86.185.24,Mozilla/5.0 (Windows NT 10.0; Win64; x64; rv:86.0) Gecko/20100101 Firefox/86.0,,Firefox,86,Windows,10
6,1,2718,"""",html-keyboard-response,92,285707,0.0-92.0,"<img src='jspsych/CFDfaces/CFD-AM-248-104-N.jpg' height=""250px""></br><b>Eric</b>","""",256,IntactFace,Memorization,78,5000,n,"""",CFD-BM-002-013-N.jpg,Jacob,0,"""","""","""",1,3/11/2021 19:11,71.86.185.24,Mozilla/5.0 (Windows NT 10.0; Win64; x64; rv:86.0) Gecko/20100101 Firefox/86.0,,Firefox,86,Windows,10
6,1,null,"""",html-keyboard-response,93,286210,0.0-93.0,"<div style=""font-size:60px;"">+</div>","""",256,fixation,Memorization,null,500,"""","""","""","""","""","""","""","""",1,3/11/2021 19:11,71.86.185.24,Mozilla/5.0 (Windows NT 10.0; Win64; x64; rv:86.0) Gecko/20100101 Firefox/86.0,,Firefox,86,Windows,10
6,1,3118,"""",html-keyboard-response,94,291220,0.0-94.0,"<img src='jspsych/CFDfaces/CFD-AM-237-154-N.jpg' height=""250px""></br><b>Nicholas</b>","""",256,IntactFace,Memorization,78,5000,n,"""",CFD-AF-214-139-N.jpg,Whitney,0,"""","""","""",1,3/11/2021 19:11,71.86.185.24,Mozilla/5.0 (Windows NT 10.0; Win64; x64; rv:86.0) Gecko/20100101 Firefox/86.0,,Firefox,86,Windows,10
6,1,null,"""",html-keyboard-response,95,291724,0.0-95.0,"<div style=""font-size:60px;"">+</div>","""",256,fixation,Memorization,null,500,"""","""","""","""","""","""","""","""",1,3/11/2021 19:11,71.86.185.24,Mozilla/5.0 (Windows NT 10.0; Win64; x64; rv:86.0) Gecko/20100101 Firefox/86.0,,Firefox,86,Windows,10
6,1,3491,"""",html-keyboard-response,96,296733,0.0-96.0,"<img src='jspsych/CFDfaces/CFD-AF-241-141-N.jpg' height=""250px""></br><b>Brittany</b>","""",256,IntactFace,Memorization,70,5000,f,"""",CFD-AF-222-134-N.jpg,Lauren,0,"""","""","""",1,3/11/2021 19:11,71.86.185.24,Mozilla/5.0 (Windows NT 10.0; Win64; x64; rv:86.0) Gecko/20100101 Firefox/86.0,,Firefox,86,Windows,10
6,1,null,"""",html-keyboard-response,97,297237,0.0-97.0,"<div style=""font-size:60px;"">+</div>","""",256,fixation,Memorization,null,500,"""","""","""","""","""","""","""","""",1,3/11/2021 19:11,71.86.185.24,Mozilla/5.0 (Windows NT 10.0; Win64; x64; rv:86.0) Gecko/20100101 Firefox/86.0,,Firefox,86,Windows,10
6,1,2242,"""",html-keyboard-response,98,302247,0.0-98.0,"<img src='jspsych/CFDfaces/CFD-BM-011-016-N.jpg' height=""250px""></br><b>James</b>","""",256,IntactFace,Memorization,70,5000,f,"""",CFD-WF-200-099-N.jpg,Laura,0,"""","""","""",1,3/11/2021 19:11,71.86.185.24,Mozilla/5.0 (Windows NT 10.0; Win64; x64; rv:86.0) Gecko/20100101 Firefox/86.0,,Firefox,86,Windows,10
6,1,null,"""",html-keyboard-response,99,302751,0.0-99.0,"<div style=""font-size:60px;"">+</div>","""",256,fixation,Memorization,null,500,"""","""","""","""","""","""","""","""",1,3/11/2021 19:11,71.86.185.24,Mozilla/5.0 (Windows NT 10.0; Win64; x64; rv:86.0) Gecko/20100101 Firefox/86.0,,Firefox,86,Windows,10
6,1,2658,"""",html-keyboard-response,100,307764,0.0-100.0,"<img src='jspsych/CFDfaces/CFD-AF-240-206-N.jpg' height=""250px""></br><b>Meghan</b>","""",256,IntactFace,Memorization,70,5000,f,"""",CFD-WM-015-002-N.jpg,Kenneth,0,"""","""","""",1,3/11/2021 19:11,71.86.185.24,Mozilla/5.0 (Windows NT 10.0; Win64; x64; rv:86.0) Gecko/20100101 Firefox/86.0,,Firefox,86,Windows,10
6,1,null,"""",html-keyboard-response,101,308267,0.0-101.0,"<div style=""font-size:60px;"">+</div>","""",256,fixation,Memorization,null,500,"""","""","""","""","""","""","""","""",1,3/11/2021 19:11,71.86.185.24,Mozilla/5.0 (Windows NT 10.0; Win64; x64; rv:86.0) Gecko/20100101 Firefox/86.0,,Firefox,86,Windows,10
6,1,2343,"""",html-keyboard-response,102,313281,0.0-102.0,"<img src='jspsych/CFDfaces/CFD-WM-222-057-N.jpg' height=""250px""></br><b>Joshua</b>","""",256,IntactFace,Memorization,70,5000,f,"""",CFD-WF-223-133-N.jpg,Jordan,0,"""","""","""",1,3/11/2021 19:11,71.86.185.24,Mozilla/5.0 (Windows NT 10.0; Win64; x64; rv:86.0) Gecko/20100101 Firefox/86.0,,Firefox,86,Windows,10
6,1,null,"""",html-keyboard-response,103,313783,0.0-103.0,"<div style=""font-size:60px;"">+</div>","""",256,fixation,Memorization,null,500,"""","""","""","""","""","""","""","""",1,3/11/2021 19:11,71.86.185.24,Mozilla/5.0 (Windows NT 10.0; Win64; x64; rv:86.0) Gecko/20100101 Firefox/86.0,,Firefox,86,Windows,10
6,1,2844,"""",html-keyboard-response,104,318795,0.0-104.0,"<img src='jspsych/CFDfaces/CFD-WF-217-085-N.jpg' height=""250px""></br><b>Christina</b>","""",256,IntactFace,Memorization,70,5000,f,"""",CFD-BM-010-003-N.jpg,Travis,0,"""","""","""",1,3/11/2021 19:11,71.86.185.24,Mozilla/5.0 (Windows NT 10.0; Win64; x64; rv:86.0) Gecko/20100101 Firefox/86.0,,Firefox,86,Windows,10
6,1,null,"""",html-keyboard-response,105,319297,0.0-105.0,"<div style=""font-size:60px;"">+</div>","""",256,fixation,Memorization,null,500,"""","""","""","""","""","""","""","""",1,3/11/2021 19:11,71.86.185.24,Mozilla/5.0 (Windows NT 10.0; Win64; x64; rv:86.0) Gecko/20100101 Firefox/86.0,,Firefox,86,Windows,10
6,1,3117,"""",html-keyboard-response,106,324308,0.0-106.0,"<img src='jspsych/CFDfaces/CFD-AM-220-134-N.jpg' height=""250px""></br><b>Christian</b>","""",256,IntactFace,Memorization,78,5000,n,"""",CFD-LF-232-199-N.jpg,Lindsey,0,"""","""","""",1,3/11/2021 19:11,71.86.185.24,Mozilla/5.0 (Windows NT 10.0; Win64; x64; rv:86.0) Gecko/20100101 Firefox/86.0,,Firefox,86,Windows,10
6,1,null,"""",html-keyboard-response,107,324810,0.0-107.0,"<div style=""font-size:60px;"">+</div>","""",256,fixation,Memorization,null,500,"""","""","""","""","""","""","""","""",1,3/11/2021 19:11,71.86.185.24,Mozilla/5.0 (Windows NT 10.0; Win64; x64; rv:86.0) Gecko/20100101 Firefox/86.0,,Firefox,86,Windows,10
6,1,2018,"""",html-keyboard-response,108,329822,0.0-108.0,"<img src='jspsych/CFDfaces/CFD-LF-231-260-N.jpg' height=""250px""></br><b>Amanda</b>","""",256,IntactFace,Memorization,78,5000,n,"""",CFD-AF-237-223-N.jpg,Heather,0,"""","""","""",1,3/11/2021 19:11,71.86.185.24,Mozilla/5.0 (Windows NT 10.0; Win64; x64; rv:86.0) Gecko/20100101 Firefox/86.0,,Firefox,86,Windows,10
6,1,null,"""",html-keyboard-response,109,330324,0.0-109.0,"<div style=""font-size:60px;"">+</div>","""",256,fixation,Memorization,null,500,"""","""","""","""","""","""","""","""",1,3/11/2021 19:11,71.86.185.24,Mozilla/5.0 (Windows NT 10.0; Win64; x64; rv:86.0) Gecko/20100101 Firefox/86.0,,Firefox,86,Windows,10
6,1,2204,"""",html-keyboard-response,110,335335,0.0-110.0,"<img src='jspsych/CFDfaces/CFD-AM-221-184-N.jpg' height=""250px""></br><b>Brandon</b>","""",256,IntactFace,Memorization,70,5000,f,"""",CFD-LM-223-175-N.jpg,Jesse,0,"""","""","""",1,3/11/2021 19:11,71.86.185.24,Mozilla/5.0 (Windows NT 10.0; Win64; x64; rv:86.0) Gecko/20100101 Firefox/86.0,,Firefox,86,Windows,10
6,1,null,"""",html-keyboard-response,111,335839,0.0-111.0,"<div style=""font-size:60px;"">+</div>","""",256,fixation,Memorization,null,500,"""","""","""","""","""","""","""","""",1,3/11/2021 19:11,71.86.185.24,Mozilla/5.0 (Windows NT 10.0; Win64; x64; rv:86.0) Gecko/20100101 Firefox/86.0,,Firefox,86,Windows,10
6,1,3135,"""",html-keyboard-response,112,340849,0.0-112.0,"<img src='jspsych/CFDfaces/CFD-AF-226-251-N.jpg' height=""250px""></br><b>Stephanie</b>","""",256,IntactFace,Memorization,78,5000,n,"""",CFD-BM-203-001-N.jpg,Jeremy,0,"""","""","""",1,3/11/2021 19:11,71.86.185.24,Mozilla/5.0 (Windows NT 10.0; Win64; x64; rv:86.0) Gecko/20100101 Firefox/86.0,,Firefox,86,Windows,10
6,1,null,"""",html-keyboard-response,113,341352,0.0-113.0,"<div style=""font-size:60px;"">+</div>","""",256,fixation,Memorization,null,500,"""","""","""","""","""","""","""","""",1,3/11/2021 19:11,71.86.185.24,Mozilla/5.0 (Windows NT 10.0; Win64; x64; rv:86.0) Gecko/20100101 Firefox/86.0,,Firefox,86,Windows,10
6,1,1734,"""",html-keyboard-response,114,346365,0.0-114.0,"<img src='jspsych/CFDfaces/CFD-WM-207-048-N.jpg' height=""250px""></br><b>Robert</b>","""",256,IntactFace,Memorization,70,5000,f,"""",CFD-BF-016-017-N.jpg,Tiffany,0,"""","""","""",1,3/11/2021 19:11,71.86.185.24,Mozilla/5.0 (Windows NT 10.0; Win64; x64; rv:86.0) Gecko/20100101 Firefox/86.0,,Firefox,86,Windows,10
6,1,null,"""",html-keyboard-response,115,346868,0.0-115.0,"<div style=""font-size:60px;"">+</div>","""",256,fixation,Memorization,null,500,"""","""","""","""","""","""","""","""",1,3/11/2021 19:11,71.86.185.24,Mozilla/5.0 (Windows NT 10.0; Win64; x64; rv:86.0) Gecko/20100101 Firefox/86.0,,Firefox,86,Windows,10
6,1,1939,"""",html-keyboard-response,116,351880,0.0-116.0,"<img src='jspsych/CFDfaces/CFD-WF-029-002-N.jpg' height=""250px""></br><b>Victoria</b>","""",256,IntactFace,Memorization,70,5000,f,"""",CFD-BF-218-207-N.jpg,Jasmine,0,"""","""","""",1,3/11/2021 19:11,71.86.185.24,Mozilla/5.0 (Windows NT 10.0; Win64; x64; rv:86.0) Gecko/20100101 Firefox/86.0,,Firefox,86,Windows,10
6,1,null,"""",html-keyboard-response,117,352382,0.0-117.0,"<div style=""font-size:60px;"">+</div>","""",256,fixation,Memorization,null,500,"""","""","""","""","""","""","""","""",1,3/11/2021 19:11,71.86.185.24,Mozilla/5.0 (Windows NT 10.0; Win64; x64; rv:86.0) Gecko/20100101 Firefox/86.0,,Firefox,86,Windows,10
6,1,2009,"""",html-keyboard-response,118,357395,0.0-118.0,"<img src='jspsych/CFDfaces/CFD-LF-204-133-N.jpg' height=""250px""></br><b>Andrea</b>","""",256,IntactFace,Memorization,70,5000,f,"""",CFD-LM-200-045-N.jpg,Justin,0,"""","""","""",1,3/11/2021 19:11,71.86.185.24,Mozilla/5.0 (Windows NT 10.0; Win64; x64; rv:86.0) Gecko/20100101 Firefox/86.0,,Firefox,86,Windows,10
6,1,null,"""",html-keyboard-response,119,357898,0.0-119.0,"<div style=""font-size:60px;"">+</div>","""",256,fixation,Memorization,null,500,"""","""","""","""","""","""","""","""",1,3/11/2021 19:11,71.86.185.24,Mozilla/5.0 (Windows NT 10.0; Win64; x64; rv:86.0) Gecko/20100101 Firefox/86.0,,Firefox,86,Windows,10
6,1,2335,"""",html-keyboard-response,120,362909,0.0-120.0,"<img src='jspsych/CFDfaces/CFD-BM-017-021-N.jpg' height=""250px""></br><b>Jason</b>","""",256,IntactFace,Memorization,78,5000,n,"""",CFD-AF-233-190-N.jpg,Erin,0,"""","""","""",1,3/11/2021 19:11,71.86.185.24,Mozilla/5.0 (Windows NT 10.0; Win64; x64; rv:86.0) Gecko/20100101 Firefox/86.0,,Firefox,86,Windows,10
6,1,null,"""",html-keyboard-response,121,363411,0.0-121.0,"<div style=""font-size:60px;"">+</div>","""",256,fixation,Memorization,null,500,"""","""","""","""","""","""","""","""",1,3/11/2021 19:11,71.86.185.24,Mozilla/5.0 (Windows NT 10.0; Win64; x64; rv:86.0) Gecko/20100101 Firefox/86.0,,Firefox,86,Windows,10
6,1,3130,"""",html-keyboard-response,122,368423,0.0-122.0,"<img src='jspsych/CFDfaces/CFD-LF-208-127-N.jpg' height=""250px""></br><b>Kayla</b>","""",256,IntactFace,Memorization,78,5000,n,"""",CFD-AM-202-079-N.jpg,Vincent,0,"""","""","""",1,3/11/2021 19:11,71.86.185.24,Mozilla/5.0 (Windows NT 10.0; Win64; x64; rv:86.0) Gecko/20100101 Firefox/86.0,,Firefox,86,Windows,10
6,1,null,"""",html-keyboard-response,123,368925,0.0-123.0,"<div style=""font-size:60px;"">+</div>","""",256,fixation,Memorization,null,500,"""","""","""","""","""","""","""","""",1,3/11/2021 19:11,71.86.185.24,Mozilla/5.0 (Windows NT 10.0; Win64; x64; rv:86.0) Gecko/20100101 Firefox/86.0,,Firefox,86,Windows,10
6,1,3124,"""",html-keyboard-response,124,373936,0.0-124.0,"<img src='jspsych/CFDfaces/CFD-AF-220-107-N.jpg' height=""250px""></br><b>Emily</b>","""",256,IntactFace,Memorization,78,5000,n,"""",CFD-BM-026-002-N.jpg,Timothy,0,"""","""","""",1,3/11/2021 19:11,71.86.185.24,Mozilla/5.0 (Windows NT 10.0; Win64; x64; rv:86.0) Gecko/20100101 Firefox/86.0,,Firefox,86,Windows,10
6,1,null,"""",html-keyboard-response,125,374440,0.0-125.0,"<div style=""font-size:60px;"">+</div>","""",256,fixation,Memorization,null,500,"""","""","""","""","""","""","""","""",1,3/11/2021 19:11,71.86.185.24,Mozilla/5.0 (Windows NT 10.0; Win64; x64; rv:86.0) Gecko/20100101 Firefox/86.0,,Firefox,86,Windows,10
6,1,1795,"""",html-keyboard-response,126,379452,0.0-126.0,"<img src='jspsych/CFDfaces/CFD-AF-208-003-N.jpg' height=""250px""></br><b>Kimberly</b>","""",256,IntactFace,Memorization,78,5000,n,"""",CFD-WM-011-002-N.jpg,Mark,0,"""","""","""",1,3/11/2021 19:11,71.86.185.24,Mozilla/5.0 (Windows NT 10.0; Win64; x64; rv:86.0) Gecko/20100101 Firefox/86.0,,Firefox,86,Windows,10
6,1,null,"""",html-keyboard-response,127,379955,0.0-127.0,"<div style=""font-size:60px;"">+</div>","""",256,fixation,Memorization,null,500,"""","""","""","""","""","""","""","""",1,3/11/2021 19:11,71.86.185.24,Mozilla/5.0 (Windows NT 10.0; Win64; x64; rv:86.0) Gecko/20100101 Firefox/86.0,,Firefox,86,Windows,10
6,1,1347,"""",html-keyboard-response,128,384968,0.0-128.0,"<img src='jspsych/CFDfaces/CFD-LM-248-089-N.jpg' height=""250px""></br><b>Jeffrey</b>","""",256,IntactFace,Memorization,70,5000,f,"""",CFD-LF-213-079-N.jpg,Jenna,0,"""","""","""",1,3/11/2021 19:11,71.86.185.24,Mozilla/5.0 (Windows NT 10.0; Win64; x64; rv:86.0) Gecko/20100101 Firefox/86.0,,Firefox,86,Windows,10
6,1,null,"""",html-keyboard-response,129,385471,0.0-129.0,"<div style=""font-size:60px;"">+</div>","""",256,fixation,Memorization,null,500,"""","""","""","""","""","""","""","""",1,3/11/2021 19:11,71.86.185.24,Mozilla/5.0 (Windows NT 10.0; Win64; x64; rv:86.0) Gecko/20100101 Firefox/86.0,,Firefox,86,Windows,10
6,1,2031,"""",html-keyboard-response,130,390484,0.0-130.0,"<img src='jspsych/CFDfaces/CFD-AF-215-70-N.jpg' height=""250px""></br><b>Julie</b>","""",256,IntactFace,Memorization,78,5000,n,"""",CFD-WM-020-001-N.jpg,Dustin,0,"""","""","""",1,3/11/2021 19:11,71.86.185.24,Mozilla/5.0 (Windows NT 10.0; Win64; x64; rv:86.0) Gecko/20100101 Firefox/86.0,,Firefox,86,Windows,10
6,1,null,"""",html-keyboard-response,131,390986,0.0-131.0,"<div style=""font-size:60px;"">+</div>","""",256,fixation,Memorization,null,500,"""","""","""","""","""","""","""","""",1,3/11/2021 19:11,71.86.185.24,Mozilla/5.0 (Windows NT 10.0; Win64; x64; rv:86.0) Gecko/20100101 Firefox/86.0,,Firefox,86,Windows,10
6,1,1973,"""",html-keyboard-response,132,395998,0.0-132.0,"<img src='jspsych/CFDfaces/CFD-WM-019-003-N.jpg' height=""250px""></br><b>Juan</b>","""",256,IntactFace,Memorization,78,5000,n,"""",CFD-AM-212-050-N.jpg,Sean,0,"""","""","""",1,3/11/2021 19:11,71.86.185.24,Mozilla/5.0 (Windows NT 10.0; Win64; x64; rv:86.0) Gecko/20100101 Firefox/86.0,,Firefox,86,Windows,10
6,1,null,"""",html-keyboard-response,133,396500,0.0-133.0,"<div style=""font-size:60px;"">+</div>","""",256,fixation,Memorization,null,500,"""","""","""","""","""","""","""","""",1,3/11/2021 19:11,71.86.185.24,Mozilla/5.0 (Windows NT 10.0; Win64; x64; rv:86.0) Gecko/20100101 Firefox/86.0,,Firefox,86,Windows,10
6,1,2932,"""",html-keyboard-response,134,401512,0.0-134.0,"<img src='jspsych/CFDfaces/CFD-BF-039-031-N.jpg' height=""250px""></br><b>Samantha</b>","""",256,IntactFace,Memorization,78,5000,n,"""",CFD-BM-205-001-N.jpg,Ryan,0,"""","""","""",1,3/11/2021 19:11,71.86.185.24,Mozilla/5.0 (Windows NT 10.0; Win64; x64; rv:86.0) Gecko/20100101 Firefox/86.0,,Firefox,86,Windows,10
6,1,null,"""",html-keyboard-response,135,402014,0.0-135.0,"<div style=""font-size:60px;"">+</div>","""",256,fixation,Memorization,null,500,"""","""","""","""","""","""","""","""",1,3/11/2021 19:11,71.86.185.24,Mozilla/5.0 (Windows NT 10.0; Win64; x64; rv:86.0) Gecko/20100101 Firefox/86.0,,Firefox,86,Windows,10
6,1,1585,"""",html-keyboard-response,136,407027,0.0-136.0,"<img src='jspsych/CFDfaces/CFD-LF-202-065-N.jpg' height=""250px""></br><b>Ashley</b>","""",256,IntactFace,Memorization,70,5000,f,"""",CFD-BF-023-010-N.jpg,Taylor,0,"""","""","""",1,3/11/2021 19:11,71.86.185.24,Mozilla/5.0 (Windows NT 10.0; Win64; x64; rv:86.0) Gecko/20100101 Firefox/86.0,,Firefox,86,Windows,10
6,1,null,"""",html-keyboard-response,137,407530,0.0-137.0,"<div style=""font-size:60px;"">+</div>","""",256,fixation,Memorization,null,500,"""","""","""","""","""","""","""","""",1,3/11/2021 19:11,71.86.185.24,Mozilla/5.0 (Windows NT 10.0; Win64; x64; rv:86.0) Gecko/20100101 Firefox/86.0,,Firefox,86,Windows,10
6,1,1726,"""",html-keyboard-response,138,412542,0.0-138.0,"<img src='jspsych/CFDfaces/CFD-BF-209-172-N.jpg' height=""250px""></br><b>Elizabeth</b>","""",256,IntactFace,Memorization,78,5000,n,"""",CFD-LF-201-035-N.jpg,Rebecca,0,"""","""","""",1,3/11/2021 19:11,71.86.185.24,Mozilla/5.0 (Windows NT 10.0; Win64; x64; rv:86.0) Gecko/20100101 Firefox/86.0,,Firefox,86,Windows,10
6,1,null,"""",html-keyboard-response,139,413044,0.0-139.0,"<div style=""font-size:60px;"">+</div>","""",256,fixation,Memorization,null,500,"""","""","""","""","""","""","""","""",1,3/11/2021 19:11,71.86.185.24,Mozilla/5.0 (Windows NT 10.0; Win64; x64; rv:86.0) Gecko/20100101 Firefox/86.0,,Firefox,86,Windows,10
6,1,1813,"""",html-keyboard-response,140,418056,0.0-140.0,"<img src='jspsych/CFDfaces/CFD-LM-234-176-N.jpg' height=""250px""></br><b>Daniel</b>","""",256,IntactFace,Memorization,70,5000,f,"""",CFD-AM-228-214-N.jpg,Luis,0,"""","""","""",1,3/11/2021 19:11,71.86.185.24,Mozilla/5.0 (Windows NT 10.0; Win64; x64; rv:86.0) Gecko/20100101 Firefox/86.0,,Firefox,86,Windows,10
6,1,null,"""",html-keyboard-response,141,418559,0.0-141.0,"<div style=""font-size:60px;"">+</div>","""",256,fixation,Memorization,null,500,"""","""","""","""","""","""","""","""",1,3/11/2021 19:11,71.86.185.24,Mozilla/5.0 (Windows NT 10.0; Win64; x64; rv:86.0) Gecko/20100101 Firefox/86.0,,Firefox,86,Windows,10
6,1,3197,"""",html-keyboard-response,142,423572,0.0-142.0,"<img src='jspsych/CFDfaces/CFD-AF-209-006-N.jpg' height=""250px""></br><b>Michelle</b>","""",256,IntactFace,Memorization,78,5000,n,"""",CFD-BM-041-035-N.jpg,Austin,0,"""","""","""",1,3/11/2021 19:11,71.86.185.24,Mozilla/5.0 (Windows NT 10.0; Win64; x64; rv:86.0) Gecko/20100101 Firefox/86.0,,Firefox,86,Windows,10
6,1,null,"""",html-keyboard-response,143,424075,0.0-143.0,"<div style=""font-size:60px;"">+</div>","""",256,fixation,Memorization,null,500,"""","""","""","""","""","""","""","""",1,3/11/2021 19:11,71.86.185.24,Mozilla/5.0 (Windows NT 10.0; Win64; x64; rv:86.0) Gecko/20100101 Firefox/86.0,,Firefox,86,Windows,10
6,1,2100,"""",html-keyboard-response,144,429088,0.0-144.0,"<img src='jspsych/CFDfaces/CFD-BM-207-024-N.jpg' height=""250px""></br><b>Brian</b>","""",256,IntactFace,Memorization,78,5000,n,"""",CFD-AF-242-158-N.jpg,Sara,0,"""","""","""",1,3/11/2021 19:11,71.86.185.24,Mozilla/5.0 (Windows NT 10.0; Win64; x64; rv:86.0) Gecko/20100101 Firefox/86.0,,Firefox,86,Windows,10
6,1,null,"""",html-keyboard-response,145,429590,0.0-145.0,"<div style=""font-size:60px;"">+</div>","""",256,fixation,Memorization,null,500,"""","""","""","""","""","""","""","""",1,3/11/2021 19:11,71.86.185.24,Mozilla/5.0 (Windows NT 10.0; Win64; x64; rv:86.0) Gecko/20100101 Firefox/86.0,,Firefox,86,Windows,10
6,1,2677,"""",html-keyboard-response,146,434604,0.0-146.0,"<img src='jspsych/CFDfaces/CFD-AM-229-224-N.jpg' height=""250px""></br><b>Richard</b>","""",256,IntactFace,Memorization,78,5000,n,"""",CFD-BM-001-014-N.jpg,Cameron,0,"""","""","""",1,3/11/2021 19:11,71.86.185.24,Mozilla/5.0 (Windows NT 10.0; Win64; x64; rv:86.0) Gecko/20100101 Firefox/86.0,,Firefox,86,Windows,10
6,1,null,"""",html-keyboard-response,147,435107,0.0-147.0,"<div style=""font-size:60px;"">+</div>","""",256,fixation,Memorization,null,500,"""","""","""","""","""","""","""","""",1,3/11/2021 19:11,71.86.185.24,Mozilla/5.0 (Windows NT 10.0; Win64; x64; rv:86.0) Gecko/20100101 Firefox/86.0,,Firefox,86,Windows,10
6,1,2955,"""",html-keyboard-response,148,440119,0.0-148.0,"<img src='jspsych/CFDfaces/CFD-AM-242-176-N.jpg' height=""250px""></br><b>Ian</b>","""",256,IntactFace,Memorization,70,5000,f,"""",CFD-WM-032-001-N.jpg,Steven,0,"""","""","""",1,3/11/2021 19:11,71.86.185.24,Mozilla/5.0 (Windows NT 10.0; Win64; x64; rv:86.0) Gecko/20100101 Firefox/86.0,,Firefox,86,Windows,10
6,1,null,"""",html-keyboard-response,149,440623,0.0-149.0,"<div style=""font-size:60px;"">+</div>","""",256,fixation,Memorization,null,500,"""","""","""","""","""","""","""","""",1,3/11/2021 19:11,71.86.185.24,Mozilla/5.0 (Windows NT 10.0; Win64; x64; rv:86.0) Gecko/20100101 Firefox/86.0,,Firefox,86,Windows,10
6,1,3069,"""",html-keyboard-response,150,445635,0.0-150.0,"<img src='jspsych/CFDfaces/CFD-BM-029-024-N.jpg' height=""250px""></br><b>Gregory</b>","""",256,IntactFace,Memorization,78,5000,n,"""",CFD-LF-200-058-N.jpg,Melissa,0,"""","""","""",1,3/11/2021 19:11,71.86.185.24,Mozilla/5.0 (Windows NT 10.0; Win64; x64; rv:86.0) Gecko/20100101 Firefox/86.0,,Firefox,86,Windows,10
6,1,null,"""",html-keyboard-response,151,446139,0.0-151.0,"<div style=""font-size:60px;"">+</div>","""",256,fixation,Memorization,null,500,"""","""","""","""","""","""","""","""",1,3/11/2021 19:11,71.86.185.24,Mozilla/5.0 (Windows NT 10.0; Win64; x64; rv:86.0) Gecko/20100101 Firefox/86.0,,Firefox,86,Windows,10
6,1,2363,"""",html-keyboard-response,152,448515,0.0-152.0,Press Any Key to Begin Memory Test,"""",1,welcomeScreen,Break,78,"""","""","""","""","""","""","""","""","""",1,3/11/2021 19:11,71.86.185.24,Mozilla/5.0 (Windows NT 10.0; Win64; x64; rv:86.0) Gecko/20100101 Firefox/86.0,,Firefox,86,Windows,10
6,1,null,"""",html-keyboard-response,153,449518,0.0-153.0,"<div style=""font-size:60px;"">+</div>","""",256,ITI,Test,null,1000,"""","""","""","""","""","""","""","""",1,3/11/2021 19:11,71.86.185.24,Mozilla/5.0 (Windows NT 10.0; Win64; x64; rv:86.0) Gecko/20100101 Firefox/86.0,,Firefox,86,Windows,10
6,1,null,"""",image-keyboard-response,154,449783,0.0-154.0,jspsych/scrambledNeutralFaces/scrambledAF29NES.JPG,"""",256,forwardMask,Test,null,250,"""",n,"""","""","""","""","""","""",1,3/11/2021 19:11,71.86.185.24,Mozilla/5.0 (Windows NT 10.0; Win64; x64; rv:86.0) Gecko/20100101 Firefox/86.0,,Firefox,86,Windows,10
6,1,null,"""",image-keyboard-response,155,449813,0.0-155.0,jspsych/neutralFaces/AF29NES.JPG,"""",256,Cue,Test,null,16,"""","""","""","""","""","""","""","""",1,3/11/2021 19:11,71.86.185.24,Mozilla/5.0 (Windows NT 10.0; Win64; x64; rv:86.0) Gecko/20100101 Firefox/86.0,,Firefox,86,Windows,10
6,1,null,"""",image-keyboard-response,156,449920,0.0-156.0,jspsych/neutralFaces/BF04NES.JPG,"""",256,backwardMask,Test,null,100,"""","""","""","""","""","""","""","""",1,3/11/2021 19:11,71.86.185.24,Mozilla/5.0 (Windows NT 10.0; Win64; x64; rv:86.0) Gecko/20100101 Firefox/86.0,,Firefox,86,Windows,10
6,1,null,"""",html-keyboard-response,157,450923,0.0-157.0,"<div style=""font-size:60px;"">+</div>","""",256,fixationBtwnNeutralMaskAndPrompt,Test,null,1000,"""","""","""","""","""","""","""","""",1,3/11/2021 19:11,71.86.185.24,Mozilla/5.0 (Windows NT 10.0; Win64; x64; rv:86.0) Gecko/20100101 Firefox/86.0,,Firefox,86,Windows,10
6,1,3069,"""",html-button-response,158,453996,0.0-158.0,"<img src='jspsych/CFDfaces/CFD-AF-208-003-N.jpg' height=""250px"">,</br><b>Emily</b>",1,256,IntactOrRearranged,Test,"""","""","""","""",CFD-BF-023-010-N.jpg,Taylor,1,"""","""",1,1,3/11/2021 19:11,71.86.185.24,Mozilla/5.0 (Windows NT 10.0; Win64; x64; rv:86.0) Gecko/20100101 Firefox/86.0,,Firefox,86,Windows,10
6,1,null,"""",html-slider-response,159,459014,0.0-159.0,"<img src='jspsych/CFDfaces/CFD-AF-208-003-N.jpg' height=""250px"">,</br><b>Emily</b>","""",256,ConfidenceQuery,Test,"""","""","""","""",CFD-BF-023-010-N.jpg,Taylor,1,0,null,"""",1,3/11/2021 19:11,71.86.185.24,Mozilla/5.0 (Windows NT 10.0; Win64; x64; rv:86.0) Gecko/20100101 Firefox/86.0,,Firefox,86,Windows,10
6,1,null,"""",html-keyboard-response,160,460018,0.0-160.0,"<div style=""font-size:60px;"">+</div>","""",256,ITI,Test,null,1000,"""","""","""","""","""","""","""","""",1,3/11/2021 19:11,71.86.185.24,Mozilla/5.0 (Windows NT 10.0; Win64; x64; rv:86.0) Gecko/20100101 Firefox/86.0,,Firefox,86,Windows,10
6,1,null,"""",image-keyboard-response,161,460285,0.0-161.0,jspsych/scrambledNeutralFaces/scrambledAF19NES.JPG,"""",256,forwardMask,Test,null,250,"""",n,"""","""","""","""","""","""",1,3/11/2021 19:11,71.86.185.24,Mozilla/5.0 (Windows NT 10.0; Win64; x64; rv:86.0) Gecko/20100101 Firefox/86.0,,Firefox,86,Windows,10
6,1,null,"""",image-keyboard-response,162,460308,0.0-162.0,jspsych/neutralFaces/AF19NES.JPG,"""",256,Cue,Test,null,16,"""","""","""","""","""","""","""","""",1,3/11/2021 19:11,71.86.185.24,Mozilla/5.0 (Windows NT 10.0; Win64; x64; rv:86.0) Gecko/20100101 Firefox/86.0,,Firefox,86,Windows,10
6,1,null,"""",image-keyboard-response,163,460415,0.0-163.0,jspsych/neutralFaces/AF35NES.JPG,"""",256,backwardMask,Test,null,100,"""","""","""","""","""","""","""","""",1,3/11/2021 19:11,71.86.185.24,Mozilla/5.0 (Windows NT 10.0; Win64; x64; rv:86.0) Gecko/20100101 Firefox/86.0,,Firefox,86,Windows,10
6,1,null,"""",html-keyboard-response,164,461418,0.0-164.0,"<div style=""font-size:60px;"">+</div>","""",256,fixationBtwnNeutralMaskAndPrompt,Test,null,1000,"""","""","""","""","""","""","""","""",1,3/11/2021 19:11,71.86.185.24,Mozilla/5.0 (Windows NT 10.0; Win64; x64; rv:86.0) Gecko/20100101 Firefox/86.0,,Firefox,86,Windows,10
6,1,2995,"""",html-button-response,165,464415,0.0-165.0,"<img src='jspsych/CFDfaces/CFD-AF-220-107-N.jpg' height=""250px"">,</br><b>Andrea</b>",1,256,IntactOrRearranged,Test,"""","""","""","""",CFD-BM-026-002-N.jpg,Austin,1,"""","""",1,1,3/11/2021 19:11,71.86.185.24,Mozilla/5.0 (Windows NT 10.0; Win64; x64; rv:86.0) Gecko/20100101 Firefox/86.0,,Firefox,86,Windows,10
6,1,1899,"""",html-slider-response,166,466332,0.0-166.0,"<img src='jspsych/CFDfaces/CFD-AF-220-107-N.jpg' height=""250px"">,</br><b>Andrea</b>","""",256,ConfidenceQuery,Test,"""","""","""","""",CFD-BM-026-002-N.jpg,Austin,1,0,92,"""",1,3/11/2021 19:11,71.86.185.24,Mozilla/5.0 (Windows NT 10.0; Win64; x64; rv:86.0) Gecko/20100101 Firefox/86.0,,Firefox,86,Windows,10
6,1,null,"""",html-keyboard-response,167,467335,0.0-167.0,"<div style=""font-size:60px;"">+</div>","""",256,ITI,Test,null,1000,"""","""","""","""","""","""","""","""",1,3/11/2021 19:11,71.86.185.24,Mozilla/5.0 (Windows NT 10.0; Win64; x64; rv:86.0) Gecko/20100101 Firefox/86.0,,Firefox,86,Windows,10
6,1,null,"""",image-keyboard-response,168,467590,0.0-168.0,jspsych/scrambledDisgustFaces/scrambledAM08DIS.JPG,"""",256,forwardMask,Test,null,250,"""",d,"""","""","""","""","""","""",1,3/11/2021 19:11,71.86.185.24,Mozilla/5.0 (Windows NT 10.0; Win64; x64; rv:86.0) Gecko/20100101 Firefox/86.0,,Firefox,86,Windows,10
6,1,null,"""",image-keyboard-response,169,467624,0.0-169.0,jspsych/disgustFaces/AM08DIS.JPG,"""",256,Cue,Test,null,16,"""","""","""","""","""","""","""","""",1,3/11/2021 19:11,71.86.185.24,Mozilla/5.0 (Windows NT 10.0; Win64; x64; rv:86.0) Gecko/20100101 Firefox/86.0,,Firefox,86,Windows,10
6,1,null,"""",image-keyboard-response,170,467732,0.0-170.0,jspsych/neutralFaces/BM06NES.JPG,"""",256,backwardMask,Test,null,100,"""","""","""","""","""","""","""","""",1,3/11/2021 19:11,71.86.185.24,Mozilla/5.0 (Windows NT 10.0; Win64; x64; rv:86.0) Gecko/20100101 Firefox/86.0,,Firefox,86,Windows,10
6,1,null,"""",html-keyboard-response,171,468735,0.0-171.0,"<div style=""font-size:60px;"">+</div>","""",256,fixationBtwnNeutralMaskAndPrompt,Test,null,1000,"""","""","""","""","""","""","""","""",1,3/11/2021 19:11,71.86.185.24,Mozilla/5.0 (Windows NT 10.0; Win64; x64; rv:86.0) Gecko/20100101 Firefox/86.0,,Firefox,86,Windows,10
6,1,3617,"""",html-button-response,172,472354,0.0-172.0,"<img src='jspsych/CFDfaces/CFD-AF-226-251-N.jpg' height=""250px"">,</br><b>Stephanie</b>",0,256,IntactOrRearranged,Test,"""","""","""","""",CFD-WM-020-001-N.jpg,Dustin,0,"""","""",0,1,3/11/2021 19:11,71.86.185.24,Mozilla/5.0 (Windows NT 10.0; Win64; x64; rv:86.0) Gecko/20100101 Firefox/86.0,,Firefox,86,Windows,10
6,1,2175,"""",html-slider-response,173,474547,0.0-173.0,"<img src='jspsych/CFDfaces/CFD-AF-226-251-N.jpg' height=""250px"">,</br><b>Stephanie</b>","""",256,ConfidenceQuery,Test,"""","""","""","""",CFD-WM-020-001-N.jpg,Dustin,0,0,41,"""",1,3/11/2021 19:11,71.86.185.24,Mozilla/5.0 (Windows NT 10.0; Win64; x64; rv:86.0) Gecko/20100101 Firefox/86.0,,Firefox,86,Windows,10
6,1,null,"""",html-keyboard-response,174,475552,0.0-174.0,"<div style=""font-size:60px;"">+</div>","""",256,ITI,Test,null,1000,"""","""","""","""","""","""","""","""",1,3/11/2021 19:11,71.86.185.24,Mozilla/5.0 (Windows NT 10.0; Win64; x64; rv:86.0) Gecko/20100101 Firefox/86.0,,Firefox,86,Windows,10
6,1,null,"""",image-keyboard-response,175,475818,0.0-175.0,jspsych/scrambledNeutralFaces/scrambledBF02NES.JPG,"""",256,forwardMask,Test,null,250,"""",n,"""","""","""","""","""","""",1,3/11/2021 19:11,71.86.185.24,Mozilla/5.0 (Windows NT 10.0; Win64; x64; rv:86.0) Gecko/20100101 Firefox/86.0,,Firefox,86,Windows,10
6,1,null,"""",image-keyboard-response,176,475843,0.0-176.0,jspsych/neutralFaces/BF02NES.JPG,"""",256,Cue,Test,null,16,"""","""","""","""","""","""","""","""",1,3/11/2021 19:11,71.86.185.24,Mozilla/5.0 (Windows NT 10.0; Win64; x64; rv:86.0) Gecko/20100101 Firefox/86.0,,Firefox,86,Windows,10
6,1,null,"""",image-keyboard-response,177,475951,0.0-177.0,jspsych/neutralFaces/AF31NES.JPG,"""",256,backwardMask,Test,null,100,"""","""","""","""","""","""","""","""",1,3/11/2021 19:11,71.86.185.24,Mozilla/5.0 (Windows NT 10.0; Win64; x64; rv:86.0) Gecko/20100101 Firefox/86.0,,Firefox,86,Windows,10
6,1,null,"""",html-keyboard-response,178,476955,0.0-178.0,"<div style=""font-size:60px;"">+</div>","""",256,fixationBtwnNeutralMaskAndPrompt,Test,null,1000,"""","""","""","""","""","""","""","""",1,3/11/2021 19:11,71.86.185.24,Mozilla/5.0 (Windows NT 10.0; Win64; x64; rv:86.0) Gecko/20100101 Firefox/86.0,,Firefox,86,Windows,10
6,1,3932,"""",html-button-response,179,480890,0.0-179.0,"<img src='jspsych/CFDfaces/CFD-AM-213-056-N.jpg' height=""250px"">,</br><b>Peter</b>",1,256,IntactOrRearranged,Test,"""","""","""","""",CFD-AM-202-079-N.jpg,Vincent,0,"""","""",1,1,3/11/2021 19:11,71.86.185.24,Mozilla/5.0 (Windows NT 10.0; Win64; x64; rv:86.0) Gecko/20100101 Firefox/86.0,,Firefox,86,Windows,10
6,1,2978,"""",html-slider-response,180,483889,0.0-180.0,"<img src='jspsych/CFDfaces/CFD-AM-213-056-N.jpg' height=""250px"">,</br><b>Peter</b>","""",256,ConfidenceQuery,Test,"""","""","""","""",CFD-AM-202-079-N.jpg,Vincent,0,0,100,"""",1,3/11/2021 19:11,71.86.185.24,Mozilla/5.0 (Windows NT 10.0; Win64; x64; rv:86.0) Gecko/20100101 Firefox/86.0,,Firefox,86,Windows,10
6,1,null,"""",html-keyboard-response,181,484891,0.0-181.0,"<div style=""font-size:60px;"">+</div>","""",256,ITI,Test,null,1000,"""","""","""","""","""","""","""","""",1,3/11/2021 19:11,71.86.185.24,Mozilla/5.0 (Windows NT 10.0; Win64; x64; rv:86.0) Gecko/20100101 Firefox/86.0,,Firefox,86,Windows,10
6,1,null,"""",image-keyboard-response,182,485159,0.0-182.0,jspsych/scrambledNeutralFaces/scrambledAM29NES.JPG,"""",256,forwardMask,Test,null,250,"""",n,"""","""","""","""","""","""",1,3/11/2021 19:11,71.86.185.24,Mozilla/5.0 (Windows NT 10.0; Win64; x64; rv:86.0) Gecko/20100101 Firefox/86.0,,Firefox,86,Windows,10
6,1,null,"""",image-keyboard-response,183,485183,0.0-183.0,jspsych/neutralFaces/AM29NES.JPG,"""",256,Cue,Test,null,16,"""","""","""","""","""","""","""","""",1,3/11/2021 19:11,71.86.185.24,Mozilla/5.0 (Windows NT 10.0; Win64; x64; rv:86.0) Gecko/20100101 Firefox/86.0,,Firefox,86,Windows,10
6,1,null,"""",image-keyboard-response,184,485291,0.0-184.0,jspsych/neutralFaces/AM06NES.JPG,"""",256,backwardMask,Test,null,100,"""","""","""","""","""","""","""","""",1,3/11/2021 19:11,71.86.185.24,Mozilla/5.0 (Windows NT 10.0; Win64; x64; rv:86.0) Gecko/20100101 Firefox/86.0,,Firefox,86,Windows,10
6,1,null,"""",html-keyboard-response,185,486293,0.0-185.0,"<div style=""font-size:60px;"">+</div>","""",256,fixationBtwnNeutralMaskAndPrompt,Test,null,1000,"""","""","""","""","""","""","""","""",1,3/11/2021 19:11,71.86.185.24,Mozilla/5.0 (Windows NT 10.0; Win64; x64; rv:86.0) Gecko/20100101 Firefox/86.0,,Firefox,86,Windows,10
6,1,2895,"""",html-button-response,186,489191,0.0-186.0,"<img src='jspsych/CFDfaces/CFD-AM-221-184-N.jpg' height=""250px"">,</br><b>Brandon</b>",0,256,IntactOrRearranged,Test,"""","""","""","""",CFD-AF-222-134-N.jpg,Jordan,0,"""","""",0,1,3/11/2021 19:11,71.86.185.24,Mozilla/5.0 (Windows NT 10.0; Win64; x64; rv:86.0) Gecko/20100101 Firefox/86.0,,Firefox,86,Windows,10
6,1,3307,"""",html-slider-response,187,492517,0.0-187.0,"<img src='jspsych/CFDfaces/CFD-AM-221-184-N.jpg' height=""250px"">,</br><b>Brandon</b>","""",256,ConfidenceQuery,Test,"""","""","""","""",CFD-AF-222-134-N.jpg,Jordan,0,0,61,"""",1,3/11/2021 19:11,71.86.185.24,Mozilla/5.0 (Windows NT 10.0; Win64; x64; rv:86.0) Gecko/20100101 Firefox/86.0,,Firefox,86,Windows,10
6,1,null,"""",html-keyboard-response,188,493521,0.0-188.0,"<div style=""font-size:60px;"">+</div>","""",256,ITI,Test,null,1000,"""","""","""","""","""","""","""","""",1,3/11/2021 19:11,71.86.185.24,Mozilla/5.0 (Windows NT 10.0; Win64; x64; rv:86.0) Gecko/20100101 Firefox/86.0,,Firefox,86,Windows,10
6,1,null,"""",image-keyboard-response,189,493785,0.0-189.0,jspsych/scrambledDisgustFaces/scrambledAM08DIS.JPG,"""",256,forwardMask,Test,null,250,"""",d,"""","""","""","""","""","""",1,3/11/2021 19:11,71.86.185.24,Mozilla/5.0 (Windows NT 10.0; Win64; x64; rv:86.0) Gecko/20100101 Firefox/86.0,,Firefox,86,Windows,10
6,1,null,"""",image-keyboard-response,190,493804,0.0-190.0,jspsych/disgustFaces/AM08DIS.JPG,"""",256,Cue,Test,null,16,"""","""","""","""","""","""","""","""",1,3/11/2021 19:11,71.86.185.24,Mozilla/5.0 (Windows NT 10.0; Win64; x64; rv:86.0) Gecko/20100101 Firefox/86.0,,Firefox,86,Windows,10
6,1,null,"""",image-keyboard-response,191,493912,0.0-191.0,jspsych/neutralFaces/BM34NES.JPG,"""",256,backwardMask,Test,null,100,"""","""","""","""","""","""","""","""",1,3/11/2021 19:11,71.86.185.24,Mozilla/5.0 (Windows NT 10.0; Win64; x64; rv:86.0) Gecko/20100101 Firefox/86.0,,Firefox,86,Windows,10
6,1,null,"""",html-keyboard-response,192,494914,0.0-192.0,"<div style=""font-size:60px;"">+</div>","""",256,fixationBtwnNeutralMaskAndPrompt,Test,null,1000,"""","""","""","""","""","""","""","""",1,3/11/2021 19:11,71.86.185.24,Mozilla/5.0 (Windows NT 10.0; Win64; x64; rv:86.0) Gecko/20100101 Firefox/86.0,,Firefox,86,Windows,10
6,1,2692,"""",html-button-response,193,497607,0.0-193.0,"<img src='jspsych/CFDfaces/CFD-AM-229-224-N.jpg' height=""250px"">,</br><b>Christian</b>",1,256,IntactOrRearranged,Test,"""","""","""","""",CFD-BF-016-017-N.jpg,Tiffany,1,"""","""",1,1,3/11/2021 19:11,71.86.185.24,Mozilla/5.0 (Windows NT 10.0; Win64; x64; rv:86.0) Gecko/20100101 Firefox/86.0,,Firefox,86,Windows,10
6,1,2204,"""",html-slider-response,194,499829,0.0-194.0,"<img src='jspsych/CFDfaces/CFD-AM-229-224-N.jpg' height=""250px"">,</br><b>Christian</b>","""",256,ConfidenceQuery,Test,"""","""","""","""",CFD-BF-016-017-N.jpg,Tiffany,1,0,100,"""",1,3/11/2021 19:11,71.86.185.24,Mozilla/5.0 (Windows NT 10.0; Win64; x64; rv:86.0) Gecko/20100101 Firefox/86.0,,Firefox,86,Windows,10
6,1,null,"""",html-keyboard-response,195,500834,0.0-195.0,"<div style=""font-size:60px;"">+</div>","""",256,ITI,Test,null,1000,"""","""","""","""","""","""","""","""",1,3/11/2021 19:11,71.86.185.24,Mozilla/5.0 (Windows NT 10.0; Win64; x64; rv:86.0) Gecko/20100101 Firefox/86.0,,Firefox,86,Windows,10
6,1,null,"""",image-keyboard-response,196,501088,0.0-196.0,jspsych/scrambledNeutralFaces/scrambledAF18NES.JPG,"""",256,forwardMask,Test,null,250,"""",n,"""","""","""","""","""","""",1,3/11/2021 19:11,71.86.185.24,Mozilla/5.0 (Windows NT 10.0; Win64; x64; rv:86.0) Gecko/20100101 Firefox/86.0,,Firefox,86,Windows,10
6,1,null,"""",image-keyboard-response,197,501113,0.0-197.0,jspsych/neutralFaces/AF18NES.JPG,"""",256,Cue,Test,null,16,"""","""","""","""","""","""","""","""",1,3/11/2021 19:11,71.86.185.24,Mozilla/5.0 (Windows NT 10.0; Win64; x64; rv:86.0) Gecko/20100101 Firefox/86.0,,Firefox,86,Windows,10
6,1,null,"""",image-keyboard-response,198,501221,0.0-198.0,jspsych/neutralFaces/BF28NES.JPG,"""",256,backwardMask,Test,null,100,"""","""","""","""","""","""","""","""",1,3/11/2021 19:11,71.86.185.24,Mozilla/5.0 (Windows NT 10.0; Win64; x64; rv:86.0) Gecko/20100101 Firefox/86.0,,Firefox,86,Windows,10
6,1,null,"""",html-keyboard-response,199,502235,0.0-199.0,"<div style=""font-size:60px;"">+</div>","""",256,fixationBtwnNeutralMaskAndPrompt,Test,null,1000,"""","""","""","""","""","""","""","""",1,3/11/2021 19:11,71.86.185.24,Mozilla/5.0 (Windows NT 10.0; Win64; x64; rv:86.0) Gecko/20100101 Firefox/86.0,,Firefox,86,Windows,10
6,1,2936,"""",html-button-response,200,505174,0.0-200.0,"<img src='jspsych/CFDfaces/CFD-BM-017-021-N.jpg' height=""250px"">,</br><b>Jason</b>",0,256,IntactOrRearranged,Test,"""","""","""","""",CFD-WM-015-002-N.jpg,Jeremy,0,"""","""",0,1,3/11/2021 19:11,71.86.185.24,Mozilla/5.0 (Windows NT 10.0; Win64; x64; rv:86.0) Gecko/20100101 Firefox/86.0,,Firefox,86,Windows,10
6,1,2568,"""",html-slider-response,201,507761,0.0-201.0,"<img src='jspsych/CFDfaces/CFD-BM-017-021-N.jpg' height=""250px"">,</br><b>Jason</b>","""",256,ConfidenceQuery,Test,"""","""","""","""",CFD-WM-015-002-N.jpg,Jeremy,0,0,76,"""",1,3/11/2021 19:11,71.86.185.24,Mozilla/5.0 (Windows NT 10.0; Win64; x64; rv:86.0) Gecko/20100101 Firefox/86.0,,Firefox,86,Windows,10
6,1,null,"""",html-keyboard-response,202,508765,0.0-202.0,"<div style=""font-size:60px;"">+</div>","""",256,ITI,Test,null,1000,"""","""","""","""","""","""","""","""",1,3/11/2021 19:11,71.86.185.24,Mozilla/5.0 (Windows NT 10.0; Win64; x64; rv:86.0) Gecko/20100101 Firefox/86.0,,Firefox,86,Windows,10
6,1,null,"""",image-keyboard-response,203,509036,0.0-203.0,jspsych/scrambledNeutralFaces/scrambledAM07NES.JPG,"""",256,forwardMask,Test,null,250,"""",n,"""","""","""","""","""","""",1,3/11/2021 19:11,71.86.185.24,Mozilla/5.0 (Windows NT 10.0; Win64; x64; rv:86.0) Gecko/20100101 Firefox/86.0,,Firefox,86,Windows,10
6,1,null,"""",image-keyboard-response,204,509064,0.0-204.0,jspsych/neutralFaces/AM07NES.JPG,"""",256,Cue,Test,null,16,"""","""","""","""","""","""","""","""",1,3/11/2021 19:11,71.86.185.24,Mozilla/5.0 (Windows NT 10.0; Win64; x64; rv:86.0) Gecko/20100101 Firefox/86.0,,Firefox,86,Windows,10
6,1,null,"""",image-keyboard-response,205,509174,0.0-205.0,jspsych/neutralFaces/BM22NES.JPG,"""",256,backwardMask,Test,null,100,"""","""","""","""","""","""","""","""",1,3/11/2021 19:11,71.86.185.24,Mozilla/5.0 (Windows NT 10.0; Win64; x64; rv:86.0) Gecko/20100101 Firefox/86.0,,Firefox,86,Windows,10
6,1,null,"""",html-keyboard-response,206,510176,0.0-206.0,"<div style=""font-size:60px;"">+</div>","""",256,fixationBtwnNeutralMaskAndPrompt,Test,null,1000,"""","""","""","""","""","""","""","""",1,3/11/2021 19:11,71.86.185.24,Mozilla/5.0 (Windows NT 10.0; Win64; x64; rv:86.0) Gecko/20100101 Firefox/86.0,,Firefox,86,Windows,10
6,1,2124,"""",html-button-response,207,512303,0.0-207.0,"<img src='jspsych/CFDfaces/CFD-BM-029-024-N.jpg' height=""250px"">,</br><b>Daniel</b>",0,256,IntactOrRearranged,Test,"""","""","""","""",CFD-WM-032-001-N.jpg,Steven,1,"""","""",0,1,3/11/2021 19:11,71.86.185.24,Mozilla/5.0 (Windows NT 10.0; Win64; x64; rv:86.0) Gecko/20100101 Firefox/86.0,,Firefox,86,Windows,10
6,1,1487,"""",html-slider-response,208,513808,0.0-208.0,"<img src='jspsych/CFDfaces/CFD-BM-029-024-N.jpg' height=""250px"">,</br><b>Daniel</b>","""",256,ConfidenceQuery,Test,"""","""","""","""",CFD-WM-032-001-N.jpg,Steven,1,0,60,"""",1,3/11/2021 19:11,71.86.185.24,Mozilla/5.0 (Windows NT 10.0; Win64; x64; rv:86.0) Gecko/20100101 Firefox/86.0,,Firefox,86,Windows,10
6,1,null,"""",html-keyboard-response,209,514813,0.0-209.0,"<div style=""font-size:60px;"">+</div>","""",256,ITI,Test,null,1000,"""","""","""","""","""","""","""","""",1,3/11/2021 19:11,71.86.185.24,Mozilla/5.0 (Windows NT 10.0; Win64; x64; rv:86.0) Gecko/20100101 Firefox/86.0,,Firefox,86,Windows,10
6,1,null,"""",image-keyboard-response,210,515069,0.0-210.0,jspsych/scrambledNeutralFaces/scrambledBM03NES.JPG,"""",256,forwardMask,Test,null,250,"""",n,"""","""","""","""","""","""",1,3/11/2021 19:11,71.86.185.24,Mozilla/5.0 (Windows NT 10.0; Win64; x64; rv:86.0) Gecko/20100101 Firefox/86.0,,Firefox,86,Windows,10
6,1,null,"""",image-keyboard-response,211,515094,0.0-211.0,jspsych/neutralFaces/BM03NES.JPG,"""",256,Cue,Test,null,16,"""","""","""","""","""","""","""","""",1,3/11/2021 19:11,71.86.185.24,Mozilla/5.0 (Windows NT 10.0; Win64; x64; rv:86.0) Gecko/20100101 Firefox/86.0,,Firefox,86,Windows,10
6,1,null,"""",image-keyboard-response,212,515201,0.0-212.0,jspsych/neutralFaces/BM24NES.JPG,"""",256,backwardMask,Test,null,100,"""","""","""","""","""","""","""","""",1,3/11/2021 19:11,71.86.185.24,Mozilla/5.0 (Windows NT 10.0; Win64; x64; rv:86.0) Gecko/20100101 Firefox/86.0,,Firefox,86,Windows,10
6,1,null,"""",html-keyboard-response,213,516203,0.0-213.0,"<div style=""font-size:60px;"">+</div>","""",256,fixationBtwnNeutralMaskAndPrompt,Test,null,1000,"""","""","""","""","""","""","""","""",1,3/11/2021 19:11,71.86.185.24,Mozilla/5.0 (Windows NT 10.0; Win64; x64; rv:86.0) Gecko/20100101 Firefox/86.0,,Firefox,86,Windows,10
6,1,2474,"""",html-button-response,214,518693,0.0-214.0,"<img src='jspsych/CFDfaces/CFD-AF-241-141-N.jpg' height=""250px"">,</br><b>Brittany</b>",0,256,IntactOrRearranged,Test,"""","""","""","""",CFD-LF-232-199-N.jpg,Lindsey,0,"""","""",0,1,3/11/2021 19:11,71.86.185.24,Mozilla/5.0 (Windows NT 10.0; Win64; x64; rv:86.0) Gecko/20100101 Firefox/86.0,,Firefox,86,Windows,10
6,1,2671,"""",html-slider-response,215,521372,0.0-215.0,"<img src='jspsych/CFDfaces/CFD-AF-241-141-N.jpg' height=""250px"">,</br><b>Brittany</b>","""",256,ConfidenceQuery,Test,"""","""","""","""",CFD-LF-232-199-N.jpg,Lindsey,0,0,52,"""",1,3/11/2021 19:11,71.86.185.24,Mozilla/5.0 (Windows NT 10.0; Win64; x64; rv:86.0) Gecko/20100101 Firefox/86.0,,Firefox,86,Windows,10
6,1,null,"""",html-keyboard-response,216,522387,0.0-216.0,"<div style=""font-size:60px;"">+</div>","""",256,ITI,Test,null,1000,"""","""","""","""","""","""","""","""",1,3/11/2021 19:11,71.86.185.24,Mozilla/5.0 (Windows NT 10.0; Win64; x64; rv:86.0) Gecko/20100101 Firefox/86.0,,Firefox,86,Windows,10
6,1,null,"""",image-keyboard-response,217,522643,0.0-217.0,jspsych/scrambledDisgustFaces/scrambledAM10DIS.JPG,"""",256,forwardMask,Test,null,250,"""",d,"""","""","""","""","""","""",1,3/11/2021 19:11,71.86.185.24,Mozilla/5.0 (Windows NT 10.0; Win64; x64; rv:86.0) Gecko/20100101 Firefox/86.0,,Firefox,86,Windows,10
6,1,null,"""",image-keyboard-response,218,522667,0.0-218.0,jspsych/disgustFaces/AM10DIS.JPG,"""",256,Cue,Test,null,16,"""","""","""","""","""","""","""","""",1,3/11/2021 19:11,71.86.185.24,Mozilla/5.0 (Windows NT 10.0; Win64; x64; rv:86.0) Gecko/20100101 Firefox/86.0,,Firefox,86,Windows,10
6,1,null,"""",image-keyboard-response,219,522775,0.0-219.0,jspsych/neutralFaces/AM03NES.JPG,"""",256,backwardMask,Test,null,100,"""","""","""","""","""","""","""","""",1,3/11/2021 19:11,71.86.185.24,Mozilla/5.0 (Windows NT 10.0; Win64; x64; rv:86.0) Gecko/20100101 Firefox/86.0,,Firefox,86,Windows,10
6,1,null,"""",html-keyboard-response,220,523779,0.0-220.0,"<div style=""font-size:60px;"">+</div>","""",256,fixationBtwnNeutralMaskAndPrompt,Test,null,1000,"""","""","""","""","""","""","""","""",1,3/11/2021 19:11,71.86.185.24,Mozilla/5.0 (Windows NT 10.0; Win64; x64; rv:86.0) Gecko/20100101 Firefox/86.0,,Firefox,86,Windows,10
6,1,4931,"""",html-button-response,221,528713,0.0-221.0,"<img src='jspsych/CFDfaces/CFD-AF-209-006-N.jpg' height=""250px"">,</br><b>Michelle</b>",0,256,IntactOrRearranged,Test,"""","""","""","""",CFD-LF-200-058-N.jpg,Melissa,0,"""","""",0,1,3/11/2021 19:11,71.86.185.24,Mozilla/5.0 (Windows NT 10.0; Win64; x64; rv:86.0) Gecko/20100101 Firefox/86.0,,Firefox,86,Windows,10
6,1,1553,"""",html-slider-response,222,530286,0.0-222.0,"<img src='jspsych/CFDfaces/CFD-AF-209-006-N.jpg' height=""250px"">,</br><b>Michelle</b>","""",256,ConfidenceQuery,Test,"""","""","""","""",CFD-LF-200-058-N.jpg,Melissa,0,0,76,"""",1,3/11/2021 19:11,71.86.185.24,Mozilla/5.0 (Windows NT 10.0; Win64; x64; rv:86.0) Gecko/20100101 Firefox/86.0,,Firefox,86,Windows,10
6,1,null,"""",html-keyboard-response,223,531300,0.0-223.0,"<div style=""font-size:60px;"">+</div>","""",256,ITI,Test,null,1000,"""","""","""","""","""","""","""","""",1,3/11/2021 19:11,71.86.185.24,Mozilla/5.0 (Windows NT 10.0; Win64; x64; rv:86.0) Gecko/20100101 Firefox/86.0,,Firefox,86,Windows,10
6,1,null,"""",image-keyboard-response,224,531559,0.0-224.0,jspsych/scrambledNeutralFaces/scrambledAM30NES.JPG,"""",256,forwardMask,Test,null,250,"""",n,"""","""","""","""","""","""",1,3/11/2021 19:11,71.86.185.24,Mozilla/5.0 (Windows NT 10.0; Win64; x64; rv:86.0) Gecko/20100101 Firefox/86.0,,Firefox,86,Windows,10
6,1,null,"""",image-keyboard-response,225,531599,0.0-225.0,jspsych/neutralFaces/AM30NES.JPG,"""",256,Cue,Test,null,16,"""","""","""","""","""","""","""","""",1,3/11/2021 19:11,71.86.185.24,Mozilla/5.0 (Windows NT 10.0; Win64; x64; rv:86.0) Gecko/20100101 Firefox/86.0,,Firefox,86,Windows,10
6,1,null,"""",image-keyboard-response,226,531719,0.0-226.0,jspsych/neutralFaces/BM21NES.JPG,"""",256,backwardMask,Test,null,100,"""","""","""","""","""","""","""","""",1,3/11/2021 19:11,71.86.185.24,Mozilla/5.0 (Windows NT 10.0; Win64; x64; rv:86.0) Gecko/20100101 Firefox/86.0,,Firefox,86,Windows,10
6,1,null,"""",html-keyboard-response,227,532721,0.0-227.0,"<div style=""font-size:60px;"">+</div>","""",256,fixationBtwnNeutralMaskAndPrompt,Test,null,1000,"""","""","""","""","""","""","""","""",1,3/11/2021 19:11,71.86.185.24,Mozilla/5.0 (Windows NT 10.0; Win64; x64; rv:86.0) Gecko/20100101 Firefox/86.0,,Firefox,86,Windows,10
6,1,3568,"""",html-button-response,228,536303,0.0-228.0,"<img src='jspsych/CFDfaces/CFD-LF-208-127-N.jpg' height=""250px"">,</br><b>Kayla</b>",1,256,IntactOrRearranged,Test,"""","""","""","""",CFD-LF-230-203-N.jpg,Erin,0,"""","""",1,1,3/11/2021 19:11,71.86.185.24,Mozilla/5.0 (Windows NT 10.0; Win64; x64; rv:86.0) Gecko/20100101 Firefox/86.0,,Firefox,86,Windows,10
6,1,1929,"""",html-slider-response,229,538240,0.0-229.0,"<img src='jspsych/CFDfaces/CFD-LF-208-127-N.jpg' height=""250px"">,</br><b>Kayla</b>","""",256,ConfidenceQuery,Test,"""","""","""","""",CFD-LF-230-203-N.jpg,Erin,0,0,86,"""",1,3/11/2021 19:11,71.86.185.24,Mozilla/5.0 (Windows NT 10.0; Win64; x64; rv:86.0) Gecko/20100101 Firefox/86.0,,Firefox,86,Windows,10
6,1,null,"""",html-keyboard-response,230,539258,0.0-230.0,"<div style=""font-size:60px;"">+</div>","""",256,ITI,Test,null,1000,"""","""","""","""","""","""","""","""",1,3/11/2021 19:11,71.86.185.24,Mozilla/5.0 (Windows NT 10.0; Win64; x64; rv:86.0) Gecko/20100101 Firefox/86.0,,Firefox,86,Windows,10
6,1,null,"""",image-keyboard-response,231,539514,0.0-231.0,jspsych/scrambledNeutralFaces/scrambledBM34NES.JPG,"""",256,forwardMask,Test,null,250,"""",n,"""","""","""","""","""","""",1,3/11/2021 19:11,71.86.185.24,Mozilla/5.0 (Windows NT 10.0; Win64; x64; rv:86.0) Gecko/20100101 Firefox/86.0,,Firefox,86,Windows,10
6,1,null,"""",image-keyboard-response,232,539533,0.0-232.0,jspsych/neutralFaces/BM34NES.JPG,"""",256,Cue,Test,null,16,"""","""","""","""","""","""","""","""",1,3/11/2021 19:11,71.86.185.24,Mozilla/5.0 (Windows NT 10.0; Win64; x64; rv:86.0) Gecko/20100101 Firefox/86.0,,Firefox,86,Windows,10
6,1,null,"""",image-keyboard-response,233,539641,0.0-233.0,jspsych/neutralFaces/BM33NES.JPG,"""",256,backwardMask,Test,null,100,"""","""","""","""","""","""","""","""",1,3/11/2021 19:11,71.86.185.24,Mozilla/5.0 (Windows NT 10.0; Win64; x64; rv:86.0) Gecko/20100101 Firefox/86.0,,Firefox,86,Windows,10
6,1,null,"""",html-keyboard-response,234,540642,0.0-234.0,"<div style=""font-size:60px;"">+</div>","""",256,fixationBtwnNeutralMaskAndPrompt,Test,null,1000,"""","""","""","""","""","""","""","""",1,3/11/2021 19:11,71.86.185.24,Mozilla/5.0 (Windows NT 10.0; Win64; x64; rv:86.0) Gecko/20100101 Firefox/86.0,,Firefox,86,Windows,10
6,1,2476,"""",html-button-response,235,543121,0.0-235.0,"<img src='jspsych/CFDfaces/CFD-LF-204-133-N.jpg' height=""250px"">,</br><b>Amanda</b>",0,256,IntactOrRearranged,Test,"""","""","""","""",CFD-AF-233-190-N.jpg,Laura,1,"""","""",0,1,3/11/2021 19:11,71.86.185.24,Mozilla/5.0 (Windows NT 10.0; Win64; x64; rv:86.0) Gecko/20100101 Firefox/86.0,,Firefox,86,Windows,10
6,1,2016,"""",html-slider-response,236,545159,0.0-236.0,"<img src='jspsych/CFDfaces/CFD-LF-204-133-N.jpg' height=""250px"">,</br><b>Amanda</b>","""",256,ConfidenceQuery,Test,"""","""","""","""",CFD-AF-233-190-N.jpg,Laura,1,0,44,"""",1,3/11/2021 19:11,71.86.185.24,Mozilla/5.0 (Windows NT 10.0; Win64; x64; rv:86.0) Gecko/20100101 Firefox/86.0,,Firefox,86,Windows,10
6,1,null,"""",html-keyboard-response,237,546162,0.0-237.0,"<div style=""font-size:60px;"">+</div>","""",256,ITI,Test,null,1000,"""","""","""","""","""","""","""","""",1,3/11/2021 19:11,71.86.185.24,Mozilla/5.0 (Windows NT 10.0; Win64; x64; rv:86.0) Gecko/20100101 Firefox/86.0,,Firefox,86,Windows,10
6,1,null,"""",image-keyboard-response,238,546417,0.0-238.0,jspsych/scrambledDisgustFaces/scrambledBM29DIS.JPG,"""",256,forwardMask,Test,null,250,"""",d,"""","""","""","""","""","""",1,3/11/2021 19:11,71.86.185.24,Mozilla/5.0 (Windows NT 10.0; Win64; x64; rv:86.0) Gecko/20100101 Firefox/86.0,,Firefox,86,Windows,10
6,1,null,"""",image-keyboard-response,239,546441,0.0-239.0,jspsych/disgustFaces/BM30DIS.JPG,"""",256,Cue,Test,null,16,"""","""","""","""","""","""","""","""",1,3/11/2021 19:11,71.86.185.24,Mozilla/5.0 (Windows NT 10.0; Win64; x64; rv:86.0) Gecko/20100101 Firefox/86.0,,Firefox,86,Windows,10
6,1,null,"""",image-keyboard-response,240,546549,0.0-240.0,jspsych/neutralFaces/AM33NES.JPG,"""",256,backwardMask,Test,null,100,"""","""","""","""","""","""","""","""",1,3/11/2021 19:11,71.86.185.24,Mozilla/5.0 (Windows NT 10.0; Win64; x64; rv:86.0) Gecko/20100101 Firefox/86.0,,Firefox,86,Windows,10
6,1,null,"""",html-keyboard-response,241,547552,0.0-241.0,"<div style=""font-size:60px;"">+</div>","""",256,fixationBtwnNeutralMaskAndPrompt,Test,null,1000,"""","""","""","""","""","""","""","""",1,3/11/2021 19:11,71.86.185.24,Mozilla/5.0 (Windows NT 10.0; Win64; x64; rv:86.0) Gecko/20100101 Firefox/86.0,,Firefox,86,Windows,10
6,1,4444,"""",html-button-response,242,552014,0.0-242.0,"<img src='jspsych/CFDfaces/CFD-AM-248-104-N.jpg' height=""250px"">,</br><b>Gregory</b>",0,256,IntactOrRearranged,Test,"""","""","""","""",CFD-AM-228-214-N.jpg,Luis,1,"""","""",0,1,3/11/2021 19:11,71.86.185.24,Mozilla/5.0 (Windows NT 10.0; Win64; x64; rv:86.0) Gecko/20100101 Firefox/86.0,,Firefox,86,Windows,10
6,1,2628,"""",html-slider-response,243,554649,0.0-243.0,"<img src='jspsych/CFDfaces/CFD-AM-248-104-N.jpg' height=""250px"">,</br><b>Gregory</b>","""",256,ConfidenceQuery,Test,"""","""","""","""",CFD-AM-228-214-N.jpg,Luis,1,0,56,"""",1,3/11/2021 19:11,71.86.185.24,Mozilla/5.0 (Windows NT 10.0; Win64; x64; rv:86.0) Gecko/20100101 Firefox/86.0,,Firefox,86,Windows,10
6,1,null,"""",html-keyboard-response,244,555666,0.0-244.0,"<div style=""font-size:60px;"">+</div>","""",256,ITI,Test,null,1000,"""","""","""","""","""","""","""","""",1,3/11/2021 19:11,71.86.185.24,Mozilla/5.0 (Windows NT 10.0; Win64; x64; rv:86.0) Gecko/20100101 Firefox/86.0,,Firefox,86,Windows,10
6,1,null,"""",image-keyboard-response,245,555922,0.0-245.0,jspsych/scrambledNeutralFaces/scrambledAM06NES.JPG,"""",256,forwardMask,Test,null,250,"""",n,"""","""","""","""","""","""",1,3/11/2021 19:11,71.86.185.24,Mozilla/5.0 (Windows NT 10.0; Win64; x64; rv:86.0) Gecko/20100101 Firefox/86.0,,Firefox,86,Windows,10
6,1,null,"""",image-keyboard-response,246,555946,0.0-246.0,jspsych/neutralFaces/AM06NES.JPG,"""",256,Cue,Test,null,16,"""","""","""","""","""","""","""","""",1,3/11/2021 19:11,71.86.185.24,Mozilla/5.0 (Windows NT 10.0; Win64; x64; rv:86.0) Gecko/20100101 Firefox/86.0,,Firefox,86,Windows,10
6,1,null,"""",image-keyboard-response,247,556054,0.0-247.0,jspsych/neutralFaces/BM01NES.JPG,"""",256,backwardMask,Test,null,100,"""","""","""","""","""","""","""","""",1,3/11/2021 19:11,71.86.185.24,Mozilla/5.0 (Windows NT 10.0; Win64; x64; rv:86.0) Gecko/20100101 Firefox/86.0,,Firefox,86,Windows,10
6,1,null,"""",html-keyboard-response,248,557056,0.0-248.0,"<div style=""font-size:60px;"">+</div>","""",256,fixationBtwnNeutralMaskAndPrompt,Test,null,1000,"""","""","""","""","""","""","""","""",1,3/11/2021 19:11,71.86.185.24,Mozilla/5.0 (Windows NT 10.0; Win64; x64; rv:86.0) Gecko/20100101 Firefox/86.0,,Firefox,86,Windows,10
6,1,1782,"""",html-button-response,249,558841,0.0-249.0,"<img src='jspsych/CFDfaces/CFD-BM-011-016-N.jpg' height=""250px"">,</br><b>Jeffrey</b>",0,256,IntactOrRearranged,Test,"""","""","""","""",CFD-BM-010-003-N.jpg,Travis,1,"""","""",0,1,3/11/2021 19:11,71.86.185.24,Mozilla/5.0 (Windows NT 10.0; Win64; x64; rv:86.0) Gecko/20100101 Firefox/86.0,,Firefox,86,Windows,10
6,1,2780,"""",html-slider-response,250,561641,0.0-250.0,"<img src='jspsych/CFDfaces/CFD-BM-011-016-N.jpg' height=""250px"">,</br><b>Jeffrey</b>","""",256,ConfidenceQuery,Test,"""","""","""","""",CFD-BM-010-003-N.jpg,Travis,1,0,100,"""",1,3/11/2021 19:11,71.86.185.24,Mozilla/5.0 (Windows NT 10.0; Win64; x64; rv:86.0) Gecko/20100101 Firefox/86.0,,Firefox,86,Windows,10
6,1,null,"""",html-keyboard-response,251,562645,0.0-251.0,"<div style=""font-size:60px;"">+</div>","""",256,ITI,Test,null,1000,"""","""","""","""","""","""","""","""",1,3/11/2021 19:11,71.86.185.24,Mozilla/5.0 (Windows NT 10.0; Win64; x64; rv:86.0) Gecko/20100101 Firefox/86.0,,Firefox,86,Windows,10
6,1,null,"""",image-keyboard-response,252,562915,0.0-252.0,jspsych/scrambledNeutralFaces/scrambledBM13NES.JPG,"""",256,forwardMask,Test,null,250,"""",n,"""","""","""","""","""","""",1,3/11/2021 19:11,71.86.185.24,Mozilla/5.0 (Windows NT 10.0; Win64; x64; rv:86.0) Gecko/20100101 Firefox/86.0,,Firefox,86,Windows,10
6,1,null,"""",image-keyboard-response,253,562939,0.0-253.0,jspsych/neutralFaces/BM13NES.JPG,"""",256,Cue,Test,null,16,"""","""","""","""","""","""","""","""",1,3/11/2021 19:11,71.86.185.24,Mozilla/5.0 (Windows NT 10.0; Win64; x64; rv:86.0) Gecko/20100101 Firefox/86.0,,Firefox,86,Windows,10
6,1,null,"""",image-keyboard-response,254,563047,0.0-254.0,jspsych/neutralFaces/AM25NES.JPG,"""",256,backwardMask,Test,null,100,"""","""","""","""","""","""","""","""",1,3/11/2021 19:11,71.86.185.24,Mozilla/5.0 (Windows NT 10.0; Win64; x64; rv:86.0) Gecko/20100101 Firefox/86.0,,Firefox,86,Windows,10
6,1,null,"""",html-keyboard-response,255,564050,0.0-255.0,"<div style=""font-size:60px;"">+</div>","""",256,fixationBtwnNeutralMaskAndPrompt,Test,null,1000,"""","""","""","""","""","""","""","""",1,3/11/2021 19:11,71.86.185.24,Mozilla/5.0 (Windows NT 10.0; Win64; x64; rv:86.0) Gecko/20100101 Firefox/86.0,,Firefox,86,Windows,10
6,1,3543,"""",html-button-response,256,567595,0.0-256.0,"<img src='jspsych/CFDfaces/CFD-WM-207-048-N.jpg' height=""250px"">,</br><b>Robert</b>",0,256,IntactOrRearranged,Test,"""","""","""","""",CFD-AF-242-158-N.jpg,Lauren,0,"""","""",0,1,3/11/2021 19:11,71.86.185.24,Mozilla/5.0 (Windows NT 10.0; Win64; x64; rv:86.0) Gecko/20100101 Firefox/86.0,,Firefox,86,Windows,10
6,1,3582,"""",html-slider-response,257,571204,0.0-257.0,"<img src='jspsych/CFDfaces/CFD-WM-207-048-N.jpg' height=""250px"">,</br><b>Robert</b>","""",256,ConfidenceQuery,Test,"""","""","""","""",CFD-AF-242-158-N.jpg,Lauren,0,0,77,"""",1,3/11/2021 19:11,71.86.185.24,Mozilla/5.0 (Windows NT 10.0; Win64; x64; rv:86.0) Gecko/20100101 Firefox/86.0,,Firefox,86,Windows,10
6,1,null,"""",html-keyboard-response,258,572207,0.0-258.0,"<div style=""font-size:60px;"">+</div>","""",256,ITI,Test,null,1000,"""","""","""","""","""","""","""","""",1,3/11/2021 19:11,71.86.185.24,Mozilla/5.0 (Windows NT 10.0; Win64; x64; rv:86.0) Gecko/20100101 Firefox/86.0,,Firefox,86,Windows,10
6,1,null,"""",image-keyboard-response,259,572476,0.0-259.0,jspsych/scrambledDisgustFaces/scrambledBF26DIS.JPG,"""",256,forwardMask,Test,null,250,"""",d,"""","""","""","""","""","""",1,3/11/2021 19:11,71.86.185.24,Mozilla/5.0 (Windows NT 10.0; Win64; x64; rv:86.0) Gecko/20100101 Firefox/86.0,,Firefox,86,Windows,10
6,1,null,"""",image-keyboard-response,260,572499,0.0-260.0,jspsych/disgustFaces/BF26DIS.JPG,"""",256,Cue,Test,null,16,"""","""","""","""","""","""","""","""",1,3/11/2021 19:11,71.86.185.24,Mozilla/5.0 (Windows NT 10.0; Win64; x64; rv:86.0) Gecko/20100101 Firefox/86.0,,Firefox,86,Windows,10
6,1,null,"""",image-keyboard-response,261,572608,0.0-261.0,jspsych/neutralFaces/AF05NES.JPG,"""",256,backwardMask,Test,null,100,"""","""","""","""","""","""","""","""",1,3/11/2021 19:11,71.86.185.24,Mozilla/5.0 (Windows NT 10.0; Win64; x64; rv:86.0) Gecko/20100101 Firefox/86.0,,Firefox,86,Windows,10
6,1,null,"""",html-keyboard-response,262,573611,0.0-262.0,"<div style=""font-size:60px;"">+</div>","""",256,fixationBtwnNeutralMaskAndPrompt,Test,null,1000,"""","""","""","""","""","""","""","""",1,3/11/2021 19:11,71.86.185.24,Mozilla/5.0 (Windows NT 10.0; Win64; x64; rv:86.0) Gecko/20100101 Firefox/86.0,,Firefox,86,Windows,10
6,1,4421,"""",html-button-response,263,578034,0.0-263.0,"<img src='jspsych/CFDfaces/CFD-LM-234-176-N.jpg' height=""250px"">,</br><b>James</b>",1,256,IntactOrRearranged,Test,"""","""","""","""",CFD-BM-205-001-N.jpg,Cameron,1,"""","""",1,1,3/11/2021 19:11,71.86.185.24,Mozilla/5.0 (Windows NT 10.0; Win64; x64; rv:86.0) Gecko/20100101 Firefox/86.0,,Firefox,86,Windows,10
6,1,1742,"""",html-slider-response,264,579797,0.0-264.0,"<img src='jspsych/CFDfaces/CFD-LM-234-176-N.jpg' height=""250px"">,</br><b>James</b>","""",256,ConfidenceQuery,Test,"""","""","""","""",CFD-BM-205-001-N.jpg,Cameron,1,0,60,"""",1,3/11/2021 19:11,71.86.185.24,Mozilla/5.0 (Windows NT 10.0; Win64; x64; rv:86.0) Gecko/20100101 Firefox/86.0,,Firefox,86,Windows,10
6,1,null,"""",html-keyboard-response,265,580803,0.0-265.0,"<div style=""font-size:60px;"">+</div>","""",256,ITI,Test,null,1000,"""","""","""","""","""","""","""","""",1,3/11/2021 19:11,71.86.185.24,Mozilla/5.0 (Windows NT 10.0; Win64; x64; rv:86.0) Gecko/20100101 Firefox/86.0,,Firefox,86,Windows,10
6,1,null,"""",image-keyboard-response,266,581057,0.0-266.0,jspsych/scrambledNeutralFaces/scrambledAF31NES.JPG,"""",256,forwardMask,Test,null,250,"""",n,"""","""","""","""","""","""",1,3/11/2021 19:11,71.86.185.24,Mozilla/5.0 (Windows NT 10.0; Win64; x64; rv:86.0) Gecko/20100101 Firefox/86.0,,Firefox,86,Windows,10
6,1,null,"""",image-keyboard-response,267,581081,0.0-267.0,jspsych/neutralFaces/AF31NES.JPG,"""",256,Cue,Test,null,16,"""","""","""","""","""","""","""","""",1,3/11/2021 19:11,71.86.185.24,Mozilla/5.0 (Windows NT 10.0; Win64; x64; rv:86.0) Gecko/20100101 Firefox/86.0,,Firefox,86,Windows,10
6,1,null,"""",image-keyboard-response,268,581187,0.0-268.0,jspsych/neutralFaces/AF19NES.JPG,"""",256,backwardMask,Test,null,100,"""","""","""","""","""","""","""","""",1,3/11/2021 19:11,71.86.185.24,Mozilla/5.0 (Windows NT 10.0; Win64; x64; rv:86.0) Gecko/20100101 Firefox/86.0,,Firefox,86,Windows,10
6,1,null,"""",html-keyboard-response,269,582189,0.0-269.0,"<div style=""font-size:60px;"">+</div>","""",256,fixationBtwnNeutralMaskAndPrompt,Test,null,1000,"""","""","""","""","""","""","""","""",1,3/11/2021 19:11,71.86.185.24,Mozilla/5.0 (Windows NT 10.0; Win64; x64; rv:86.0) Gecko/20100101 Firefox/86.0,,Firefox,86,Windows,10
6,1,2835,"""",html-button-response,270,585044,0.0-270.0,"<img src='jspsych/CFDfaces/CFD-AM-237-154-N.jpg' height=""250px"">,</br><b>Nicholas</b>",0,256,IntactOrRearranged,Test,"""","""","""","""",CFD-WF-223-133-N.jpg,Jenna,0,"""","""",0,1,3/11/2021 19:11,71.86.185.24,Mozilla/5.0 (Windows NT 10.0; Win64; x64; rv:86.0) Gecko/20100101 Firefox/86.0,,Firefox,86,Windows,10
6,1,3059,"""",html-slider-response,271,588110,0.0-271.0,"<img src='jspsych/CFDfaces/CFD-AM-237-154-N.jpg' height=""250px"">,</br><b>Nicholas</b>","""",256,ConfidenceQuery,Test,"""","""","""","""",CFD-WF-223-133-N.jpg,Jenna,0,0,47,"""",1,3/11/2021 19:11,71.86.185.24,Mozilla/5.0 (Windows NT 10.0; Win64; x64; rv:86.0) Gecko/20100101 Firefox/86.0,,Firefox,86,Windows,10
6,1,null,"""",html-keyboard-response,272,589130,0.0-272.0,"<div style=""font-size:60px;"">+</div>","""",256,ITI,Test,null,1000,"""","""","""","""","""","""","""","""",1,3/11/2021 19:11,71.86.185.24,Mozilla/5.0 (Windows NT 10.0; Win64; x64; rv:86.0) Gecko/20100101 Firefox/86.0,,Firefox,86,Windows,10
6,1,null,"""",image-keyboard-response,273,589385,0.0-273.0,jspsych/scrambledDisgustFaces/scrambledAM32DIS.JPG,"""",256,forwardMask,Test,null,250,"""",d,"""","""","""","""","""","""",1,3/11/2021 19:11,71.86.185.24,Mozilla/5.0 (Windows NT 10.0; Win64; x64; rv:86.0) Gecko/20100101 Firefox/86.0,,Firefox,86,Windows,10
6,1,null,"""",image-keyboard-response,274,589409,0.0-274.0,jspsych/disgustFaces/AM32DIS.JPG,"""",256,Cue,Test,null,16,"""","""","""","""","""","""","""","""",1,3/11/2021 19:11,71.86.185.24,Mozilla/5.0 (Windows NT 10.0; Win64; x64; rv:86.0) Gecko/20100101 Firefox/86.0,,Firefox,86,Windows,10
6,1,null,"""",image-keyboard-response,275,589518,0.0-275.0,jspsych/neutralFaces/AM15NES.JPG,"""",256,backwardMask,Test,null,100,"""","""","""","""","""","""","""","""",1,3/11/2021 19:11,71.86.185.24,Mozilla/5.0 (Windows NT 10.0; Win64; x64; rv:86.0) Gecko/20100101 Firefox/86.0,,Firefox,86,Windows,10
6,1,null,"""",html-keyboard-response,276,590521,0.0-276.0,"<div style=""font-size:60px;"">+</div>","""",256,fixationBtwnNeutralMaskAndPrompt,Test,null,1000,"""","""","""","""","""","""","""","""",1,3/11/2021 19:11,71.86.185.24,Mozilla/5.0 (Windows NT 10.0; Win64; x64; rv:86.0) Gecko/20100101 Firefox/86.0,,Firefox,86,Windows,10
6,1,2325,"""",html-button-response,277,592847,0.0-277.0,"<img src='jspsych/CFDfaces/CFD-WM-019-003-N.jpg' height=""250px"">,</br><b>Juan</b>",0,256,IntactOrRearranged,Test,"""","""","""","""",CFD-BM-002-013-N.jpg,Jacob,0,"""","""",0,1,3/11/2021 19:11,71.86.185.24,Mozilla/5.0 (Windows NT 10.0; Win64; x64; rv:86.0) Gecko/20100101 Firefox/86.0,,Firefox,86,Windows,10
6,1,2155,"""",html-slider-response,278,595026,0.0-278.0,"<img src='jspsych/CFDfaces/CFD-WM-019-003-N.jpg' height=""250px"">,</br><b>Juan</b>","""",256,ConfidenceQuery,Test,"""","""","""","""",CFD-BM-002-013-N.jpg,Jacob,0,0,100,"""",1,3/11/2021 19:11,71.86.185.24,Mozilla/5.0 (Windows NT 10.0; Win64; x64; rv:86.0) Gecko/20100101 Firefox/86.0,,Firefox,86,Windows,10
6,1,null,"""",html-keyboard-response,279,596029,0.0-279.0,"<div style=""font-size:60px;"">+</div>","""",256,ITI,Test,null,1000,"""","""","""","""","""","""","""","""",1,3/11/2021 19:11,71.86.185.24,Mozilla/5.0 (Windows NT 10.0; Win64; x64; rv:86.0) Gecko/20100101 Firefox/86.0,,Firefox,86,Windows,10
6,1,null,"""",image-keyboard-response,280,596284,0.0-280.0,jspsych/scrambledDisgustFaces/scrambledAF21DIS.JPG,"""",256,forwardMask,Test,null,250,"""",d,"""","""","""","""","""","""",1,3/11/2021 19:11,71.86.185.24,Mozilla/5.0 (Windows NT 10.0; Win64; x64; rv:86.0) Gecko/20100101 Firefox/86.0,,Firefox,86,Windows,10
6,1,null,"""",image-keyboard-response,281,596323,0.0-281.0,jspsych/disgustFaces/AF21DIS.JPG,"""",256,Cue,Test,null,16,"""","""","""","""","""","""","""","""",1,3/11/2021 19:11,71.86.185.24,Mozilla/5.0 (Windows NT 10.0; Win64; x64; rv:86.0) Gecko/20100101 Firefox/86.0,,Firefox,86,Windows,10
6,1,null,"""",image-keyboard-response,282,596431,0.0-282.0,jspsych/neutralFaces/BF31NES.JPG,"""",256,backwardMask,Test,null,100,"""","""","""","""","""","""","""","""",1,3/11/2021 19:11,71.86.185.24,Mozilla/5.0 (Windows NT 10.0; Win64; x64; rv:86.0) Gecko/20100101 Firefox/86.0,,Firefox,86,Windows,10
6,1,null,"""",html-keyboard-response,283,597433,0.0-283.0,"<div style=""font-size:60px;"">+</div>","""",256,fixationBtwnNeutralMaskAndPrompt,Test,null,1000,"""","""","""","""","""","""","""","""",1,3/11/2021 19:11,71.86.185.24,Mozilla/5.0 (Windows NT 10.0; Win64; x64; rv:86.0) Gecko/20100101 Firefox/86.0,,Firefox,86,Windows,10
6,1,3706,"""",html-button-response,284,601142,0.0-284.0,"<img src='jspsych/CFDfaces/CFD-WF-217-085-N.jpg' height=""250px"">,</br><b>Victoria</b>",1,256,IntactOrRearranged,Test,"""","""","""","""",CFD-WF-200-099-N.jpg,Sara,1,"""","""",1,1,3/11/2021 19:11,71.86.185.24,Mozilla/5.0 (Windows NT 10.0; Win64; x64; rv:86.0) Gecko/20100101 Firefox/86.0,,Firefox,86,Windows,10
6,1,2052,"""",html-slider-response,285,603218,0.0-285.0,"<img src='jspsych/CFDfaces/CFD-WF-217-085-N.jpg' height=""250px"">,</br><b>Victoria</b>","""",256,ConfidenceQuery,Test,"""","""","""","""",CFD-WF-200-099-N.jpg,Sara,1,0,73,"""",1,3/11/2021 19:11,71.86.185.24,Mozilla/5.0 (Windows NT 10.0; Win64; x64; rv:86.0) Gecko/20100101 Firefox/86.0,,Firefox,86,Windows,10
6,1,null,"""",html-keyboard-response,286,604222,0.0-286.0,"<div style=""font-size:60px;"">+</div>","""",256,ITI,Test,null,1000,"""","""","""","""","""","""","""","""",1,3/11/2021 19:11,71.86.185.24,Mozilla/5.0 (Windows NT 10.0; Win64; x64; rv:86.0) Gecko/20100101 Firefox/86.0,,Firefox,86,Windows,10
6,1,null,"""",image-keyboard-response,287,604476,0.0-287.0,jspsych/scrambledNeutralFaces/scrambledBF14NES.JPG,"""",256,forwardMask,Test,null,250,"""",n,"""","""","""","""","""","""",1,3/11/2021 19:11,71.86.185.24,Mozilla/5.0 (Windows NT 10.0; Win64; x64; rv:86.0) Gecko/20100101 Firefox/86.0,,Firefox,86,Windows,10
6,1,null,"""",image-keyboard-response,288,604502,0.0-288.0,jspsych/neutralFaces/BF14NES.JPG,"""",256,Cue,Test,null,16,"""","""","""","""","""","""","""","""",1,3/11/2021 19:11,71.86.185.24,Mozilla/5.0 (Windows NT 10.0; Win64; x64; rv:86.0) Gecko/20100101 Firefox/86.0,,Firefox,86,Windows,10
6,1,null,"""",image-keyboard-response,289,604608,0.0-289.0,jspsych/neutralFaces/BF32NES.JPG,"""",256,backwardMask,Test,null,100,"""","""","""","""","""","""","""","""",1,3/11/2021 19:11,71.86.185.24,Mozilla/5.0 (Windows NT 10.0; Win64; x64; rv:86.0) Gecko/20100101 Firefox/86.0,,Firefox,86,Windows,10
6,1,null,"""",html-keyboard-response,290,605610,0.0-290.0,"<div style=""font-size:60px;"">+</div>","""",256,fixationBtwnNeutralMaskAndPrompt,Test,null,1000,"""","""","""","""","""","""","""","""",1,3/11/2021 19:11,71.86.185.24,Mozilla/5.0 (Windows NT 10.0; Win64; x64; rv:86.0) Gecko/20100101 Firefox/86.0,,Firefox,86,Windows,10
6,1,3016,"""",html-button-response,291,608644,0.0-291.0,"<img src='jspsych/CFDfaces/CFD-LF-210-220-N.jpg' height=""250px"">,</br><b>Vanessa</b>",1,256,IntactOrRearranged,Test,"""","""","""","""",CFD-LF-213-079-N.jpg,Jasmine,0,"""","""",1,1,3/11/2021 19:11,71.86.185.24,Mozilla/5.0 (Windows NT 10.0; Win64; x64; rv:86.0) Gecko/20100101 Firefox/86.0,,Firefox,86,Windows,10
6,1,2645,"""",html-slider-response,292,611297,0.0-292.0,"<img src='jspsych/CFDfaces/CFD-LF-210-220-N.jpg' height=""250px"">,</br><b>Vanessa</b>","""",256,ConfidenceQuery,Test,"""","""","""","""",CFD-LF-213-079-N.jpg,Jasmine,0,0,50,"""",1,3/11/2021 19:11,71.86.185.24,Mozilla/5.0 (Windows NT 10.0; Win64; x64; rv:86.0) Gecko/20100101 Firefox/86.0,,Firefox,86,Windows,10
6,1,null,"""",html-keyboard-response,293,612318,0.0-293.0,"<div style=""font-size:60px;"">+</div>","""",256,ITI,Test,null,1000,"""","""","""","""","""","""","""","""",1,3/11/2021 19:11,71.86.185.24,Mozilla/5.0 (Windows NT 10.0; Win64; x64; rv:86.0) Gecko/20100101 Firefox/86.0,,Firefox,86,Windows,10
6,1,null,"""",image-keyboard-response,294,612573,0.0-294.0,jspsych/scrambledNeutralFaces/scrambledAM30NES.JPG,"""",256,forwardMask,Test,null,250,"""",n,"""","""","""","""","""","""",1,3/11/2021 19:11,71.86.185.24,Mozilla/5.0 (Windows NT 10.0; Win64; x64; rv:86.0) Gecko/20100101 Firefox/86.0,,Firefox,86,Windows,10
6,1,null,"""",image-keyboard-response,295,612596,0.0-295.0,jspsych/neutralFaces/AM30NES.JPG,"""",256,Cue,Test,null,16,"""","""","""","""","""","""","""","""",1,3/11/2021 19:11,71.86.185.24,Mozilla/5.0 (Windows NT 10.0; Win64; x64; rv:86.0) Gecko/20100101 Firefox/86.0,,Firefox,86,Windows,10
6,1,null,"""",image-keyboard-response,296,612704,0.0-296.0,jspsych/neutralFaces/AM18NES.JPG,"""",256,backwardMask,Test,null,100,"""","""","""","""","""","""","""","""",1,3/11/2021 19:11,71.86.185.24,Mozilla/5.0 (Windows NT 10.0; Win64; x64; rv:86.0) Gecko/20100101 Firefox/86.0,,Firefox,86,Windows,10
6,1,null,"""",html-keyboard-response,297,613706,0.0-297.0,"<div style=""font-size:60px;"">+</div>","""",256,fixationBtwnNeutralMaskAndPrompt,Test,null,1000,"""","""","""","""","""","""","""","""",1,3/11/2021 19:11,71.86.185.24,Mozilla/5.0 (Windows NT 10.0; Win64; x64; rv:86.0) Gecko/20100101 Firefox/86.0,,Firefox,86,Windows,10
6,1,2014,"""",html-button-response,298,615722,0.0-298.0,"<img src='jspsych/CFDfaces/CFD-BM-207-024-N.jpg' height=""250px"">,</br><b>Brian</b>",0,256,IntactOrRearranged,Test,"""","""","""","""",CFD-BF-218-207-N.jpg,Angela,0,"""","""",0,1,3/11/2021 19:11,71.86.185.24,Mozilla/5.0 (Windows NT 10.0; Win64; x64; rv:86.0) Gecko/20100101 Firefox/86.0,,Firefox,86,Windows,10
6,1,2114,"""",html-slider-response,299,617844,0.0-299.0,"<img src='jspsych/CFDfaces/CFD-BM-207-024-N.jpg' height=""250px"">,</br><b>Brian</b>","""",256,ConfidenceQuery,Test,"""","""","""","""",CFD-BF-218-207-N.jpg,Angela,0,0,100,"""",1,3/11/2021 19:11,71.86.185.24,Mozilla/5.0 (Windows NT 10.0; Win64; x64; rv:86.0) Gecko/20100101 Firefox/86.0,,Firefox,86,Windows,10
6,1,null,"""",html-keyboard-response,300,618866,0.0-300.0,"<div style=""font-size:60px;"">+</div>","""",256,ITI,Test,null,1000,"""","""","""","""","""","""","""","""",1,3/11/2021 19:11,71.86.185.24,Mozilla/5.0 (Windows NT 10.0; Win64; x64; rv:86.0) Gecko/20100101 Firefox/86.0,,Firefox,86,Windows,10
6,1,null,"""",image-keyboard-response,301,619121,0.0-301.0,jspsych/scrambledNeutralFaces/scrambledBM10NES.JPG,"""",256,forwardMask,Test,null,250,"""",n,"""","""","""","""","""","""",1,3/11/2021 19:11,71.86.185.24,Mozilla/5.0 (Windows NT 10.0; Win64; x64; rv:86.0) Gecko/20100101 Firefox/86.0,,Firefox,86,Windows,10
6,1,null,"""",image-keyboard-response,302,619145,0.0-302.0,jspsych/neutralFaces/BM10NES.JPG,"""",256,Cue,Test,null,16,"""","""","""","""","""","""","""","""",1,3/11/2021 19:11,71.86.185.24,Mozilla/5.0 (Windows NT 10.0; Win64; x64; rv:86.0) Gecko/20100101 Firefox/86.0,,Firefox,86,Windows,10
