run_id,condition,rt,responses,trial_type,trial_index,time_elapsed,internal_node_id,stimulus,button_pressed,iTrial,Phase,ExperimentPhase,key_press,StimulusDurationSetting,CharacterResponse,correctResponse,Face,Name,rearranged,didSubjectEnterRearranged,slider_start,response,Block,recorded_at,ip,user_agent,device,browser,browser_version,platform,platform_version
10,1,13076,"{""Q0"":""A3HJAT1ZJPPTBB""}",survey-text,0,13088,0.0-0.0,"""","""","""","""","""","""","""","""","""","""","""","""","""","""","""","""",3/11/2021 19:18,99.35.42.200,Mozilla/5.0 (Windows NT 10.0; Win64; x64; rv:86.0) Gecko/20100101 Firefox/86.0,,Firefox,86,Windows,10
10,1,22550,"""",image-button-response,1,35707,0.0-1.0,directionsMemoryAssociation1.JPG,0,1,IntroDirections1,break,"""","""","""","""","""","""","""","""","""","""","""",3/11/2021 19:18,99.35.42.200,Mozilla/5.0 (Windows NT 10.0; Win64; x64; rv:86.0) Gecko/20100101 Firefox/86.0,,Firefox,86,Windows,10
10,1,54386,"""",image-button-response,2,90106,0.0-2.0,directionsMemoryAssociation2.JPG,0,1,IntroDirections2,break,"""","""","""","""","""","""","""","""","""","""","""",3/11/2021 19:18,99.35.42.200,Mozilla/5.0 (Windows NT 10.0; Win64; x64; rv:86.0) Gecko/20100101 Firefox/86.0,,Firefox,86,Windows,10
10,1,null,"""",html-keyboard-response,3,95121,0.0-3.0,"<img src='jspsych/CFDfaces/CFD-LF-206-078-N.jpg' height=""250px"">,</br><b>Tara</b>","""",1,IntactFace,Practice,null,5000,"""","""","""","""","""","""","""","""","""",3/11/2021 19:18,99.35.42.200,Mozilla/5.0 (Windows NT 10.0; Win64; x64; rv:86.0) Gecko/20100101 Firefox/86.0,,Firefox,86,Windows,10
10,1,null,"""",html-keyboard-response,4,95633,0.0-4.0,"<div style=""font-size:60px;"">+</div>","""",1,ITI,Practice,null,1000,"""","""","""","""","""","""","""","""","""",3/11/2021 19:18,99.35.42.200,Mozilla/5.0 (Windows NT 10.0; Win64; x64; rv:86.0) Gecko/20100101 Firefox/86.0,,Firefox,86,Windows,10
10,1,2242,"""",html-keyboard-response,5,100650,0.0-5.0,"<img src='jspsych/CFDfaces/CFD-LF-205-100-N.jpg' height=""250px"">,</br><b>Katelyn</b>","""",2,IntactFace,Practice,78,5000,n,"""","""","""","""","""","""","""","""",3/11/2021 19:18,99.35.42.200,Mozilla/5.0 (Windows NT 10.0; Win64; x64; rv:86.0) Gecko/20100101 Firefox/86.0,,Firefox,86,Windows,10
10,1,null,"""",html-keyboard-response,6,101166,0.0-6.0,"<div style=""font-size:60px;"">+</div>","""",2,ITI,Practice,null,1000,"""","""","""","""","""","""","""","""","""",3/11/2021 19:18,99.35.42.200,Mozilla/5.0 (Windows NT 10.0; Win64; x64; rv:86.0) Gecko/20100101 Firefox/86.0,,Firefox,86,Windows,10
10,1,1497,"""",html-keyboard-response,7,106177,0.0-7.0,"<img src='jspsych/CFDfaces/CFD-WM-015-002-N.jpg' height=""250px"">,</br><b>Samuel</b>","""",3,IntactFace,Practice,70,5000,f,"""","""","""","""","""","""","""","""",3/11/2021 19:18,99.35.42.200,Mozilla/5.0 (Windows NT 10.0; Win64; x64; rv:86.0) Gecko/20100101 Firefox/86.0,,Firefox,86,Windows,10
10,1,null,"""",html-keyboard-response,8,106692,0.0-8.0,"<div style=""font-size:60px;"">+</div>","""",3,ITI,Practice,null,1000,"""","""","""","""","""","""","""","""","""",3/11/2021 19:18,99.35.42.200,Mozilla/5.0 (Windows NT 10.0; Win64; x64; rv:86.0) Gecko/20100101 Firefox/86.0,,Firefox,86,Windows,10
10,1,1859,"""",html-keyboard-response,9,111704,0.0-9.0,"<img src='jspsych/CFDfaces/CFD-LF-204-133-N.jpg' height=""250px"">,</br><b>Cassandra</b>","""",4,IntactFace,Practice,70,5000,f,"""","""","""","""","""","""","""","""",3/11/2021 19:18,99.35.42.200,Mozilla/5.0 (Windows NT 10.0; Win64; x64; rv:86.0) Gecko/20100101 Firefox/86.0,,Firefox,86,Windows,10
10,1,null,"""",html-keyboard-response,10,112216,0.0-10.0,"<div style=""font-size:60px;"">+</div>","""",4,ITI,Practice,null,1000,"""","""","""","""","""","""","""","""","""",3/11/2021 19:18,99.35.42.200,Mozilla/5.0 (Windows NT 10.0; Win64; x64; rv:86.0) Gecko/20100101 Firefox/86.0,,Firefox,86,Windows,10
10,1,1626,"""",html-keyboard-response,11,117220,0.0-11.0,"<img src='jspsych/CFDfaces/CFD-WF-207-014-N.jpg' height=""250px"">,</br><b>Shannon</b>","""",5,IntactFace,Practice,70,5000,f,"""","""","""","""","""","""","""","""",3/11/2021 19:18,99.35.42.200,Mozilla/5.0 (Windows NT 10.0; Win64; x64; rv:86.0) Gecko/20100101 Firefox/86.0,,Firefox,86,Windows,10
10,1,null,"""",html-keyboard-response,12,117736,0.0-12.0,"<div style=""font-size:60px;"">+</div>","""",5,ITI,Practice,null,1000,"""","""","""","""","""","""","""","""","""",3/11/2021 19:18,99.35.42.200,Mozilla/5.0 (Windows NT 10.0; Win64; x64; rv:86.0) Gecko/20100101 Firefox/86.0,,Firefox,86,Windows,10
10,1,1557,"""",html-keyboard-response,13,122752,0.0-13.0,"<img src='jspsych/CFDfaces/CFD-WM-216-061-N.jpg' height=""250px"">,</br><b>Patrick</b>","""",6,IntactFace,Practice,70,5000,f,"""","""","""","""","""","""","""","""",3/11/2021 19:18,99.35.42.200,Mozilla/5.0 (Windows NT 10.0; Win64; x64; rv:86.0) Gecko/20100101 Firefox/86.0,,Firefox,86,Windows,10
10,1,null,"""",html-keyboard-response,14,123269,0.0-14.0,"<div style=""font-size:60px;"">+</div>","""",6,ITI,Practice,null,1000,"""","""","""","""","""","""","""","""","""",3/11/2021 19:18,99.35.42.200,Mozilla/5.0 (Windows NT 10.0; Win64; x64; rv:86.0) Gecko/20100101 Firefox/86.0,,Firefox,86,Windows,10
10,1,2342,"""",html-keyboard-response,15,128291,0.0-15.0,"<img src='jspsych/CFDfaces/CFD-LM-234-176-N.jpg' height=""250px"">,</br><b>Marcus</b>","""",7,IntactFace,Practice,78,5000,n,"""","""","""","""","""","""","""","""",3/11/2021 19:18,99.35.42.200,Mozilla/5.0 (Windows NT 10.0; Win64; x64; rv:86.0) Gecko/20100101 Firefox/86.0,,Firefox,86,Windows,10
10,1,null,"""",html-keyboard-response,16,128794,0.0-16.0,"<div style=""font-size:60px;"">+</div>","""",7,ITI,Practice,null,1000,"""","""","""","""","""","""","""","""","""",3/11/2021 19:18,99.35.42.200,Mozilla/5.0 (Windows NT 10.0; Win64; x64; rv:86.0) Gecko/20100101 Firefox/86.0,,Firefox,86,Windows,10
10,1,2408,"""",html-keyboard-response,17,133809,0.0-17.0,"<img src='jspsych/CFDfaces/CFD-LM-248-089-N.jpg' height=""250px"">,</br><b>Carlos</b>","""",8,IntactFace,Practice,70,5000,f,"""","""","""","""","""","""","""","""",3/11/2021 19:18,99.35.42.200,Mozilla/5.0 (Windows NT 10.0; Win64; x64; rv:86.0) Gecko/20100101 Firefox/86.0,,Firefox,86,Windows,10
10,1,null,"""",html-keyboard-response,18,134312,0.0-18.0,"<div style=""font-size:60px;"">+</div>","""",8,ITI,Practice,null,1000,"""","""","""","""","""","""","""","""","""",3/11/2021 19:18,99.35.42.200,Mozilla/5.0 (Windows NT 10.0; Win64; x64; rv:86.0) Gecko/20100101 Firefox/86.0,,Firefox,86,Windows,10
10,1,16445,"""",image-button-response,19,150773,0.0-19.0,directionsForTest.JPG,0,1,directionsForTest,break,"""","""","""","""","""","""","""","""","""","""","""",3/11/2021 19:18,99.35.42.200,Mozilla/5.0 (Windows NT 10.0; Win64; x64; rv:86.0) Gecko/20100101 Firefox/86.0,,Firefox,86,Windows,10
10,1,15372,"""",image-button-response,20,166156,0.0-20.0,directionsForTest2.JPG,0,1,directionsForTest2,break,"""","""","""","""","""","""","""","""","""","""","""",3/11/2021 19:18,99.35.42.200,Mozilla/5.0 (Windows NT 10.0; Win64; x64; rv:86.0) Gecko/20100101 Firefox/86.0,,Firefox,86,Windows,10
10,1,null,"""",html-keyboard-response,21,167167,0.0-21.0,"<div style=""font-size:60px;"">+</div>","""",1,ITI,Practice,null,1000,"""","""","""","""","""","""","""","""","""",3/11/2021 19:18,99.35.42.200,Mozilla/5.0 (Windows NT 10.0; Win64; x64; rv:86.0) Gecko/20100101 Firefox/86.0,,Firefox,86,Windows,10
10,1,null,"""",image-keyboard-response,22,167432,0.0-22.0,jspsych/scrambledNeutralFaces/scrambledBF27NES.JPG,"""",1,forwardMask,Practice,null,250,"""",n,"""","""","""","""","""","""","""",3/11/2021 19:18,99.35.42.200,Mozilla/5.0 (Windows NT 10.0; Win64; x64; rv:86.0) Gecko/20100101 Firefox/86.0,,Firefox,86,Windows,10
10,1,null,"""",image-keyboard-response,23,167462,0.0-23.0,jspsych/neutralFaces/BF27NES.JPG,"""",1,Cue,Practice,null,16,"""","""","""","""","""","""","""","""","""",3/11/2021 19:18,99.35.42.200,Mozilla/5.0 (Windows NT 10.0; Win64; x64; rv:86.0) Gecko/20100101 Firefox/86.0,,Firefox,86,Windows,10
10,1,null,"""",image-keyboard-response,24,167572,0.0-24.0,jspsych/neutralFaces/BF18NES.JPG,"""",1,backwardMask,Practice,null,100,"""","""","""","""","""","""","""","""","""",3/11/2021 19:18,99.35.42.200,Mozilla/5.0 (Windows NT 10.0; Win64; x64; rv:86.0) Gecko/20100101 Firefox/86.0,,Firefox,86,Windows,10
10,1,null,"""",html-keyboard-response,25,168577,0.0-25.0,"<div style=""font-size:60px;"">+</div>","""",1,fixationBtwnNeutralMaskAndPrompt,Practice,null,1000,"""","""","""","""","""","""","""","""","""",3/11/2021 19:18,99.35.42.200,Mozilla/5.0 (Windows NT 10.0; Win64; x64; rv:86.0) Gecko/20100101 Firefox/86.0,,Firefox,86,Windows,10
10,1,2936,"""",html-button-response,26,171514,0.0-26.0,"<img src='jspsych/CFDfaces/CFD-LF-204-133-N.jpg'height=""250px""></br><b>Katelyn</b>",1,1,IntactOrRearranged,Practice,"""","""","""","""",CFD-LF-204-133-N.jpg,Katelyn,1,1,"""","""","""",3/11/2021 19:18,99.35.42.200,Mozilla/5.0 (Windows NT 10.0; Win64; x64; rv:86.0) Gecko/20100101 Firefox/86.0,,Firefox,86,Windows,10
10,1,3459,"""",html-slider-response,27,174987,0.0-27.0,"<img src='jspsych/CFDfaces/CFD-LF-204-133-N.jpg'height=""250px""></br><b>Katelyn</b>","""",1,ConfidenceQuery,Practice,"""","""","""","""",CFD-BM-029-024-N.jpg,Timothy,1,"""",0,100,"""",3/11/2021 19:18,99.35.42.200,Mozilla/5.0 (Windows NT 10.0; Win64; x64; rv:86.0) Gecko/20100101 Firefox/86.0,,Firefox,86,Windows,10
10,1,1972,"""",html-button-response,28,176962,0.0-28.0,You are Correct. You Called A Rearranged Pair Rearranged,0,1,feedback,Practice,"""","""","""","""","""","""","""","""","""","""","""",3/11/2021 19:18,99.35.42.200,Mozilla/5.0 (Windows NT 10.0; Win64; x64; rv:86.0) Gecko/20100101 Firefox/86.0,,Firefox,86,Windows,10
10,1,null,"""",html-keyboard-response,29,177979,0.0-29.0,"<div style=""font-size:60px;"">+</div>","""",2,ITI,Practice,null,1000,"""","""","""","""","""","""","""","""","""",3/11/2021 19:18,99.35.42.200,Mozilla/5.0 (Windows NT 10.0; Win64; x64; rv:86.0) Gecko/20100101 Firefox/86.0,,Firefox,86,Windows,10
10,1,null,"""",image-keyboard-response,30,178242,0.0-30.0,jspsych/scrambledNeutralFaces/scrambledBM23NES.JPG,"""",2,forwardMask,Practice,null,250,"""",n,"""","""","""","""","""","""","""",3/11/2021 19:18,99.35.42.200,Mozilla/5.0 (Windows NT 10.0; Win64; x64; rv:86.0) Gecko/20100101 Firefox/86.0,,Firefox,86,Windows,10
10,1,null,"""",image-keyboard-response,31,178273,0.0-31.0,jspsych/neutralFaces/BM23NES.JPG,"""",2,Cue,Practice,null,16,"""","""","""","""","""","""","""","""","""",3/11/2021 19:18,99.35.42.200,Mozilla/5.0 (Windows NT 10.0; Win64; x64; rv:86.0) Gecko/20100101 Firefox/86.0,,Firefox,86,Windows,10
10,1,null,"""",image-keyboard-response,32,178382,0.0-32.0,jspsych/neutralFaces/BM01NES.JPG,"""",2,backwardMask,Practice,null,100,"""","""","""","""","""","""","""","""","""",3/11/2021 19:18,99.35.42.200,Mozilla/5.0 (Windows NT 10.0; Win64; x64; rv:86.0) Gecko/20100101 Firefox/86.0,,Firefox,86,Windows,10
10,1,null,"""",html-keyboard-response,33,179386,0.0-33.0,"<div style=""font-size:60px;"">+</div>","""",2,fixationBtwnNeutralMaskAndPrompt,Practice,null,1000,"""","""","""","""","""","""","""","""","""",3/11/2021 19:18,99.35.42.200,Mozilla/5.0 (Windows NT 10.0; Win64; x64; rv:86.0) Gecko/20100101 Firefox/86.0,,Firefox,86,Windows,10
10,1,null,"""",html-button-response,34,184396,0.0-34.0,"<img src='jspsych/CFDfaces/CFD-LM-248-089-N.jpg'height=""250px""></br><b>Marcus</b>",null,2,IntactOrRearranged,Practice,"""","""","""","""",CFD-LM-248-089-N.jpg,Marcus,1,"""","""","""","""",3/11/2021 19:18,99.35.42.200,Mozilla/5.0 (Windows NT 10.0; Win64; x64; rv:86.0) Gecko/20100101 Firefox/86.0,,Firefox,86,Windows,10
10,1,3110,"""",html-slider-response,35,187510,0.0-35.0,"<img src='jspsych/CFDfaces/CFD-LM-248-089-N.jpg'height=""250px""></br><b>Marcus</b>","""",2,ConfidenceQuery,Practice,"""","""","""","""",CFD-BM-029-024-N.jpg,Timothy,1,"""",0,100,"""",3/11/2021 19:18,99.35.42.200,Mozilla/5.0 (Windows NT 10.0; Win64; x64; rv:86.0) Gecko/20100101 Firefox/86.0,,Firefox,86,Windows,10
10,1,2132,"""",html-button-response,36,189645,0.0-36.0,Please click either button: REARRANGED or INTACT. There is a 5 second time-limit!,0,2,feedback,Practice,"""","""","""","""","""","""","""","""","""","""","""",3/11/2021 19:18,99.35.42.200,Mozilla/5.0 (Windows NT 10.0; Win64; x64; rv:86.0) Gecko/20100101 Firefox/86.0,,Firefox,86,Windows,10
10,1,null,"""",html-keyboard-response,37,190659,0.0-37.0,"<div style=""font-size:60px;"">+</div>","""",3,ITI,Practice,null,1000,"""","""","""","""","""","""","""","""","""",3/11/2021 19:18,99.35.42.200,Mozilla/5.0 (Windows NT 10.0; Win64; x64; rv:86.0) Gecko/20100101 Firefox/86.0,,Firefox,86,Windows,10
10,1,null,"""",image-keyboard-response,38,190926,0.0-38.0,jspsych/scrambledDisgustFaces/scrambledBF20DIS.JPG,"""",3,forwardMask,Practice,null,250,"""",d,"""","""","""","""","""","""","""",3/11/2021 19:18,99.35.42.200,Mozilla/5.0 (Windows NT 10.0; Win64; x64; rv:86.0) Gecko/20100101 Firefox/86.0,,Firefox,86,Windows,10
10,1,null,"""",image-keyboard-response,39,190957,0.0-39.0,jspsych/disgustFaces/BF20DIS.JPG,"""",3,Cue,Practice,null,16,"""","""","""","""","""","""","""","""","""",3/11/2021 19:18,99.35.42.200,Mozilla/5.0 (Windows NT 10.0; Win64; x64; rv:86.0) Gecko/20100101 Firefox/86.0,,Firefox,86,Windows,10
10,1,null,"""",image-keyboard-response,40,191067,0.0-40.0,jspsych/neutralFaces/AF20NES.JPG,"""",3,backwardMask,Practice,null,100,"""","""","""","""","""","""","""","""","""",3/11/2021 19:18,99.35.42.200,Mozilla/5.0 (Windows NT 10.0; Win64; x64; rv:86.0) Gecko/20100101 Firefox/86.0,,Firefox,86,Windows,10
10,1,null,"""",html-keyboard-response,41,192071,0.0-41.0,"<div style=""font-size:60px;"">+</div>","""",3,fixationBtwnNeutralMaskAndPrompt,Practice,null,1000,"""","""","""","""","""","""","""","""","""",3/11/2021 19:18,99.35.42.200,Mozilla/5.0 (Windows NT 10.0; Win64; x64; rv:86.0) Gecko/20100101 Firefox/86.0,,Firefox,86,Windows,10
10,1,1609,"""",html-button-response,42,193682,0.0-42.0,"<img src='jspsych/CFDfaces/CFD-WF-207-014-N.jpg'height=""250px""></br><b>Shannon</b>",0,3,IntactOrRearranged,Practice,"""","""","""","""",CFD-WF-207-014-N.jpg,Shannon,0,0,"""","""","""",3/11/2021 19:18,99.35.42.200,Mozilla/5.0 (Windows NT 10.0; Win64; x64; rv:86.0) Gecko/20100101 Firefox/86.0,,Firefox,86,Windows,10
10,1,2928,"""",html-slider-response,43,196614,0.0-43.0,"<img src='jspsych/CFDfaces/CFD-WF-207-014-N.jpg'height=""250px""></br><b>Shannon</b>","""",3,ConfidenceQuery,Practice,"""","""","""","""",CFD-BM-029-024-N.jpg,Timothy,0,"""",0,100,"""",3/11/2021 19:18,99.35.42.200,Mozilla/5.0 (Windows NT 10.0; Win64; x64; rv:86.0) Gecko/20100101 Firefox/86.0,,Firefox,86,Windows,10
10,1,1678,"""",html-button-response,44,198293,0.0-44.0,You are Correct. You called an Intact Pair Intact,0,3,feedback,Practice,"""","""","""","""","""","""","""","""","""","""","""",3/11/2021 19:18,99.35.42.200,Mozilla/5.0 (Windows NT 10.0; Win64; x64; rv:86.0) Gecko/20100101 Firefox/86.0,,Firefox,86,Windows,10
10,1,null,"""",html-keyboard-response,45,199306,0.0-45.0,"<div style=""font-size:60px;"">+</div>","""",4,ITI,Practice,null,1000,"""","""","""","""","""","""","""","""","""",3/11/2021 19:18,99.35.42.200,Mozilla/5.0 (Windows NT 10.0; Win64; x64; rv:86.0) Gecko/20100101 Firefox/86.0,,Firefox,86,Windows,10
10,1,null,"""",image-keyboard-response,46,199566,0.0-46.0,jspsych/scrambledDisgustFaces/scrambledBF11DIS.JPG,"""",4,forwardMask,Practice,null,250,"""",d,"""","""","""","""","""","""","""",3/11/2021 19:18,99.35.42.200,Mozilla/5.0 (Windows NT 10.0; Win64; x64; rv:86.0) Gecko/20100101 Firefox/86.0,,Firefox,86,Windows,10
10,1,null,"""",image-keyboard-response,47,199606,0.0-47.0,jspsych/disgustFaces/BF11DIS.JPG,"""",4,Cue,Practice,null,16,"""","""","""","""","""","""","""","""","""",3/11/2021 19:18,99.35.42.200,Mozilla/5.0 (Windows NT 10.0; Win64; x64; rv:86.0) Gecko/20100101 Firefox/86.0,,Firefox,86,Windows,10
10,1,null,"""",image-keyboard-response,48,199715,0.0-48.0,jspsych/neutralFaces/BF25NES.JPG,"""",4,backwardMask,Practice,null,100,"""","""","""","""","""","""","""","""","""",3/11/2021 19:18,99.35.42.200,Mozilla/5.0 (Windows NT 10.0; Win64; x64; rv:86.0) Gecko/20100101 Firefox/86.0,,Firefox,86,Windows,10
10,1,null,"""",html-keyboard-response,49,200718,0.0-49.0,"<div style=""font-size:60px;"">+</div>","""",4,fixationBtwnNeutralMaskAndPrompt,Practice,null,1000,"""","""","""","""","""","""","""","""","""",3/11/2021 19:18,99.35.42.200,Mozilla/5.0 (Windows NT 10.0; Win64; x64; rv:86.0) Gecko/20100101 Firefox/86.0,,Firefox,86,Windows,10
10,1,2345,"""",html-button-response,50,203063,0.0-50.0,"<img src='jspsych/CFDfaces/CFD-LM-234-176-N.jpg'height=""250px""></br><b>Carlos</b>",0,4,IntactOrRearranged,Practice,"""","""","""","""",CFD-LM-234-176-N.jpg,Carlos,1,0,"""","""","""",3/11/2021 19:18,99.35.42.200,Mozilla/5.0 (Windows NT 10.0; Win64; x64; rv:86.0) Gecko/20100101 Firefox/86.0,,Firefox,86,Windows,10
10,1,3983,"""",html-slider-response,51,207053,0.0-51.0,"<img src='jspsych/CFDfaces/CFD-LM-234-176-N.jpg'height=""250px""></br><b>Carlos</b>","""",4,ConfidenceQuery,Practice,"""","""","""","""",CFD-BM-029-024-N.jpg,Timothy,1,"""",0,100,"""",3/11/2021 19:18,99.35.42.200,Mozilla/5.0 (Windows NT 10.0; Win64; x64; rv:86.0) Gecko/20100101 Firefox/86.0,,Firefox,86,Windows,10
10,1,1919,"""",html-button-response,52,208973,0.0-52.0,You are Incorrect. You called a Rearranged Pair Intact,0,4,feedback,Practice,"""","""","""","""","""","""","""","""","""","""","""",3/11/2021 19:18,99.35.42.200,Mozilla/5.0 (Windows NT 10.0; Win64; x64; rv:86.0) Gecko/20100101 Firefox/86.0,,Firefox,86,Windows,10
10,1,null,"""",html-keyboard-response,53,209991,0.0-53.0,"<div style=""font-size:60px;"">+</div>","""",5,ITI,Practice,null,1000,"""","""","""","""","""","""","""","""","""",3/11/2021 19:18,99.35.42.200,Mozilla/5.0 (Windows NT 10.0; Win64; x64; rv:86.0) Gecko/20100101 Firefox/86.0,,Firefox,86,Windows,10
10,1,null,"""",image-keyboard-response,54,210258,0.0-54.0,jspsych/scrambledDisgustFaces/scrambledBF15DIS.JPG,"""",5,forwardMask,Practice,null,250,"""",d,"""","""","""","""","""","""","""",3/11/2021 19:18,99.35.42.200,Mozilla/5.0 (Windows NT 10.0; Win64; x64; rv:86.0) Gecko/20100101 Firefox/86.0,,Firefox,86,Windows,10
10,1,null,"""",image-keyboard-response,55,210289,0.0-55.0,jspsych/disgustFaces/BF15DIS.JPG,"""",5,Cue,Practice,null,16,"""","""","""","""","""","""","""","""","""",3/11/2021 19:18,99.35.42.200,Mozilla/5.0 (Windows NT 10.0; Win64; x64; rv:86.0) Gecko/20100101 Firefox/86.0,,Firefox,86,Windows,10
10,1,null,"""",image-keyboard-response,56,210398,0.0-56.0,jspsych/neutralFaces/BF13NES.JPG,"""",5,backwardMask,Practice,null,100,"""","""","""","""","""","""","""","""","""",3/11/2021 19:18,99.35.42.200,Mozilla/5.0 (Windows NT 10.0; Win64; x64; rv:86.0) Gecko/20100101 Firefox/86.0,,Firefox,86,Windows,10
10,1,null,"""",html-keyboard-response,57,211413,0.0-57.0,"<div style=""font-size:60px;"">+</div>","""",5,fixationBtwnNeutralMaskAndPrompt,Practice,null,1000,"""","""","""","""","""","""","""","""","""",3/11/2021 19:18,99.35.42.200,Mozilla/5.0 (Windows NT 10.0; Win64; x64; rv:86.0) Gecko/20100101 Firefox/86.0,,Firefox,86,Windows,10
10,1,2036,"""",html-button-response,58,213450,0.0-58.0,"<img src='jspsych/CFDfaces/CFD-WM-216-061-N.jpg'height=""250px""></br><b>Patrick</b>",0,5,IntactOrRearranged,Practice,"""","""","""","""",CFD-WM-216-061-N.jpg,Patrick,0,0,"""","""","""",3/11/2021 19:18,99.35.42.200,Mozilla/5.0 (Windows NT 10.0; Win64; x64; rv:86.0) Gecko/20100101 Firefox/86.0,,Firefox,86,Windows,10
10,1,2674,"""",html-slider-response,59,216128,0.0-59.0,"<img src='jspsych/CFDfaces/CFD-WM-216-061-N.jpg'height=""250px""></br><b>Patrick</b>","""",5,ConfidenceQuery,Practice,"""","""","""","""",CFD-BM-029-024-N.jpg,Timothy,0,"""",0,100,"""",3/11/2021 19:18,99.35.42.200,Mozilla/5.0 (Windows NT 10.0; Win64; x64; rv:86.0) Gecko/20100101 Firefox/86.0,,Firefox,86,Windows,10
10,1,1488,"""",html-button-response,60,217618,0.0-60.0,You are Correct. You called an Intact Pair Intact,0,5,feedback,Practice,"""","""","""","""","""","""","""","""","""","""","""",3/11/2021 19:18,99.35.42.200,Mozilla/5.0 (Windows NT 10.0; Win64; x64; rv:86.0) Gecko/20100101 Firefox/86.0,,Firefox,86,Windows,10
10,1,null,"""",html-keyboard-response,61,218626,0.0-61.0,"<div style=""font-size:60px;"">+</div>","""",6,ITI,Practice,null,1000,"""","""","""","""","""","""","""","""","""",3/11/2021 19:18,99.35.42.200,Mozilla/5.0 (Windows NT 10.0; Win64; x64; rv:86.0) Gecko/20100101 Firefox/86.0,,Firefox,86,Windows,10
10,1,null,"""",image-keyboard-response,62,218886,0.0-62.0,jspsych/scrambledNeutralFaces/scrambledAM26NES.JPG,"""",6,forwardMask,Practice,null,250,"""",n,"""","""","""","""","""","""","""",3/11/2021 19:18,99.35.42.200,Mozilla/5.0 (Windows NT 10.0; Win64; x64; rv:86.0) Gecko/20100101 Firefox/86.0,,Firefox,86,Windows,10
10,1,null,"""",image-keyboard-response,63,218926,0.0-63.0,jspsych/neutralFaces/AM26NES.JPG,"""",6,Cue,Practice,null,16,"""","""","""","""","""","""","""","""","""",3/11/2021 19:18,99.35.42.200,Mozilla/5.0 (Windows NT 10.0; Win64; x64; rv:86.0) Gecko/20100101 Firefox/86.0,,Firefox,86,Windows,10
10,1,null,"""",image-keyboard-response,64,219046,0.0-64.0,jspsych/neutralFaces/BM21NES.JPG,"""",6,backwardMask,Practice,null,100,"""","""","""","""","""","""","""","""","""",3/11/2021 19:18,99.35.42.200,Mozilla/5.0 (Windows NT 10.0; Win64; x64; rv:86.0) Gecko/20100101 Firefox/86.0,,Firefox,86,Windows,10
10,1,null,"""",html-keyboard-response,65,220056,0.0-65.0,"<div style=""font-size:60px;"">+</div>","""",6,fixationBtwnNeutralMaskAndPrompt,Practice,null,1000,"""","""","""","""","""","""","""","""","""",3/11/2021 19:18,99.35.42.200,Mozilla/5.0 (Windows NT 10.0; Win64; x64; rv:86.0) Gecko/20100101 Firefox/86.0,,Firefox,86,Windows,10
10,1,2707,"""",html-button-response,66,222765,0.0-66.0,"<img src='jspsych/CFDfaces/CFD-LF-205-100-N.jpg'height=""250px""></br><b>Cassandra</b>",1,6,IntactOrRearranged,Practice,"""","""","""","""",CFD-LF-205-100-N.jpg,Cassandra,1,1,"""","""","""",3/11/2021 19:18,99.35.42.200,Mozilla/5.0 (Windows NT 10.0; Win64; x64; rv:86.0) Gecko/20100101 Firefox/86.0,,Firefox,86,Windows,10
10,1,3307,"""",html-slider-response,67,226077,0.0-67.0,"<img src='jspsych/CFDfaces/CFD-LF-205-100-N.jpg'height=""250px""></br><b>Cassandra</b>","""",6,ConfidenceQuery,Practice,"""","""","""","""",CFD-BM-029-024-N.jpg,Timothy,1,"""",0,56,"""",3/11/2021 19:18,99.35.42.200,Mozilla/5.0 (Windows NT 10.0; Win64; x64; rv:86.0) Gecko/20100101 Firefox/86.0,,Firefox,86,Windows,10
10,1,1919,"""",html-button-response,68,227998,0.0-68.0,You are Correct. You Called A Rearranged Pair Rearranged,0,6,feedback,Practice,"""","""","""","""","""","""","""","""","""","""","""",3/11/2021 19:18,99.35.42.200,Mozilla/5.0 (Windows NT 10.0; Win64; x64; rv:86.0) Gecko/20100101 Firefox/86.0,,Firefox,86,Windows,10
10,1,null,"""",html-keyboard-response,69,229016,0.0-69.0,"<div style=""font-size:60px;"">+</div>","""",7,ITI,Practice,null,1000,"""","""","""","""","""","""","""","""","""",3/11/2021 19:18,99.35.42.200,Mozilla/5.0 (Windows NT 10.0; Win64; x64; rv:86.0) Gecko/20100101 Firefox/86.0,,Firefox,86,Windows,10
10,1,null,"""",image-keyboard-response,70,229275,0.0-70.0,jspsych/scrambledDisgustFaces/scrambledBF34DIS.JPG,"""",7,forwardMask,Practice,null,250,"""",d,"""","""","""","""","""","""","""",3/11/2021 19:18,99.35.42.200,Mozilla/5.0 (Windows NT 10.0; Win64; x64; rv:86.0) Gecko/20100101 Firefox/86.0,,Firefox,86,Windows,10
10,1,null,"""",image-keyboard-response,71,229316,0.0-71.0,jspsych/disgustFaces/BF34DIS.JPG,"""",7,Cue,Practice,null,16,"""","""","""","""","""","""","""","""","""",3/11/2021 19:18,99.35.42.200,Mozilla/5.0 (Windows NT 10.0; Win64; x64; rv:86.0) Gecko/20100101 Firefox/86.0,,Firefox,86,Windows,10
10,1,null,"""",image-keyboard-response,72,229436,0.0-72.0,jspsych/neutralFaces/BF24NES.JPG,"""",7,backwardMask,Practice,null,100,"""","""","""","""","""","""","""","""","""",3/11/2021 19:18,99.35.42.200,Mozilla/5.0 (Windows NT 10.0; Win64; x64; rv:86.0) Gecko/20100101 Firefox/86.0,,Firefox,86,Windows,10
10,1,null,"""",html-keyboard-response,73,230455,0.0-73.0,"<div style=""font-size:60px;"">+</div>","""",7,fixationBtwnNeutralMaskAndPrompt,Practice,null,1000,"""","""","""","""","""","""","""","""","""",3/11/2021 19:18,99.35.42.200,Mozilla/5.0 (Windows NT 10.0; Win64; x64; rv:86.0) Gecko/20100101 Firefox/86.0,,Firefox,86,Windows,10
10,1,1760,"""",html-button-response,74,232217,0.0-74.0,"<img src='jspsych/CFDfaces/CFD-WM-015-002-N.jpg'height=""250px""></br><b>Samuel</b>",0,7,IntactOrRearranged,Practice,"""","""","""","""",CFD-WM-015-002-N.jpg,Samuel,0,0,"""","""","""",3/11/2021 19:18,99.35.42.200,Mozilla/5.0 (Windows NT 10.0; Win64; x64; rv:86.0) Gecko/20100101 Firefox/86.0,,Firefox,86,Windows,10
10,1,2915,"""",html-slider-response,75,235138,0.0-75.0,"<img src='jspsych/CFDfaces/CFD-WM-015-002-N.jpg'height=""250px""></br><b>Samuel</b>","""",7,ConfidenceQuery,Practice,"""","""","""","""",CFD-BM-029-024-N.jpg,Timothy,0,"""",0,100,"""",3/11/2021 19:18,99.35.42.200,Mozilla/5.0 (Windows NT 10.0; Win64; x64; rv:86.0) Gecko/20100101 Firefox/86.0,,Firefox,86,Windows,10
10,1,2077,"""",html-button-response,76,237218,0.0-76.0,You are Correct. You called an Intact Pair Intact,0,7,feedback,Practice,"""","""","""","""","""","""","""","""","""","""","""",3/11/2021 19:18,99.35.42.200,Mozilla/5.0 (Windows NT 10.0; Win64; x64; rv:86.0) Gecko/20100101 Firefox/86.0,,Firefox,86,Windows,10
10,1,null,"""",html-keyboard-response,77,238235,0.0-77.0,"<div style=""font-size:60px;"">+</div>","""",8,ITI,Practice,null,1000,"""","""","""","""","""","""","""","""","""",3/11/2021 19:18,99.35.42.200,Mozilla/5.0 (Windows NT 10.0; Win64; x64; rv:86.0) Gecko/20100101 Firefox/86.0,,Firefox,86,Windows,10
10,1,null,"""",image-keyboard-response,78,238496,0.0-78.0,jspsych/scrambledNeutralFaces/scrambledAF23NES.JPG,"""",8,forwardMask,Practice,null,250,"""",n,"""","""","""","""","""","""","""",3/11/2021 19:18,99.35.42.200,Mozilla/5.0 (Windows NT 10.0; Win64; x64; rv:86.0) Gecko/20100101 Firefox/86.0,,Firefox,86,Windows,10
10,1,null,"""",image-keyboard-response,79,238536,0.0-79.0,jspsych/neutralFaces/AF23NES.JPG,"""",8,Cue,Practice,null,16,"""","""","""","""","""","""","""","""","""",3/11/2021 19:18,99.35.42.200,Mozilla/5.0 (Windows NT 10.0; Win64; x64; rv:86.0) Gecko/20100101 Firefox/86.0,,Firefox,86,Windows,10
10,1,null,"""",image-keyboard-response,80,238655,0.0-80.0,jspsych/neutralFaces/AF34NES.JPG,"""",8,backwardMask,Practice,null,100,"""","""","""","""","""","""","""","""","""",3/11/2021 19:18,99.35.42.200,Mozilla/5.0 (Windows NT 10.0; Win64; x64; rv:86.0) Gecko/20100101 Firefox/86.0,,Firefox,86,Windows,10
10,1,null,"""",html-keyboard-response,81,239676,0.0-81.0,"<div style=""font-size:60px;"">+</div>","""",8,fixationBtwnNeutralMaskAndPrompt,Practice,null,1000,"""","""","""","""","""","""","""","""","""",3/11/2021 19:18,99.35.42.200,Mozilla/5.0 (Windows NT 10.0; Win64; x64; rv:86.0) Gecko/20100101 Firefox/86.0,,Firefox,86,Windows,10
10,1,1839,"""",html-button-response,82,241518,0.0-82.0,"<img src='jspsych/CFDfaces/CFD-LF-206-078-N.jpg'height=""250px""></br><b>Tara</b>",0,8,IntactOrRearranged,Practice,"""","""","""","""",CFD-LF-206-078-N.jpg,Tara,0,0,"""","""","""",3/11/2021 19:18,99.35.42.200,Mozilla/5.0 (Windows NT 10.0; Win64; x64; rv:86.0) Gecko/20100101 Firefox/86.0,,Firefox,86,Windows,10
10,1,2884,"""",html-slider-response,83,244407,0.0-83.0,"<img src='jspsych/CFDfaces/CFD-LF-206-078-N.jpg'height=""250px""></br><b>Tara</b>","""",8,ConfidenceQuery,Practice,"""","""","""","""",CFD-BM-029-024-N.jpg,Timothy,0,"""",0,100,"""",3/11/2021 19:18,99.35.42.200,Mozilla/5.0 (Windows NT 10.0; Win64; x64; rv:86.0) Gecko/20100101 Firefox/86.0,,Firefox,86,Windows,10
10,1,1599,"""",html-button-response,84,246009,0.0-84.0,You are Correct. You called an Intact Pair Intact,0,8,feedback,Practice,"""","""","""","""","""","""","""","""","""","""","""",3/11/2021 19:18,99.35.42.200,Mozilla/5.0 (Windows NT 10.0; Win64; x64; rv:86.0) Gecko/20100101 Firefox/86.0,,Firefox,86,Windows,10
10,1,28223,"""",image-button-response,85,274247,0.0-85.0,directionsMemoryAssociation3.JPG,0,128,DirectionsBeforeActualTEst,Break,"""","""","""","""","""","""","""","""","""","""","""",3/11/2021 19:18,99.35.42.200,Mozilla/5.0 (Windows NT 10.0; Win64; x64; rv:86.0) Gecko/20100101 Firefox/86.0,,Firefox,86,Windows,10
10,1,5081,"""",image-button-response,86,279337,0.0-86.0,directionsForTest2.JPG,0,1,directionsForTest2,break,"""","""","""","""","""","""","""","""","""","""","""",3/11/2021 19:18,99.35.42.200,Mozilla/5.0 (Windows NT 10.0; Win64; x64; rv:86.0) Gecko/20100101 Firefox/86.0,,Firefox,86,Windows,10
10,1,11776,"""",html-button-response,87,291117,0.0-87.0,"<p>You will be asked to memorize and then recall four sets of face-name pairs. </p> <p> Each set will have 32 pairs. </p> <p>After the fourth set, there will be a brief follow-up experiment (<40 min alltogether)</p>",0,"""","""","""","""","""","""","""","""","""","""","""","""","""","""",3/11/2021 19:18,99.35.42.200,Mozilla/5.0 (Windows NT 10.0; Win64; x64; rv:86.0) Gecko/20100101 Firefox/86.0,,Firefox,86,Windows,10
10,1,2171,"""",html-keyboard-response,88,296136,0.0-88.0,"<img src='jspsych/CFDfaces/CFD-AF-237-223-N.jpg' height=""250px""></br><b>Kimberly</b>","""",256,IntactFace,Memorization,78,5000,n,"""",CFD-WM-232-070-N.jpg,Jacob,0,"""","""","""",1,3/11/2021 19:18,99.35.42.200,Mozilla/5.0 (Windows NT 10.0; Win64; x64; rv:86.0) Gecko/20100101 Firefox/86.0,,Firefox,86,Windows,10
10,1,null,"""",html-keyboard-response,89,296656,0.0-89.0,"<div style=""font-size:60px;"">+</div>","""",256,fixation,Memorization,null,500,"""","""","""","""","""","""","""","""",1,3/11/2021 19:18,99.35.42.200,Mozilla/5.0 (Windows NT 10.0; Win64; x64; rv:86.0) Gecko/20100101 Firefox/86.0,,Firefox,86,Windows,10
10,1,1383,"""",html-keyboard-response,90,301677,0.0-90.0,"<img src='jspsych/CFDfaces/CFD-WF-038-021-N.jpg' height=""250px""></br><b>Samantha</b>","""",256,IntactFace,Memorization,70,5000,f,"""",CFD-WM-006-002-N.jpg,Vincent,0,"""","""","""",1,3/11/2021 19:18,99.35.42.200,Mozilla/5.0 (Windows NT 10.0; Win64; x64; rv:86.0) Gecko/20100101 Firefox/86.0,,Firefox,86,Windows,10
10,1,null,"""",html-keyboard-response,91,302186,0.0-91.0,"<div style=""font-size:60px;"">+</div>","""",256,fixation,Memorization,null,500,"""","""","""","""","""","""","""","""",1,3/11/2021 19:18,99.35.42.200,Mozilla/5.0 (Windows NT 10.0; Win64; x64; rv:86.0) Gecko/20100101 Firefox/86.0,,Firefox,86,Windows,10
10,1,1813,"""",html-keyboard-response,92,307206,0.0-92.0,"<img src='jspsych/CFDfaces/CFD-WF-204-038-N.jpg' height=""250px""></br><b>Andrea</b>","""",256,IntactFace,Memorization,70,5000,f,"""",CFD-AM-213-056-N.jpg,Ryan,0,"""","""","""",1,3/11/2021 19:18,99.35.42.200,Mozilla/5.0 (Windows NT 10.0; Win64; x64; rv:86.0) Gecko/20100101 Firefox/86.0,,Firefox,86,Windows,10
10,1,null,"""",html-keyboard-response,93,307726,0.0-93.0,"<div style=""font-size:60px;"">+</div>","""",256,fixation,Memorization,null,500,"""","""","""","""","""","""","""","""",1,3/11/2021 19:18,99.35.42.200,Mozilla/5.0 (Windows NT 10.0; Win64; x64; rv:86.0) Gecko/20100101 Firefox/86.0,,Firefox,86,Windows,10
10,1,1443,"""",html-keyboard-response,94,312746,0.0-94.0,"<img src='jspsych/CFDfaces/CFD-BF-005-001-N.jpg' height=""250px""></br><b>Vanessa</b>","""",256,IntactFace,Memorization,70,5000,f,"""",CFD-BF-004-014-N.jpg,Jenna,0,"""","""","""",1,3/11/2021 19:18,99.35.42.200,Mozilla/5.0 (Windows NT 10.0; Win64; x64; rv:86.0) Gecko/20100101 Firefox/86.0,,Firefox,86,Windows,10
10,1,null,"""",html-keyboard-response,95,313266,0.0-95.0,"<div style=""font-size:60px;"">+</div>","""",256,fixation,Memorization,null,500,"""","""","""","""","""","""","""","""",1,3/11/2021 19:18,99.35.42.200,Mozilla/5.0 (Windows NT 10.0; Win64; x64; rv:86.0) Gecko/20100101 Firefox/86.0,,Firefox,86,Windows,10
10,1,1303,"""",html-keyboard-response,96,318287,0.0-96.0,"<img src='jspsych/CFDfaces/CFD-AF-241-141-N.jpg' height=""250px""></br><b>Ashley</b>","""",256,IntactFace,Memorization,78,5000,n,"""",CFD-LM-213-061-N.jpg,Steven,0,"""","""","""",1,3/11/2021 19:18,99.35.42.200,Mozilla/5.0 (Windows NT 10.0; Win64; x64; rv:86.0) Gecko/20100101 Firefox/86.0,,Firefox,86,Windows,10
10,1,null,"""",html-keyboard-response,97,318806,0.0-97.0,"<div style=""font-size:60px;"">+</div>","""",256,fixation,Memorization,null,500,"""","""","""","""","""","""","""","""",1,3/11/2021 19:18,99.35.42.200,Mozilla/5.0 (Windows NT 10.0; Win64; x64; rv:86.0) Gecko/20100101 Firefox/86.0,,Firefox,86,Windows,10
10,1,1823,"""",html-keyboard-response,98,323826,0.0-98.0,"<img src='jspsych/CFDfaces/CFD-BM-208-065-N.jpg' height=""250px""></br><b>Joshua</b>","""",256,IntactFace,Memorization,78,5000,n,"""",CFD-WF-024-003-N.jpg,Whitney,0,"""","""","""",1,3/11/2021 19:18,99.35.42.200,Mozilla/5.0 (Windows NT 10.0; Win64; x64; rv:86.0) Gecko/20100101 Firefox/86.0,,Firefox,86,Windows,10
10,1,null,"""",html-keyboard-response,99,324335,0.0-99.0,"<div style=""font-size:60px;"">+</div>","""",256,fixation,Memorization,null,500,"""","""","""","""","""","""","""","""",1,3/11/2021 19:18,99.35.42.200,Mozilla/5.0 (Windows NT 10.0; Win64; x64; rv:86.0) Gecko/20100101 Firefox/86.0,,Firefox,86,Windows,10
10,1,1343,"""",html-keyboard-response,100,329357,0.0-100.0,"<img src='jspsych/CFDfaces/CFD-AF-201-060-N.jpg' height=""250px""></br><b>Brittany</b>","""",256,IntactFace,Memorization,78,5000,n,"""",CFD-AM-248-104-N.jpg,Mark,0,"""","""","""",1,3/11/2021 19:18,99.35.42.200,Mozilla/5.0 (Windows NT 10.0; Win64; x64; rv:86.0) Gecko/20100101 Firefox/86.0,,Firefox,86,Windows,10
10,1,null,"""",html-keyboard-response,101,329868,0.0-101.0,"<div style=""font-size:60px;"">+</div>","""",256,fixation,Memorization,null,500,"""","""","""","""","""","""","""","""",1,3/11/2021 19:18,99.35.42.200,Mozilla/5.0 (Windows NT 10.0; Win64; x64; rv:86.0) Gecko/20100101 Firefox/86.0,,Firefox,86,Windows,10
10,1,2542,"""",html-keyboard-response,102,334886,0.0-102.0,"<img src='jspsych/CFDfaces/CFD-AF-208-003-N.jpg' height=""250px""></br><b>Michelle</b>","""",256,IntactFace,Memorization,70,5000,f,"""",CFD-BM-207-024-N.jpg,Timothy,0,"""","""","""",1,3/11/2021 19:18,99.35.42.200,Mozilla/5.0 (Windows NT 10.0; Win64; x64; rv:86.0) Gecko/20100101 Firefox/86.0,,Firefox,86,Windows,10
10,1,null,"""",html-keyboard-response,103,335396,0.0-103.0,"<div style=""font-size:60px;"">+</div>","""",256,fixation,Memorization,null,500,"""","""","""","""","""","""","""","""",1,3/11/2021 19:18,99.35.42.200,Mozilla/5.0 (Windows NT 10.0; Win64; x64; rv:86.0) Gecko/20100101 Firefox/86.0,,Firefox,86,Windows,10
10,1,1683,"""",html-keyboard-response,104,340416,0.0-104.0,"<img src='jspsych/CFDfaces/CFD-BM-027-001-N.jpg' height=""250px""></br><b>Daniel</b>","""",256,IntactFace,Memorization,70,5000,f,"""",CFD-AF-228-173-N.jpg,Sara,0,"""","""","""",1,3/11/2021 19:18,99.35.42.200,Mozilla/5.0 (Windows NT 10.0; Win64; x64; rv:86.0) Gecko/20100101 Firefox/86.0,,Firefox,86,Windows,10
10,1,null,"""",html-keyboard-response,105,340936,0.0-105.0,"<div style=""font-size:60px;"">+</div>","""",256,fixation,Memorization,null,500,"""","""","""","""","""","""","""","""",1,3/11/2021 19:18,99.35.42.200,Mozilla/5.0 (Windows NT 10.0; Win64; x64; rv:86.0) Gecko/20100101 Firefox/86.0,,Firefox,86,Windows,10
10,1,1935,"""",html-keyboard-response,106,345956,0.0-106.0,"<img src='jspsych/CFDfaces/CFD-BM-043-071-N.jpg' height=""250px""></br><b>Ian</b>","""",256,IntactFace,Memorization,78,5000,n,"""",CFD-WF-200-099-N.jpg,Heather,0,"""","""","""",1,3/11/2021 19:18,99.35.42.200,Mozilla/5.0 (Windows NT 10.0; Win64; x64; rv:86.0) Gecko/20100101 Firefox/86.0,,Firefox,86,Windows,10
10,1,null,"""",html-keyboard-response,107,346476,0.0-107.0,"<div style=""font-size:60px;"">+</div>","""",256,fixation,Memorization,null,500,"""","""","""","""","""","""","""","""",1,3/11/2021 19:18,99.35.42.200,Mozilla/5.0 (Windows NT 10.0; Win64; x64; rv:86.0) Gecko/20100101 Firefox/86.0,,Firefox,86,Windows,10
10,1,1694,"""",html-keyboard-response,108,351486,0.0-108.0,"<img src='jspsych/CFDfaces/CFD-LM-225-130-N.jpg' height=""250px""></br><b>Brandon</b>","""",256,IntactFace,Memorization,78,5000,n,"""",CFD-WF-006-002-N.jpg,Taylor,0,"""","""","""",1,3/11/2021 19:18,99.35.42.200,Mozilla/5.0 (Windows NT 10.0; Win64; x64; rv:86.0) Gecko/20100101 Firefox/86.0,,Firefox,86,Windows,10
10,1,null,"""",html-keyboard-response,109,352006,0.0-109.0,"<div style=""font-size:60px;"">+</div>","""",256,fixation,Memorization,null,500,"""","""","""","""","""","""","""","""",1,3/11/2021 19:18,99.35.42.200,Mozilla/5.0 (Windows NT 10.0; Win64; x64; rv:86.0) Gecko/20100101 Firefox/86.0,,Firefox,86,Windows,10
10,1,2195,"""",html-keyboard-response,110,357027,0.0-110.0,"<img src='jspsych/CFDfaces/CFD-BM-210-148-N.jpg' height=""250px""></br><b>Jason</b>","""",256,IntactFace,Memorization,78,5000,n,"""",CFD-AF-240-206-N.jpg,Melissa,0,"""","""","""",1,3/11/2021 19:18,99.35.42.200,Mozilla/5.0 (Windows NT 10.0; Win64; x64; rv:86.0) Gecko/20100101 Firefox/86.0,,Firefox,86,Windows,10
10,1,null,"""",html-keyboard-response,111,357546,0.0-111.0,"<div style=""font-size:60px;"">+</div>","""",256,fixation,Memorization,null,500,"""","""","""","""","""","""","""","""",1,3/11/2021 19:18,99.35.42.200,Mozilla/5.0 (Windows NT 10.0; Win64; x64; rv:86.0) Gecko/20100101 Firefox/86.0,,Firefox,86,Windows,10
10,1,1553,"""",html-keyboard-response,112,362567,0.0-112.0,"<img src='jspsych/CFDfaces/CFD-WF-019-005-N.jpg' height=""250px""></br><b>Elizabeth</b>","""",256,IntactFace,Memorization,70,5000,f,"""",CFD-LM-219-295-N.jpg,Justin,0,"""","""","""",1,3/11/2021 19:18,99.35.42.200,Mozilla/5.0 (Windows NT 10.0; Win64; x64; rv:86.0) Gecko/20100101 Firefox/86.0,,Firefox,86,Windows,10
10,1,null,"""",html-keyboard-response,113,363085,0.0-113.0,"<div style=""font-size:60px;"">+</div>","""",256,fixation,Memorization,null,500,"""","""","""","""","""","""","""","""",1,3/11/2021 19:18,99.35.42.200,Mozilla/5.0 (Windows NT 10.0; Win64; x64; rv:86.0) Gecko/20100101 Firefox/86.0,,Firefox,86,Windows,10
10,1,1335,"""",html-keyboard-response,114,368105,0.0-114.0,"<img src='jspsych/CFDfaces/CFD-AF-239-171-N.jpg' height=""250px""></br><b>Julie</b>","""",256,IntactFace,Memorization,78,5000,n,"""",CFD-WF-023-003-N.jpg,Amy,0,"""","""","""",1,3/11/2021 19:18,99.35.42.200,Mozilla/5.0 (Windows NT 10.0; Win64; x64; rv:86.0) Gecko/20100101 Firefox/86.0,,Firefox,86,Windows,10
10,1,null,"""",html-keyboard-response,115,368625,0.0-115.0,"<div style=""font-size:60px;"">+</div>","""",256,fixation,Memorization,null,500,"""","""","""","""","""","""","""","""",1,3/11/2021 19:18,99.35.42.200,Mozilla/5.0 (Windows NT 10.0; Win64; x64; rv:86.0) Gecko/20100101 Firefox/86.0,,Firefox,86,Windows,10
10,1,1805,"""",html-keyboard-response,116,373647,0.0-116.0,"<img src='jspsych/CFDfaces/CFD-LM-252-076-N.jpg' height=""250px""></br><b>Jeffrey</b>","""",256,IntactFace,Memorization,70,5000,f,"""",CFD-WF-205-006-N.jpg,Jordan,0,"""","""","""",1,3/11/2021 19:18,99.35.42.200,Mozilla/5.0 (Windows NT 10.0; Win64; x64; rv:86.0) Gecko/20100101 Firefox/86.0,,Firefox,86,Windows,10
10,1,null,"""",html-keyboard-response,117,374166,0.0-117.0,"<div style=""font-size:60px;"">+</div>","""",256,fixation,Memorization,null,500,"""","""","""","""","""","""","""","""",1,3/11/2021 19:18,99.35.42.200,Mozilla/5.0 (Windows NT 10.0; Win64; x64; rv:86.0) Gecko/20100101 Firefox/86.0,,Firefox,86,Windows,10
10,1,1963,"""",html-keyboard-response,118,379177,0.0-118.0,"<img src='jspsych/CFDfaces/CFD-WM-019-003-N.jpg' height=""250px""></br><b>Gregory</b>","""",256,IntactFace,Memorization,70,5000,f,"""",CFD-AM-231-136-N.jpg,Kenneth,0,"""","""","""",1,3/11/2021 19:18,99.35.42.200,Mozilla/5.0 (Windows NT 10.0; Win64; x64; rv:86.0) Gecko/20100101 Firefox/86.0,,Firefox,86,Windows,10
10,1,null,"""",html-keyboard-response,119,379696,0.0-119.0,"<div style=""font-size:60px;"">+</div>","""",256,fixation,Memorization,null,500,"""","""","""","""","""","""","""","""",1,3/11/2021 19:18,99.35.42.200,Mozilla/5.0 (Windows NT 10.0; Win64; x64; rv:86.0) Gecko/20100101 Firefox/86.0,,Firefox,86,Windows,10
10,1,1355,"""",html-keyboard-response,120,384716,0.0-120.0,"<img src='jspsych/CFDfaces/CFD-BM-018-001-N.jpg' height=""250px""></br><b>Christian</b>","""",256,IntactFace,Memorization,78,5000,n,"""",CFD-WM-041-021-N.jpg,Austin,0,"""","""","""",1,3/11/2021 19:18,99.35.42.200,Mozilla/5.0 (Windows NT 10.0; Win64; x64; rv:86.0) Gecko/20100101 Firefox/86.0,,Firefox,86,Windows,10
10,1,null,"""",html-keyboard-response,121,385236,0.0-121.0,"<div style=""font-size:60px;"">+</div>","""",256,fixation,Memorization,null,500,"""","""","""","""","""","""","""","""",1,3/11/2021 19:18,99.35.42.200,Mozilla/5.0 (Windows NT 10.0; Win64; x64; rv:86.0) Gecko/20100101 Firefox/86.0,,Firefox,86,Windows,10
10,1,1765,"""",html-keyboard-response,122,390257,0.0-122.0,"<img src='jspsych/CFDfaces/CFD-AF-215-70-N.jpg' height=""250px""></br><b>Victoria</b>","""",256,IntactFace,Memorization,70,5000,f,"""",CFD-BM-010-003-N.jpg,Jeremy,0,"""","""","""",1,3/11/2021 19:18,99.35.42.200,Mozilla/5.0 (Windows NT 10.0; Win64; x64; rv:86.0) Gecko/20100101 Firefox/86.0,,Firefox,86,Windows,10
10,1,null,"""",html-keyboard-response,123,390776,0.0-123.0,"<div style=""font-size:60px;"">+</div>","""",256,fixation,Memorization,null,500,"""","""","""","""","""","""","""","""",1,3/11/2021 19:18,99.35.42.200,Mozilla/5.0 (Windows NT 10.0; Win64; x64; rv:86.0) Gecko/20100101 Firefox/86.0,,Firefox,86,Windows,10
10,1,1886,"""",html-keyboard-response,124,395796,0.0-124.0,"<img src='jspsych/CFDfaces/CFD-AF-203-077-N.jpg' height=""250px""></br><b>Kayla</b>","""",256,IntactFace,Memorization,78,5000,n,"""",CFD-LF-210-220-N.jpg,Jasmine,0,"""","""","""",1,3/11/2021 19:18,99.35.42.200,Mozilla/5.0 (Windows NT 10.0; Win64; x64; rv:86.0) Gecko/20100101 Firefox/86.0,,Firefox,86,Windows,10
10,1,null,"""",html-keyboard-response,125,396305,0.0-125.0,"<div style=""font-size:60px;"">+</div>","""",256,fixation,Memorization,null,500,"""","""","""","""","""","""","""","""",1,3/11/2021 19:18,99.35.42.200,Mozilla/5.0 (Windows NT 10.0; Win64; x64; rv:86.0) Gecko/20100101 Firefox/86.0,,Firefox,86,Windows,10
10,1,1265,"""",html-keyboard-response,126,401316,0.0-126.0,"<img src='jspsych/CFDfaces/CFD-WM-212-097-N.jpg' height=""250px""></br><b>Nicholas</b>","""",256,IntactFace,Memorization,70,5000,f,"""",CFD-BM-029-024-N.jpg,Cameron,0,"""","""","""",1,3/11/2021 19:18,99.35.42.200,Mozilla/5.0 (Windows NT 10.0; Win64; x64; rv:86.0) Gecko/20100101 Firefox/86.0,,Firefox,86,Windows,10
10,1,null,"""",html-keyboard-response,127,401837,0.0-127.0,"<div style=""font-size:60px;"">+</div>","""",256,fixation,Memorization,null,500,"""","""","""","""","""","""","""","""",1,3/11/2021 19:18,99.35.42.200,Mozilla/5.0 (Windows NT 10.0; Win64; x64; rv:86.0) Gecko/20100101 Firefox/86.0,,Firefox,86,Windows,10
10,1,1235,"""",html-keyboard-response,128,406851,0.0-128.0,"<img src='jspsych/CFDfaces/CFD-BM-001-014-N.jpg' height=""250px""></br><b>Peter</b>","""",256,IntactFace,Memorization,78,5000,n,"""",CFD-LF-202-065-N.jpg,Angela,0,"""","""","""",1,3/11/2021 19:18,99.35.42.200,Mozilla/5.0 (Windows NT 10.0; Win64; x64; rv:86.0) Gecko/20100101 Firefox/86.0,,Firefox,86,Windows,10
10,1,null,"""",html-keyboard-response,129,407366,0.0-129.0,"<div style=""font-size:60px;"">+</div>","""",256,fixation,Memorization,null,500,"""","""","""","""","""","""","""","""",1,3/11/2021 19:18,99.35.42.200,Mozilla/5.0 (Windows NT 10.0; Win64; x64; rv:86.0) Gecko/20100101 Firefox/86.0,,Firefox,86,Windows,10
10,1,1236,"""",html-keyboard-response,130,412386,0.0-130.0,"<img src='jspsych/CFDfaces/CFD-WM-022-001-N.jpg' height=""250px""></br><b>Brian</b>","""",256,IntactFace,Memorization,70,5000,f,"""",CFD-WF-215-145-N.jpg,Lindsey,0,"""","""","""",1,3/11/2021 19:18,99.35.42.200,Mozilla/5.0 (Windows NT 10.0; Win64; x64; rv:86.0) Gecko/20100101 Firefox/86.0,,Firefox,86,Windows,10
10,1,null,"""",html-keyboard-response,131,412905,0.0-131.0,"<div style=""font-size:60px;"">+</div>","""",256,fixation,Memorization,null,500,"""","""","""","""","""","""","""","""",1,3/11/2021 19:18,99.35.42.200,Mozilla/5.0 (Windows NT 10.0; Win64; x64; rv:86.0) Gecko/20100101 Firefox/86.0,,Firefox,86,Windows,10
10,1,1177,"""",html-keyboard-response,132,417926,0.0-132.0,"<img src='jspsych/CFDfaces/CFD-WM-213-076-N.jpg' height=""250px""></br><b>Juan</b>","""",256,IntactFace,Memorization,78,5000,n,"""",CFD-AF-222-134-N.jpg,Lauren,0,"""","""","""",1,3/11/2021 19:18,99.35.42.200,Mozilla/5.0 (Windows NT 10.0; Win64; x64; rv:86.0) Gecko/20100101 Firefox/86.0,,Firefox,86,Windows,10
10,1,null,"""",html-keyboard-response,133,418445,0.0-133.0,"<div style=""font-size:60px;"">+</div>","""",256,fixation,Memorization,null,500,"""","""","""","""","""","""","""","""",1,3/11/2021 19:18,99.35.42.200,Mozilla/5.0 (Windows NT 10.0; Win64; x64; rv:86.0) Gecko/20100101 Firefox/86.0,,Firefox,86,Windows,10
10,1,1667,"""",html-keyboard-response,134,423466,0.0-134.0,"<img src='jspsych/CFDfaces/CFD-BM-211-174-N.jpg' height=""250px""></br><b>Robert</b>","""",256,IntactFace,Memorization,78,5000,n,"""",CFD-LF-239-148-N.jpg,Rebecca,0,"""","""","""",1,3/11/2021 19:18,99.35.42.200,Mozilla/5.0 (Windows NT 10.0; Win64; x64; rv:86.0) Gecko/20100101 Firefox/86.0,,Firefox,86,Windows,10
10,1,null,"""",html-keyboard-response,135,423985,0.0-135.0,"<div style=""font-size:60px;"">+</div>","""",256,fixation,Memorization,null,500,"""","""","""","""","""","""","""","""",1,3/11/2021 19:18,99.35.42.200,Mozilla/5.0 (Windows NT 10.0; Win64; x64; rv:86.0) Gecko/20100101 Firefox/86.0,,Firefox,86,Windows,10
10,1,1537,"""",html-keyboard-response,136,428996,0.0-136.0,"<img src='jspsych/CFDfaces/CFD-LM-233-171-N.jpg' height=""250px""></br><b>James</b>","""",256,IntactFace,Memorization,70,5000,f,"""",CFD-BF-201-080-N.jpg,Laura,0,"""","""","""",1,3/11/2021 19:18,99.35.42.200,Mozilla/5.0 (Windows NT 10.0; Win64; x64; rv:86.0) Gecko/20100101 Firefox/86.0,,Firefox,86,Windows,10
10,1,null,"""",html-keyboard-response,137,429516,0.0-137.0,"<div style=""font-size:60px;"">+</div>","""",256,fixation,Memorization,null,500,"""","""","""","""","""","""","""","""",1,3/11/2021 19:18,99.35.42.200,Mozilla/5.0 (Windows NT 10.0; Win64; x64; rv:86.0) Gecko/20100101 Firefox/86.0,,Firefox,86,Windows,10
10,1,1316,"""",html-keyboard-response,138,434522,0.0-138.0,"<img src='jspsych/CFDfaces/CFD-LF-232-199-N.jpg' height=""250px""></br><b>Meghan</b>","""",256,IntactFace,Memorization,78,5000,n,"""",CFD-AM-214-168-N.jpg,Travis,0,"""","""","""",1,3/11/2021 19:18,99.35.42.200,Mozilla/5.0 (Windows NT 10.0; Win64; x64; rv:86.0) Gecko/20100101 Firefox/86.0,,Firefox,86,Windows,10
10,1,null,"""",html-keyboard-response,139,435046,0.0-139.0,"<div style=""font-size:60px;"">+</div>","""",256,fixation,Memorization,null,500,"""","""","""","""","""","""","""","""",1,3/11/2021 19:18,99.35.42.200,Mozilla/5.0 (Windows NT 10.0; Win64; x64; rv:86.0) Gecko/20100101 Firefox/86.0,,Firefox,86,Windows,10
10,1,1347,"""",html-keyboard-response,140,440056,0.0-140.0,"<img src='jspsych/CFDfaces/CFD-BF-222-240-N.jpg' height=""250px""></br><b>Amanda</b>","""",256,IntactFace,Memorization,78,5000,n,"""",CFD-LM-209-111-N.jpg,Dustin,0,"""","""","""",1,3/11/2021 19:18,99.35.42.200,Mozilla/5.0 (Windows NT 10.0; Win64; x64; rv:86.0) Gecko/20100101 Firefox/86.0,,Firefox,86,Windows,10
10,1,null,"""",html-keyboard-response,141,440576,0.0-141.0,"<div style=""font-size:60px;"">+</div>","""",256,fixation,Memorization,null,500,"""","""","""","""","""","""","""","""",1,3/11/2021 19:18,99.35.42.200,Mozilla/5.0 (Windows NT 10.0; Win64; x64; rv:86.0) Gecko/20100101 Firefox/86.0,,Firefox,86,Windows,10
10,1,1376,"""",html-keyboard-response,142,445597,0.0-142.0,"<img src='jspsych/CFDfaces/CFD-WM-215-041-N.jpg' height=""250px""></br><b>Eric</b>","""",256,IntactFace,Memorization,70,5000,f,"""",CFD-BF-001-025-N.jpg,Erin,0,"""","""","""",1,3/11/2021 19:18,99.35.42.200,Mozilla/5.0 (Windows NT 10.0; Win64; x64; rv:86.0) Gecko/20100101 Firefox/86.0,,Firefox,86,Windows,10
10,1,null,"""",html-keyboard-response,143,446115,0.0-143.0,"<div style=""font-size:60px;"">+</div>","""",256,fixation,Memorization,null,500,"""","""","""","""","""","""","""","""",1,3/11/2021 19:18,99.35.42.200,Mozilla/5.0 (Windows NT 10.0; Win64; x64; rv:86.0) Gecko/20100101 Firefox/86.0,,Firefox,86,Windows,10
10,1,1777,"""",html-keyboard-response,144,451136,0.0-144.0,"<img src='jspsych/CFDfaces/CFD-AF-230-193-N.jpg' height=""250px""></br><b>Stephanie</b>","""",256,IntactFace,Memorization,70,5000,f,"""",CFD-LM-239-075-N.jpg,Luis,0,"""","""","""",1,3/11/2021 19:18,99.35.42.200,Mozilla/5.0 (Windows NT 10.0; Win64; x64; rv:86.0) Gecko/20100101 Firefox/86.0,,Firefox,86,Windows,10
10,1,null,"""",html-keyboard-response,145,451655,0.0-145.0,"<div style=""font-size:60px;"">+</div>","""",256,fixation,Memorization,null,500,"""","""","""","""","""","""","""","""",1,3/11/2021 19:18,99.35.42.200,Mozilla/5.0 (Windows NT 10.0; Win64; x64; rv:86.0) Gecko/20100101 Firefox/86.0,,Firefox,86,Windows,10
10,1,2829,"""",html-keyboard-response,146,456666,0.0-146.0,"<img src='jspsych/CFDfaces/CFD-LF-203-066-N.jpg' height=""250px""></br><b>Emily</b>","""",256,IntactFace,Memorization,78,5000,n,"""",CFD-BM-017-021-N.jpg,Jesse,0,"""","""","""",1,3/11/2021 19:18,99.35.42.200,Mozilla/5.0 (Windows NT 10.0; Win64; x64; rv:86.0) Gecko/20100101 Firefox/86.0,,Firefox,86,Windows,10
10,1,null,"""",html-keyboard-response,147,457176,0.0-147.0,"<div style=""font-size:60px;"">+</div>","""",256,fixation,Memorization,null,500,"""","""","""","""","""","""","""","""",1,3/11/2021 19:18,99.35.42.200,Mozilla/5.0 (Windows NT 10.0; Win64; x64; rv:86.0) Gecko/20100101 Firefox/86.0,,Firefox,86,Windows,10
10,1,1748,"""",html-keyboard-response,148,462185,0.0-148.0,"<img src='jspsych/CFDfaces/CFD-AM-220-134-N.jpg' height=""250px""></br><b>Richard</b>","""",256,IntactFace,Memorization,78,5000,n,"""",CFD-AM-234-355-N.jpg,Sean,0,"""","""","""",1,3/11/2021 19:18,99.35.42.200,Mozilla/5.0 (Windows NT 10.0; Win64; x64; rv:86.0) Gecko/20100101 Firefox/86.0,,Firefox,86,Windows,10
10,1,null,"""",html-keyboard-response,149,462701,0.0-149.0,"<div style=""font-size:60px;"">+</div>","""",256,fixation,Memorization,null,500,"""","""","""","""","""","""","""","""",1,3/11/2021 19:18,99.35.42.200,Mozilla/5.0 (Windows NT 10.0; Win64; x64; rv:86.0) Gecko/20100101 Firefox/86.0,,Firefox,86,Windows,10
10,1,1593,"""",html-keyboard-response,150,467705,0.0-150.0,"<img src='jspsych/CFDfaces/CFD-WF-003-003-N.jpg' height=""250px""></br><b>Christina</b>","""",256,IntactFace,Memorization,70,5000,f,"""",CFD-LF-243-175-N.jpg,Tiffany,0,"""","""","""",1,3/11/2021 19:18,99.35.42.200,Mozilla/5.0 (Windows NT 10.0; Win64; x64; rv:86.0) Gecko/20100101 Firefox/86.0,,Firefox,86,Windows,10
10,1,null,"""",html-keyboard-response,151,468225,0.0-151.0,"<div style=""font-size:60px;"">+</div>","""",256,fixation,Memorization,null,500,"""","""","""","""","""","""","""","""",1,3/11/2021 19:18,99.35.42.200,Mozilla/5.0 (Windows NT 10.0; Win64; x64; rv:86.0) Gecko/20100101 Firefox/86.0,,Firefox,86,Windows,10
10,1,2639,"""",html-keyboard-response,152,470865,0.0-152.0,Press Any Key to Begin Memory Test,"""",1,welcomeScreen,Break,78,"""","""","""","""","""","""","""","""","""",1,3/11/2021 19:18,99.35.42.200,Mozilla/5.0 (Windows NT 10.0; Win64; x64; rv:86.0) Gecko/20100101 Firefox/86.0,,Firefox,86,Windows,10
10,1,null,"""",html-keyboard-response,153,471885,0.0-153.0,"<div style=""font-size:60px;"">+</div>","""",256,ITI,Test,null,1000,"""","""","""","""","""","""","""","""",1,3/11/2021 19:18,99.35.42.200,Mozilla/5.0 (Windows NT 10.0; Win64; x64; rv:86.0) Gecko/20100101 Firefox/86.0,,Firefox,86,Windows,10
10,1,null,"""",image-keyboard-response,154,472145,0.0-154.0,jspsych/scrambledNeutralFaces/scrambledBF27NES.JPG,"""",256,forwardMask,Test,null,250,"""",n,"""","""","""","""","""","""",1,3/11/2021 19:18,99.35.42.200,Mozilla/5.0 (Windows NT 10.0; Win64; x64; rv:86.0) Gecko/20100101 Firefox/86.0,,Firefox,86,Windows,10
10,1,null,"""",image-keyboard-response,155,472185,0.0-155.0,jspsych/neutralFaces/BF27NES.JPG,"""",256,Cue,Test,null,16,"""","""","""","""","""","""","""","""",1,3/11/2021 19:18,99.35.42.200,Mozilla/5.0 (Windows NT 10.0; Win64; x64; rv:86.0) Gecko/20100101 Firefox/86.0,,Firefox,86,Windows,10
10,1,null,"""",image-keyboard-response,156,472305,0.0-156.0,jspsych/neutralFaces/BF18NES.JPG,"""",256,backwardMask,Test,null,100,"""","""","""","""","""","""","""","""",1,3/11/2021 19:18,99.35.42.200,Mozilla/5.0 (Windows NT 10.0; Win64; x64; rv:86.0) Gecko/20100101 Firefox/86.0,,Firefox,86,Windows,10
10,1,null,"""",html-keyboard-response,157,473325,0.0-157.0,"<div style=""font-size:60px;"">+</div>","""",256,fixationBtwnNeutralMaskAndPrompt,Test,null,1000,"""","""","""","""","""","""","""","""",1,3/11/2021 19:18,99.35.42.200,Mozilla/5.0 (Windows NT 10.0; Win64; x64; rv:86.0) Gecko/20100101 Firefox/86.0,,Firefox,86,Windows,10
10,1,2140,"""",html-button-response,158,475466,0.0-158.0,"<img src='jspsych/CFDfaces/CFD-BF-005-001-N.jpg' height=""250px"">,</br><b>Vanessa</b>",0,256,IntactOrRearranged,Test,"""","""","""","""",CFD-LM-219-295-N.jpg,Justin,0,0,"""","""",1,3/11/2021 19:18,99.35.42.200,Mozilla/5.0 (Windows NT 10.0; Win64; x64; rv:86.0) Gecko/20100101 Firefox/86.0,,Firefox,86,Windows,10
10,1,3013,"""",html-slider-response,159,478487,0.0-159.0,"<img src='jspsych/CFDfaces/CFD-BF-005-001-N.jpg' height=""250px"">,</br><b>Vanessa</b>","""",256,ConfidenceQuery,Test,"""","""","""","""",CFD-LM-219-295-N.jpg,Justin,0,"""",0,100,1,3/11/2021 19:18,99.35.42.200,Mozilla/5.0 (Windows NT 10.0; Win64; x64; rv:86.0) Gecko/20100101 Firefox/86.0,,Firefox,86,Windows,10
10,1,null,"""",html-keyboard-response,160,479505,0.0-160.0,"<div style=""font-size:60px;"">+</div>","""",256,ITI,Test,null,1000,"""","""","""","""","""","""","""","""",1,3/11/2021 19:18,99.35.42.200,Mozilla/5.0 (Windows NT 10.0; Win64; x64; rv:86.0) Gecko/20100101 Firefox/86.0,,Firefox,86,Windows,10
10,1,null,"""",image-keyboard-response,161,479766,0.0-161.0,jspsych/scrambledNeutralFaces/scrambledBM23NES.JPG,"""",256,forwardMask,Test,null,250,"""",n,"""","""","""","""","""","""",1,3/11/2021 19:18,99.35.42.200,Mozilla/5.0 (Windows NT 10.0; Win64; x64; rv:86.0) Gecko/20100101 Firefox/86.0,,Firefox,86,Windows,10
10,1,null,"""",image-keyboard-response,162,479805,0.0-162.0,jspsych/neutralFaces/BM23NES.JPG,"""",256,Cue,Test,null,16,"""","""","""","""","""","""","""","""",1,3/11/2021 19:18,99.35.42.200,Mozilla/5.0 (Windows NT 10.0; Win64; x64; rv:86.0) Gecko/20100101 Firefox/86.0,,Firefox,86,Windows,10
10,1,null,"""",image-keyboard-response,163,479925,0.0-163.0,jspsych/neutralFaces/BM01NES.JPG,"""",256,backwardMask,Test,null,100,"""","""","""","""","""","""","""","""",1,3/11/2021 19:18,99.35.42.200,Mozilla/5.0 (Windows NT 10.0; Win64; x64; rv:86.0) Gecko/20100101 Firefox/86.0,,Firefox,86,Windows,10
10,1,null,"""",html-keyboard-response,164,480945,0.0-164.0,"<div style=""font-size:60px;"">+</div>","""",256,fixationBtwnNeutralMaskAndPrompt,Test,null,1000,"""","""","""","""","""","""","""","""",1,3/11/2021 19:18,99.35.42.200,Mozilla/5.0 (Windows NT 10.0; Win64; x64; rv:86.0) Gecko/20100101 Firefox/86.0,,Firefox,86,Windows,10
10,1,1641,"""",html-button-response,165,482588,0.0-165.0,"<img src='jspsych/CFDfaces/CFD-WM-212-097-N.jpg' height=""250px"">,</br><b>Nicholas</b>",0,256,IntactOrRearranged,Test,"""","""","""","""",CFD-LM-209-111-N.jpg,Dustin,0,0,"""","""",1,3/11/2021 19:18,99.35.42.200,Mozilla/5.0 (Windows NT 10.0; Win64; x64; rv:86.0) Gecko/20100101 Firefox/86.0,,Firefox,86,Windows,10
10,1,2722,"""",html-slider-response,166,485317,0.0-166.0,"<img src='jspsych/CFDfaces/CFD-WM-212-097-N.jpg' height=""250px"">,</br><b>Nicholas</b>","""",256,ConfidenceQuery,Test,"""","""","""","""",CFD-LM-209-111-N.jpg,Dustin,0,"""",0,100,1,3/11/2021 19:18,99.35.42.200,Mozilla/5.0 (Windows NT 10.0; Win64; x64; rv:86.0) Gecko/20100101 Firefox/86.0,,Firefox,86,Windows,10
10,1,null,"""",html-keyboard-response,167,486325,0.0-167.0,"<div style=""font-size:60px;"">+</div>","""",256,ITI,Test,null,1000,"""","""","""","""","""","""","""","""",1,3/11/2021 19:18,99.35.42.200,Mozilla/5.0 (Windows NT 10.0; Win64; x64; rv:86.0) Gecko/20100101 Firefox/86.0,,Firefox,86,Windows,10
10,1,null,"""",image-keyboard-response,168,486585,0.0-168.0,jspsych/scrambledDisgustFaces/scrambledBF20DIS.JPG,"""",256,forwardMask,Test,null,250,"""",d,"""","""","""","""","""","""",1,3/11/2021 19:18,99.35.42.200,Mozilla/5.0 (Windows NT 10.0; Win64; x64; rv:86.0) Gecko/20100101 Firefox/86.0,,Firefox,86,Windows,10
10,1,null,"""",image-keyboard-response,169,486606,0.0-169.0,jspsych/disgustFaces/BF20DIS.JPG,"""",256,Cue,Test,null,16,"""","""","""","""","""","""","""","""",1,3/11/2021 19:18,99.35.42.200,Mozilla/5.0 (Windows NT 10.0; Win64; x64; rv:86.0) Gecko/20100101 Firefox/86.0,,Firefox,86,Windows,10
10,1,null,"""",image-keyboard-response,170,486725,0.0-170.0,jspsych/neutralFaces/AF20NES.JPG,"""",256,backwardMask,Test,null,100,"""","""","""","""","""","""","""","""",1,3/11/2021 19:18,99.35.42.200,Mozilla/5.0 (Windows NT 10.0; Win64; x64; rv:86.0) Gecko/20100101 Firefox/86.0,,Firefox,86,Windows,10
10,1,null,"""",html-keyboard-response,171,487746,0.0-171.0,"<div style=""font-size:60px;"">+</div>","""",256,fixationBtwnNeutralMaskAndPrompt,Test,null,1000,"""","""","""","""","""","""","""","""",1,3/11/2021 19:18,99.35.42.200,Mozilla/5.0 (Windows NT 10.0; Win64; x64; rv:86.0) Gecko/20100101 Firefox/86.0,,Firefox,86,Windows,10
10,1,1692,"""",html-button-response,172,489438,0.0-172.0,"<img src='jspsych/CFDfaces/CFD-BM-043-071-N.jpg' height=""250px"">,</br><b>Ian</b>",0,256,IntactOrRearranged,Test,"""","""","""","""",CFD-WF-205-006-N.jpg,Jenna,0,0,"""","""",1,3/11/2021 19:18,99.35.42.200,Mozilla/5.0 (Windows NT 10.0; Win64; x64; rv:86.0) Gecko/20100101 Firefox/86.0,,Firefox,86,Windows,10
10,1,2913,"""",html-slider-response,173,492358,0.0-173.0,"<img src='jspsych/CFDfaces/CFD-BM-043-071-N.jpg' height=""250px"">,</br><b>Ian</b>","""",256,ConfidenceQuery,Test,"""","""","""","""",CFD-WF-205-006-N.jpg,Jenna,0,"""",0,100,1,3/11/2021 19:18,99.35.42.200,Mozilla/5.0 (Windows NT 10.0; Win64; x64; rv:86.0) Gecko/20100101 Firefox/86.0,,Firefox,86,Windows,10
10,1,null,"""",html-keyboard-response,174,493359,0.0-174.0,"<div style=""font-size:60px;"">+</div>","""",256,ITI,Test,null,1000,"""","""","""","""","""","""","""","""",1,3/11/2021 19:18,99.35.42.200,Mozilla/5.0 (Windows NT 10.0; Win64; x64; rv:86.0) Gecko/20100101 Firefox/86.0,,Firefox,86,Windows,10
10,1,null,"""",image-keyboard-response,175,493634,0.0-175.0,jspsych/scrambledDisgustFaces/scrambledBF11DIS.JPG,"""",256,forwardMask,Test,null,250,"""",d,"""","""","""","""","""","""",1,3/11/2021 19:18,99.35.42.200,Mozilla/5.0 (Windows NT 10.0; Win64; x64; rv:86.0) Gecko/20100101 Firefox/86.0,,Firefox,86,Windows,10
10,1,null,"""",image-keyboard-response,176,493655,0.0-176.0,jspsych/disgustFaces/BF11DIS.JPG,"""",256,Cue,Test,null,16,"""","""","""","""","""","""","""","""",1,3/11/2021 19:18,99.35.42.200,Mozilla/5.0 (Windows NT 10.0; Win64; x64; rv:86.0) Gecko/20100101 Firefox/86.0,,Firefox,86,Windows,10
10,1,null,"""",image-keyboard-response,177,493776,0.0-177.0,jspsych/neutralFaces/BF25NES.JPG,"""",256,backwardMask,Test,null,100,"""","""","""","""","""","""","""","""",1,3/11/2021 19:18,99.35.42.200,Mozilla/5.0 (Windows NT 10.0; Win64; x64; rv:86.0) Gecko/20100101 Firefox/86.0,,Firefox,86,Windows,10
10,1,null,"""",html-keyboard-response,178,494793,0.0-178.0,"<div style=""font-size:60px;"">+</div>","""",256,fixationBtwnNeutralMaskAndPrompt,Test,null,1000,"""","""","""","""","""","""","""","""",1,3/11/2021 19:18,99.35.42.200,Mozilla/5.0 (Windows NT 10.0; Win64; x64; rv:86.0) Gecko/20100101 Firefox/86.0,,Firefox,86,Windows,10
10,1,2883,"""",html-button-response,179,497676,0.0-179.0,"<img src='jspsych/CFDfaces/CFD-WF-204-038-N.jpg' height=""250px"">,</br><b>Amanda</b>",1,256,IntactOrRearranged,Test,"""","""","""","""",CFD-LF-210-220-N.jpg,Angela,1,1,"""","""",1,3/11/2021 19:18,99.35.42.200,Mozilla/5.0 (Windows NT 10.0; Win64; x64; rv:86.0) Gecko/20100101 Firefox/86.0,,Firefox,86,Windows,10
10,1,3313,"""",html-slider-response,180,500998,0.0-180.0,"<img src='jspsych/CFDfaces/CFD-WF-204-038-N.jpg' height=""250px"">,</br><b>Amanda</b>","""",256,ConfidenceQuery,Test,"""","""","""","""",CFD-LF-210-220-N.jpg,Angela,1,"""",0,100,1,3/11/2021 19:18,99.35.42.200,Mozilla/5.0 (Windows NT 10.0; Win64; x64; rv:86.0) Gecko/20100101 Firefox/86.0,,Firefox,86,Windows,10
10,1,null,"""",html-keyboard-response,181,502016,0.0-181.0,"<div style=""font-size:60px;"">+</div>","""",256,ITI,Test,null,1000,"""","""","""","""","""","""","""","""",1,3/11/2021 19:18,99.35.42.200,Mozilla/5.0 (Windows NT 10.0; Win64; x64; rv:86.0) Gecko/20100101 Firefox/86.0,,Firefox,86,Windows,10
10,1,null,"""",image-keyboard-response,182,502276,0.0-182.0,jspsych/scrambledDisgustFaces/scrambledBF15DIS.JPG,"""",256,forwardMask,Test,null,250,"""",d,"""","""","""","""","""","""",1,3/11/2021 19:18,99.35.42.200,Mozilla/5.0 (Windows NT 10.0; Win64; x64; rv:86.0) Gecko/20100101 Firefox/86.0,,Firefox,86,Windows,10
10,1,null,"""",image-keyboard-response,183,502315,0.0-183.0,jspsych/disgustFaces/BF15DIS.JPG,"""",256,Cue,Test,null,16,"""","""","""","""","""","""","""","""",1,3/11/2021 19:18,99.35.42.200,Mozilla/5.0 (Windows NT 10.0; Win64; x64; rv:86.0) Gecko/20100101 Firefox/86.0,,Firefox,86,Windows,10
10,1,null,"""",image-keyboard-response,184,502435,0.0-184.0,jspsych/neutralFaces/BF13NES.JPG,"""",256,backwardMask,Test,null,100,"""","""","""","""","""","""","""","""",1,3/11/2021 19:18,99.35.42.200,Mozilla/5.0 (Windows NT 10.0; Win64; x64; rv:86.0) Gecko/20100101 Firefox/86.0,,Firefox,86,Windows,10
10,1,null,"""",html-keyboard-response,185,503456,0.0-185.0,"<div style=""font-size:60px;"">+</div>","""",256,fixationBtwnNeutralMaskAndPrompt,Test,null,1000,"""","""","""","""","""","""","""","""",1,3/11/2021 19:18,99.35.42.200,Mozilla/5.0 (Windows NT 10.0; Win64; x64; rv:86.0) Gecko/20100101 Firefox/86.0,,Firefox,86,Windows,10
10,1,1782,"""",html-button-response,186,505238,0.0-186.0,"<img src='jspsych/CFDfaces/CFD-BM-001-014-N.jpg' height=""250px"">,</br><b>Peter</b>",0,256,IntactOrRearranged,Test,"""","""","""","""",CFD-WF-024-003-N.jpg,Whitney,0,0,"""","""",1,3/11/2021 19:18,99.35.42.200,Mozilla/5.0 (Windows NT 10.0; Win64; x64; rv:86.0) Gecko/20100101 Firefox/86.0,,Firefox,86,Windows,10
10,1,2741,"""",html-slider-response,187,507986,0.0-187.0,"<img src='jspsych/CFDfaces/CFD-BM-001-014-N.jpg' height=""250px"">,</br><b>Peter</b>","""",256,ConfidenceQuery,Test,"""","""","""","""",CFD-WF-024-003-N.jpg,Whitney,0,"""",0,100,1,3/11/2021 19:18,99.35.42.200,Mozilla/5.0 (Windows NT 10.0; Win64; x64; rv:86.0) Gecko/20100101 Firefox/86.0,,Firefox,86,Windows,10
10,1,null,"""",html-keyboard-response,188,508994,0.0-188.0,"<div style=""font-size:60px;"">+</div>","""",256,ITI,Test,null,1000,"""","""","""","""","""","""","""","""",1,3/11/2021 19:18,99.35.42.200,Mozilla/5.0 (Windows NT 10.0; Win64; x64; rv:86.0) Gecko/20100101 Firefox/86.0,,Firefox,86,Windows,10
10,1,null,"""",image-keyboard-response,189,509255,0.0-189.0,jspsych/scrambledNeutralFaces/scrambledAM26NES.JPG,"""",256,forwardMask,Test,null,250,"""",n,"""","""","""","""","""","""",1,3/11/2021 19:18,99.35.42.200,Mozilla/5.0 (Windows NT 10.0; Win64; x64; rv:86.0) Gecko/20100101 Firefox/86.0,,Firefox,86,Windows,10
10,1,null,"""",image-keyboard-response,190,509296,0.0-190.0,jspsych/neutralFaces/AM26NES.JPG,"""",256,Cue,Test,null,16,"""","""","""","""","""","""","""","""",1,3/11/2021 19:18,99.35.42.200,Mozilla/5.0 (Windows NT 10.0; Win64; x64; rv:86.0) Gecko/20100101 Firefox/86.0,,Firefox,86,Windows,10
10,1,null,"""",image-keyboard-response,191,509415,0.0-191.0,jspsych/neutralFaces/BM21NES.JPG,"""",256,backwardMask,Test,null,100,"""","""","""","""","""","""","""","""",1,3/11/2021 19:18,99.35.42.200,Mozilla/5.0 (Windows NT 10.0; Win64; x64; rv:86.0) Gecko/20100101 Firefox/86.0,,Firefox,86,Windows,10
10,1,null,"""",html-keyboard-response,192,510425,0.0-192.0,"<div style=""font-size:60px;"">+</div>","""",256,fixationBtwnNeutralMaskAndPrompt,Test,null,1000,"""","""","""","""","""","""","""","""",1,3/11/2021 19:18,99.35.42.200,Mozilla/5.0 (Windows NT 10.0; Win64; x64; rv:86.0) Gecko/20100101 Firefox/86.0,,Firefox,86,Windows,10
10,1,1671,"""",html-button-response,193,512097,0.0-193.0,"<img src='jspsych/CFDfaces/CFD-AF-208-003-N.jpg' height=""250px"">,</br><b>Michelle</b>",0,256,IntactOrRearranged,Test,"""","""","""","""",CFD-BM-010-003-N.jpg,Ryan,0,0,"""","""",1,3/11/2021 19:18,99.35.42.200,Mozilla/5.0 (Windows NT 10.0; Win64; x64; rv:86.0) Gecko/20100101 Firefox/86.0,,Firefox,86,Windows,10
10,1,2874,"""",html-slider-response,194,514978,0.0-194.0,"<img src='jspsych/CFDfaces/CFD-AF-208-003-N.jpg' height=""250px"">,</br><b>Michelle</b>","""",256,ConfidenceQuery,Test,"""","""","""","""",CFD-BM-010-003-N.jpg,Ryan,0,"""",0,100,1,3/11/2021 19:18,99.35.42.200,Mozilla/5.0 (Windows NT 10.0; Win64; x64; rv:86.0) Gecko/20100101 Firefox/86.0,,Firefox,86,Windows,10
10,1,null,"""",html-keyboard-response,195,515986,0.0-195.0,"<div style=""font-size:60px;"">+</div>","""",256,ITI,Test,null,1000,"""","""","""","""","""","""","""","""",1,3/11/2021 19:18,99.35.42.200,Mozilla/5.0 (Windows NT 10.0; Win64; x64; rv:86.0) Gecko/20100101 Firefox/86.0,,Firefox,86,Windows,10
10,1,null,"""",image-keyboard-response,196,516245,0.0-196.0,jspsych/scrambledDisgustFaces/scrambledBF34DIS.JPG,"""",256,forwardMask,Test,null,250,"""",d,"""","""","""","""","""","""",1,3/11/2021 19:18,99.35.42.200,Mozilla/5.0 (Windows NT 10.0; Win64; x64; rv:86.0) Gecko/20100101 Firefox/86.0,,Firefox,86,Windows,10
10,1,null,"""",image-keyboard-response,197,516265,0.0-197.0,jspsych/disgustFaces/BF34DIS.JPG,"""",256,Cue,Test,null,16,"""","""","""","""","""","""","""","""",1,3/11/2021 19:18,99.35.42.200,Mozilla/5.0 (Windows NT 10.0; Win64; x64; rv:86.0) Gecko/20100101 Firefox/86.0,,Firefox,86,Windows,10
10,1,null,"""",image-keyboard-response,198,516385,0.0-198.0,jspsych/neutralFaces/BF24NES.JPG,"""",256,backwardMask,Test,null,100,"""","""","""","""","""","""","""","""",1,3/11/2021 19:18,99.35.42.200,Mozilla/5.0 (Windows NT 10.0; Win64; x64; rv:86.0) Gecko/20100101 Firefox/86.0,,Firefox,86,Windows,10
10,1,null,"""",html-keyboard-response,199,517395,0.0-199.0,"<div style=""font-size:60px;"">+</div>","""",256,fixationBtwnNeutralMaskAndPrompt,Test,null,1000,"""","""","""","""","""","""","""","""",1,3/11/2021 19:18,99.35.42.200,Mozilla/5.0 (Windows NT 10.0; Win64; x64; rv:86.0) Gecko/20100101 Firefox/86.0,,Firefox,86,Windows,10
10,1,1631,"""",html-button-response,200,519027,0.0-200.0,"<img src='jspsych/CFDfaces/CFD-AF-203-077-N.jpg' height=""250px"">,</br><b>Kayla</b>",0,256,IntactOrRearranged,Test,"""","""","""","""",CFD-WF-200-099-N.jpg,Heather,0,0,"""","""",1,3/11/2021 19:18,99.35.42.200,Mozilla/5.0 (Windows NT 10.0; Win64; x64; rv:86.0) Gecko/20100101 Firefox/86.0,,Firefox,86,Windows,10
10,1,null,"""",html-slider-response,201,524045,0.0-201.0,"<img src='jspsych/CFDfaces/CFD-AF-203-077-N.jpg' height=""250px"">,</br><b>Kayla</b>","""",256,ConfidenceQuery,Test,"""","""","""","""",CFD-WF-200-099-N.jpg,Heather,0,"""",0,null,1,3/11/2021 19:18,99.35.42.200,Mozilla/5.0 (Windows NT 10.0; Win64; x64; rv:86.0) Gecko/20100101 Firefox/86.0,,Firefox,86,Windows,10
10,1,null,"""",html-keyboard-response,202,525050,0.0-202.0,"<div style=""font-size:60px;"">+</div>","""",256,ITI,Test,null,1000,"""","""","""","""","""","""","""","""",1,3/11/2021 19:18,99.35.42.200,Mozilla/5.0 (Windows NT 10.0; Win64; x64; rv:86.0) Gecko/20100101 Firefox/86.0,,Firefox,86,Windows,10
10,1,null,"""",image-keyboard-response,203,525325,0.0-203.0,jspsych/scrambledNeutralFaces/scrambledAF23NES.JPG,"""",256,forwardMask,Test,null,250,"""",n,"""","""","""","""","""","""",1,3/11/2021 19:18,99.35.42.200,Mozilla/5.0 (Windows NT 10.0; Win64; x64; rv:86.0) Gecko/20100101 Firefox/86.0,,Firefox,86,Windows,10
10,1,null,"""",image-keyboard-response,204,525366,0.0-204.0,jspsych/neutralFaces/AF23NES.JPG,"""",256,Cue,Test,null,16,"""","""","""","""","""","""","""","""",1,3/11/2021 19:18,99.35.42.200,Mozilla/5.0 (Windows NT 10.0; Win64; x64; rv:86.0) Gecko/20100101 Firefox/86.0,,Firefox,86,Windows,10
10,1,null,"""",image-keyboard-response,205,525485,0.0-205.0,jspsych/neutralFaces/AF34NES.JPG,"""",256,backwardMask,Test,null,100,"""","""","""","""","""","""","""","""",1,3/11/2021 19:18,99.35.42.200,Mozilla/5.0 (Windows NT 10.0; Win64; x64; rv:86.0) Gecko/20100101 Firefox/86.0,,Firefox,86,Windows,10
10,1,null,"""",html-keyboard-response,206,526506,0.0-206.0,"<div style=""font-size:60px;"">+</div>","""",256,fixationBtwnNeutralMaskAndPrompt,Test,null,1000,"""","""","""","""","""","""","""","""",1,3/11/2021 19:18,99.35.42.200,Mozilla/5.0 (Windows NT 10.0; Win64; x64; rv:86.0) Gecko/20100101 Firefox/86.0,,Firefox,86,Windows,10
10,1,1779,"""",html-button-response,207,528286,0.0-207.0,"<img src='jspsych/CFDfaces/CFD-AF-241-141-N.jpg' height=""250px"">,</br><b>Elizabeth</b>",1,256,IntactOrRearranged,Test,"""","""","""","""",CFD-WF-023-003-N.jpg,Amy,1,1,"""","""",1,3/11/2021 19:18,99.35.42.200,Mozilla/5.0 (Windows NT 10.0; Win64; x64; rv:86.0) Gecko/20100101 Firefox/86.0,,Firefox,86,Windows,10
10,1,3192,"""",html-slider-response,208,531486,0.0-208.0,"<img src='jspsych/CFDfaces/CFD-AF-241-141-N.jpg' height=""250px"">,</br><b>Elizabeth</b>","""",256,ConfidenceQuery,Test,"""","""","""","""",CFD-WF-023-003-N.jpg,Amy,1,"""",0,99,1,3/11/2021 19:18,99.35.42.200,Mozilla/5.0 (Windows NT 10.0; Win64; x64; rv:86.0) Gecko/20100101 Firefox/86.0,,Firefox,86,Windows,10
10,1,null,"""",html-keyboard-response,209,532498,0.0-209.0,"<div style=""font-size:60px;"">+</div>","""",256,ITI,Test,null,1000,"""","""","""","""","""","""","""","""",1,3/11/2021 19:18,99.35.42.200,Mozilla/5.0 (Windows NT 10.0; Win64; x64; rv:86.0) Gecko/20100101 Firefox/86.0,,Firefox,86,Windows,10
10,1,null,"""",image-keyboard-response,210,532766,0.0-210.0,jspsych/scrambledNeutralFaces/scrambledAF22NES.JPG,"""",256,forwardMask,Test,null,250,"""",n,"""","""","""","""","""","""",1,3/11/2021 19:18,99.35.42.200,Mozilla/5.0 (Windows NT 10.0; Win64; x64; rv:86.0) Gecko/20100101 Firefox/86.0,,Firefox,86,Windows,10
10,1,null,"""",image-keyboard-response,211,532785,0.0-211.0,jspsych/neutralFaces/AF22NES.JPG,"""",256,Cue,Test,null,16,"""","""","""","""","""","""","""","""",1,3/11/2021 19:18,99.35.42.200,Mozilla/5.0 (Windows NT 10.0; Win64; x64; rv:86.0) Gecko/20100101 Firefox/86.0,,Firefox,86,Windows,10
10,1,null,"""",image-keyboard-response,212,532905,0.0-212.0,jspsych/neutralFaces/BF04NES.JPG,"""",256,backwardMask,Test,null,100,"""","""","""","""","""","""","""","""",1,3/11/2021 19:18,99.35.42.200,Mozilla/5.0 (Windows NT 10.0; Win64; x64; rv:86.0) Gecko/20100101 Firefox/86.0,,Firefox,86,Windows,10
10,1,null,"""",html-keyboard-response,213,533926,0.0-213.0,"<div style=""font-size:60px;"">+</div>","""",256,fixationBtwnNeutralMaskAndPrompt,Test,null,1000,"""","""","""","""","""","""","""","""",1,3/11/2021 19:18,99.35.42.200,Mozilla/5.0 (Windows NT 10.0; Win64; x64; rv:86.0) Gecko/20100101 Firefox/86.0,,Firefox,86,Windows,10
10,1,2521,"""",html-button-response,214,536447,0.0-214.0,"<img src='jspsych/CFDfaces/CFD-AF-237-223-N.jpg' height=""250px"">,</br><b>Emily</b>",0,256,IntactOrRearranged,Test,"""","""","""","""",CFD-LF-202-065-N.jpg,Erin,1,0,"""","""",1,3/11/2021 19:18,99.35.42.200,Mozilla/5.0 (Windows NT 10.0; Win64; x64; rv:86.0) Gecko/20100101 Firefox/86.0,,Firefox,86,Windows,10
10,1,3164,"""",html-slider-response,215,539617,0.0-215.0,"<img src='jspsych/CFDfaces/CFD-AF-237-223-N.jpg' height=""250px"">,</br><b>Emily</b>","""",256,ConfidenceQuery,Test,"""","""","""","""",CFD-LF-202-065-N.jpg,Erin,1,"""",0,100,1,3/11/2021 19:18,99.35.42.200,Mozilla/5.0 (Windows NT 10.0; Win64; x64; rv:86.0) Gecko/20100101 Firefox/86.0,,Firefox,86,Windows,10
10,1,null,"""",html-keyboard-response,216,540625,0.0-216.0,"<div style=""font-size:60px;"">+</div>","""",256,ITI,Test,null,1000,"""","""","""","""","""","""","""","""",1,3/11/2021 19:18,99.35.42.200,Mozilla/5.0 (Windows NT 10.0; Win64; x64; rv:86.0) Gecko/20100101 Firefox/86.0,,Firefox,86,Windows,10
10,1,null,"""",image-keyboard-response,217,540895,0.0-217.0,jspsych/scrambledDisgustFaces/scrambledBF35DIS.JPG,"""",256,forwardMask,Test,null,250,"""",d,"""","""","""","""","""","""",1,3/11/2021 19:18,99.35.42.200,Mozilla/5.0 (Windows NT 10.0; Win64; x64; rv:86.0) Gecko/20100101 Firefox/86.0,,Firefox,86,Windows,10
10,1,null,"""",image-keyboard-response,218,540935,0.0-218.0,jspsych/disgustFaces/BF35DIS.JPG,"""",256,Cue,Test,null,16,"""","""","""","""","""","""","""","""",1,3/11/2021 19:18,99.35.42.200,Mozilla/5.0 (Windows NT 10.0; Win64; x64; rv:86.0) Gecko/20100101 Firefox/86.0,,Firefox,86,Windows,10
10,1,null,"""",image-keyboard-response,219,541055,0.0-219.0,jspsych/neutralFaces/AF34NES.JPG,"""",256,backwardMask,Test,null,100,"""","""","""","""","""","""","""","""",1,3/11/2021 19:18,99.35.42.200,Mozilla/5.0 (Windows NT 10.0; Win64; x64; rv:86.0) Gecko/20100101 Firefox/86.0,,Firefox,86,Windows,10
10,1,null,"""",html-keyboard-response,220,542075,0.0-220.0,"<div style=""font-size:60px;"">+</div>","""",256,fixationBtwnNeutralMaskAndPrompt,Test,null,1000,"""","""","""","""","""","""","""","""",1,3/11/2021 19:18,99.35.42.200,Mozilla/5.0 (Windows NT 10.0; Win64; x64; rv:86.0) Gecko/20100101 Firefox/86.0,,Firefox,86,Windows,10
10,1,1738,"""",html-button-response,221,543815,0.0-221.0,"<img src='jspsych/CFDfaces/CFD-AM-220-134-N.jpg' height=""250px"">,</br><b>Christian</b>",1,256,IntactOrRearranged,Test,"""","""","""","""",CFD-WM-232-070-N.jpg,Jacob,1,1,"""","""",1,3/11/2021 19:18,99.35.42.200,Mozilla/5.0 (Windows NT 10.0; Win64; x64; rv:86.0) Gecko/20100101 Firefox/86.0,,Firefox,86,Windows,10
10,1,2973,"""",html-slider-response,222,546796,0.0-222.0,"<img src='jspsych/CFDfaces/CFD-AM-220-134-N.jpg' height=""250px"">,</br><b>Christian</b>","""",256,ConfidenceQuery,Test,"""","""","""","""",CFD-WM-232-070-N.jpg,Jacob,1,"""",0,100,1,3/11/2021 19:18,99.35.42.200,Mozilla/5.0 (Windows NT 10.0; Win64; x64; rv:86.0) Gecko/20100101 Firefox/86.0,,Firefox,86,Windows,10
10,1,null,"""",html-keyboard-response,223,547805,0.0-223.0,"<div style=""font-size:60px;"">+</div>","""",256,ITI,Test,null,1000,"""","""","""","""","""","""","""","""",1,3/11/2021 19:18,99.35.42.200,Mozilla/5.0 (Windows NT 10.0; Win64; x64; rv:86.0) Gecko/20100101 Firefox/86.0,,Firefox,86,Windows,10
10,1,null,"""",image-keyboard-response,224,548074,0.0-224.0,jspsych/scrambledDisgustFaces/scrambledAF33DIS.JPG,"""",256,forwardMask,Test,null,250,"""",d,"""","""","""","""","""","""",1,3/11/2021 19:18,99.35.42.200,Mozilla/5.0 (Windows NT 10.0; Win64; x64; rv:86.0) Gecko/20100101 Firefox/86.0,,Firefox,86,Windows,10
10,1,null,"""",image-keyboard-response,225,548114,0.0-225.0,jspsych/disgustFaces/AF33DIS.JPG,"""",256,Cue,Test,null,16,"""","""","""","""","""","""","""","""",1,3/11/2021 19:18,99.35.42.200,Mozilla/5.0 (Windows NT 10.0; Win64; x64; rv:86.0) Gecko/20100101 Firefox/86.0,,Firefox,86,Windows,10
10,1,null,"""",image-keyboard-response,226,548234,0.0-226.0,jspsych/neutralFaces/BF20NES.JPG,"""",256,backwardMask,Test,null,100,"""","""","""","""","""","""","""","""",1,3/11/2021 19:18,99.35.42.200,Mozilla/5.0 (Windows NT 10.0; Win64; x64; rv:86.0) Gecko/20100101 Firefox/86.0,,Firefox,86,Windows,10
10,1,null,"""",html-keyboard-response,227,549250,0.0-227.0,"<div style=""font-size:60px;"">+</div>","""",256,fixationBtwnNeutralMaskAndPrompt,Test,null,1000,"""","""","""","""","""","""","""","""",1,3/11/2021 19:18,99.35.42.200,Mozilla/5.0 (Windows NT 10.0; Win64; x64; rv:86.0) Gecko/20100101 Firefox/86.0,,Firefox,86,Windows,10
10,1,1405,"""",html-button-response,228,550657,0.0-228.0,"<img src='jspsych/CFDfaces/CFD-WM-215-041-N.jpg' height=""250px"">,</br><b>Gregory</b>",0,256,IntactOrRearranged,Test,"""","""","""","""",CFD-AM-234-355-N.jpg,Sean,1,0,"""","""",1,3/11/2021 19:18,99.35.42.200,Mozilla/5.0 (Windows NT 10.0; Win64; x64; rv:86.0) Gecko/20100101 Firefox/86.0,,Firefox,86,Windows,10
10,1,null,"""",html-slider-response,229,555675,0.0-229.0,"<img src='jspsych/CFDfaces/CFD-WM-215-041-N.jpg' height=""250px"">,</br><b>Gregory</b>","""",256,ConfidenceQuery,Test,"""","""","""","""",CFD-AM-234-355-N.jpg,Sean,1,"""",0,null,1,3/11/2021 19:18,99.35.42.200,Mozilla/5.0 (Windows NT 10.0; Win64; x64; rv:86.0) Gecko/20100101 Firefox/86.0,,Firefox,86,Windows,10
10,1,null,"""",html-keyboard-response,230,556690,0.0-230.0,"<div style=""font-size:60px;"">+</div>","""",256,ITI,Test,null,1000,"""","""","""","""","""","""","""","""",1,3/11/2021 19:18,99.35.42.200,Mozilla/5.0 (Windows NT 10.0; Win64; x64; rv:86.0) Gecko/20100101 Firefox/86.0,,Firefox,86,Windows,10
10,1,null,"""",image-keyboard-response,231,556954,0.0-231.0,jspsych/scrambledDisgustFaces/scrambledBF24DIS.JPG,"""",256,forwardMask,Test,null,250,"""",d,"""","""","""","""","""","""",1,3/11/2021 19:18,99.35.42.200,Mozilla/5.0 (Windows NT 10.0; Win64; x64; rv:86.0) Gecko/20100101 Firefox/86.0,,Firefox,86,Windows,10
10,1,null,"""",image-keyboard-response,232,556994,0.0-232.0,jspsych/disgustFaces/BF24DIS.JPG,"""",256,Cue,Test,null,16,"""","""","""","""","""","""","""","""",1,3/11/2021 19:18,99.35.42.200,Mozilla/5.0 (Windows NT 10.0; Win64; x64; rv:86.0) Gecko/20100101 Firefox/86.0,,Firefox,86,Windows,10
10,1,null,"""",image-keyboard-response,233,557115,0.0-233.0,jspsych/neutralFaces/AF14NES.JPG,"""",256,backwardMask,Test,null,100,"""","""","""","""","""","""","""","""",1,3/11/2021 19:18,99.35.42.200,Mozilla/5.0 (Windows NT 10.0; Win64; x64; rv:86.0) Gecko/20100101 Firefox/86.0,,Firefox,86,Windows,10
10,1,null,"""",html-keyboard-response,234,558123,0.0-234.0,"<div style=""font-size:60px;"">+</div>","""",256,fixationBtwnNeutralMaskAndPrompt,Test,null,1000,"""","""","""","""","""","""","""","""",1,3/11/2021 19:18,99.35.42.200,Mozilla/5.0 (Windows NT 10.0; Win64; x64; rv:86.0) Gecko/20100101 Firefox/86.0,,Firefox,86,Windows,10
10,1,2252,"""",html-button-response,235,560376,0.0-235.0,"<img src='jspsych/CFDfaces/CFD-WM-019-003-N.jpg' height=""250px"">,</br><b>Daniel</b>",1,256,IntactOrRearranged,Test,"""","""","""","""",CFD-AF-240-206-N.jpg,Melissa,1,1,"""","""",1,3/11/2021 19:18,99.35.42.200,Mozilla/5.0 (Windows NT 10.0; Win64; x64; rv:86.0) Gecko/20100101 Firefox/86.0,,Firefox,86,Windows,10
10,1,2843,"""",html-slider-response,236,563227,0.0-236.0,"<img src='jspsych/CFDfaces/CFD-WM-019-003-N.jpg' height=""250px"">,</br><b>Daniel</b>","""",256,ConfidenceQuery,Test,"""","""","""","""",CFD-AF-240-206-N.jpg,Melissa,1,"""",0,100,1,3/11/2021 19:18,99.35.42.200,Mozilla/5.0 (Windows NT 10.0; Win64; x64; rv:86.0) Gecko/20100101 Firefox/86.0,,Firefox,86,Windows,10
10,1,null,"""",html-keyboard-response,237,564235,0.0-237.0,"<div style=""font-size:60px;"">+</div>","""",256,ITI,Test,null,1000,"""","""","""","""","""","""","""","""",1,3/11/2021 19:18,99.35.42.200,Mozilla/5.0 (Windows NT 10.0; Win64; x64; rv:86.0) Gecko/20100101 Firefox/86.0,,Firefox,86,Windows,10
10,1,null,"""",image-keyboard-response,238,564495,0.0-238.0,jspsych/scrambledDisgustFaces/scrambledBF12DIS.JPG,"""",256,forwardMask,Test,null,250,"""",d,"""","""","""","""","""","""",1,3/11/2021 19:18,99.35.42.200,Mozilla/5.0 (Windows NT 10.0; Win64; x64; rv:86.0) Gecko/20100101 Firefox/86.0,,Firefox,86,Windows,10
10,1,null,"""",image-keyboard-response,239,564535,0.0-239.0,jspsych/disgustFaces/BF12DIS.JPG,"""",256,Cue,Test,null,16,"""","""","""","""","""","""","""","""",1,3/11/2021 19:18,99.35.42.200,Mozilla/5.0 (Windows NT 10.0; Win64; x64; rv:86.0) Gecko/20100101 Firefox/86.0,,Firefox,86,Windows,10
10,1,null,"""",image-keyboard-response,240,564655,0.0-240.0,jspsych/neutralFaces/AF03NES.JPG,"""",256,backwardMask,Test,null,100,"""","""","""","""","""","""","""","""",1,3/11/2021 19:18,99.35.42.200,Mozilla/5.0 (Windows NT 10.0; Win64; x64; rv:86.0) Gecko/20100101 Firefox/86.0,,Firefox,86,Windows,10
10,1,null,"""",html-keyboard-response,241,565665,0.0-241.0,"<div style=""font-size:60px;"">+</div>","""",256,fixationBtwnNeutralMaskAndPrompt,Test,null,1000,"""","""","""","""","""","""","""","""",1,3/11/2021 19:18,99.35.42.200,Mozilla/5.0 (Windows NT 10.0; Win64; x64; rv:86.0) Gecko/20100101 Firefox/86.0,,Firefox,86,Windows,10
10,1,2320,"""",html-button-response,242,567986,0.0-242.0,"<img src='jspsych/CFDfaces/CFD-BF-222-240-N.jpg' height=""250px"">,</br><b>Christina</b>",1,256,IntactOrRearranged,Test,"""","""","""","""",CFD-AF-228-173-N.jpg,Lauren,1,1,"""","""",1,3/11/2021 19:18,99.35.42.200,Mozilla/5.0 (Windows NT 10.0; Win64; x64; rv:86.0) Gecko/20100101 Firefox/86.0,,Firefox,86,Windows,10
10,1,3094,"""",html-slider-response,243,571088,0.0-243.0,"<img src='jspsych/CFDfaces/CFD-BF-222-240-N.jpg' height=""250px"">,</br><b>Christina</b>","""",256,ConfidenceQuery,Test,"""","""","""","""",CFD-AF-228-173-N.jpg,Lauren,1,"""",0,100,1,3/11/2021 19:18,99.35.42.200,Mozilla/5.0 (Windows NT 10.0; Win64; x64; rv:86.0) Gecko/20100101 Firefox/86.0,,Firefox,86,Windows,10
10,1,null,"""",html-keyboard-response,244,572105,0.0-244.0,"<div style=""font-size:60px;"">+</div>","""",256,ITI,Test,null,1000,"""","""","""","""","""","""","""","""",1,3/11/2021 19:18,99.35.42.200,Mozilla/5.0 (Windows NT 10.0; Win64; x64; rv:86.0) Gecko/20100101 Firefox/86.0,,Firefox,86,Windows,10
10,1,null,"""",image-keyboard-response,245,572366,0.0-245.0,jspsych/scrambledNeutralFaces/scrambledAM25NES.JPG,"""",256,forwardMask,Test,null,250,"""",n,"""","""","""","""","""","""",1,3/11/2021 19:18,99.35.42.200,Mozilla/5.0 (Windows NT 10.0; Win64; x64; rv:86.0) Gecko/20100101 Firefox/86.0,,Firefox,86,Windows,10
10,1,null,"""",image-keyboard-response,246,572405,0.0-246.0,jspsych/neutralFaces/AM25NES.JPG,"""",256,Cue,Test,null,16,"""","""","""","""","""","""","""","""",1,3/11/2021 19:18,99.35.42.200,Mozilla/5.0 (Windows NT 10.0; Win64; x64; rv:86.0) Gecko/20100101 Firefox/86.0,,Firefox,86,Windows,10
10,1,null,"""",image-keyboard-response,247,572525,0.0-247.0,jspsych/neutralFaces/BM10NES.JPG,"""",256,backwardMask,Test,null,100,"""","""","""","""","""","""","""","""",1,3/11/2021 19:18,99.35.42.200,Mozilla/5.0 (Windows NT 10.0; Win64; x64; rv:86.0) Gecko/20100101 Firefox/86.0,,Firefox,86,Windows,10
10,1,null,"""",html-keyboard-response,248,573545,0.0-248.0,"<div style=""font-size:60px;"">+</div>","""",256,fixationBtwnNeutralMaskAndPrompt,Test,null,1000,"""","""","""","""","""","""","""","""",1,3/11/2021 19:18,99.35.42.200,Mozilla/5.0 (Windows NT 10.0; Win64; x64; rv:86.0) Gecko/20100101 Firefox/86.0,,Firefox,86,Windows,10
10,1,1860,"""",html-button-response,249,575407,0.0-249.0,"<img src='jspsych/CFDfaces/CFD-LM-225-130-N.jpg' height=""250px"">,</br><b>Brandon</b>",0,256,IntactOrRearranged,Test,"""","""","""","""",CFD-BM-017-021-N.jpg,Kenneth,0,0,"""","""",1,3/11/2021 19:18,99.35.42.200,Mozilla/5.0 (Windows NT 10.0; Win64; x64; rv:86.0) Gecko/20100101 Firefox/86.0,,Firefox,86,Windows,10
10,1,2754,"""",html-slider-response,250,578167,0.0-250.0,"<img src='jspsych/CFDfaces/CFD-LM-225-130-N.jpg' height=""250px"">,</br><b>Brandon</b>","""",256,ConfidenceQuery,Test,"""","""","""","""",CFD-BM-017-021-N.jpg,Kenneth,0,"""",0,100,1,3/11/2021 19:18,99.35.42.200,Mozilla/5.0 (Windows NT 10.0; Win64; x64; rv:86.0) Gecko/20100101 Firefox/86.0,,Firefox,86,Windows,10
10,1,null,"""",html-keyboard-response,251,579184,0.0-251.0,"<div style=""font-size:60px;"">+</div>","""",256,ITI,Test,null,1000,"""","""","""","""","""","""","""","""",1,3/11/2021 19:18,99.35.42.200,Mozilla/5.0 (Windows NT 10.0; Win64; x64; rv:86.0) Gecko/20100101 Firefox/86.0,,Firefox,86,Windows,10
10,1,null,"""",image-keyboard-response,252,579445,0.0-252.0,jspsych/scrambledNeutralFaces/scrambledAF30NES.JPG,"""",256,forwardMask,Test,null,250,"""",n,"""","""","""","""","""","""",1,3/11/2021 19:18,99.35.42.200,Mozilla/5.0 (Windows NT 10.0; Win64; x64; rv:86.0) Gecko/20100101 Firefox/86.0,,Firefox,86,Windows,10
10,1,null,"""",image-keyboard-response,253,579484,0.0-253.0,jspsych/neutralFaces/AF30NES.JPG,"""",256,Cue,Test,null,16,"""","""","""","""","""","""","""","""",1,3/11/2021 19:18,99.35.42.200,Mozilla/5.0 (Windows NT 10.0; Win64; x64; rv:86.0) Gecko/20100101 Firefox/86.0,,Firefox,86,Windows,10
10,1,null,"""",image-keyboard-response,254,579605,0.0-254.0,jspsych/neutralFaces/AF34NES.JPG,"""",256,backwardMask,Test,null,100,"""","""","""","""","""","""","""","""",1,3/11/2021 19:18,99.35.42.200,Mozilla/5.0 (Windows NT 10.0; Win64; x64; rv:86.0) Gecko/20100101 Firefox/86.0,,Firefox,86,Windows,10
10,1,null,"""",html-keyboard-response,255,580625,0.0-255.0,"<div style=""font-size:60px;"">+</div>","""",256,fixationBtwnNeutralMaskAndPrompt,Test,null,1000,"""","""","""","""","""","""","""","""",1,3/11/2021 19:18,99.35.42.200,Mozilla/5.0 (Windows NT 10.0; Win64; x64; rv:86.0) Gecko/20100101 Firefox/86.0,,Firefox,86,Windows,10
10,1,2074,"""",html-button-response,256,582701,0.0-256.0,"<img src='jspsych/CFDfaces/CFD-LF-203-066-N.jpg' height=""250px"">,</br><b>Andrea</b>",1,256,IntactOrRearranged,Test,"""","""","""","""",CFD-WM-041-021-N.jpg,Mark,1,1,"""","""",1,3/11/2021 19:18,99.35.42.200,Mozilla/5.0 (Windows NT 10.0; Win64; x64; rv:86.0) Gecko/20100101 Firefox/86.0,,Firefox,86,Windows,10
10,1,3078,"""",html-slider-response,257,585787,0.0-257.0,"<img src='jspsych/CFDfaces/CFD-LF-203-066-N.jpg' height=""250px"">,</br><b>Andrea</b>","""",256,ConfidenceQuery,Test,"""","""","""","""",CFD-WM-041-021-N.jpg,Mark,1,"""",0,80,1,3/11/2021 19:18,99.35.42.200,Mozilla/5.0 (Windows NT 10.0; Win64; x64; rv:86.0) Gecko/20100101 Firefox/86.0,,Firefox,86,Windows,10
10,1,null,"""",html-keyboard-response,258,586805,0.0-258.0,"<div style=""font-size:60px;"">+</div>","""",256,ITI,Test,null,1000,"""","""","""","""","""","""","""","""",1,3/11/2021 19:18,99.35.42.200,Mozilla/5.0 (Windows NT 10.0; Win64; x64; rv:86.0) Gecko/20100101 Firefox/86.0,,Firefox,86,Windows,10
10,1,null,"""",image-keyboard-response,259,587065,0.0-259.0,jspsych/scrambledNeutralFaces/scrambledAM15NES.JPG,"""",256,forwardMask,Test,null,250,"""",n,"""","""","""","""","""","""",1,3/11/2021 19:18,99.35.42.200,Mozilla/5.0 (Windows NT 10.0; Win64; x64; rv:86.0) Gecko/20100101 Firefox/86.0,,Firefox,86,Windows,10
10,1,null,"""",image-keyboard-response,260,587085,0.0-260.0,jspsych/neutralFaces/AM15NES.JPG,"""",256,Cue,Test,null,16,"""","""","""","""","""","""","""","""",1,3/11/2021 19:18,99.35.42.200,Mozilla/5.0 (Windows NT 10.0; Win64; x64; rv:86.0) Gecko/20100101 Firefox/86.0,,Firefox,86,Windows,10
10,1,null,"""",image-keyboard-response,261,587205,0.0-261.0,jspsych/neutralFaces/BM09NES.JPG,"""",256,backwardMask,Test,null,100,"""","""","""","""","""","""","""","""",1,3/11/2021 19:18,99.35.42.200,Mozilla/5.0 (Windows NT 10.0; Win64; x64; rv:86.0) Gecko/20100101 Firefox/86.0,,Firefox,86,Windows,10
10,1,null,"""",html-keyboard-response,262,588214,0.0-262.0,"<div style=""font-size:60px;"">+</div>","""",256,fixationBtwnNeutralMaskAndPrompt,Test,null,1000,"""","""","""","""","""","""","""","""",1,3/11/2021 19:18,99.35.42.200,Mozilla/5.0 (Windows NT 10.0; Win64; x64; rv:86.0) Gecko/20100101 Firefox/86.0,,Firefox,86,Windows,10
10,1,1690,"""",html-button-response,263,589907,0.0-263.0,"<img src='jspsych/CFDfaces/CFD-AF-230-193-N.jpg' height=""250px"">,</br><b>Stephanie</b>",0,256,IntactOrRearranged,Test,"""","""","""","""",CFD-AF-222-134-N.jpg,Jordan,0,0,"""","""",1,3/11/2021 19:18,99.35.42.200,Mozilla/5.0 (Windows NT 10.0; Win64; x64; rv:86.0) Gecko/20100101 Firefox/86.0,,Firefox,86,Windows,10
10,1,2683,"""",html-slider-response,264,592597,0.0-264.0,"<img src='jspsych/CFDfaces/CFD-AF-230-193-N.jpg' height=""250px"">,</br><b>Stephanie</b>","""",256,ConfidenceQuery,Test,"""","""","""","""",CFD-AF-222-134-N.jpg,Jordan,0,"""",0,100,1,3/11/2021 19:18,99.35.42.200,Mozilla/5.0 (Windows NT 10.0; Win64; x64; rv:86.0) Gecko/20100101 Firefox/86.0,,Firefox,86,Windows,10
10,1,null,"""",html-keyboard-response,265,593604,0.0-265.0,"<div style=""font-size:60px;"">+</div>","""",256,ITI,Test,null,1000,"""","""","""","""","""","""","""","""",1,3/11/2021 19:18,99.35.42.200,Mozilla/5.0 (Windows NT 10.0; Win64; x64; rv:86.0) Gecko/20100101 Firefox/86.0,,Firefox,86,Windows,10
10,1,null,"""",image-keyboard-response,266,593871,0.0-266.0,jspsych/scrambledNeutralFaces/scrambledBF23NES.JPG,"""",256,forwardMask,Test,null,250,"""",n,"""","""","""","""","""","""",1,3/11/2021 19:18,99.35.42.200,Mozilla/5.0 (Windows NT 10.0; Win64; x64; rv:86.0) Gecko/20100101 Firefox/86.0,,Firefox,86,Windows,10
10,1,null,"""",image-keyboard-response,267,593896,0.0-267.0,jspsych/neutralFaces/BF23NES.JPG,"""",256,Cue,Test,null,16,"""","""","""","""","""","""","""","""",1,3/11/2021 19:18,99.35.42.200,Mozilla/5.0 (Windows NT 10.0; Win64; x64; rv:86.0) Gecko/20100101 Firefox/86.0,,Firefox,86,Windows,10
10,1,null,"""",image-keyboard-response,268,594015,0.0-268.0,jspsych/neutralFaces/BF29NES.JPG,"""",256,backwardMask,Test,null,100,"""","""","""","""","""","""","""","""",1,3/11/2021 19:18,99.35.42.200,Mozilla/5.0 (Windows NT 10.0; Win64; x64; rv:86.0) Gecko/20100101 Firefox/86.0,,Firefox,86,Windows,10
10,1,null,"""",html-keyboard-response,269,595035,0.0-269.0,"<div style=""font-size:60px;"">+</div>","""",256,fixationBtwnNeutralMaskAndPrompt,Test,null,1000,"""","""","""","""","""","""","""","""",1,3/11/2021 19:18,99.35.42.200,Mozilla/5.0 (Windows NT 10.0; Win64; x64; rv:86.0) Gecko/20100101 Firefox/86.0,,Firefox,86,Windows,10
10,1,1481,"""",html-button-response,270,596517,0.0-270.0,"<img src='jspsych/CFDfaces/CFD-WM-213-076-N.jpg' height=""250px"">,</br><b>Juan</b>",0,256,IntactOrRearranged,Test,"""","""","""","""",CFD-AM-213-056-N.jpg,Cameron,0,0,"""","""",1,3/11/2021 19:18,99.35.42.200,Mozilla/5.0 (Windows NT 10.0; Win64; x64; rv:86.0) Gecko/20100101 Firefox/86.0,,Firefox,86,Windows,10
10,1,2598,"""",html-slider-response,271,599118,0.0-271.0,"<img src='jspsych/CFDfaces/CFD-WM-213-076-N.jpg' height=""250px"">,</br><b>Juan</b>","""",256,ConfidenceQuery,Test,"""","""","""","""",CFD-AM-213-056-N.jpg,Cameron,0,"""",0,100,1,3/11/2021 19:18,99.35.42.200,Mozilla/5.0 (Windows NT 10.0; Win64; x64; rv:86.0) Gecko/20100101 Firefox/86.0,,Firefox,86,Windows,10
10,1,null,"""",html-keyboard-response,272,600135,0.0-272.0,"<div style=""font-size:60px;"">+</div>","""",256,ITI,Test,null,1000,"""","""","""","""","""","""","""","""",1,3/11/2021 19:18,99.35.42.200,Mozilla/5.0 (Windows NT 10.0; Win64; x64; rv:86.0) Gecko/20100101 Firefox/86.0,,Firefox,86,Windows,10
10,1,null,"""",image-keyboard-response,273,600395,0.0-273.0,jspsych/scrambledDisgustFaces/scrambledBF21DIS.JPG,"""",256,forwardMask,Test,null,250,"""",d,"""","""","""","""","""","""",1,3/11/2021 19:18,99.35.42.200,Mozilla/5.0 (Windows NT 10.0; Win64; x64; rv:86.0) Gecko/20100101 Firefox/86.0,,Firefox,86,Windows,10
10,1,null,"""",image-keyboard-response,274,600435,0.0-274.0,jspsych/disgustFaces/BF21DIS.JPG,"""",256,Cue,Test,null,16,"""","""","""","""","""","""","""","""",1,3/11/2021 19:18,99.35.42.200,Mozilla/5.0 (Windows NT 10.0; Win64; x64; rv:86.0) Gecko/20100101 Firefox/86.0,,Firefox,86,Windows,10
10,1,null,"""",image-keyboard-response,275,600554,0.0-275.0,jspsych/neutralFaces/BF04NES.JPG,"""",256,backwardMask,Test,null,100,"""","""","""","""","""","""","""","""",1,3/11/2021 19:18,99.35.42.200,Mozilla/5.0 (Windows NT 10.0; Win64; x64; rv:86.0) Gecko/20100101 Firefox/86.0,,Firefox,86,Windows,10
10,1,null,"""",html-keyboard-response,276,601575,0.0-276.0,"<div style=""font-size:60px;"">+</div>","""",256,fixationBtwnNeutralMaskAndPrompt,Test,null,1000,"""","""","""","""","""","""","""","""",1,3/11/2021 19:18,99.35.42.200,Mozilla/5.0 (Windows NT 10.0; Win64; x64; rv:86.0) Gecko/20100101 Firefox/86.0,,Firefox,86,Windows,10
10,1,1582,"""",html-button-response,277,603157,0.0-277.0,"<img src='jspsych/CFDfaces/CFD-BM-018-001-N.jpg' height=""250px"">,</br><b>Joshua</b>",0,256,IntactOrRearranged,Test,"""","""","""","""",CFD-AM-214-168-N.jpg,Travis,1,0,"""","""",1,3/11/2021 19:18,99.35.42.200,Mozilla/5.0 (Windows NT 10.0; Win64; x64; rv:86.0) Gecko/20100101 Firefox/86.0,,Firefox,86,Windows,10
10,1,3472,"""",html-slider-response,278,606637,0.0-278.0,"<img src='jspsych/CFDfaces/CFD-BM-018-001-N.jpg' height=""250px"">,</br><b>Joshua</b>","""",256,ConfidenceQuery,Test,"""","""","""","""",CFD-AM-214-168-N.jpg,Travis,1,"""",0,96,1,3/11/2021 19:18,99.35.42.200,Mozilla/5.0 (Windows NT 10.0; Win64; x64; rv:86.0) Gecko/20100101 Firefox/86.0,,Firefox,86,Windows,10
10,1,null,"""",html-keyboard-response,279,607654,0.0-279.0,"<div style=""font-size:60px;"">+</div>","""",256,ITI,Test,null,1000,"""","""","""","""","""","""","""","""",1,3/11/2021 19:18,99.35.42.200,Mozilla/5.0 (Windows NT 10.0; Win64; x64; rv:86.0) Gecko/20100101 Firefox/86.0,,Firefox,86,Windows,10
10,1,null,"""",image-keyboard-response,280,607935,0.0-280.0,jspsych/scrambledDisgustFaces/scrambledBM34DIS.JPG,"""",256,forwardMask,Test,null,250,"""",d,"""","""","""","""","""","""",1,3/11/2021 19:18,99.35.42.200,Mozilla/5.0 (Windows NT 10.0; Win64; x64; rv:86.0) Gecko/20100101 Firefox/86.0,,Firefox,86,Windows,10
10,1,null,"""",image-keyboard-response,281,607975,0.0-281.0,jspsych/disgustFaces/BM35DIS.JPG,"""",256,Cue,Test,null,16,"""","""","""","""","""","""","""","""",1,3/11/2021 19:18,99.35.42.200,Mozilla/5.0 (Windows NT 10.0; Win64; x64; rv:86.0) Gecko/20100101 Firefox/86.0,,Firefox,86,Windows,10
10,1,null,"""",image-keyboard-response,282,608095,0.0-282.0,jspsych/neutralFaces/AM25NES.JPG,"""",256,backwardMask,Test,null,100,"""","""","""","""","""","""","""","""",1,3/11/2021 19:18,99.35.42.200,Mozilla/5.0 (Windows NT 10.0; Win64; x64; rv:86.0) Gecko/20100101 Firefox/86.0,,Firefox,86,Windows,10
10,1,null,"""",html-keyboard-response,283,609115,0.0-283.0,"<div style=""font-size:60px;"">+</div>","""",256,fixationBtwnNeutralMaskAndPrompt,Test,null,1000,"""","""","""","""","""","""","""","""",1,3/11/2021 19:18,99.35.42.200,Mozilla/5.0 (Windows NT 10.0; Win64; x64; rv:86.0) Gecko/20100101 Firefox/86.0,,Firefox,86,Windows,10
10,1,1961,"""",html-button-response,284,611077,0.0-284.0,"<img src='jspsych/CFDfaces/CFD-WF-003-003-N.jpg' height=""250px"">,</br><b>Victoria</b>",1,256,IntactOrRearranged,Test,"""","""","""","""",CFD-AM-248-104-N.jpg,Jesse,1,1,"""","""",1,3/11/2021 19:18,99.35.42.200,Mozilla/5.0 (Windows NT 10.0; Win64; x64; rv:86.0) Gecko/20100101 Firefox/86.0,,Firefox,86,Windows,10
10,1,2633,"""",html-slider-response,285,613717,0.0-285.0,"<img src='jspsych/CFDfaces/CFD-WF-003-003-N.jpg' height=""250px"">,</br><b>Victoria</b>","""",256,ConfidenceQuery,Test,"""","""","""","""",CFD-AM-248-104-N.jpg,Jesse,1,"""",0,100,1,3/11/2021 19:18,99.35.42.200,Mozilla/5.0 (Windows NT 10.0; Win64; x64; rv:86.0) Gecko/20100101 Firefox/86.0,,Firefox,86,Windows,10
10,1,null,"""",html-keyboard-response,286,614725,0.0-286.0,"<div style=""font-size:60px;"">+</div>","""",256,ITI,Test,null,1000,"""","""","""","""","""","""","""","""",1,3/11/2021 19:18,99.35.42.200,Mozilla/5.0 (Windows NT 10.0; Win64; x64; rv:86.0) Gecko/20100101 Firefox/86.0,,Firefox,86,Windows,10
10,1,null,"""",image-keyboard-response,287,614994,0.0-287.0,jspsych/scrambledNeutralFaces/scrambledAM21NES.JPG,"""",256,forwardMask,Test,null,250,"""",n,"""","""","""","""","""","""",1,3/11/2021 19:18,99.35.42.200,Mozilla/5.0 (Windows NT 10.0; Win64; x64; rv:86.0) Gecko/20100101 Firefox/86.0,,Firefox,86,Windows,10
10,1,null,"""",image-keyboard-response,288,615015,0.0-288.0,jspsych/neutralFaces/AM21NES.JPG,"""",256,Cue,Test,null,16,"""","""","""","""","""","""","""","""",1,3/11/2021 19:18,99.35.42.200,Mozilla/5.0 (Windows NT 10.0; Win64; x64; rv:86.0) Gecko/20100101 Firefox/86.0,,Firefox,86,Windows,10
10,1,null,"""",image-keyboard-response,289,615136,0.0-289.0,jspsych/neutralFaces/BM16NES.JPG,"""",256,backwardMask,Test,null,100,"""","""","""","""","""","""","""","""",1,3/11/2021 19:18,99.35.42.200,Mozilla/5.0 (Windows NT 10.0; Win64; x64; rv:86.0) Gecko/20100101 Firefox/86.0,,Firefox,86,Windows,10
10,1,null,"""",html-keyboard-response,290,616146,0.0-290.0,"<div style=""font-size:60px;"">+</div>","""",256,fixationBtwnNeutralMaskAndPrompt,Test,null,1000,"""","""","""","""","""","""","""","""",1,3/11/2021 19:18,99.35.42.200,Mozilla/5.0 (Windows NT 10.0; Win64; x64; rv:86.0) Gecko/20100101 Firefox/86.0,,Firefox,86,Windows,10
10,1,2181,"""",html-button-response,291,618327,0.0-291.0,"<img src='jspsych/CFDfaces/CFD-BM-210-148-N.jpg' height=""250px"">,</br><b>Jason</b>",0,256,IntactOrRearranged,Test,"""","""","""","""",CFD-BM-207-024-N.jpg,Austin,0,0,"""","""",1,3/11/2021 19:18,99.35.42.200,Mozilla/5.0 (Windows NT 10.0; Win64; x64; rv:86.0) Gecko/20100101 Firefox/86.0,,Firefox,86,Windows,10
10,1,2722,"""",html-slider-response,292,621058,0.0-292.0,"<img src='jspsych/CFDfaces/CFD-BM-210-148-N.jpg' height=""250px"">,</br><b>Jason</b>","""",256,ConfidenceQuery,Test,"""","""","""","""",CFD-BM-207-024-N.jpg,Austin,0,"""",0,100,1,3/11/2021 19:18,99.35.42.200,Mozilla/5.0 (Windows NT 10.0; Win64; x64; rv:86.0) Gecko/20100101 Firefox/86.0,,Firefox,86,Windows,10
10,1,null,"""",html-keyboard-response,293,622066,0.0-293.0,"<div style=""font-size:60px;"">+</div>","""",256,ITI,Test,null,1000,"""","""","""","""","""","""","""","""",1,3/11/2021 19:18,99.35.42.200,Mozilla/5.0 (Windows NT 10.0; Win64; x64; rv:86.0) Gecko/20100101 Firefox/86.0,,Firefox,86,Windows,10
10,1,null,"""",image-keyboard-response,294,622345,0.0-294.0,jspsych/scrambledNeutralFaces/scrambledBM07NES.JPG,"""",256,forwardMask,Test,null,250,"""",n,"""","""","""","""","""","""",1,3/11/2021 19:18,99.35.42.200,Mozilla/5.0 (Windows NT 10.0; Win64; x64; rv:86.0) Gecko/20100101 Firefox/86.0,,Firefox,86,Windows,10
10,1,null,"""",image-keyboard-response,295,622385,0.0-295.0,jspsych/neutralFaces/BM07NES.JPG,"""",256,Cue,Test,null,16,"""","""","""","""","""","""","""","""",1,3/11/2021 19:18,99.35.42.200,Mozilla/5.0 (Windows NT 10.0; Win64; x64; rv:86.0) Gecko/20100101 Firefox/86.0,,Firefox,86,Windows,10
10,1,null,"""",image-keyboard-response,296,622504,0.0-296.0,jspsych/neutralFaces/BM33NES.JPG,"""",256,backwardMask,Test,null,100,"""","""","""","""","""","""","""","""",1,3/11/2021 19:18,99.35.42.200,Mozilla/5.0 (Windows NT 10.0; Win64; x64; rv:86.0) Gecko/20100101 Firefox/86.0,,Firefox,86,Windows,10
10,1,null,"""",html-keyboard-response,297,623511,0.0-297.0,"<div style=""font-size:60px;"">+</div>","""",256,fixationBtwnNeutralMaskAndPrompt,Test,null,1000,"""","""","""","""","""","""","""","""",1,3/11/2021 19:18,99.35.42.200,Mozilla/5.0 (Windows NT 10.0; Win64; x64; rv:86.0) Gecko/20100101 Firefox/86.0,,Firefox,86,Windows,10
10,1,3135,"""",html-button-response,298,626647,0.0-298.0,"<img src='jspsych/CFDfaces/CFD-WM-022-001-N.jpg' height=""250px"">,</br><b>Brian</b>",0,256,IntactOrRearranged,Test,"""","""","""","""",CFD-WF-215-145-N.jpg,Lindsey,0,0,"""","""",1,3/11/2021 19:18,99.35.42.200,Mozilla/5.0 (Windows NT 10.0; Win64; x64; rv:86.0) Gecko/20100101 Firefox/86.0,,Firefox,86,Windows,10
10,1,2668,"""",html-slider-response,299,629327,0.0-299.0,"<img src='jspsych/CFDfaces/CFD-WM-022-001-N.jpg' height=""250px"">,</br><b>Brian</b>","""",256,ConfidenceQuery,Test,"""","""","""","""",CFD-WF-215-145-N.jpg,Lindsey,0,"""",0,100,1,3/11/2021 19:18,99.35.42.200,Mozilla/5.0 (Windows NT 10.0; Win64; x64; rv:86.0) Gecko/20100101 Firefox/86.0,,Firefox,86,Windows,10
10,1,null,"""",html-keyboard-response,300,630345,0.0-300.0,"<div style=""font-size:60px;"">+</div>","""",256,ITI,Test,null,1000,"""","""","""","""","""","""","""","""",1,3/11/2021 19:18,99.35.42.200,Mozilla/5.0 (Windows NT 10.0; Win64; x64; rv:86.0) Gecko/20100101 Firefox/86.0,,Firefox,86,Windows,10
10,1,null,"""",image-keyboard-response,301,630606,0.0-301.0,jspsych/scrambledDisgustFaces/scrambledBM21DIS.JPG,"""",256,forwardMask,Test,null,250,"""",d,"""","""","""","""","""","""",1,3/11/2021 19:18,99.35.42.200,Mozilla/5.0 (Windows NT 10.0; Win64; x64; rv:86.0) Gecko/20100101 Firefox/86.0,,Firefox,86,Windows,10
