run_id,condition,rt,responses,trial_type,trial_index,time_elapsed,internal_node_id,stimulus,button_pressed,iTrial,Phase,ExperimentPhase,key_press,StimulusDurationSetting,CharacterResponse,correctResponse,Face,Name,rearranged,didSubjectEnterRearranged,slider_start,response,Block,recorded_at,ip,user_agent,device,browser,browser_version,platform,platform_version
8,1,45971,"{""Q0"":""A1T7EB1WEDCMXV""}",survey-text,0,45978,0.0-0.0,"""","""","""","""","""","""","""","""","""","""","""","""","""","""","""","""",3/11/2021 19:12,173.185.139.15,Mozilla/5.0 (X11; Linux x86_64; rv:86.0) Gecko/20100101 Firefox/86.0,,Firefox,86,Linux,
8,1,58173,"""",image-button-response,1,104174,0.0-1.0,directionsMemoryAssociation1.JPG,0,1,IntroDirections1,break,"""","""","""","""","""","""","""","""","""","""","""",3/11/2021 19:12,173.185.139.15,Mozilla/5.0 (X11; Linux x86_64; rv:86.0) Gecko/20100101 Firefox/86.0,,Firefox,86,Linux,
8,1,91276,"""",image-button-response,2,195464,0.0-2.0,directionsMemoryAssociation2.JPG,0,1,IntroDirections2,break,"""","""","""","""","""","""","""","""","""","""","""",3/11/2021 19:12,173.185.139.15,Mozilla/5.0 (X11; Linux x86_64; rv:86.0) Gecko/20100101 Firefox/86.0,,Firefox,86,Linux,
8,1,null,"""",html-keyboard-response,3,200475,0.0-3.0,"<img src='jspsych/CFDfaces/CFD-BF-218-207-N.jpg' height=""250px"">,</br><b>Katelyn</b>","""",1,IntactFace,Practice,null,5000,"""","""","""","""","""","""","""","""","""",3/11/2021 19:12,173.185.139.15,Mozilla/5.0 (X11; Linux x86_64; rv:86.0) Gecko/20100101 Firefox/86.0,,Firefox,86,Linux,
8,1,null,"""",html-keyboard-response,4,200977,0.0-4.0,"<div style=""font-size:60px;"">+</div>","""",1,ITI,Practice,null,1000,"""","""","""","""","""","""","""","""","""",3/11/2021 19:12,173.185.139.15,Mozilla/5.0 (X11; Linux x86_64; rv:86.0) Gecko/20100101 Firefox/86.0,,Firefox,86,Linux,
8,1,1763,"""",html-keyboard-response,5,205984,0.0-5.0,"<img src='jspsych/CFDfaces/CFD-WM-017-002-N.jpg' height=""250px"">,</br><b>Carlos</b>","""",2,IntactFace,Practice,78,5000,n,"""","""","""","""","""","""","""","""",3/11/2021 19:12,173.185.139.15,Mozilla/5.0 (X11; Linux x86_64; rv:86.0) Gecko/20100101 Firefox/86.0,,Firefox,86,Linux,
8,1,null,"""",html-keyboard-response,6,206487,0.0-6.0,"<div style=""font-size:60px;"">+</div>","""",2,ITI,Practice,null,1000,"""","""","""","""","""","""","""","""","""",3/11/2021 19:12,173.185.139.15,Mozilla/5.0 (X11; Linux x86_64; rv:86.0) Gecko/20100101 Firefox/86.0,,Firefox,86,Linux,
8,1,3572,"""",html-keyboard-response,7,211491,0.0-7.0,"<img src='jspsych/CFDfaces/CFD-LF-243-175-N.jpg' height=""250px"">,</br><b>Tara</b>","""",3,IntactFace,Practice,70,5000,f,"""","""","""","""","""","""","""","""",3/11/2021 19:12,173.185.139.15,Mozilla/5.0 (X11; Linux x86_64; rv:86.0) Gecko/20100101 Firefox/86.0,,Firefox,86,Linux,
8,1,null,"""",html-keyboard-response,8,211992,0.0-8.0,"<div style=""font-size:60px;"">+</div>","""",3,ITI,Practice,null,1000,"""","""","""","""","""","""","""","""","""",3/11/2021 19:12,173.185.139.15,Mozilla/5.0 (X11; Linux x86_64; rv:86.0) Gecko/20100101 Firefox/86.0,,Firefox,86,Linux,
8,1,1882,"""",html-keyboard-response,9,216995,0.0-9.0,"<img src='jspsych/CFDfaces/CFD-AF-237-223-N.jpg' height=""250px"">,</br><b>Shannon</b>","""",4,IntactFace,Practice,70,5000,f,"""","""","""","""","""","""","""","""",3/11/2021 19:12,173.185.139.15,Mozilla/5.0 (X11; Linux x86_64; rv:86.0) Gecko/20100101 Firefox/86.0,,Firefox,86,Linux,
8,1,null,"""",html-keyboard-response,10,217497,0.0-10.0,"<div style=""font-size:60px;"">+</div>","""",4,ITI,Practice,null,1000,"""","""","""","""","""","""","""","""","""",3/11/2021 19:12,173.185.139.15,Mozilla/5.0 (X11; Linux x86_64; rv:86.0) Gecko/20100101 Firefox/86.0,,Firefox,86,Linux,
8,1,2450,"""",html-keyboard-response,11,222503,0.0-11.0,"<img src='jspsych/CFDfaces/CFD-WM-020-001-N.jpg' height=""250px"">,</br><b>Patrick</b>","""",5,IntactFace,Practice,70,5000,f,"""","""","""","""","""","""","""","""",3/11/2021 19:12,173.185.139.15,Mozilla/5.0 (X11; Linux x86_64; rv:86.0) Gecko/20100101 Firefox/86.0,,Firefox,86,Linux,
8,1,null,"""",html-keyboard-response,12,223005,0.0-12.0,"<div style=""font-size:60px;"">+</div>","""",5,ITI,Practice,null,1000,"""","""","""","""","""","""","""","""","""",3/11/2021 19:12,173.185.139.15,Mozilla/5.0 (X11; Linux x86_64; rv:86.0) Gecko/20100101 Firefox/86.0,,Firefox,86,Linux,
8,1,3415,"""",html-keyboard-response,13,228009,0.0-13.0,"<img src='jspsych/CFDfaces/CFD-LM-252-076-N.jpg' height=""250px"">,</br><b>Samuel</b>","""",6,IntactFace,Practice,78,5000,n,"""","""","""","""","""","""","""","""",3/11/2021 19:12,173.185.139.15,Mozilla/5.0 (X11; Linux x86_64; rv:86.0) Gecko/20100101 Firefox/86.0,,Firefox,86,Linux,
8,1,null,"""",html-keyboard-response,14,228510,0.0-14.0,"<div style=""font-size:60px;"">+</div>","""",6,ITI,Practice,null,1000,"""","""","""","""","""","""","""","""","""",3/11/2021 19:12,173.185.139.15,Mozilla/5.0 (X11; Linux x86_64; rv:86.0) Gecko/20100101 Firefox/86.0,,Firefox,86,Linux,
8,1,1816,"""",html-keyboard-response,15,233520,0.0-15.0,"<img src='jspsych/CFDfaces/CFD-AF-239-171-N.jpg' height=""250px"">,</br><b>Cassandra</b>","""",7,IntactFace,Practice,78,5000,n,"""","""","""","""","""","""","""","""",3/11/2021 19:12,173.185.139.15,Mozilla/5.0 (X11; Linux x86_64; rv:86.0) Gecko/20100101 Firefox/86.0,,Firefox,86,Linux,
8,1,null,"""",html-keyboard-response,16,234022,0.0-16.0,"<div style=""font-size:60px;"">+</div>","""",7,ITI,Practice,null,1000,"""","""","""","""","""","""","""","""","""",3/11/2021 19:12,173.185.139.15,Mozilla/5.0 (X11; Linux x86_64; rv:86.0) Gecko/20100101 Firefox/86.0,,Firefox,86,Linux,
8,1,2239,"""",html-keyboard-response,17,239026,0.0-17.0,"<img src='jspsych/CFDfaces/CFD-AM-221-184-N.jpg' height=""250px"">,</br><b>Marcus</b>","""",8,IntactFace,Practice,70,5000,f,"""","""","""","""","""","""","""","""",3/11/2021 19:12,173.185.139.15,Mozilla/5.0 (X11; Linux x86_64; rv:86.0) Gecko/20100101 Firefox/86.0,,Firefox,86,Linux,
8,1,null,"""",html-keyboard-response,18,239528,0.0-18.0,"<div style=""font-size:60px;"">+</div>","""",8,ITI,Practice,null,1000,"""","""","""","""","""","""","""","""","""",3/11/2021 19:12,173.185.139.15,Mozilla/5.0 (X11; Linux x86_64; rv:86.0) Gecko/20100101 Firefox/86.0,,Firefox,86,Linux,
8,1,115724,"""",image-button-response,19,355263,0.0-19.0,directionsForTest.JPG,0,1,directionsForTest,break,"""","""","""","""","""","""","""","""","""","""","""",3/11/2021 19:12,173.185.139.15,Mozilla/5.0 (X11; Linux x86_64; rv:86.0) Gecko/20100101 Firefox/86.0,,Firefox,86,Linux,
8,1,54466,"""",image-button-response,20,409742,0.0-20.0,directionsForTest2.JPG,0,1,directionsForTest2,break,"""","""","""","""","""","""","""","""","""","""","""",3/11/2021 19:12,173.185.139.15,Mozilla/5.0 (X11; Linux x86_64; rv:86.0) Gecko/20100101 Firefox/86.0,,Firefox,86,Linux,
8,1,null,"""",html-keyboard-response,21,410748,0.0-21.0,"<div style=""font-size:60px;"">+</div>","""",1,ITI,Practice,null,1000,"""","""","""","""","""","""","""","""","""",3/11/2021 19:12,173.185.139.15,Mozilla/5.0 (X11; Linux x86_64; rv:86.0) Gecko/20100101 Firefox/86.0,,Firefox,86,Linux,
8,1,null,"""",image-keyboard-response,22,411002,0.0-22.0,jspsych/scrambledNeutralFaces/scrambledAF24NES.JPG,"""",1,forwardMask,Practice,null,250,"""",n,"""","""","""","""","""","""","""",3/11/2021 19:12,173.185.139.15,Mozilla/5.0 (X11; Linux x86_64; rv:86.0) Gecko/20100101 Firefox/86.0,,Firefox,86,Linux,
8,1,null,"""",image-keyboard-response,23,411024,0.0-23.0,jspsych/neutralFaces/AF24NES.JPG,"""",1,Cue,Practice,null,16,"""","""","""","""","""","""","""","""","""",3/11/2021 19:12,173.185.139.15,Mozilla/5.0 (X11; Linux x86_64; rv:86.0) Gecko/20100101 Firefox/86.0,,Firefox,86,Linux,
8,1,null,"""",image-keyboard-response,24,411129,0.0-24.0,jspsych/neutralFaces/AF28NES.JPG,"""",1,backwardMask,Practice,null,100,"""","""","""","""","""","""","""","""","""",3/11/2021 19:12,173.185.139.15,Mozilla/5.0 (X11; Linux x86_64; rv:86.0) Gecko/20100101 Firefox/86.0,,Firefox,86,Linux,
8,1,null,"""",html-keyboard-response,25,412131,0.0-25.0,"<div style=""font-size:60px;"">+</div>","""",1,fixationBtwnNeutralMaskAndPrompt,Practice,null,1000,"""","""","""","""","""","""","""","""","""",3/11/2021 19:12,173.185.139.15,Mozilla/5.0 (X11; Linux x86_64; rv:86.0) Gecko/20100101 Firefox/86.0,,Firefox,86,Linux,
8,1,4865,"""",html-button-response,26,416999,0.0-26.0,"<img src='jspsych/CFDfaces/CFD-AF-237-223-N.jpg'height=""250px""></br><b>Shannon</b>",0,1,IntactOrRearranged,Practice,"""","""","""","""",CFD-AF-237-223-N.jpg,Shannon,0,0,"""","""","""",3/11/2021 19:12,173.185.139.15,Mozilla/5.0 (X11; Linux x86_64; rv:86.0) Gecko/20100101 Firefox/86.0,,Firefox,86,Linux,
8,1,null,"""",html-slider-response,27,422009,0.0-27.0,"<img src='jspsych/CFDfaces/CFD-AF-237-223-N.jpg'height=""250px""></br><b>Shannon</b>","""",1,ConfidenceQuery,Practice,"""","""","""","""",CFD-WF-202-056-N.jpg,Laura,0,"""",0,null,"""",3/11/2021 19:12,173.185.139.15,Mozilla/5.0 (X11; Linux x86_64; rv:86.0) Gecko/20100101 Firefox/86.0,,Firefox,86,Linux,
8,1,3428,"""",html-button-response,28,425438,0.0-28.0,You are Correct. You called an Intact Pair Intact,0,1,feedback,Practice,"""","""","""","""","""","""","""","""","""","""","""",3/11/2021 19:12,173.185.139.15,Mozilla/5.0 (X11; Linux x86_64; rv:86.0) Gecko/20100101 Firefox/86.0,,Firefox,86,Linux,
8,1,null,"""",html-keyboard-response,29,426444,0.0-29.0,"<div style=""font-size:60px;"">+</div>","""",2,ITI,Practice,null,1000,"""","""","""","""","""","""","""","""","""",3/11/2021 19:12,173.185.139.15,Mozilla/5.0 (X11; Linux x86_64; rv:86.0) Gecko/20100101 Firefox/86.0,,Firefox,86,Linux,
8,1,null,"""",image-keyboard-response,30,426698,0.0-30.0,jspsych/scrambledNeutralFaces/scrambledBF12NES.JPG,"""",2,forwardMask,Practice,null,250,"""",n,"""","""","""","""","""","""","""",3/11/2021 19:12,173.185.139.15,Mozilla/5.0 (X11; Linux x86_64; rv:86.0) Gecko/20100101 Firefox/86.0,,Firefox,86,Linux,
8,1,null,"""",image-keyboard-response,31,426719,0.0-31.0,jspsych/neutralFaces/BF12NES.JPG,"""",2,Cue,Practice,null,16,"""","""","""","""","""","""","""","""","""",3/11/2021 19:12,173.185.139.15,Mozilla/5.0 (X11; Linux x86_64; rv:86.0) Gecko/20100101 Firefox/86.0,,Firefox,86,Linux,
8,1,null,"""",image-keyboard-response,32,426828,0.0-32.0,jspsych/neutralFaces/AF18NES.JPG,"""",2,backwardMask,Practice,null,100,"""","""","""","""","""","""","""","""","""",3/11/2021 19:12,173.185.139.15,Mozilla/5.0 (X11; Linux x86_64; rv:86.0) Gecko/20100101 Firefox/86.0,,Firefox,86,Linux,
8,1,null,"""",html-keyboard-response,33,427829,0.0-33.0,"<div style=""font-size:60px;"">+</div>","""",2,fixationBtwnNeutralMaskAndPrompt,Practice,null,1000,"""","""","""","""","""","""","""","""","""",3/11/2021 19:12,173.185.139.15,Mozilla/5.0 (X11; Linux x86_64; rv:86.0) Gecko/20100101 Firefox/86.0,,Firefox,86,Linux,
8,1,3183,"""",html-button-response,34,431013,0.0-34.0,"<img src='jspsych/CFDfaces/CFD-LF-243-175-N.jpg'height=""250px""></br><b>Tara</b>",1,2,IntactOrRearranged,Practice,"""","""","""","""",CFD-LF-243-175-N.jpg,Tara,0,1,"""","""","""",3/11/2021 19:12,173.185.139.15,Mozilla/5.0 (X11; Linux x86_64; rv:86.0) Gecko/20100101 Firefox/86.0,,Firefox,86,Linux,
8,1,null,"""",html-slider-response,35,436021,0.0-35.0,"<img src='jspsych/CFDfaces/CFD-LF-243-175-N.jpg'height=""250px""></br><b>Tara</b>","""",2,ConfidenceQuery,Practice,"""","""","""","""",CFD-WF-202-056-N.jpg,Laura,0,"""",0,null,"""",3/11/2021 19:12,173.185.139.15,Mozilla/5.0 (X11; Linux x86_64; rv:86.0) Gecko/20100101 Firefox/86.0,,Firefox,86,Linux,
8,1,5301,"""",html-button-response,36,441325,0.0-36.0,You are Incorrect. You Called an Intact Pair Rearranged,0,2,feedback,Practice,"""","""","""","""","""","""","""","""","""","""","""",3/11/2021 19:12,173.185.139.15,Mozilla/5.0 (X11; Linux x86_64; rv:86.0) Gecko/20100101 Firefox/86.0,,Firefox,86,Linux,
8,1,null,"""",html-keyboard-response,37,442329,0.0-37.0,"<div style=""font-size:60px;"">+</div>","""",3,ITI,Practice,null,1000,"""","""","""","""","""","""","""","""","""",3/11/2021 19:12,173.185.139.15,Mozilla/5.0 (X11; Linux x86_64; rv:86.0) Gecko/20100101 Firefox/86.0,,Firefox,86,Linux,
8,1,null,"""",image-keyboard-response,38,442583,0.0-38.0,jspsych/scrambledNeutralFaces/scrambledAM04NES.JPG,"""",3,forwardMask,Practice,null,250,"""",n,"""","""","""","""","""","""","""",3/11/2021 19:12,173.185.139.15,Mozilla/5.0 (X11; Linux x86_64; rv:86.0) Gecko/20100101 Firefox/86.0,,Firefox,86,Linux,
8,1,null,"""",image-keyboard-response,39,442607,0.0-39.0,jspsych/neutralFaces/AM04NES.JPG,"""",3,Cue,Practice,null,16,"""","""","""","""","""","""","""","""","""",3/11/2021 19:12,173.185.139.15,Mozilla/5.0 (X11; Linux x86_64; rv:86.0) Gecko/20100101 Firefox/86.0,,Firefox,86,Linux,
8,1,null,"""",image-keyboard-response,40,442716,0.0-40.0,jspsych/neutralFaces/BM11NES.JPG,"""",3,backwardMask,Practice,null,100,"""","""","""","""","""","""","""","""","""",3/11/2021 19:12,173.185.139.15,Mozilla/5.0 (X11; Linux x86_64; rv:86.0) Gecko/20100101 Firefox/86.0,,Firefox,86,Linux,
8,1,null,"""",html-keyboard-response,41,443718,0.0-41.0,"<div style=""font-size:60px;"">+</div>","""",3,fixationBtwnNeutralMaskAndPrompt,Practice,null,1000,"""","""","""","""","""","""","""","""","""",3/11/2021 19:12,173.185.139.15,Mozilla/5.0 (X11; Linux x86_64; rv:86.0) Gecko/20100101 Firefox/86.0,,Firefox,86,Linux,
8,1,null,"""",html-button-response,42,448721,0.0-42.0,"<img src='jspsych/CFDfaces/CFD-LM-252-076-N.jpg'height=""250px""></br><b>Samuel</b>",null,3,IntactOrRearranged,Practice,"""","""","""","""",CFD-LM-252-076-N.jpg,Samuel,0,"""","""","""","""",3/11/2021 19:12,173.185.139.15,Mozilla/5.0 (X11; Linux x86_64; rv:86.0) Gecko/20100101 Firefox/86.0,,Firefox,86,Linux,
8,1,null,"""",html-slider-response,43,453728,0.0-43.0,"<img src='jspsych/CFDfaces/CFD-LM-252-076-N.jpg'height=""250px""></br><b>Samuel</b>","""",3,ConfidenceQuery,Practice,"""","""","""","""",CFD-WF-202-056-N.jpg,Laura,0,"""",0,null,"""",3/11/2021 19:12,173.185.139.15,Mozilla/5.0 (X11; Linux x86_64; rv:86.0) Gecko/20100101 Firefox/86.0,,Firefox,86,Linux,
8,1,9340,"""",html-button-response,44,463071,0.0-44.0,Please click either button: REARRANGED or INTACT. There is a 5 second time-limit!,0,3,feedback,Practice,"""","""","""","""","""","""","""","""","""","""","""",3/11/2021 19:12,173.185.139.15,Mozilla/5.0 (X11; Linux x86_64; rv:86.0) Gecko/20100101 Firefox/86.0,,Firefox,86,Linux,
8,1,null,"""",html-keyboard-response,45,464077,0.0-45.0,"<div style=""font-size:60px;"">+</div>","""",4,ITI,Practice,null,1000,"""","""","""","""","""","""","""","""","""",3/11/2021 19:12,173.185.139.15,Mozilla/5.0 (X11; Linux x86_64; rv:86.0) Gecko/20100101 Firefox/86.0,,Firefox,86,Linux,
8,1,null,"""",image-keyboard-response,46,464331,0.0-46.0,jspsych/scrambledNeutralFaces/scrambledAF12NES.JPG,"""",4,forwardMask,Practice,null,250,"""",n,"""","""","""","""","""","""","""",3/11/2021 19:12,173.185.139.15,Mozilla/5.0 (X11; Linux x86_64; rv:86.0) Gecko/20100101 Firefox/86.0,,Firefox,86,Linux,
8,1,null,"""",image-keyboard-response,47,464354,0.0-47.0,jspsych/neutralFaces/AF12NES.JPG,"""",4,Cue,Practice,null,16,"""","""","""","""","""","""","""","""","""",3/11/2021 19:12,173.185.139.15,Mozilla/5.0 (X11; Linux x86_64; rv:86.0) Gecko/20100101 Firefox/86.0,,Firefox,86,Linux,
8,1,null,"""",image-keyboard-response,48,464461,0.0-48.0,jspsych/neutralFaces/BF25NES.JPG,"""",4,backwardMask,Practice,null,100,"""","""","""","""","""","""","""","""","""",3/11/2021 19:12,173.185.139.15,Mozilla/5.0 (X11; Linux x86_64; rv:86.0) Gecko/20100101 Firefox/86.0,,Firefox,86,Linux,
8,1,null,"""",html-keyboard-response,49,465463,0.0-49.0,"<div style=""font-size:60px;"">+</div>","""",4,fixationBtwnNeutralMaskAndPrompt,Practice,null,1000,"""","""","""","""","""","""","""","""","""",3/11/2021 19:12,173.185.139.15,Mozilla/5.0 (X11; Linux x86_64; rv:86.0) Gecko/20100101 Firefox/86.0,,Firefox,86,Linux,
8,1,2349,"""",html-button-response,50,467813,0.0-50.0,"<img src='jspsych/CFDfaces/CFD-WM-017-002-N.jpg'height=""250px""></br><b>Marcus</b>",1,4,IntactOrRearranged,Practice,"""","""","""","""",CFD-WM-017-002-N.jpg,Marcus,1,1,"""","""","""",3/11/2021 19:12,173.185.139.15,Mozilla/5.0 (X11; Linux x86_64; rv:86.0) Gecko/20100101 Firefox/86.0,,Firefox,86,Linux,
8,1,2867,"""",html-slider-response,51,470686,0.0-51.0,"<img src='jspsych/CFDfaces/CFD-WM-017-002-N.jpg'height=""250px""></br><b>Marcus</b>","""",4,ConfidenceQuery,Practice,"""","""","""","""",CFD-WF-202-056-N.jpg,Laura,1,"""",0,18,"""",3/11/2021 19:12,173.185.139.15,Mozilla/5.0 (X11; Linux x86_64; rv:86.0) Gecko/20100101 Firefox/86.0,,Firefox,86,Linux,
8,1,11016,"""",html-button-response,52,481704,0.0-52.0,You are Correct. You Called A Rearranged Pair Rearranged,0,4,feedback,Practice,"""","""","""","""","""","""","""","""","""","""","""",3/11/2021 19:12,173.185.139.15,Mozilla/5.0 (X11; Linux x86_64; rv:86.0) Gecko/20100101 Firefox/86.0,,Firefox,86,Linux,
8,1,null,"""",html-keyboard-response,53,482709,0.0-53.0,"<div style=""font-size:60px;"">+</div>","""",5,ITI,Practice,null,1000,"""","""","""","""","""","""","""","""","""",3/11/2021 19:12,173.185.139.15,Mozilla/5.0 (X11; Linux x86_64; rv:86.0) Gecko/20100101 Firefox/86.0,,Firefox,86,Linux,
8,1,null,"""",image-keyboard-response,54,482972,0.0-54.0,jspsych/scrambledDisgustFaces/scrambledAM28DIS.JPG,"""",5,forwardMask,Practice,null,250,"""",d,"""","""","""","""","""","""","""",3/11/2021 19:12,173.185.139.15,Mozilla/5.0 (X11; Linux x86_64; rv:86.0) Gecko/20100101 Firefox/86.0,,Firefox,86,Linux,
8,1,null,"""",image-keyboard-response,55,482993,0.0-55.0,jspsych/disgustFaces/AM28DIS.JPG,"""",5,Cue,Practice,null,16,"""","""","""","""","""","""","""","""","""",3/11/2021 19:12,173.185.139.15,Mozilla/5.0 (X11; Linux x86_64; rv:86.0) Gecko/20100101 Firefox/86.0,,Firefox,86,Linux,
8,1,null,"""",image-keyboard-response,56,483102,0.0-56.0,jspsych/neutralFaces/AM18NES.JPG,"""",5,backwardMask,Practice,null,100,"""","""","""","""","""","""","""","""","""",3/11/2021 19:12,173.185.139.15,Mozilla/5.0 (X11; Linux x86_64; rv:86.0) Gecko/20100101 Firefox/86.0,,Firefox,86,Linux,
8,1,null,"""",html-keyboard-response,57,484103,0.0-57.0,"<div style=""font-size:60px;"">+</div>","""",5,fixationBtwnNeutralMaskAndPrompt,Practice,null,1000,"""","""","""","""","""","""","""","""","""",3/11/2021 19:12,173.185.139.15,Mozilla/5.0 (X11; Linux x86_64; rv:86.0) Gecko/20100101 Firefox/86.0,,Firefox,86,Linux,
8,1,2318,"""",html-button-response,58,486424,0.0-58.0,"<img src='jspsych/CFDfaces/CFD-BF-218-207-N.jpg'height=""250px""></br><b>Cassandra</b>",0,5,IntactOrRearranged,Practice,"""","""","""","""",CFD-BF-218-207-N.jpg,Cassandra,1,0,"""","""","""",3/11/2021 19:12,173.185.139.15,Mozilla/5.0 (X11; Linux x86_64; rv:86.0) Gecko/20100101 Firefox/86.0,,Firefox,86,Linux,
8,1,4055,"""",html-slider-response,59,490487,0.0-59.0,"<img src='jspsych/CFDfaces/CFD-BF-218-207-N.jpg'height=""250px""></br><b>Cassandra</b>","""",5,ConfidenceQuery,Practice,"""","""","""","""",CFD-WF-202-056-N.jpg,Laura,1,"""",0,59,"""",3/11/2021 19:12,173.185.139.15,Mozilla/5.0 (X11; Linux x86_64; rv:86.0) Gecko/20100101 Firefox/86.0,,Firefox,86,Linux,
8,1,2294,"""",html-button-response,60,492783,0.0-60.0,You are Incorrect. You called a Rearranged Pair Intact,0,5,feedback,Practice,"""","""","""","""","""","""","""","""","""","""","""",3/11/2021 19:12,173.185.139.15,Mozilla/5.0 (X11; Linux x86_64; rv:86.0) Gecko/20100101 Firefox/86.0,,Firefox,86,Linux,
8,1,null,"""",html-keyboard-response,61,493789,0.0-61.0,"<div style=""font-size:60px;"">+</div>","""",6,ITI,Practice,null,1000,"""","""","""","""","""","""","""","""","""",3/11/2021 19:12,173.185.139.15,Mozilla/5.0 (X11; Linux x86_64; rv:86.0) Gecko/20100101 Firefox/86.0,,Firefox,86,Linux,
8,1,null,"""",image-keyboard-response,62,494045,0.0-62.0,jspsych/scrambledDisgustFaces/scrambledAF11DIS.JPG,"""",6,forwardMask,Practice,null,250,"""",d,"""","""","""","""","""","""","""",3/11/2021 19:12,173.185.139.15,Mozilla/5.0 (X11; Linux x86_64; rv:86.0) Gecko/20100101 Firefox/86.0,,Firefox,86,Linux,
8,1,null,"""",image-keyboard-response,63,494066,0.0-63.0,jspsych/disgustFaces/AF11DIS.JPG,"""",6,Cue,Practice,null,16,"""","""","""","""","""","""","""","""","""",3/11/2021 19:12,173.185.139.15,Mozilla/5.0 (X11; Linux x86_64; rv:86.0) Gecko/20100101 Firefox/86.0,,Firefox,86,Linux,
8,1,null,"""",image-keyboard-response,64,494171,0.0-64.0,jspsych/neutralFaces/BF07NES.JPG,"""",6,backwardMask,Practice,null,100,"""","""","""","""","""","""","""","""","""",3/11/2021 19:12,173.185.139.15,Mozilla/5.0 (X11; Linux x86_64; rv:86.0) Gecko/20100101 Firefox/86.0,,Firefox,86,Linux,
8,1,null,"""",html-keyboard-response,65,495174,0.0-65.0,"<div style=""font-size:60px;"">+</div>","""",6,fixationBtwnNeutralMaskAndPrompt,Practice,null,1000,"""","""","""","""","""","""","""","""","""",3/11/2021 19:12,173.185.139.15,Mozilla/5.0 (X11; Linux x86_64; rv:86.0) Gecko/20100101 Firefox/86.0,,Firefox,86,Linux,
8,1,1929,"""",html-button-response,66,497105,0.0-66.0,"<img src='jspsych/CFDfaces/CFD-AF-239-171-N.jpg'height=""250px""></br><b>Katelyn</b>",1,6,IntactOrRearranged,Practice,"""","""","""","""",CFD-AF-239-171-N.jpg,Katelyn,1,1,"""","""","""",3/11/2021 19:12,173.185.139.15,Mozilla/5.0 (X11; Linux x86_64; rv:86.0) Gecko/20100101 Firefox/86.0,,Firefox,86,Linux,
8,1,3004,"""",html-slider-response,67,500119,0.0-67.0,"<img src='jspsych/CFDfaces/CFD-AF-239-171-N.jpg'height=""250px""></br><b>Katelyn</b>","""",6,ConfidenceQuery,Practice,"""","""","""","""",CFD-WF-202-056-N.jpg,Laura,1,"""",0,38,"""",3/11/2021 19:12,173.185.139.15,Mozilla/5.0 (X11; Linux x86_64; rv:86.0) Gecko/20100101 Firefox/86.0,,Firefox,86,Linux,
8,1,2037,"""",html-button-response,68,502158,0.0-68.0,You are Correct. You Called A Rearranged Pair Rearranged,0,6,feedback,Practice,"""","""","""","""","""","""","""","""","""","""","""",3/11/2021 19:12,173.185.139.15,Mozilla/5.0 (X11; Linux x86_64; rv:86.0) Gecko/20100101 Firefox/86.0,,Firefox,86,Linux,
8,1,null,"""",html-keyboard-response,69,503164,0.0-69.0,"<div style=""font-size:60px;"">+</div>","""",7,ITI,Practice,null,1000,"""","""","""","""","""","""","""","""","""",3/11/2021 19:12,173.185.139.15,Mozilla/5.0 (X11; Linux x86_64; rv:86.0) Gecko/20100101 Firefox/86.0,,Firefox,86,Linux,
8,1,null,"""",image-keyboard-response,70,503418,0.0-70.0,jspsych/scrambledDisgustFaces/scrambledBM32DIS.JPG,"""",7,forwardMask,Practice,null,250,"""",d,"""","""","""","""","""","""","""",3/11/2021 19:12,173.185.139.15,Mozilla/5.0 (X11; Linux x86_64; rv:86.0) Gecko/20100101 Firefox/86.0,,Firefox,86,Linux,
8,1,null,"""",image-keyboard-response,71,503443,0.0-71.0,jspsych/disgustFaces/BM33DIS.JPG,"""",7,Cue,Practice,null,16,"""","""","""","""","""","""","""","""","""",3/11/2021 19:12,173.185.139.15,Mozilla/5.0 (X11; Linux x86_64; rv:86.0) Gecko/20100101 Firefox/86.0,,Firefox,86,Linux,
8,1,null,"""",image-keyboard-response,72,503548,0.0-72.0,jspsych/neutralFaces/BM01NES.JPG,"""",7,backwardMask,Practice,null,100,"""","""","""","""","""","""","""","""","""",3/11/2021 19:12,173.185.139.15,Mozilla/5.0 (X11; Linux x86_64; rv:86.0) Gecko/20100101 Firefox/86.0,,Firefox,86,Linux,
8,1,null,"""",html-keyboard-response,73,504549,0.0-73.0,"<div style=""font-size:60px;"">+</div>","""",7,fixationBtwnNeutralMaskAndPrompt,Practice,null,1000,"""","""","""","""","""","""","""","""","""",3/11/2021 19:12,173.185.139.15,Mozilla/5.0 (X11; Linux x86_64; rv:86.0) Gecko/20100101 Firefox/86.0,,Firefox,86,Linux,
8,1,2518,"""",html-button-response,74,507070,0.0-74.0,"<img src='jspsych/CFDfaces/CFD-AM-221-184-N.jpg'height=""250px""></br><b>Carlos</b>",0,7,IntactOrRearranged,Practice,"""","""","""","""",CFD-AM-221-184-N.jpg,Carlos,1,0,"""","""","""",3/11/2021 19:12,173.185.139.15,Mozilla/5.0 (X11; Linux x86_64; rv:86.0) Gecko/20100101 Firefox/86.0,,Firefox,86,Linux,
8,1,2976,"""",html-slider-response,75,510055,0.0-75.0,"<img src='jspsych/CFDfaces/CFD-AM-221-184-N.jpg'height=""250px""></br><b>Carlos</b>","""",7,ConfidenceQuery,Practice,"""","""","""","""",CFD-WF-202-056-N.jpg,Laura,1,"""",0,70,"""",3/11/2021 19:12,173.185.139.15,Mozilla/5.0 (X11; Linux x86_64; rv:86.0) Gecko/20100101 Firefox/86.0,,Firefox,86,Linux,
8,1,3716,"""",html-button-response,76,513773,0.0-76.0,You are Incorrect. You called a Rearranged Pair Intact,0,7,feedback,Practice,"""","""","""","""","""","""","""","""","""","""","""",3/11/2021 19:12,173.185.139.15,Mozilla/5.0 (X11; Linux x86_64; rv:86.0) Gecko/20100101 Firefox/86.0,,Firefox,86,Linux,
8,1,null,"""",html-keyboard-response,77,514777,0.0-77.0,"<div style=""font-size:60px;"">+</div>","""",8,ITI,Practice,null,1000,"""","""","""","""","""","""","""","""","""",3/11/2021 19:12,173.185.139.15,Mozilla/5.0 (X11; Linux x86_64; rv:86.0) Gecko/20100101 Firefox/86.0,,Firefox,86,Linux,
8,1,null,"""",image-keyboard-response,78,515032,0.0-78.0,jspsych/scrambledDisgustFaces/scrambledBF27DIS.JPG,"""",8,forwardMask,Practice,null,250,"""",d,"""","""","""","""","""","""","""",3/11/2021 19:12,173.185.139.15,Mozilla/5.0 (X11; Linux x86_64; rv:86.0) Gecko/20100101 Firefox/86.0,,Firefox,86,Linux,
8,1,null,"""",image-keyboard-response,79,515063,0.0-79.0,jspsych/disgustFaces/BF27DIS.JPG,"""",8,Cue,Practice,null,16,"""","""","""","""","""","""","""","""","""",3/11/2021 19:12,173.185.139.15,Mozilla/5.0 (X11; Linux x86_64; rv:86.0) Gecko/20100101 Firefox/86.0,,Firefox,86,Linux,
8,1,null,"""",image-keyboard-response,80,515169,0.0-80.0,jspsych/neutralFaces/AF25NES.JPG,"""",8,backwardMask,Practice,null,100,"""","""","""","""","""","""","""","""","""",3/11/2021 19:12,173.185.139.15,Mozilla/5.0 (X11; Linux x86_64; rv:86.0) Gecko/20100101 Firefox/86.0,,Firefox,86,Linux,
8,1,null,"""",html-keyboard-response,81,516169,0.0-81.0,"<div style=""font-size:60px;"">+</div>","""",8,fixationBtwnNeutralMaskAndPrompt,Practice,null,1000,"""","""","""","""","""","""","""","""","""",3/11/2021 19:12,173.185.139.15,Mozilla/5.0 (X11; Linux x86_64; rv:86.0) Gecko/20100101 Firefox/86.0,,Firefox,86,Linux,
8,1,2259,"""",html-button-response,82,518430,0.0-82.0,"<img src='jspsych/CFDfaces/CFD-WM-020-001-N.jpg'height=""250px""></br><b>Patrick</b>",0,8,IntactOrRearranged,Practice,"""","""","""","""",CFD-WM-020-001-N.jpg,Patrick,0,0,"""","""","""",3/11/2021 19:12,173.185.139.15,Mozilla/5.0 (X11; Linux x86_64; rv:86.0) Gecko/20100101 Firefox/86.0,,Firefox,86,Linux,
8,1,2558,"""",html-slider-response,83,520997,0.0-83.0,"<img src='jspsych/CFDfaces/CFD-WM-020-001-N.jpg'height=""250px""></br><b>Patrick</b>","""",8,ConfidenceQuery,Practice,"""","""","""","""",CFD-WF-202-056-N.jpg,Laura,0,"""",0,67,"""",3/11/2021 19:12,173.185.139.15,Mozilla/5.0 (X11; Linux x86_64; rv:86.0) Gecko/20100101 Firefox/86.0,,Firefox,86,Linux,
8,1,2374,"""",html-button-response,84,523373,0.0-84.0,You are Correct. You called an Intact Pair Intact,0,8,feedback,Practice,"""","""","""","""","""","""","""","""","""","""","""",3/11/2021 19:12,173.185.139.15,Mozilla/5.0 (X11; Linux x86_64; rv:86.0) Gecko/20100101 Firefox/86.0,,Firefox,86,Linux,
8,1,65065,"""",image-button-response,85,588454,0.0-85.0,directionsMemoryAssociation3.JPG,0,128,DirectionsBeforeActualTEst,Break,"""","""","""","""","""","""","""","""","""","""","""",3/11/2021 19:12,173.185.139.15,Mozilla/5.0 (X11; Linux x86_64; rv:86.0) Gecko/20100101 Firefox/86.0,,Firefox,86,Linux,
8,1,37482,"""",image-button-response,86,625951,0.0-86.0,directionsForTest2.JPG,0,1,directionsForTest2,break,"""","""","""","""","""","""","""","""","""","""","""",3/11/2021 19:12,173.185.139.15,Mozilla/5.0 (X11; Linux x86_64; rv:86.0) Gecko/20100101 Firefox/86.0,,Firefox,86,Linux,
8,1,13753,"""",html-button-response,87,639709,0.0-87.0,"<p>You will be asked to memorize and then recall four sets of face-name pairs. </p> <p> Each set will have 32 pairs. </p> <p>After the fourth set, there will be a brief follow-up experiment (<40 min alltogether)</p>",0,"""","""","""","""","""","""","""","""","""","""","""","""","""","""",3/11/2021 19:12,173.185.139.15,Mozilla/5.0 (X11; Linux x86_64; rv:86.0) Gecko/20100101 Firefox/86.0,,Firefox,86,Linux,
8,1,2398,"""",html-keyboard-response,88,644716,0.0-88.0,"<img src='jspsych/CFDfaces/CFD-AM-238-269-N.jpg' height=""250px""></br><b>Eric</b>","""",256,IntactFace,Memorization,70,5000,f,"""",CFD-BM-011-016-N.jpg,Kenneth,0,"""","""","""",1,3/11/2021 19:12,173.185.139.15,Mozilla/5.0 (X11; Linux x86_64; rv:86.0) Gecko/20100101 Firefox/86.0,,Firefox,86,Linux,
8,1,null,"""",html-keyboard-response,89,645221,0.0-89.0,"<div style=""font-size:60px;"">+</div>","""",256,fixation,Memorization,null,500,"""","""","""","""","""","""","""","""",1,3/11/2021 19:12,173.185.139.15,Mozilla/5.0 (X11; Linux x86_64; rv:86.0) Gecko/20100101 Firefox/86.0,,Firefox,86,Linux,
8,1,2285,"""",html-keyboard-response,90,650223,0.0-90.0,"<img src='jspsych/CFDfaces/CFD-WF-218-087-N.jpg' height=""250px""></br><b>Emily</b>","""",256,IntactFace,Memorization,70,5000,f,"""",CFD-LF-201-035-N.jpg,Amy,0,"""","""","""",1,3/11/2021 19:12,173.185.139.15,Mozilla/5.0 (X11; Linux x86_64; rv:86.0) Gecko/20100101 Firefox/86.0,,Firefox,86,Linux,
8,1,null,"""",html-keyboard-response,91,650728,0.0-91.0,"<div style=""font-size:60px;"">+</div>","""",256,fixation,Memorization,null,500,"""","""","""","""","""","""","""","""",1,3/11/2021 19:12,173.185.139.15,Mozilla/5.0 (X11; Linux x86_64; rv:86.0) Gecko/20100101 Firefox/86.0,,Firefox,86,Linux,
8,1,1624,"""",html-keyboard-response,92,655730,0.0-92.0,"<img src='jspsych/CFDfaces/CFD-BF-226-119-N.jpg' height=""250px""></br><b>Vanessa</b>","""",256,IntactFace,Memorization,70,5000,f,"""",CFD-AF-230-193-N.jpg,Sara,0,"""","""","""",1,3/11/2021 19:12,173.185.139.15,Mozilla/5.0 (X11; Linux x86_64; rv:86.0) Gecko/20100101 Firefox/86.0,,Firefox,86,Linux,
8,1,null,"""",html-keyboard-response,93,656235,0.0-93.0,"<div style=""font-size:60px;"">+</div>","""",256,fixation,Memorization,null,500,"""","""","""","""","""","""","""","""",1,3/11/2021 19:12,173.185.139.15,Mozilla/5.0 (X11; Linux x86_64; rv:86.0) Gecko/20100101 Firefox/86.0,,Firefox,86,Linux,
8,1,1981,"""",html-keyboard-response,94,661237,0.0-94.0,"<img src='jspsych/CFDfaces/CFD-AF-228-173-N.jpg' height=""250px""></br><b>Christina</b>","""",256,IntactFace,Memorization,78,5000,n,"""",CFD-WF-202-056-N.jpg,Erin,0,"""","""","""",1,3/11/2021 19:12,173.185.139.15,Mozilla/5.0 (X11; Linux x86_64; rv:86.0) Gecko/20100101 Firefox/86.0,,Firefox,86,Linux,
8,1,null,"""",html-keyboard-response,95,661743,0.0-95.0,"<div style=""font-size:60px;"">+</div>","""",256,fixation,Memorization,null,500,"""","""","""","""","""","""","""","""",1,3/11/2021 19:12,173.185.139.15,Mozilla/5.0 (X11; Linux x86_64; rv:86.0) Gecko/20100101 Firefox/86.0,,Firefox,86,Linux,
8,1,1715,"""",html-keyboard-response,96,666745,0.0-96.0,"<img src='jspsych/CFDfaces/CFD-AF-203-077-N.jpg' height=""250px""></br><b>Samantha</b>","""",256,IntactFace,Memorization,78,5000,n,"""",CFD-WM-006-002-N.jpg,Luis,0,"""","""","""",1,3/11/2021 19:12,173.185.139.15,Mozilla/5.0 (X11; Linux x86_64; rv:86.0) Gecko/20100101 Firefox/86.0,,Firefox,86,Linux,
8,1,null,"""",html-keyboard-response,97,667253,0.0-97.0,"<div style=""font-size:60px;"">+</div>","""",256,fixation,Memorization,null,500,"""","""","""","""","""","""","""","""",1,3/11/2021 19:12,173.185.139.15,Mozilla/5.0 (X11; Linux x86_64; rv:86.0) Gecko/20100101 Firefox/86.0,,Firefox,86,Linux,
8,1,1656,"""",html-keyboard-response,98,672254,0.0-98.0,"<img src='jspsych/CFDfaces/CFD-BM-017-021-N.jpg' height=""250px""></br><b>Jason</b>","""",256,IntactFace,Memorization,70,5000,f,"""",CFD-BM-041-035-N.jpg,Timothy,0,"""","""","""",1,3/11/2021 19:12,173.185.139.15,Mozilla/5.0 (X11; Linux x86_64; rv:86.0) Gecko/20100101 Firefox/86.0,,Firefox,86,Linux,
8,1,null,"""",html-keyboard-response,99,672759,0.0-99.0,"<div style=""font-size:60px;"">+</div>","""",256,fixation,Memorization,null,500,"""","""","""","""","""","""","""","""",1,3/11/2021 19:12,173.185.139.15,Mozilla/5.0 (X11; Linux x86_64; rv:86.0) Gecko/20100101 Firefox/86.0,,Firefox,86,Linux,
8,1,2537,"""",html-keyboard-response,100,677762,0.0-100.0,"<img src='jspsych/CFDfaces/CFD-AM-234-355-N.jpg' height=""250px""></br><b>Peter</b>","""",256,IntactFace,Memorization,78,5000,n,"""",CFD-AM-229-224-N.jpg,Ryan,0,"""","""","""",1,3/11/2021 19:12,173.185.139.15,Mozilla/5.0 (X11; Linux x86_64; rv:86.0) Gecko/20100101 Firefox/86.0,,Firefox,86,Linux,
8,1,null,"""",html-keyboard-response,101,678267,0.0-101.0,"<div style=""font-size:60px;"">+</div>","""",256,fixation,Memorization,null,500,"""","""","""","""","""","""","""","""",1,3/11/2021 19:12,173.185.139.15,Mozilla/5.0 (X11; Linux x86_64; rv:86.0) Gecko/20100101 Firefox/86.0,,Firefox,86,Linux,
8,1,2074,"""",html-keyboard-response,102,683270,0.0-102.0,"<img src='jspsych/CFDfaces/CFD-LF-208-127-N.jpg' height=""250px""></br><b>Brittany</b>","""",256,IntactFace,Memorization,70,5000,f,"""",CFD-LM-223-175-N.jpg,Jeremy,0,"""","""","""",1,3/11/2021 19:12,173.185.139.15,Mozilla/5.0 (X11; Linux x86_64; rv:86.0) Gecko/20100101 Firefox/86.0,,Firefox,86,Linux,
8,1,null,"""",html-keyboard-response,103,683780,0.0-103.0,"<div style=""font-size:60px;"">+</div>","""",256,fixation,Memorization,null,500,"""","""","""","""","""","""","""","""",1,3/11/2021 19:12,173.185.139.15,Mozilla/5.0 (X11; Linux x86_64; rv:86.0) Gecko/20100101 Firefox/86.0,,Firefox,86,Linux,
8,1,1642,"""",html-keyboard-response,104,688781,0.0-104.0,"<img src='jspsych/CFDfaces/CFD-WF-017-003-N.jpg' height=""250px""></br><b>Victoria</b>","""",256,IntactFace,Memorization,70,5000,f,"""",CFD-BF-021-013-N.jpg,Angela,0,"""","""","""",1,3/11/2021 19:12,173.185.139.15,Mozilla/5.0 (X11; Linux x86_64; rv:86.0) Gecko/20100101 Firefox/86.0,,Firefox,86,Linux,
8,1,null,"""",html-keyboard-response,105,689287,0.0-105.0,"<div style=""font-size:60px;"">+</div>","""",256,fixation,Memorization,null,500,"""","""","""","""","""","""","""","""",1,3/11/2021 19:12,173.185.139.15,Mozilla/5.0 (X11; Linux x86_64; rv:86.0) Gecko/20100101 Firefox/86.0,,Firefox,86,Linux,
8,1,2241,"""",html-keyboard-response,106,694288,0.0-106.0,"<img src='jspsych/CFDfaces/CFD-WM-215-041-N.jpg' height=""250px""></br><b>Christian</b>","""",256,IntactFace,Memorization,78,5000,n,"""",CFD-AM-230-150-N.jpg,Mark,0,"""","""","""",1,3/11/2021 19:12,173.185.139.15,Mozilla/5.0 (X11; Linux x86_64; rv:86.0) Gecko/20100101 Firefox/86.0,,Firefox,86,Linux,
8,1,null,"""",html-keyboard-response,107,694793,0.0-107.0,"<div style=""font-size:60px;"">+</div>","""",256,fixation,Memorization,null,500,"""","""","""","""","""","""","""","""",1,3/11/2021 19:12,173.185.139.15,Mozilla/5.0 (X11; Linux x86_64; rv:86.0) Gecko/20100101 Firefox/86.0,,Firefox,86,Linux,
8,1,1765,"""",html-keyboard-response,108,699796,0.0-108.0,"<img src='jspsych/CFDfaces/CFD-LM-220-329-N.jpg' height=""250px""></br><b>Juan</b>","""",256,IntactFace,Memorization,70,5000,f,"""",CFD-WF-029-002-N.jpg,Melissa,0,"""","""","""",1,3/11/2021 19:12,173.185.139.15,Mozilla/5.0 (X11; Linux x86_64; rv:86.0) Gecko/20100101 Firefox/86.0,,Firefox,86,Linux,
8,1,null,"""",html-keyboard-response,109,700303,0.0-109.0,"<div style=""font-size:60px;"">+</div>","""",256,fixation,Memorization,null,500,"""","""","""","""","""","""","""","""",1,3/11/2021 19:12,173.185.139.15,Mozilla/5.0 (X11; Linux x86_64; rv:86.0) Gecko/20100101 Firefox/86.0,,Firefox,86,Linux,
8,1,2135,"""",html-keyboard-response,110,705306,0.0-110.0,"<img src='jspsych/CFDfaces/CFD-AF-214-139-N.jpg' height=""250px""></br><b>Stephanie</b>","""",256,IntactFace,Memorization,78,5000,n,"""",CFD-WF-006-002-N.jpg,Jasmine,0,"""","""","""",1,3/11/2021 19:12,173.185.139.15,Mozilla/5.0 (X11; Linux x86_64; rv:86.0) Gecko/20100101 Firefox/86.0,,Firefox,86,Linux,
8,1,null,"""",html-keyboard-response,111,705814,0.0-111.0,"<div style=""font-size:60px;"">+</div>","""",256,fixation,Memorization,null,500,"""","""","""","""","""","""","""","""",1,3/11/2021 19:12,173.185.139.15,Mozilla/5.0 (X11; Linux x86_64; rv:86.0) Gecko/20100101 Firefox/86.0,,Firefox,86,Linux,
8,1,1317,"""",html-keyboard-response,112,710816,0.0-112.0,"<img src='jspsych/CFDfaces/CFD-WF-024-003-N.jpg' height=""250px""></br><b>Amanda</b>","""",256,IntactFace,Memorization,70,5000,f,"""",CFD-LF-200-058-N.jpg,Tiffany,0,"""","""","""",1,3/11/2021 19:12,173.185.139.15,Mozilla/5.0 (X11; Linux x86_64; rv:86.0) Gecko/20100101 Firefox/86.0,,Firefox,86,Linux,
8,1,null,"""",html-keyboard-response,113,711326,0.0-113.0,"<div style=""font-size:60px;"">+</div>","""",256,fixation,Memorization,null,500,"""","""","""","""","""","""","""","""",1,3/11/2021 19:12,173.185.139.15,Mozilla/5.0 (X11; Linux x86_64; rv:86.0) Gecko/20100101 Firefox/86.0,,Firefox,86,Linux,
8,1,1331,"""",html-keyboard-response,114,716328,0.0-114.0,"<img src='jspsych/CFDfaces/CFD-WM-009-002-N.jpg' height=""250px""></br><b>Jeffrey</b>","""",256,IntactFace,Memorization,70,5000,f,"""",CFD-AF-243-170-N.jpg,Heather,0,"""","""","""",1,3/11/2021 19:12,173.185.139.15,Mozilla/5.0 (X11; Linux x86_64; rv:86.0) Gecko/20100101 Firefox/86.0,,Firefox,86,Linux,
8,1,null,"""",html-keyboard-response,115,716832,0.0-115.0,"<div style=""font-size:60px;"">+</div>","""",256,fixation,Memorization,null,500,"""","""","""","""","""","""","""","""",1,3/11/2021 19:12,173.185.139.15,Mozilla/5.0 (X11; Linux x86_64; rv:86.0) Gecko/20100101 Firefox/86.0,,Firefox,86,Linux,
8,1,2219,"""",html-keyboard-response,116,721834,0.0-116.0,"<img src='jspsych/CFDfaces/CFD-WF-223-133-N.jpg' height=""250px""></br><b>Michelle</b>","""",256,IntactFace,Memorization,70,5000,f,"""",CFD-LM-225-130-N.jpg,Jacob,0,"""","""","""",1,3/11/2021 19:12,173.185.139.15,Mozilla/5.0 (X11; Linux x86_64; rv:86.0) Gecko/20100101 Firefox/86.0,,Firefox,86,Linux,
8,1,null,"""",html-keyboard-response,117,722340,0.0-117.0,"<div style=""font-size:60px;"">+</div>","""",256,fixation,Memorization,null,500,"""","""","""","""","""","""","""","""",1,3/11/2021 19:12,173.185.139.15,Mozilla/5.0 (X11; Linux x86_64; rv:86.0) Gecko/20100101 Firefox/86.0,,Firefox,86,Linux,
8,1,2160,"""",html-keyboard-response,118,727343,0.0-118.0,"<img src='jspsych/CFDfaces/CFD-LM-239-075-N.jpg' height=""250px""></br><b>Daniel</b>","""",256,IntactFace,Memorization,78,5000,n,"""",CFD-BF-047-003-N.jpg,Whitney,0,"""","""","""",1,3/11/2021 19:12,173.185.139.15,Mozilla/5.0 (X11; Linux x86_64; rv:86.0) Gecko/20100101 Firefox/86.0,,Firefox,86,Linux,
8,1,null,"""",html-keyboard-response,119,727849,0.0-119.0,"<div style=""font-size:60px;"">+</div>","""",256,fixation,Memorization,null,500,"""","""","""","""","""","""","""","""",1,3/11/2021 19:12,173.185.139.15,Mozilla/5.0 (X11; Linux x86_64; rv:86.0) Gecko/20100101 Firefox/86.0,,Firefox,86,Linux,
8,1,1499,"""",html-keyboard-response,120,732852,0.0-120.0,"<img src='jspsych/CFDfaces/CFD-WM-032-001-N.jpg' height=""250px""></br><b>Nicholas</b>","""",256,IntactFace,Memorization,70,5000,f,"""",CFD-BF-212-315-N.jpg,Rebecca,0,"""","""","""",1,3/11/2021 19:12,173.185.139.15,Mozilla/5.0 (X11; Linux x86_64; rv:86.0) Gecko/20100101 Firefox/86.0,,Firefox,86,Linux,
8,1,null,"""",html-keyboard-response,121,733356,0.0-121.0,"<div style=""font-size:60px;"">+</div>","""",256,fixation,Memorization,null,500,"""","""","""","""","""","""","""","""",1,3/11/2021 19:12,173.185.139.15,Mozilla/5.0 (X11; Linux x86_64; rv:86.0) Gecko/20100101 Firefox/86.0,,Firefox,86,Linux,
8,1,1728,"""",html-keyboard-response,122,738359,0.0-122.0,"<img src='jspsych/CFDfaces/CFD-WF-217-085-N.jpg' height=""250px""></br><b>Kayla</b>","""",256,IntactFace,Memorization,70,5000,f,"""",CFD-LM-233-171-N.jpg,Justin,0,"""","""","""",1,3/11/2021 19:12,173.185.139.15,Mozilla/5.0 (X11; Linux x86_64; rv:86.0) Gecko/20100101 Firefox/86.0,,Firefox,86,Linux,
8,1,null,"""",html-keyboard-response,123,738865,0.0-123.0,"<div style=""font-size:60px;"">+</div>","""",256,fixation,Memorization,null,500,"""","""","""","""","""","""","""","""",1,3/11/2021 19:12,173.185.139.15,Mozilla/5.0 (X11; Linux x86_64; rv:86.0) Gecko/20100101 Firefox/86.0,,Firefox,86,Linux,
8,1,1570,"""",html-keyboard-response,124,743867,0.0-124.0,"<img src='jspsych/CFDfaces/CFD-BM-208-065-N.jpg' height=""250px""></br><b>Gregory</b>","""",256,IntactFace,Memorization,70,5000,f,"""",CFD-AM-237-154-N.jpg,Jesse,0,"""","""","""",1,3/11/2021 19:12,173.185.139.15,Mozilla/5.0 (X11; Linux x86_64; rv:86.0) Gecko/20100101 Firefox/86.0,,Firefox,86,Linux,
8,1,null,"""",html-keyboard-response,125,744376,0.0-125.0,"<div style=""font-size:60px;"">+</div>","""",256,fixation,Memorization,null,500,"""","""","""","""","""","""","""","""",1,3/11/2021 19:12,173.185.139.15,Mozilla/5.0 (X11; Linux x86_64; rv:86.0) Gecko/20100101 Firefox/86.0,,Firefox,86,Linux,
8,1,2110,"""",html-keyboard-response,126,749378,0.0-126.0,"<img src='jspsych/CFDfaces/CFD-WM-232-070-N.jpg' height=""250px""></br><b>Brandon</b>","""",256,IntactFace,Memorization,78,5000,n,"""",CFD-LF-215-157-N.jpg,Lauren,0,"""","""","""",1,3/11/2021 19:12,173.185.139.15,Mozilla/5.0 (X11; Linux x86_64; rv:86.0) Gecko/20100101 Firefox/86.0,,Firefox,86,Linux,
8,1,null,"""",html-keyboard-response,127,749884,0.0-127.0,"<div style=""font-size:60px;"">+</div>","""",256,fixation,Memorization,null,500,"""","""","""","""","""","""","""","""",1,3/11/2021 19:12,173.185.139.15,Mozilla/5.0 (X11; Linux x86_64; rv:86.0) Gecko/20100101 Firefox/86.0,,Firefox,86,Linux,
8,1,1290,"""",html-keyboard-response,128,754886,0.0-128.0,"<img src='jspsych/CFDfaces/CFD-WM-011-002-N.jpg' height=""250px""></br><b>Brian</b>","""",256,IntactFace,Memorization,70,5000,f,"""",CFD-LM-200-045-N.jpg,Travis,0,"""","""","""",1,3/11/2021 19:12,173.185.139.15,Mozilla/5.0 (X11; Linux x86_64; rv:86.0) Gecko/20100101 Firefox/86.0,,Firefox,86,Linux,
8,1,null,"""",html-keyboard-response,129,755391,0.0-129.0,"<div style=""font-size:60px;"">+</div>","""",256,fixation,Memorization,null,500,"""","""","""","""","""","""","""","""",1,3/11/2021 19:12,173.185.139.15,Mozilla/5.0 (X11; Linux x86_64; rv:86.0) Gecko/20100101 Firefox/86.0,,Firefox,86,Linux,
8,1,1871,"""",html-keyboard-response,130,760393,0.0-130.0,"<img src='jspsych/CFDfaces/CFD-AM-202-079-N.jpg' height=""250px""></br><b>James</b>","""",256,IntactFace,Memorization,70,5000,f,"""",CFD-LM-219-295-N.jpg,Steven,0,"""","""","""",1,3/11/2021 19:12,173.185.139.15,Mozilla/5.0 (X11; Linux x86_64; rv:86.0) Gecko/20100101 Firefox/86.0,,Firefox,86,Linux,
8,1,null,"""",html-keyboard-response,131,760903,0.0-131.0,"<div style=""font-size:60px;"">+</div>","""",256,fixation,Memorization,null,500,"""","""","""","""","""","""","""","""",1,3/11/2021 19:12,173.185.139.15,Mozilla/5.0 (X11; Linux x86_64; rv:86.0) Gecko/20100101 Firefox/86.0,,Firefox,86,Linux,
8,1,1532,"""",html-keyboard-response,132,765905,0.0-132.0,"<img src='jspsych/CFDfaces/CFD-BM-002-013-N.jpg' height=""250px""></br><b>Richard</b>","""",256,IntactFace,Memorization,70,5000,f,"""",CFD-LF-202-065-N.jpg,Jenna,0,"""","""","""",1,3/11/2021 19:12,173.185.139.15,Mozilla/5.0 (X11; Linux x86_64; rv:86.0) Gecko/20100101 Firefox/86.0,,Firefox,86,Linux,
8,1,null,"""",html-keyboard-response,133,766412,0.0-133.0,"<div style=""font-size:60px;"">+</div>","""",256,fixation,Memorization,null,500,"""","""","""","""","""","""","""","""",1,3/11/2021 19:12,173.185.139.15,Mozilla/5.0 (X11; Linux x86_64; rv:86.0) Gecko/20100101 Firefox/86.0,,Firefox,86,Linux,
8,1,1174,"""",html-keyboard-response,134,771414,0.0-134.0,"<img src='jspsych/CFDfaces/CFD-WF-018-017-N.jpg' height=""250px""></br><b>Kimberly</b>","""",256,IntactFace,Memorization,70,5000,f,"""",CFD-LF-204-133-N.jpg,Jordan,0,"""","""","""",1,3/11/2021 19:12,173.185.139.15,Mozilla/5.0 (X11; Linux x86_64; rv:86.0) Gecko/20100101 Firefox/86.0,,Firefox,86,Linux,
8,1,null,"""",html-keyboard-response,135,771922,0.0-135.0,"<div style=""font-size:60px;"">+</div>","""",256,fixation,Memorization,null,500,"""","""","""","""","""","""","""","""",1,3/11/2021 19:12,173.185.139.15,Mozilla/5.0 (X11; Linux x86_64; rv:86.0) Gecko/20100101 Firefox/86.0,,Firefox,86,Linux,
8,1,2125,"""",html-keyboard-response,136,776923,0.0-136.0,"<img src='jspsych/CFDfaces/CFD-AM-211-052-N.jpg' height=""250px""></br><b>Ian</b>","""",256,IntactFace,Memorization,78,5000,n,"""",CFD-AM-228-214-N.jpg,Sean,0,"""","""","""",1,3/11/2021 19:12,173.185.139.15,Mozilla/5.0 (X11; Linux x86_64; rv:86.0) Gecko/20100101 Firefox/86.0,,Firefox,86,Linux,
8,1,null,"""",html-keyboard-response,137,777430,0.0-137.0,"<div style=""font-size:60px;"">+</div>","""",256,fixation,Memorization,null,500,"""","""","""","""","""","""","""","""",1,3/11/2021 19:12,173.185.139.15,Mozilla/5.0 (X11; Linux x86_64; rv:86.0) Gecko/20100101 Firefox/86.0,,Firefox,86,Linux,
8,1,1599,"""",html-keyboard-response,138,782433,0.0-138.0,"<img src='jspsych/CFDfaces/CFD-WF-204-038-N.jpg' height=""250px""></br><b>Ashley</b>","""",256,IntactFace,Memorization,70,5000,f,"""",CFD-BM-029-024-N.jpg,Cameron,0,"""","""","""",1,3/11/2021 19:12,173.185.139.15,Mozilla/5.0 (X11; Linux x86_64; rv:86.0) Gecko/20100101 Firefox/86.0,,Firefox,86,Linux,
8,1,null,"""",html-keyboard-response,139,782942,0.0-139.0,"<div style=""font-size:60px;"">+</div>","""",256,fixation,Memorization,null,500,"""","""","""","""","""","""","""","""",1,3/11/2021 19:12,173.185.139.15,Mozilla/5.0 (X11; Linux x86_64; rv:86.0) Gecko/20100101 Firefox/86.0,,Firefox,86,Linux,
8,1,2466,"""",html-keyboard-response,140,787943,0.0-140.0,"<img src='jspsych/CFDfaces/CFD-BF-039-031-N.jpg' height=""250px""></br><b>Elizabeth</b>","""",256,IntactFace,Memorization,78,5000,n,"""",CFD-AF-200-228-N.jpg,Taylor,0,"""","""","""",1,3/11/2021 19:12,173.185.139.15,Mozilla/5.0 (X11; Linux x86_64; rv:86.0) Gecko/20100101 Firefox/86.0,,Firefox,86,Linux,
8,1,null,"""",html-keyboard-response,141,788453,0.0-141.0,"<div style=""font-size:60px;"">+</div>","""",256,fixation,Memorization,null,500,"""","""","""","""","""","""","""","""",1,3/11/2021 19:12,173.185.139.15,Mozilla/5.0 (X11; Linux x86_64; rv:86.0) Gecko/20100101 Firefox/86.0,,Firefox,86,Linux,
8,1,1859,"""",html-keyboard-response,142,793455,0.0-142.0,"<img src='jspsych/CFDfaces/CFD-BM-010-003-N.jpg' height=""250px""></br><b>Robert</b>","""",256,IntactFace,Memorization,70,5000,f,"""",CFD-LF-220-120-N.jpg,Laura,0,"""","""","""",1,3/11/2021 19:12,173.185.139.15,Mozilla/5.0 (X11; Linux x86_64; rv:86.0) Gecko/20100101 Firefox/86.0,,Firefox,86,Linux,
8,1,null,"""",html-keyboard-response,143,793962,0.0-143.0,"<div style=""font-size:60px;"">+</div>","""",256,fixation,Memorization,null,500,"""","""","""","""","""","""","""","""",1,3/11/2021 19:12,173.185.139.15,Mozilla/5.0 (X11; Linux x86_64; rv:86.0) Gecko/20100101 Firefox/86.0,,Firefox,86,Linux,
8,1,1863,"""",html-keyboard-response,144,798964,0.0-144.0,"<img src='jspsych/CFDfaces/CFD-AM-243-212-N.jpg' height=""250px""></br><b>Joshua</b>","""",256,IntactFace,Memorization,78,5000,n,"""",CFD-WF-023-003-N.jpg,Lindsey,0,"""","""","""",1,3/11/2021 19:12,173.185.139.15,Mozilla/5.0 (X11; Linux x86_64; rv:86.0) Gecko/20100101 Firefox/86.0,,Firefox,86,Linux,
8,1,null,"""",html-keyboard-response,145,799472,0.0-145.0,"<div style=""font-size:60px;"">+</div>","""",256,fixation,Memorization,null,500,"""","""","""","""","""","""","""","""",1,3/11/2021 19:12,173.185.139.15,Mozilla/5.0 (X11; Linux x86_64; rv:86.0) Gecko/20100101 Firefox/86.0,,Firefox,86,Linux,
8,1,2582,"""",html-keyboard-response,146,804475,0.0-146.0,"<img src='jspsych/CFDfaces/CFD-AF-233-190-N.jpg' height=""250px""></br><b>Julie</b>","""",256,IntactFace,Memorization,78,5000,n,"""",CFD-LM-224-162-N.jpg,Dustin,0,"""","""","""",1,3/11/2021 19:12,173.185.139.15,Mozilla/5.0 (X11; Linux x86_64; rv:86.0) Gecko/20100101 Firefox/86.0,,Firefox,86,Linux,
8,1,null,"""",html-keyboard-response,147,804982,0.0-147.0,"<div style=""font-size:60px;"">+</div>","""",256,fixation,Memorization,null,500,"""","""","""","""","""","""","""","""",1,3/11/2021 19:12,173.185.139.15,Mozilla/5.0 (X11; Linux x86_64; rv:86.0) Gecko/20100101 Firefox/86.0,,Firefox,86,Linux,
8,1,1579,"""",html-keyboard-response,148,809983,0.0-148.0,"<img src='jspsych/CFDfaces/CFD-LF-239-148-N.jpg' height=""250px""></br><b>Meghan</b>","""",256,IntactFace,Memorization,70,5000,f,"""",CFD-LM-221-216-N.jpg,Austin,0,"""","""","""",1,3/11/2021 19:12,173.185.139.15,Mozilla/5.0 (X11; Linux x86_64; rv:86.0) Gecko/20100101 Firefox/86.0,,Firefox,86,Linux,
8,1,null,"""",html-keyboard-response,149,810489,0.0-149.0,"<div style=""font-size:60px;"">+</div>","""",256,fixation,Memorization,null,500,"""","""","""","""","""","""","""","""",1,3/11/2021 19:12,173.185.139.15,Mozilla/5.0 (X11; Linux x86_64; rv:86.0) Gecko/20100101 Firefox/86.0,,Firefox,86,Linux,
8,1,1663,"""",html-keyboard-response,150,815490,0.0-150.0,"<img src='jspsych/CFDfaces/CFD-BF-222-240-N.jpg' height=""250px""></br><b>Andrea</b>","""",256,IntactFace,Memorization,70,5000,f,"""",CFD-BM-039-029-N.jpg,Vincent,0,"""","""","""",1,3/11/2021 19:12,173.185.139.15,Mozilla/5.0 (X11; Linux x86_64; rv:86.0) Gecko/20100101 Firefox/86.0,,Firefox,86,Linux,
8,1,null,"""",html-keyboard-response,151,815997,0.0-151.0,"<div style=""font-size:60px;"">+</div>","""",256,fixation,Memorization,null,500,"""","""","""","""","""","""","""","""",1,3/11/2021 19:12,173.185.139.15,Mozilla/5.0 (X11; Linux x86_64; rv:86.0) Gecko/20100101 Firefox/86.0,,Firefox,86,Linux,
8,1,2320,"""",html-keyboard-response,152,818318,0.0-152.0,Press Any Key to Begin Memory Test,"""",1,welcomeScreen,Break,32,"""","""","""","""","""","""","""","""","""",1,3/11/2021 19:12,173.185.139.15,Mozilla/5.0 (X11; Linux x86_64; rv:86.0) Gecko/20100101 Firefox/86.0,,Firefox,86,Linux,
8,1,null,"""",html-keyboard-response,153,819319,0.0-153.0,"<div style=""font-size:60px;"">+</div>","""",256,ITI,Test,null,1000,"""","""","""","""","""","""","""","""",1,3/11/2021 19:12,173.185.139.15,Mozilla/5.0 (X11; Linux x86_64; rv:86.0) Gecko/20100101 Firefox/86.0,,Firefox,86,Linux,
8,1,null,"""",image-keyboard-response,154,819578,0.0-154.0,jspsych/scrambledNeutralFaces/scrambledAF24NES.JPG,"""",256,forwardMask,Test,null,250,"""",n,"""","""","""","""","""","""",1,3/11/2021 19:12,173.185.139.15,Mozilla/5.0 (X11; Linux x86_64; rv:86.0) Gecko/20100101 Firefox/86.0,,Firefox,86,Linux,
8,1,null,"""",image-keyboard-response,155,819600,0.0-155.0,jspsych/neutralFaces/AF24NES.JPG,"""",256,Cue,Test,null,16,"""","""","""","""","""","""","""","""",1,3/11/2021 19:12,173.185.139.15,Mozilla/5.0 (X11; Linux x86_64; rv:86.0) Gecko/20100101 Firefox/86.0,,Firefox,86,Linux,
8,1,null,"""",image-keyboard-response,156,819707,0.0-156.0,jspsych/neutralFaces/AF28NES.JPG,"""",256,backwardMask,Test,null,100,"""","""","""","""","""","""","""","""",1,3/11/2021 19:12,173.185.139.15,Mozilla/5.0 (X11; Linux x86_64; rv:86.0) Gecko/20100101 Firefox/86.0,,Firefox,86,Linux,
8,1,null,"""",html-keyboard-response,157,820708,0.0-157.0,"<div style=""font-size:60px;"">+</div>","""",256,fixationBtwnNeutralMaskAndPrompt,Test,null,1000,"""","""","""","""","""","""","""","""",1,3/11/2021 19:12,173.185.139.15,Mozilla/5.0 (X11; Linux x86_64; rv:86.0) Gecko/20100101 Firefox/86.0,,Firefox,86,Linux,
8,1,2247,"""",html-button-response,158,822958,0.0-158.0,"<img src='jspsych/CFDfaces/CFD-BF-226-119-N.jpg' height=""250px"">,</br><b>Vanessa</b>",0,256,IntactOrRearranged,Test,"""","""","""","""",CFD-LF-220-120-N.jpg,Sara,0,0,"""","""",1,3/11/2021 19:12,173.185.139.15,Mozilla/5.0 (X11; Linux x86_64; rv:86.0) Gecko/20100101 Firefox/86.0,,Firefox,86,Linux,
8,1,3197,"""",html-slider-response,159,826166,0.0-159.0,"<img src='jspsych/CFDfaces/CFD-BF-226-119-N.jpg' height=""250px"">,</br><b>Vanessa</b>","""",256,ConfidenceQuery,Test,"""","""","""","""",CFD-LF-220-120-N.jpg,Sara,0,"""",0,38,1,3/11/2021 19:12,173.185.139.15,Mozilla/5.0 (X11; Linux x86_64; rv:86.0) Gecko/20100101 Firefox/86.0,,Firefox,86,Linux,
8,1,null,"""",html-keyboard-response,160,827168,0.0-160.0,"<div style=""font-size:60px;"">+</div>","""",256,ITI,Test,null,1000,"""","""","""","""","""","""","""","""",1,3/11/2021 19:12,173.185.139.15,Mozilla/5.0 (X11; Linux x86_64; rv:86.0) Gecko/20100101 Firefox/86.0,,Firefox,86,Linux,
8,1,null,"""",image-keyboard-response,161,827438,0.0-161.0,jspsych/scrambledNeutralFaces/scrambledBF12NES.JPG,"""",256,forwardMask,Test,null,250,"""",n,"""","""","""","""","""","""",1,3/11/2021 19:12,173.185.139.15,Mozilla/5.0 (X11; Linux x86_64; rv:86.0) Gecko/20100101 Firefox/86.0,,Firefox,86,Linux,
8,1,null,"""",image-keyboard-response,162,827458,0.0-162.0,jspsych/neutralFaces/BF12NES.JPG,"""",256,Cue,Test,null,16,"""","""","""","""","""","""","""","""",1,3/11/2021 19:12,173.185.139.15,Mozilla/5.0 (X11; Linux x86_64; rv:86.0) Gecko/20100101 Firefox/86.0,,Firefox,86,Linux,
8,1,null,"""",image-keyboard-response,163,827565,0.0-163.0,jspsych/neutralFaces/AF18NES.JPG,"""",256,backwardMask,Test,null,100,"""","""","""","""","""","""","""","""",1,3/11/2021 19:12,173.185.139.15,Mozilla/5.0 (X11; Linux x86_64; rv:86.0) Gecko/20100101 Firefox/86.0,,Firefox,86,Linux,
8,1,null,"""",html-keyboard-response,164,828567,0.0-164.0,"<div style=""font-size:60px;"">+</div>","""",256,fixationBtwnNeutralMaskAndPrompt,Test,null,1000,"""","""","""","""","""","""","""","""",1,3/11/2021 19:12,173.185.139.15,Mozilla/5.0 (X11; Linux x86_64; rv:86.0) Gecko/20100101 Firefox/86.0,,Firefox,86,Linux,
8,1,2341,"""",html-button-response,165,830910,0.0-165.0,"<img src='jspsych/CFDfaces/CFD-WM-232-070-N.jpg' height=""250px"">,</br><b>Brandon</b>",0,256,IntactOrRearranged,Test,"""","""","""","""",CFD-LM-219-295-N.jpg,Steven,0,0,"""","""",1,3/11/2021 19:12,173.185.139.15,Mozilla/5.0 (X11; Linux x86_64; rv:86.0) Gecko/20100101 Firefox/86.0,,Firefox,86,Linux,
8,1,null,"""",html-slider-response,166,835925,0.0-166.0,"<img src='jspsych/CFDfaces/CFD-WM-232-070-N.jpg' height=""250px"">,</br><b>Brandon</b>","""",256,ConfidenceQuery,Test,"""","""","""","""",CFD-LM-219-295-N.jpg,Steven,0,"""",0,null,1,3/11/2021 19:12,173.185.139.15,Mozilla/5.0 (X11; Linux x86_64; rv:86.0) Gecko/20100101 Firefox/86.0,,Firefox,86,Linux,
8,1,null,"""",html-keyboard-response,167,836927,0.0-167.0,"<div style=""font-size:60px;"">+</div>","""",256,ITI,Test,null,1000,"""","""","""","""","""","""","""","""",1,3/11/2021 19:12,173.185.139.15,Mozilla/5.0 (X11; Linux x86_64; rv:86.0) Gecko/20100101 Firefox/86.0,,Firefox,86,Linux,
8,1,null,"""",image-keyboard-response,168,837185,0.0-168.0,jspsych/scrambledNeutralFaces/scrambledAM04NES.JPG,"""",256,forwardMask,Test,null,250,"""",n,"""","""","""","""","""","""",1,3/11/2021 19:12,173.185.139.15,Mozilla/5.0 (X11; Linux x86_64; rv:86.0) Gecko/20100101 Firefox/86.0,,Firefox,86,Linux,
8,1,null,"""",image-keyboard-response,169,837208,0.0-169.0,jspsych/neutralFaces/AM04NES.JPG,"""",256,Cue,Test,null,16,"""","""","""","""","""","""","""","""",1,3/11/2021 19:12,173.185.139.15,Mozilla/5.0 (X11; Linux x86_64; rv:86.0) Gecko/20100101 Firefox/86.0,,Firefox,86,Linux,
8,1,null,"""",image-keyboard-response,170,837319,0.0-170.0,jspsych/neutralFaces/BM11NES.JPG,"""",256,backwardMask,Test,null,100,"""","""","""","""","""","""","""","""",1,3/11/2021 19:12,173.185.139.15,Mozilla/5.0 (X11; Linux x86_64; rv:86.0) Gecko/20100101 Firefox/86.0,,Firefox,86,Linux,
8,1,null,"""",html-keyboard-response,171,838320,0.0-171.0,"<div style=""font-size:60px;"">+</div>","""",256,fixationBtwnNeutralMaskAndPrompt,Test,null,1000,"""","""","""","""","""","""","""","""",1,3/11/2021 19:12,173.185.139.15,Mozilla/5.0 (X11; Linux x86_64; rv:86.0) Gecko/20100101 Firefox/86.0,,Firefox,86,Linux,
8,1,1785,"""",html-button-response,172,840106,0.0-172.0,"<img src='jspsych/CFDfaces/CFD-LF-208-127-N.jpg' height=""250px"">,</br><b>Brittany</b>",0,256,IntactOrRearranged,Test,"""","""","""","""",CFD-WF-006-002-N.jpg,Angela,0,0,"""","""",1,3/11/2021 19:12,173.185.139.15,Mozilla/5.0 (X11; Linux x86_64; rv:86.0) Gecko/20100101 Firefox/86.0,,Firefox,86,Linux,
8,1,2675,"""",html-slider-response,173,842791,0.0-173.0,"<img src='jspsych/CFDfaces/CFD-LF-208-127-N.jpg' height=""250px"">,</br><b>Brittany</b>","""",256,ConfidenceQuery,Test,"""","""","""","""",CFD-WF-006-002-N.jpg,Angela,0,"""",0,44,1,3/11/2021 19:12,173.185.139.15,Mozilla/5.0 (X11; Linux x86_64; rv:86.0) Gecko/20100101 Firefox/86.0,,Firefox,86,Linux,
8,1,null,"""",html-keyboard-response,174,843801,0.0-174.0,"<div style=""font-size:60px;"">+</div>","""",256,ITI,Test,null,1000,"""","""","""","""","""","""","""","""",1,3/11/2021 19:12,173.185.139.15,Mozilla/5.0 (X11; Linux x86_64; rv:86.0) Gecko/20100101 Firefox/86.0,,Firefox,86,Linux,
8,1,null,"""",image-keyboard-response,175,844055,0.0-175.0,jspsych/scrambledNeutralFaces/scrambledAF12NES.JPG,"""",256,forwardMask,Test,null,250,"""",n,"""","""","""","""","""","""",1,3/11/2021 19:12,173.185.139.15,Mozilla/5.0 (X11; Linux x86_64; rv:86.0) Gecko/20100101 Firefox/86.0,,Firefox,86,Linux,
8,1,null,"""",image-keyboard-response,176,844075,0.0-176.0,jspsych/neutralFaces/AF12NES.JPG,"""",256,Cue,Test,null,16,"""","""","""","""","""","""","""","""",1,3/11/2021 19:12,173.185.139.15,Mozilla/5.0 (X11; Linux x86_64; rv:86.0) Gecko/20100101 Firefox/86.0,,Firefox,86,Linux,
8,1,null,"""",image-keyboard-response,177,844183,0.0-177.0,jspsych/neutralFaces/BF25NES.JPG,"""",256,backwardMask,Test,null,100,"""","""","""","""","""","""","""","""",1,3/11/2021 19:12,173.185.139.15,Mozilla/5.0 (X11; Linux x86_64; rv:86.0) Gecko/20100101 Firefox/86.0,,Firefox,86,Linux,
8,1,null,"""",html-keyboard-response,178,845185,0.0-178.0,"<div style=""font-size:60px;"">+</div>","""",256,fixationBtwnNeutralMaskAndPrompt,Test,null,1000,"""","""","""","""","""","""","""","""",1,3/11/2021 19:12,173.185.139.15,Mozilla/5.0 (X11; Linux x86_64; rv:86.0) Gecko/20100101 Firefox/86.0,,Firefox,86,Linux,
8,1,1598,"""",html-button-response,179,846785,0.0-179.0,"<img src='jspsych/CFDfaces/CFD-AF-233-190-N.jpg' height=""250px"">,</br><b>Julie</b>",0,256,IntactOrRearranged,Test,"""","""","""","""",CFD-AF-230-193-N.jpg,Lauren,0,0,"""","""",1,3/11/2021 19:12,173.185.139.15,Mozilla/5.0 (X11; Linux x86_64; rv:86.0) Gecko/20100101 Firefox/86.0,,Firefox,86,Linux,
8,1,2121,"""",html-slider-response,180,848918,0.0-180.0,"<img src='jspsych/CFDfaces/CFD-AF-233-190-N.jpg' height=""250px"">,</br><b>Julie</b>","""",256,ConfidenceQuery,Test,"""","""","""","""",CFD-AF-230-193-N.jpg,Lauren,0,"""",0,60,1,3/11/2021 19:12,173.185.139.15,Mozilla/5.0 (X11; Linux x86_64; rv:86.0) Gecko/20100101 Firefox/86.0,,Firefox,86,Linux,
8,1,null,"""",html-keyboard-response,181,849921,0.0-181.0,"<div style=""font-size:60px;"">+</div>","""",256,ITI,Test,null,1000,"""","""","""","""","""","""","""","""",1,3/11/2021 19:12,173.185.139.15,Mozilla/5.0 (X11; Linux x86_64; rv:86.0) Gecko/20100101 Firefox/86.0,,Firefox,86,Linux,
8,1,null,"""",image-keyboard-response,182,850173,0.0-182.0,jspsych/scrambledDisgustFaces/scrambledAM28DIS.JPG,"""",256,forwardMask,Test,null,250,"""",d,"""","""","""","""","""","""",1,3/11/2021 19:12,173.185.139.15,Mozilla/5.0 (X11; Linux x86_64; rv:86.0) Gecko/20100101 Firefox/86.0,,Firefox,86,Linux,
8,1,null,"""",image-keyboard-response,183,850205,0.0-183.0,jspsych/disgustFaces/AM28DIS.JPG,"""",256,Cue,Test,null,16,"""","""","""","""","""","""","""","""",1,3/11/2021 19:12,173.185.139.15,Mozilla/5.0 (X11; Linux x86_64; rv:86.0) Gecko/20100101 Firefox/86.0,,Firefox,86,Linux,
8,1,null,"""",image-keyboard-response,184,850309,0.0-184.0,jspsych/neutralFaces/AM18NES.JPG,"""",256,backwardMask,Test,null,100,"""","""","""","""","""","""","""","""",1,3/11/2021 19:12,173.185.139.15,Mozilla/5.0 (X11; Linux x86_64; rv:86.0) Gecko/20100101 Firefox/86.0,,Firefox,86,Linux,
8,1,null,"""",html-keyboard-response,185,851311,0.0-185.0,"<div style=""font-size:60px;"">+</div>","""",256,fixationBtwnNeutralMaskAndPrompt,Test,null,1000,"""","""","""","""","""","""","""","""",1,3/11/2021 19:12,173.185.139.15,Mozilla/5.0 (X11; Linux x86_64; rv:86.0) Gecko/20100101 Firefox/86.0,,Firefox,86,Linux,
8,1,1222,"""",html-button-response,186,852534,0.0-186.0,"<img src='jspsych/CFDfaces/CFD-BM-017-021-N.jpg' height=""250px"">,</br><b>Jason</b>",0,256,IntactOrRearranged,Test,"""","""","""","""",CFD-LF-215-157-N.jpg,Jordan,0,0,"""","""",1,3/11/2021 19:12,173.185.139.15,Mozilla/5.0 (X11; Linux x86_64; rv:86.0) Gecko/20100101 Firefox/86.0,,Firefox,86,Linux,
8,1,3853,"""",html-slider-response,187,856390,0.0-187.0,"<img src='jspsych/CFDfaces/CFD-BM-017-021-N.jpg' height=""250px"">,</br><b>Jason</b>","""",256,ConfidenceQuery,Test,"""","""","""","""",CFD-LF-215-157-N.jpg,Jordan,0,"""",0,100,1,3/11/2021 19:12,173.185.139.15,Mozilla/5.0 (X11; Linux x86_64; rv:86.0) Gecko/20100101 Firefox/86.0,,Firefox,86,Linux,
8,1,null,"""",html-keyboard-response,188,857402,0.0-188.0,"<div style=""font-size:60px;"">+</div>","""",256,ITI,Test,null,1000,"""","""","""","""","""","""","""","""",1,3/11/2021 19:12,173.185.139.15,Mozilla/5.0 (X11; Linux x86_64; rv:86.0) Gecko/20100101 Firefox/86.0,,Firefox,86,Linux,
8,1,null,"""",image-keyboard-response,189,857654,0.0-189.0,jspsych/scrambledDisgustFaces/scrambledAF11DIS.JPG,"""",256,forwardMask,Test,null,250,"""",d,"""","""","""","""","""","""",1,3/11/2021 19:12,173.185.139.15,Mozilla/5.0 (X11; Linux x86_64; rv:86.0) Gecko/20100101 Firefox/86.0,,Firefox,86,Linux,
8,1,null,"""",image-keyboard-response,190,857676,0.0-190.0,jspsych/disgustFaces/AF11DIS.JPG,"""",256,Cue,Test,null,16,"""","""","""","""","""","""","""","""",1,3/11/2021 19:12,173.185.139.15,Mozilla/5.0 (X11; Linux x86_64; rv:86.0) Gecko/20100101 Firefox/86.0,,Firefox,86,Linux,
8,1,null,"""",image-keyboard-response,191,857782,0.0-191.0,jspsych/neutralFaces/BF07NES.JPG,"""",256,backwardMask,Test,null,100,"""","""","""","""","""","""","""","""",1,3/11/2021 19:12,173.185.139.15,Mozilla/5.0 (X11; Linux x86_64; rv:86.0) Gecko/20100101 Firefox/86.0,,Firefox,86,Linux,
8,1,null,"""",html-keyboard-response,192,858783,0.0-192.0,"<div style=""font-size:60px;"">+</div>","""",256,fixationBtwnNeutralMaskAndPrompt,Test,null,1000,"""","""","""","""","""","""","""","""",1,3/11/2021 19:12,173.185.139.15,Mozilla/5.0 (X11; Linux x86_64; rv:86.0) Gecko/20100101 Firefox/86.0,,Firefox,86,Linux,
8,1,2492,"""",html-button-response,193,861278,0.0-193.0,"<img src='jspsych/CFDfaces/CFD-BF-039-031-N.jpg' height=""250px"">,</br><b>Kimberly</b>",1,256,IntactOrRearranged,Test,"""","""","""","""",CFD-LF-200-058-N.jpg,Tiffany,1,1,"""","""",1,3/11/2021 19:12,173.185.139.15,Mozilla/5.0 (X11; Linux x86_64; rv:86.0) Gecko/20100101 Firefox/86.0,,Firefox,86,Linux,
8,1,2217,"""",html-slider-response,194,863503,0.0-194.0,"<img src='jspsych/CFDfaces/CFD-BF-039-031-N.jpg' height=""250px"">,</br><b>Kimberly</b>","""",256,ConfidenceQuery,Test,"""","""","""","""",CFD-LF-200-058-N.jpg,Tiffany,1,"""",0,19,1,3/11/2021 19:12,173.185.139.15,Mozilla/5.0 (X11; Linux x86_64; rv:86.0) Gecko/20100101 Firefox/86.0,,Firefox,86,Linux,
8,1,null,"""",html-keyboard-response,195,864506,0.0-195.0,"<div style=""font-size:60px;"">+</div>","""",256,ITI,Test,null,1000,"""","""","""","""","""","""","""","""",1,3/11/2021 19:12,173.185.139.15,Mozilla/5.0 (X11; Linux x86_64; rv:86.0) Gecko/20100101 Firefox/86.0,,Firefox,86,Linux,
8,1,null,"""",image-keyboard-response,196,864760,0.0-196.0,jspsych/scrambledDisgustFaces/scrambledBM32DIS.JPG,"""",256,forwardMask,Test,null,250,"""",d,"""","""","""","""","""","""",1,3/11/2021 19:12,173.185.139.15,Mozilla/5.0 (X11; Linux x86_64; rv:86.0) Gecko/20100101 Firefox/86.0,,Firefox,86,Linux,
8,1,null,"""",image-keyboard-response,197,864789,0.0-197.0,jspsych/disgustFaces/BM33DIS.JPG,"""",256,Cue,Test,null,16,"""","""","""","""","""","""","""","""",1,3/11/2021 19:12,173.185.139.15,Mozilla/5.0 (X11; Linux x86_64; rv:86.0) Gecko/20100101 Firefox/86.0,,Firefox,86,Linux,
8,1,null,"""",image-keyboard-response,198,864895,0.0-198.0,jspsych/neutralFaces/BM01NES.JPG,"""",256,backwardMask,Test,null,100,"""","""","""","""","""","""","""","""",1,3/11/2021 19:12,173.185.139.15,Mozilla/5.0 (X11; Linux x86_64; rv:86.0) Gecko/20100101 Firefox/86.0,,Firefox,86,Linux,
8,1,null,"""",html-keyboard-response,199,865896,0.0-199.0,"<div style=""font-size:60px;"">+</div>","""",256,fixationBtwnNeutralMaskAndPrompt,Test,null,1000,"""","""","""","""","""","""","""","""",1,3/11/2021 19:12,173.185.139.15,Mozilla/5.0 (X11; Linux x86_64; rv:86.0) Gecko/20100101 Firefox/86.0,,Firefox,86,Linux,
8,1,1956,"""",html-button-response,200,867853,0.0-200.0,"<img src='jspsych/CFDfaces/CFD-AM-238-269-N.jpg' height=""250px"">,</br><b>Gregory</b>",1,256,IntactOrRearranged,Test,"""","""","""","""",CFD-LM-221-216-N.jpg,Mark,1,1,"""","""",1,3/11/2021 19:12,173.185.139.15,Mozilla/5.0 (X11; Linux x86_64; rv:86.0) Gecko/20100101 Firefox/86.0,,Firefox,86,Linux,
8,1,2622,"""",html-slider-response,201,870478,0.0-201.0,"<img src='jspsych/CFDfaces/CFD-AM-238-269-N.jpg' height=""250px"">,</br><b>Gregory</b>","""",256,ConfidenceQuery,Test,"""","""","""","""",CFD-LM-221-216-N.jpg,Mark,1,"""",0,36,1,3/11/2021 19:12,173.185.139.15,Mozilla/5.0 (X11; Linux x86_64; rv:86.0) Gecko/20100101 Firefox/86.0,,Firefox,86,Linux,
8,1,null,"""",html-keyboard-response,202,871489,0.0-202.0,"<div style=""font-size:60px;"">+</div>","""",256,ITI,Test,null,1000,"""","""","""","""","""","""","""","""",1,3/11/2021 19:12,173.185.139.15,Mozilla/5.0 (X11; Linux x86_64; rv:86.0) Gecko/20100101 Firefox/86.0,,Firefox,86,Linux,
8,1,null,"""",image-keyboard-response,203,871741,0.0-203.0,jspsych/scrambledDisgustFaces/scrambledBF27DIS.JPG,"""",256,forwardMask,Test,null,250,"""",d,"""","""","""","""","""","""",1,3/11/2021 19:12,173.185.139.15,Mozilla/5.0 (X11; Linux x86_64; rv:86.0) Gecko/20100101 Firefox/86.0,,Firefox,86,Linux,
8,1,null,"""",image-keyboard-response,204,871764,0.0-204.0,jspsych/disgustFaces/BF27DIS.JPG,"""",256,Cue,Test,null,16,"""","""","""","""","""","""","""","""",1,3/11/2021 19:12,173.185.139.15,Mozilla/5.0 (X11; Linux x86_64; rv:86.0) Gecko/20100101 Firefox/86.0,,Firefox,86,Linux,
8,1,null,"""",image-keyboard-response,205,871872,0.0-205.0,jspsych/neutralFaces/AF25NES.JPG,"""",256,backwardMask,Test,null,100,"""","""","""","""","""","""","""","""",1,3/11/2021 19:12,173.185.139.15,Mozilla/5.0 (X11; Linux x86_64; rv:86.0) Gecko/20100101 Firefox/86.0,,Firefox,86,Linux,
8,1,null,"""",html-keyboard-response,206,872873,0.0-206.0,"<div style=""font-size:60px;"">+</div>","""",256,fixationBtwnNeutralMaskAndPrompt,Test,null,1000,"""","""","""","""","""","""","""","""",1,3/11/2021 19:12,173.185.139.15,Mozilla/5.0 (X11; Linux x86_64; rv:86.0) Gecko/20100101 Firefox/86.0,,Firefox,86,Linux,
8,1,2044,"""",html-button-response,207,874918,0.0-207.0,"<img src='jspsych/CFDfaces/CFD-WF-024-003-N.jpg' height=""250px"">,</br><b>Christina</b>",1,256,IntactOrRearranged,Test,"""","""","""","""",CFD-BM-039-029-N.jpg,Vincent,1,1,"""","""",1,3/11/2021 19:12,173.185.139.15,Mozilla/5.0 (X11; Linux x86_64; rv:86.0) Gecko/20100101 Firefox/86.0,,Firefox,86,Linux,
8,1,1697,"""",html-slider-response,208,876631,0.0-208.0,"<img src='jspsych/CFDfaces/CFD-WF-024-003-N.jpg' height=""250px"">,</br><b>Christina</b>","""",256,ConfidenceQuery,Test,"""","""","""","""",CFD-BM-039-029-N.jpg,Vincent,1,"""",0,59,1,3/11/2021 19:12,173.185.139.15,Mozilla/5.0 (X11; Linux x86_64; rv:86.0) Gecko/20100101 Firefox/86.0,,Firefox,86,Linux,
8,1,null,"""",html-keyboard-response,209,877632,0.0-209.0,"<div style=""font-size:60px;"">+</div>","""",256,ITI,Test,null,1000,"""","""","""","""","""","""","""","""",1,3/11/2021 19:12,173.185.139.15,Mozilla/5.0 (X11; Linux x86_64; rv:86.0) Gecko/20100101 Firefox/86.0,,Firefox,86,Linux,
8,1,null,"""",image-keyboard-response,210,877885,0.0-210.0,jspsych/scrambledDisgustFaces/scrambledBF21DIS.JPG,"""",256,forwardMask,Test,null,250,"""",d,"""","""","""","""","""","""",1,3/11/2021 19:12,173.185.139.15,Mozilla/5.0 (X11; Linux x86_64; rv:86.0) Gecko/20100101 Firefox/86.0,,Firefox,86,Linux,
8,1,null,"""",image-keyboard-response,211,877907,0.0-211.0,jspsych/disgustFaces/BF21DIS.JPG,"""",256,Cue,Test,null,16,"""","""","""","""","""","""","""","""",1,3/11/2021 19:12,173.185.139.15,Mozilla/5.0 (X11; Linux x86_64; rv:86.0) Gecko/20100101 Firefox/86.0,,Firefox,86,Linux,
8,1,null,"""",image-keyboard-response,212,878012,0.0-212.0,jspsych/neutralFaces/AF11NES.JPG,"""",256,backwardMask,Test,null,100,"""","""","""","""","""","""","""","""",1,3/11/2021 19:12,173.185.139.15,Mozilla/5.0 (X11; Linux x86_64; rv:86.0) Gecko/20100101 Firefox/86.0,,Firefox,86,Linux,
8,1,null,"""",html-keyboard-response,213,879013,0.0-213.0,"<div style=""font-size:60px;"">+</div>","""",256,fixationBtwnNeutralMaskAndPrompt,Test,null,1000,"""","""","""","""","""","""","""","""",1,3/11/2021 19:12,173.185.139.15,Mozilla/5.0 (X11; Linux x86_64; rv:86.0) Gecko/20100101 Firefox/86.0,,Firefox,86,Linux,
8,1,1593,"""",html-button-response,214,880613,0.0-214.0,"<img src='jspsych/CFDfaces/CFD-AM-243-212-N.jpg' height=""250px"">,</br><b>Eric</b>",0,256,IntactOrRearranged,Test,"""","""","""","""",CFD-LF-202-065-N.jpg,Jasmine,1,0,"""","""",1,3/11/2021 19:12,173.185.139.15,Mozilla/5.0 (X11; Linux x86_64; rv:86.0) Gecko/20100101 Firefox/86.0,,Firefox,86,Linux,
8,1,3261,"""",html-slider-response,215,883879,0.0-215.0,"<img src='jspsych/CFDfaces/CFD-AM-243-212-N.jpg' height=""250px"">,</br><b>Eric</b>","""",256,ConfidenceQuery,Test,"""","""","""","""",CFD-LF-202-065-N.jpg,Jasmine,1,"""",0,62,1,3/11/2021 19:12,173.185.139.15,Mozilla/5.0 (X11; Linux x86_64; rv:86.0) Gecko/20100101 Firefox/86.0,,Firefox,86,Linux,
8,1,null,"""",html-keyboard-response,216,884887,0.0-216.0,"<div style=""font-size:60px;"">+</div>","""",256,ITI,Test,null,1000,"""","""","""","""","""","""","""","""",1,3/11/2021 19:12,173.185.139.15,Mozilla/5.0 (X11; Linux x86_64; rv:86.0) Gecko/20100101 Firefox/86.0,,Firefox,86,Linux,
8,1,null,"""",image-keyboard-response,217,885141,0.0-217.0,jspsych/scrambledDisgustFaces/scrambledAF30DIS.JPG,"""",256,forwardMask,Test,null,250,"""",d,"""","""","""","""","""","""",1,3/11/2021 19:12,173.185.139.15,Mozilla/5.0 (X11; Linux x86_64; rv:86.0) Gecko/20100101 Firefox/86.0,,Firefox,86,Linux,
8,1,null,"""",image-keyboard-response,218,885162,0.0-218.0,jspsych/disgustFaces/AF30DIS.JPG,"""",256,Cue,Test,null,16,"""","""","""","""","""","""","""","""",1,3/11/2021 19:12,173.185.139.15,Mozilla/5.0 (X11; Linux x86_64; rv:86.0) Gecko/20100101 Firefox/86.0,,Firefox,86,Linux,
8,1,null,"""",image-keyboard-response,219,885272,0.0-219.0,jspsych/neutralFaces/AF08NES.JPG,"""",256,backwardMask,Test,null,100,"""","""","""","""","""","""","""","""",1,3/11/2021 19:12,173.185.139.15,Mozilla/5.0 (X11; Linux x86_64; rv:86.0) Gecko/20100101 Firefox/86.0,,Firefox,86,Linux,
8,1,null,"""",html-keyboard-response,220,886273,0.0-220.0,"<div style=""font-size:60px;"">+</div>","""",256,fixationBtwnNeutralMaskAndPrompt,Test,null,1000,"""","""","""","""","""","""","""","""",1,3/11/2021 19:12,173.185.139.15,Mozilla/5.0 (X11; Linux x86_64; rv:86.0) Gecko/20100101 Firefox/86.0,,Firefox,86,Linux,
8,1,2053,"""",html-button-response,221,888330,0.0-221.0,"<img src='jspsych/CFDfaces/CFD-AM-234-355-N.jpg' height=""250px"">,</br><b>Peter</b>",1,256,IntactOrRearranged,Test,"""","""","""","""",CFD-BM-041-035-N.jpg,Austin,0,1,"""","""",1,3/11/2021 19:12,173.185.139.15,Mozilla/5.0 (X11; Linux x86_64; rv:86.0) Gecko/20100101 Firefox/86.0,,Firefox,86,Linux,
8,1,2184,"""",html-slider-response,222,890534,0.0-222.0,"<img src='jspsych/CFDfaces/CFD-AM-234-355-N.jpg' height=""250px"">,</br><b>Peter</b>","""",256,ConfidenceQuery,Test,"""","""","""","""",CFD-BM-041-035-N.jpg,Austin,0,"""",0,33,1,3/11/2021 19:12,173.185.139.15,Mozilla/5.0 (X11; Linux x86_64; rv:86.0) Gecko/20100101 Firefox/86.0,,Firefox,86,Linux,
8,1,null,"""",html-keyboard-response,223,891536,0.0-223.0,"<div style=""font-size:60px;"">+</div>","""",256,ITI,Test,null,1000,"""","""","""","""","""","""","""","""",1,3/11/2021 19:12,173.185.139.15,Mozilla/5.0 (X11; Linux x86_64; rv:86.0) Gecko/20100101 Firefox/86.0,,Firefox,86,Linux,
8,1,null,"""",image-keyboard-response,224,891791,0.0-224.0,jspsych/scrambledDisgustFaces/scrambledBM04DIS.JPG,"""",256,forwardMask,Test,null,250,"""",d,"""","""","""","""","""","""",1,3/11/2021 19:12,173.185.139.15,Mozilla/5.0 (X11; Linux x86_64; rv:86.0) Gecko/20100101 Firefox/86.0,,Firefox,86,Linux,
8,1,null,"""",image-keyboard-response,225,891823,0.0-225.0,jspsych/disgustFaces/BM05DIS.JPG,"""",256,Cue,Test,null,16,"""","""","""","""","""","""","""","""",1,3/11/2021 19:12,173.185.139.15,Mozilla/5.0 (X11; Linux x86_64; rv:86.0) Gecko/20100101 Firefox/86.0,,Firefox,86,Linux,
8,1,null,"""",image-keyboard-response,226,891927,0.0-226.0,jspsych/neutralFaces/AM28NES.JPG,"""",256,backwardMask,Test,null,100,"""","""","""","""","""","""","""","""",1,3/11/2021 19:12,173.185.139.15,Mozilla/5.0 (X11; Linux x86_64; rv:86.0) Gecko/20100101 Firefox/86.0,,Firefox,86,Linux,
8,1,null,"""",html-keyboard-response,227,892929,0.0-227.0,"<div style=""font-size:60px;"">+</div>","""",256,fixationBtwnNeutralMaskAndPrompt,Test,null,1000,"""","""","""","""","""","""","""","""",1,3/11/2021 19:12,173.185.139.15,Mozilla/5.0 (X11; Linux x86_64; rv:86.0) Gecko/20100101 Firefox/86.0,,Firefox,86,Linux,
8,1,2157,"""",html-button-response,228,895086,0.0-228.0,"<img src='jspsych/CFDfaces/CFD-BM-010-003-N.jpg' height=""250px"">,</br><b>Robert</b>",0,256,IntactOrRearranged,Test,"""","""","""","""",CFD-LM-224-162-N.jpg,Dustin,0,0,"""","""",1,3/11/2021 19:12,173.185.139.15,Mozilla/5.0 (X11; Linux x86_64; rv:86.0) Gecko/20100101 Firefox/86.0,,Firefox,86,Linux,
8,1,1846,"""",html-slider-response,229,896934,0.0-229.0,"<img src='jspsych/CFDfaces/CFD-BM-010-003-N.jpg' height=""250px"">,</br><b>Robert</b>","""",256,ConfidenceQuery,Test,"""","""","""","""",CFD-LM-224-162-N.jpg,Dustin,0,"""",0,100,1,3/11/2021 19:12,173.185.139.15,Mozilla/5.0 (X11; Linux x86_64; rv:86.0) Gecko/20100101 Firefox/86.0,,Firefox,86,Linux,
8,1,null,"""",html-keyboard-response,230,897944,0.0-230.0,"<div style=""font-size:60px;"">+</div>","""",256,ITI,Test,null,1000,"""","""","""","""","""","""","""","""",1,3/11/2021 19:12,173.185.139.15,Mozilla/5.0 (X11; Linux x86_64; rv:86.0) Gecko/20100101 Firefox/86.0,,Firefox,86,Linux,
8,1,null,"""",image-keyboard-response,231,898200,0.0-231.0,jspsych/scrambledNeutralFaces/scrambledAF07NES.JPG,"""",256,forwardMask,Test,null,250,"""",n,"""","""","""","""","""","""",1,3/11/2021 19:12,173.185.139.15,Mozilla/5.0 (X11; Linux x86_64; rv:86.0) Gecko/20100101 Firefox/86.0,,Firefox,86,Linux,
8,1,null,"""",image-keyboard-response,232,898222,0.0-232.0,jspsych/neutralFaces/AF07NES.JPG,"""",256,Cue,Test,null,16,"""","""","""","""","""","""","""","""",1,3/11/2021 19:12,173.185.139.15,Mozilla/5.0 (X11; Linux x86_64; rv:86.0) Gecko/20100101 Firefox/86.0,,Firefox,86,Linux,
8,1,null,"""",image-keyboard-response,233,898328,0.0-233.0,jspsych/neutralFaces/AF19NES.JPG,"""",256,backwardMask,Test,null,100,"""","""","""","""","""","""","""","""",1,3/11/2021 19:12,173.185.139.15,Mozilla/5.0 (X11; Linux x86_64; rv:86.0) Gecko/20100101 Firefox/86.0,,Firefox,86,Linux,
8,1,null,"""",html-keyboard-response,234,899329,0.0-234.0,"<div style=""font-size:60px;"">+</div>","""",256,fixationBtwnNeutralMaskAndPrompt,Test,null,1000,"""","""","""","""","""","""","""","""",1,3/11/2021 19:12,173.185.139.15,Mozilla/5.0 (X11; Linux x86_64; rv:86.0) Gecko/20100101 Firefox/86.0,,Firefox,86,Linux,
8,1,1834,"""",html-button-response,235,901166,0.0-235.0,"<img src='jspsych/CFDfaces/CFD-AM-211-052-N.jpg' height=""250px"">,</br><b>Ian</b>",0,256,IntactOrRearranged,Test,"""","""","""","""",CFD-LM-233-171-N.jpg,Justin,0,0,"""","""",1,3/11/2021 19:12,173.185.139.15,Mozilla/5.0 (X11; Linux x86_64; rv:86.0) Gecko/20100101 Firefox/86.0,,Firefox,86,Linux,
8,1,1798,"""",html-slider-response,236,902973,0.0-236.0,"<img src='jspsych/CFDfaces/CFD-AM-211-052-N.jpg' height=""250px"">,</br><b>Ian</b>","""",256,ConfidenceQuery,Test,"""","""","""","""",CFD-LM-233-171-N.jpg,Justin,0,"""",0,59,1,3/11/2021 19:12,173.185.139.15,Mozilla/5.0 (X11; Linux x86_64; rv:86.0) Gecko/20100101 Firefox/86.0,,Firefox,86,Linux,
8,1,null,"""",html-keyboard-response,237,903975,0.0-237.0,"<div style=""font-size:60px;"">+</div>","""",256,ITI,Test,null,1000,"""","""","""","""","""","""","""","""",1,3/11/2021 19:12,173.185.139.15,Mozilla/5.0 (X11; Linux x86_64; rv:86.0) Gecko/20100101 Firefox/86.0,,Firefox,86,Linux,
8,1,null,"""",image-keyboard-response,238,904228,0.0-238.0,jspsych/scrambledDisgustFaces/scrambledBM26DIS.JPG,"""",256,forwardMask,Test,null,250,"""",d,"""","""","""","""","""","""",1,3/11/2021 19:12,173.185.139.15,Mozilla/5.0 (X11; Linux x86_64; rv:86.0) Gecko/20100101 Firefox/86.0,,Firefox,86,Linux,
8,1,null,"""",image-keyboard-response,239,904252,0.0-239.0,jspsych/disgustFaces/BM27DIS.JPG,"""",256,Cue,Test,null,16,"""","""","""","""","""","""","""","""",1,3/11/2021 19:12,173.185.139.15,Mozilla/5.0 (X11; Linux x86_64; rv:86.0) Gecko/20100101 Firefox/86.0,,Firefox,86,Linux,
8,1,null,"""",image-keyboard-response,240,904358,0.0-240.0,jspsych/neutralFaces/AM23NES.JPG,"""",256,backwardMask,Test,null,100,"""","""","""","""","""","""","""","""",1,3/11/2021 19:12,173.185.139.15,Mozilla/5.0 (X11; Linux x86_64; rv:86.0) Gecko/20100101 Firefox/86.0,,Firefox,86,Linux,
8,1,null,"""",html-keyboard-response,241,905360,0.0-241.0,"<div style=""font-size:60px;"">+</div>","""",256,fixationBtwnNeutralMaskAndPrompt,Test,null,1000,"""","""","""","""","""","""","""","""",1,3/11/2021 19:12,173.185.139.15,Mozilla/5.0 (X11; Linux x86_64; rv:86.0) Gecko/20100101 Firefox/86.0,,Firefox,86,Linux,
8,1,2249,"""",html-button-response,242,907623,0.0-242.0,"<img src='jspsych/CFDfaces/CFD-WF-223-133-N.jpg' height=""250px"">,</br><b>Michelle</b>",0,256,IntactOrRearranged,Test,"""","""","""","""",CFD-BM-029-024-N.jpg,Timothy,0,0,"""","""",1,3/11/2021 19:12,173.185.139.15,Mozilla/5.0 (X11; Linux x86_64; rv:86.0) Gecko/20100101 Firefox/86.0,,Firefox,86,Linux,
8,1,2379,"""",html-slider-response,243,910005,0.0-243.0,"<img src='jspsych/CFDfaces/CFD-WF-223-133-N.jpg' height=""250px"">,</br><b>Michelle</b>","""",256,ConfidenceQuery,Test,"""","""","""","""",CFD-BM-029-024-N.jpg,Timothy,0,"""",0,31,1,3/11/2021 19:12,173.185.139.15,Mozilla/5.0 (X11; Linux x86_64; rv:86.0) Gecko/20100101 Firefox/86.0,,Firefox,86,Linux,
8,1,null,"""",html-keyboard-response,244,911016,0.0-244.0,"<div style=""font-size:60px;"">+</div>","""",256,ITI,Test,null,1000,"""","""","""","""","""","""","""","""",1,3/11/2021 19:12,173.185.139.15,Mozilla/5.0 (X11; Linux x86_64; rv:86.0) Gecko/20100101 Firefox/86.0,,Firefox,86,Linux,
8,1,null,"""",image-keyboard-response,245,911270,0.0-245.0,jspsych/scrambledNeutralFaces/scrambledBM06NES.JPG,"""",256,forwardMask,Test,null,250,"""",n,"""","""","""","""","""","""",1,3/11/2021 19:12,173.185.139.15,Mozilla/5.0 (X11; Linux x86_64; rv:86.0) Gecko/20100101 Firefox/86.0,,Firefox,86,Linux,
8,1,null,"""",image-keyboard-response,246,911294,0.0-246.0,jspsych/neutralFaces/BM06NES.JPG,"""",256,Cue,Test,null,16,"""","""","""","""","""","""","""","""",1,3/11/2021 19:12,173.185.139.15,Mozilla/5.0 (X11; Linux x86_64; rv:86.0) Gecko/20100101 Firefox/86.0,,Firefox,86,Linux,
8,1,null,"""",image-keyboard-response,247,911399,0.0-247.0,jspsych/neutralFaces/BM26NES.JPG,"""",256,backwardMask,Test,null,100,"""","""","""","""","""","""","""","""",1,3/11/2021 19:12,173.185.139.15,Mozilla/5.0 (X11; Linux x86_64; rv:86.0) Gecko/20100101 Firefox/86.0,,Firefox,86,Linux,
8,1,null,"""",html-keyboard-response,248,912400,0.0-248.0,"<div style=""font-size:60px;"">+</div>","""",256,fixationBtwnNeutralMaskAndPrompt,Test,null,1000,"""","""","""","""","""","""","""","""",1,3/11/2021 19:12,173.185.139.15,Mozilla/5.0 (X11; Linux x86_64; rv:86.0) Gecko/20100101 Firefox/86.0,,Firefox,86,Linux,
8,1,2525,"""",html-button-response,249,914927,0.0-249.0,"<img src='jspsych/CFDfaces/CFD-AF-203-077-N.jpg' height=""250px"">,</br><b>Samantha</b>",0,256,IntactOrRearranged,Test,"""","""","""","""",CFD-BF-212-315-N.jpg,Rebecca,0,0,"""","""",1,3/11/2021 19:12,173.185.139.15,Mozilla/5.0 (X11; Linux x86_64; rv:86.0) Gecko/20100101 Firefox/86.0,,Firefox,86,Linux,
8,1,2360,"""",html-slider-response,250,917304,0.0-250.0,"<img src='jspsych/CFDfaces/CFD-AF-203-077-N.jpg' height=""250px"">,</br><b>Samantha</b>","""",256,ConfidenceQuery,Test,"""","""","""","""",CFD-BF-212-315-N.jpg,Rebecca,0,"""",0,41,1,3/11/2021 19:12,173.185.139.15,Mozilla/5.0 (X11; Linux x86_64; rv:86.0) Gecko/20100101 Firefox/86.0,,Firefox,86,Linux,
8,1,null,"""",html-keyboard-response,251,918306,0.0-251.0,"<div style=""font-size:60px;"">+</div>","""",256,ITI,Test,null,1000,"""","""","""","""","""","""","""","""",1,3/11/2021 19:12,173.185.139.15,Mozilla/5.0 (X11; Linux x86_64; rv:86.0) Gecko/20100101 Firefox/86.0,,Firefox,86,Linux,
8,1,null,"""",image-keyboard-response,252,918561,0.0-252.0,jspsych/scrambledNeutralFaces/scrambledAM02NES.JPG,"""",256,forwardMask,Test,null,250,"""",n,"""","""","""","""","""","""",1,3/11/2021 19:12,173.185.139.15,Mozilla/5.0 (X11; Linux x86_64; rv:86.0) Gecko/20100101 Firefox/86.0,,Firefox,86,Linux,
8,1,null,"""",image-keyboard-response,253,918597,0.0-253.0,jspsych/neutralFaces/AM02NES.JPG,"""",256,Cue,Test,null,16,"""","""","""","""","""","""","""","""",1,3/11/2021 19:12,173.185.139.15,Mozilla/5.0 (X11; Linux x86_64; rv:86.0) Gecko/20100101 Firefox/86.0,,Firefox,86,Linux,
8,1,null,"""",image-keyboard-response,254,918704,0.0-254.0,jspsych/neutralFaces/AM17NES.JPG,"""",256,backwardMask,Test,null,100,"""","""","""","""","""","""","""","""",1,3/11/2021 19:12,173.185.139.15,Mozilla/5.0 (X11; Linux x86_64; rv:86.0) Gecko/20100101 Firefox/86.0,,Firefox,86,Linux,
8,1,null,"""",html-keyboard-response,255,919706,0.0-255.0,"<div style=""font-size:60px;"">+</div>","""",256,fixationBtwnNeutralMaskAndPrompt,Test,null,1000,"""","""","""","""","""","""","""","""",1,3/11/2021 19:12,173.185.139.15,Mozilla/5.0 (X11; Linux x86_64; rv:86.0) Gecko/20100101 Firefox/86.0,,Firefox,86,Linux,
8,1,2490,"""",html-button-response,256,922199,0.0-256.0,"<img src='jspsych/CFDfaces/CFD-WF-018-017-N.jpg' height=""250px"">,</br><b>Emily</b>",1,256,IntactOrRearranged,Test,"""","""","""","""",CFD-LM-223-175-N.jpg,Ryan,1,1,"""","""",1,3/11/2021 19:12,173.185.139.15,Mozilla/5.0 (X11; Linux x86_64; rv:86.0) Gecko/20100101 Firefox/86.0,,Firefox,86,Linux,
8,1,1960,"""",html-slider-response,257,924173,0.0-257.0,"<img src='jspsych/CFDfaces/CFD-WF-018-017-N.jpg' height=""250px"">,</br><b>Emily</b>","""",256,ConfidenceQuery,Test,"""","""","""","""",CFD-LM-223-175-N.jpg,Ryan,1,"""",0,21,1,3/11/2021 19:12,173.185.139.15,Mozilla/5.0 (X11; Linux x86_64; rv:86.0) Gecko/20100101 Firefox/86.0,,Firefox,86,Linux,
8,1,null,"""",html-keyboard-response,258,925175,0.0-258.0,"<div style=""font-size:60px;"">+</div>","""",256,ITI,Test,null,1000,"""","""","""","""","""","""","""","""",1,3/11/2021 19:12,173.185.139.15,Mozilla/5.0 (X11; Linux x86_64; rv:86.0) Gecko/20100101 Firefox/86.0,,Firefox,86,Linux,
8,1,null,"""",image-keyboard-response,259,925428,0.0-259.0,jspsych/scrambledNeutralFaces/scrambledBF34NES.JPG,"""",256,forwardMask,Test,null,250,"""",n,"""","""","""","""","""","""",1,3/11/2021 19:12,173.185.139.15,Mozilla/5.0 (X11; Linux x86_64; rv:86.0) Gecko/20100101 Firefox/86.0,,Firefox,86,Linux,
8,1,null,"""",image-keyboard-response,260,925450,0.0-260.0,jspsych/neutralFaces/BF34NES.JPG,"""",256,Cue,Test,null,16,"""","""","""","""","""","""","""","""",1,3/11/2021 19:12,173.185.139.15,Mozilla/5.0 (X11; Linux x86_64; rv:86.0) Gecko/20100101 Firefox/86.0,,Firefox,86,Linux,
8,1,null,"""",image-keyboard-response,261,925555,0.0-261.0,jspsych/neutralFaces/AF04NES.JPG,"""",256,backwardMask,Test,null,100,"""","""","""","""","""","""","""","""",1,3/11/2021 19:12,173.185.139.15,Mozilla/5.0 (X11; Linux x86_64; rv:86.0) Gecko/20100101 Firefox/86.0,,Firefox,86,Linux,
8,1,null,"""",html-keyboard-response,262,926557,0.0-262.0,"<div style=""font-size:60px;"">+</div>","""",256,fixationBtwnNeutralMaskAndPrompt,Test,null,1000,"""","""","""","""","""","""","""","""",1,3/11/2021 19:12,173.185.139.15,Mozilla/5.0 (X11; Linux x86_64; rv:86.0) Gecko/20100101 Firefox/86.0,,Firefox,86,Linux,
8,1,2145,"""",html-button-response,263,928717,0.0-263.0,"<img src='jspsych/CFDfaces/CFD-WF-218-087-N.jpg' height=""250px"">,</br><b>Andrea</b>",0,256,IntactOrRearranged,Test,"""","""","""","""",CFD-WF-023-003-N.jpg,Lindsey,1,0,"""","""",1,3/11/2021 19:12,173.185.139.15,Mozilla/5.0 (X11; Linux x86_64; rv:86.0) Gecko/20100101 Firefox/86.0,,Firefox,86,Linux,
8,1,2105,"""",html-slider-response,264,930826,0.0-264.0,"<img src='jspsych/CFDfaces/CFD-WF-218-087-N.jpg' height=""250px"">,</br><b>Andrea</b>","""",256,ConfidenceQuery,Test,"""","""","""","""",CFD-WF-023-003-N.jpg,Lindsey,1,"""",0,32,1,3/11/2021 19:12,173.185.139.15,Mozilla/5.0 (X11; Linux x86_64; rv:86.0) Gecko/20100101 Firefox/86.0,,Firefox,86,Linux,
8,1,null,"""",html-keyboard-response,265,931836,0.0-265.0,"<div style=""font-size:60px;"">+</div>","""",256,ITI,Test,null,1000,"""","""","""","""","""","""","""","""",1,3/11/2021 19:12,173.185.139.15,Mozilla/5.0 (X11; Linux x86_64; rv:86.0) Gecko/20100101 Firefox/86.0,,Firefox,86,Linux,
8,1,null,"""",image-keyboard-response,266,932090,0.0-266.0,jspsych/scrambledDisgustFaces/scrambledAF27DIS.JPG,"""",256,forwardMask,Test,null,250,"""",d,"""","""","""","""","""","""",1,3/11/2021 19:12,173.185.139.15,Mozilla/5.0 (X11; Linux x86_64; rv:86.0) Gecko/20100101 Firefox/86.0,,Firefox,86,Linux,
8,1,null,"""",image-keyboard-response,267,932112,0.0-267.0,jspsych/disgustFaces/AF27DIS.JPG,"""",256,Cue,Test,null,16,"""","""","""","""","""","""","""","""",1,3/11/2021 19:12,173.185.139.15,Mozilla/5.0 (X11; Linux x86_64; rv:86.0) Gecko/20100101 Firefox/86.0,,Firefox,86,Linux,
8,1,null,"""",image-keyboard-response,268,932220,0.0-268.0,jspsych/neutralFaces/AF11NES.JPG,"""",256,backwardMask,Test,null,100,"""","""","""","""","""","""","""","""",1,3/11/2021 19:12,173.185.139.15,Mozilla/5.0 (X11; Linux x86_64; rv:86.0) Gecko/20100101 Firefox/86.0,,Firefox,86,Linux,
8,1,null,"""",html-keyboard-response,269,933221,0.0-269.0,"<div style=""font-size:60px;"">+</div>","""",256,fixationBtwnNeutralMaskAndPrompt,Test,null,1000,"""","""","""","""","""","""","""","""",1,3/11/2021 19:12,173.185.139.15,Mozilla/5.0 (X11; Linux x86_64; rv:86.0) Gecko/20100101 Firefox/86.0,,Firefox,86,Linux,
8,1,2069,"""",html-button-response,270,935293,0.0-270.0,"<img src='jspsych/CFDfaces/CFD-WM-011-002-N.jpg' height=""250px"">,</br><b>Brian</b>",0,256,IntactOrRearranged,Test,"""","""","""","""",CFD-AM-237-154-N.jpg,Kenneth,0,0,"""","""",1,3/11/2021 19:12,173.185.139.15,Mozilla/5.0 (X11; Linux x86_64; rv:86.0) Gecko/20100101 Firefox/86.0,,Firefox,86,Linux,
8,1,2317,"""",html-slider-response,271,937623,0.0-271.0,"<img src='jspsych/CFDfaces/CFD-WM-011-002-N.jpg' height=""250px"">,</br><b>Brian</b>","""",256,ConfidenceQuery,Test,"""","""","""","""",CFD-AM-237-154-N.jpg,Kenneth,0,"""",0,80,1,3/11/2021 19:12,173.185.139.15,Mozilla/5.0 (X11; Linux x86_64; rv:86.0) Gecko/20100101 Firefox/86.0,,Firefox,86,Linux,
8,1,null,"""",html-keyboard-response,272,938626,0.0-272.0,"<div style=""font-size:60px;"">+</div>","""",256,ITI,Test,null,1000,"""","""","""","""","""","""","""","""",1,3/11/2021 19:12,173.185.139.15,Mozilla/5.0 (X11; Linux x86_64; rv:86.0) Gecko/20100101 Firefox/86.0,,Firefox,86,Linux,
8,1,null,"""",image-keyboard-response,273,938880,0.0-273.0,jspsych/scrambledNeutralFaces/scrambledBM13NES.JPG,"""",256,forwardMask,Test,null,250,"""",n,"""","""","""","""","""","""",1,3/11/2021 19:12,173.185.139.15,Mozilla/5.0 (X11; Linux x86_64; rv:86.0) Gecko/20100101 Firefox/86.0,,Firefox,86,Linux,
8,1,null,"""",image-keyboard-response,274,938909,0.0-274.0,jspsych/neutralFaces/BM13NES.JPG,"""",256,Cue,Test,null,16,"""","""","""","""","""","""","""","""",1,3/11/2021 19:12,173.185.139.15,Mozilla/5.0 (X11; Linux x86_64; rv:86.0) Gecko/20100101 Firefox/86.0,,Firefox,86,Linux,
8,1,null,"""",image-keyboard-response,275,939012,0.0-275.0,jspsych/neutralFaces/AM28NES.JPG,"""",256,backwardMask,Test,null,100,"""","""","""","""","""","""","""","""",1,3/11/2021 19:12,173.185.139.15,Mozilla/5.0 (X11; Linux x86_64; rv:86.0) Gecko/20100101 Firefox/86.0,,Firefox,86,Linux,
8,1,null,"""",html-keyboard-response,276,940013,0.0-276.0,"<div style=""font-size:60px;"">+</div>","""",256,fixationBtwnNeutralMaskAndPrompt,Test,null,1000,"""","""","""","""","""","""","""","""",1,3/11/2021 19:12,173.185.139.15,Mozilla/5.0 (X11; Linux x86_64; rv:86.0) Gecko/20100101 Firefox/86.0,,Firefox,86,Linux,
8,1,2878,"""",html-button-response,277,942893,0.0-277.0,"<img src='jspsych/CFDfaces/CFD-LM-239-075-N.jpg' height=""250px"">,</br><b>James</b>",1,256,IntactOrRearranged,Test,"""","""","""","""",CFD-LF-201-035-N.jpg,Amy,1,1,"""","""",1,3/11/2021 19:12,173.185.139.15,Mozilla/5.0 (X11; Linux x86_64; rv:86.0) Gecko/20100101 Firefox/86.0,,Firefox,86,Linux,
8,1,2761,"""",html-slider-response,278,945671,0.0-278.0,"<img src='jspsych/CFDfaces/CFD-LM-239-075-N.jpg' height=""250px"">,</br><b>James</b>","""",256,ConfidenceQuery,Test,"""","""","""","""",CFD-LF-201-035-N.jpg,Amy,1,"""",0,55,1,3/11/2021 19:12,173.185.139.15,Mozilla/5.0 (X11; Linux x86_64; rv:86.0) Gecko/20100101 Firefox/86.0,,Firefox,86,Linux,
8,1,null,"""",html-keyboard-response,279,946674,0.0-279.0,"<div style=""font-size:60px;"">+</div>","""",256,ITI,Test,null,1000,"""","""","""","""","""","""","""","""",1,3/11/2021 19:12,173.185.139.15,Mozilla/5.0 (X11; Linux x86_64; rv:86.0) Gecko/20100101 Firefox/86.0,,Firefox,86,Linux,
8,1,null,"""",image-keyboard-response,280,946937,0.0-280.0,jspsych/scrambledDisgustFaces/scrambledAM17DIS.JPG,"""",256,forwardMask,Test,null,250,"""",d,"""","""","""","""","""","""",1,3/11/2021 19:12,173.185.139.15,Mozilla/5.0 (X11; Linux x86_64; rv:86.0) Gecko/20100101 Firefox/86.0,,Firefox,86,Linux,
8,1,null,"""",image-keyboard-response,281,946961,0.0-281.0,jspsych/disgustFaces/AM17DIS.JPG,"""",256,Cue,Test,null,16,"""","""","""","""","""","""","""","""",1,3/11/2021 19:12,173.185.139.15,Mozilla/5.0 (X11; Linux x86_64; rv:86.0) Gecko/20100101 Firefox/86.0,,Firefox,86,Linux,
8,1,null,"""",image-keyboard-response,282,947065,0.0-282.0,jspsych/neutralFaces/BM26NES.JPG,"""",256,backwardMask,Test,null,100,"""","""","""","""","""","""","""","""",1,3/11/2021 19:12,173.185.139.15,Mozilla/5.0 (X11; Linux x86_64; rv:86.0) Gecko/20100101 Firefox/86.0,,Firefox,86,Linux,
8,1,null,"""",html-keyboard-response,283,948067,0.0-283.0,"<div style=""font-size:60px;"">+</div>","""",256,fixationBtwnNeutralMaskAndPrompt,Test,null,1000,"""","""","""","""","""","""","""","""",1,3/11/2021 19:12,173.185.139.15,Mozilla/5.0 (X11; Linux x86_64; rv:86.0) Gecko/20100101 Firefox/86.0,,Firefox,86,Linux,
8,1,2401,"""",html-button-response,284,950471,0.0-284.0,"<img src='jspsych/CFDfaces/CFD-WM-009-002-N.jpg' height=""250px"">,</br><b>Richard</b>",1,256,IntactOrRearranged,Test,"""","""","""","""",CFD-BM-011-016-N.jpg,Jeremy,1,1,"""","""",1,3/11/2021 19:12,173.185.139.15,Mozilla/5.0 (X11; Linux x86_64; rv:86.0) Gecko/20100101 Firefox/86.0,,Firefox,86,Linux,
8,1,2628,"""",html-slider-response,285,953118,0.0-285.0,"<img src='jspsych/CFDfaces/CFD-WM-009-002-N.jpg' height=""250px"">,</br><b>Richard</b>","""",256,ConfidenceQuery,Test,"""","""","""","""",CFD-BM-011-016-N.jpg,Jeremy,1,"""",0,77,1,3/11/2021 19:12,173.185.139.15,Mozilla/5.0 (X11; Linux x86_64; rv:86.0) Gecko/20100101 Firefox/86.0,,Firefox,86,Linux,
8,1,null,"""",html-keyboard-response,286,954121,0.0-286.0,"<div style=""font-size:60px;"">+</div>","""",256,ITI,Test,null,1000,"""","""","""","""","""","""","""","""",1,3/11/2021 19:12,173.185.139.15,Mozilla/5.0 (X11; Linux x86_64; rv:86.0) Gecko/20100101 Firefox/86.0,,Firefox,86,Linux,
8,1,null,"""",image-keyboard-response,287,954386,0.0-287.0,jspsych/scrambledDisgustFaces/scrambledBM10DIS.JPG,"""",256,forwardMask,Test,null,250,"""",d,"""","""","""","""","""","""",1,3/11/2021 19:12,173.185.139.15,Mozilla/5.0 (X11; Linux x86_64; rv:86.0) Gecko/20100101 Firefox/86.0,,Firefox,86,Linux,
8,1,null,"""",image-keyboard-response,288,954408,0.0-288.0,jspsych/disgustFaces/BM11DIS.JPG,"""",256,Cue,Test,null,16,"""","""","""","""","""","""","""","""",1,3/11/2021 19:12,173.185.139.15,Mozilla/5.0 (X11; Linux x86_64; rv:86.0) Gecko/20100101 Firefox/86.0,,Firefox,86,Linux,
8,1,null,"""",image-keyboard-response,289,954516,0.0-289.0,jspsych/neutralFaces/AM09NES.JPG,"""",256,backwardMask,Test,null,100,"""","""","""","""","""","""","""","""",1,3/11/2021 19:12,173.185.139.15,Mozilla/5.0 (X11; Linux x86_64; rv:86.0) Gecko/20100101 Firefox/86.0,,Firefox,86,Linux,
8,1,null,"""",html-keyboard-response,290,955517,0.0-290.0,"<div style=""font-size:60px;"">+</div>","""",256,fixationBtwnNeutralMaskAndPrompt,Test,null,1000,"""","""","""","""","""","""","""","""",1,3/11/2021 19:12,173.185.139.15,Mozilla/5.0 (X11; Linux x86_64; rv:86.0) Gecko/20100101 Firefox/86.0,,Firefox,86,Linux,
8,1,2766,"""",html-button-response,291,958285,0.0-291.0,"<img src='jspsych/CFDfaces/CFD-BM-208-065-N.jpg' height=""250px"">,</br><b>Daniel</b>",1,256,IntactOrRearranged,Test,"""","""","""","""",CFD-AM-229-224-N.jpg,Cameron,1,1,"""","""",1,3/11/2021 19:12,173.185.139.15,Mozilla/5.0 (X11; Linux x86_64; rv:86.0) Gecko/20100101 Firefox/86.0,,Firefox,86,Linux,
8,1,3315,"""",html-slider-response,292,961613,0.0-292.0,"<img src='jspsych/CFDfaces/CFD-BM-208-065-N.jpg' height=""250px"">,</br><b>Daniel</b>","""",256,ConfidenceQuery,Test,"""","""","""","""",CFD-AM-229-224-N.jpg,Cameron,1,"""",0,44,1,3/11/2021 19:12,173.185.139.15,Mozilla/5.0 (X11; Linux x86_64; rv:86.0) Gecko/20100101 Firefox/86.0,,Firefox,86,Linux,
8,1,null,"""",html-keyboard-response,293,962614,0.0-293.0,"<div style=""font-size:60px;"">+</div>","""",256,ITI,Test,null,1000,"""","""","""","""","""","""","""","""",1,3/11/2021 19:12,173.185.139.15,Mozilla/5.0 (X11; Linux x86_64; rv:86.0) Gecko/20100101 Firefox/86.0,,Firefox,86,Linux,
8,1,null,"""",image-keyboard-response,294,962877,0.0-294.0,jspsych/scrambledNeutralFaces/scrambledBM21NES.JPG,"""",256,forwardMask,Test,null,250,"""",n,"""","""","""","""","""","""",1,3/11/2021 19:12,173.185.139.15,Mozilla/5.0 (X11; Linux x86_64; rv:86.0) Gecko/20100101 Firefox/86.0,,Firefox,86,Linux,
8,1,null,"""",image-keyboard-response,295,962900,0.0-295.0,jspsych/neutralFaces/BM21NES.JPG,"""",256,Cue,Test,null,16,"""","""","""","""","""","""","""","""",1,3/11/2021 19:12,173.185.139.15,Mozilla/5.0 (X11; Linux x86_64; rv:86.0) Gecko/20100101 Firefox/86.0,,Firefox,86,Linux,
8,1,null,"""",image-keyboard-response,296,963010,0.0-296.0,jspsych/neutralFaces/AM17NES.JPG,"""",256,backwardMask,Test,null,100,"""","""","""","""","""","""","""","""",1,3/11/2021 19:12,173.185.139.15,Mozilla/5.0 (X11; Linux x86_64; rv:86.0) Gecko/20100101 Firefox/86.0,,Firefox,86,Linux,
8,1,null,"""",html-keyboard-response,297,964011,0.0-297.0,"<div style=""font-size:60px;"">+</div>","""",256,fixationBtwnNeutralMaskAndPrompt,Test,null,1000,"""","""","""","""","""","""","""","""",1,3/11/2021 19:12,173.185.139.15,Mozilla/5.0 (X11; Linux x86_64; rv:86.0) Gecko/20100101 Firefox/86.0,,Firefox,86,Linux,
8,1,2697,"""",html-button-response,298,966710,0.0-298.0,"<img src='jspsych/CFDfaces/CFD-BM-002-013-N.jpg' height=""250px"">,</br><b>Christian</b>",1,256,IntactOrRearranged,Test,"""","""","""","""",CFD-LF-204-133-N.jpg,Jenna,1,1,"""","""",1,3/11/2021 19:12,173.185.139.15,Mozilla/5.0 (X11; Linux x86_64; rv:86.0) Gecko/20100101 Firefox/86.0,,Firefox,86,Linux,
8,1,3032,"""",html-slider-response,299,969768,0.0-299.0,"<img src='jspsych/CFDfaces/CFD-BM-002-013-N.jpg' height=""250px"">,</br><b>Christian</b>","""",256,ConfidenceQuery,Test,"""","""","""","""",CFD-LF-204-133-N.jpg,Jenna,1,"""",0,69,1,3/11/2021 19:12,173.185.139.15,Mozilla/5.0 (X11; Linux x86_64; rv:86.0) Gecko/20100101 Firefox/86.0,,Firefox,86,Linux,
8,1,null,"""",html-keyboard-response,300,970773,0.0-300.0,"<div style=""font-size:60px;"">+</div>","""",256,ITI,Test,null,1000,"""","""","""","""","""","""","""","""",1,3/11/2021 19:12,173.185.139.15,Mozilla/5.0 (X11; Linux x86_64; rv:86.0) Gecko/20100101 Firefox/86.0,,Firefox,86,Linux,
8,1,null,"""",image-keyboard-response,301,971056,0.0-301.0,jspsych/scrambledNeutralFaces/scrambledAM09NES.JPG,"""",256,forwardMask,Test,null,250,"""",n,"""","""","""","""","""","""",1,3/11/2021 19:12,173.185.139.15,Mozilla/5.0 (X11; Linux x86_64; rv:86.0) Gecko/20100101 Firefox/86.0,,Firefox,86,Linux,
8,1,null,"""",image-keyboard-response,302,971083,0.0-302.0,jspsych/neutralFaces/AM09NES.JPG,"""",256,Cue,Test,null,16,"""","""","""","""","""","""","""","""",1,3/11/2021 19:12,173.185.139.15,Mozilla/5.0 (X11; Linux x86_64; rv:86.0) Gecko/20100101 Firefox/86.0,,Firefox,86,Linux,
8,1,null,"""",image-keyboard-response,303,971188,0.0-303.0,jspsych/neutralFaces/AM28NES.JPG,"""",256,backwardMask,Test,null,100,"""","""","""","""","""","""","""","""",1,3/11/2021 19:12,173.185.139.15,Mozilla/5.0 (X11; Linux x86_64; rv:86.0) Gecko/20100101 Firefox/86.0,,Firefox,86,Linux,
8,1,null,"""",html-keyboard-response,304,972192,0.0-304.0,"<div style=""font-size:60px;"">+</div>","""",256,fixationBtwnNeutralMaskAndPrompt,Test,null,1000,"""","""","""","""","""","""","""","""",1,3/11/2021 19:12,173.185.139.15,Mozilla/5.0 (X11; Linux x86_64; rv:86.0) Gecko/20100101 Firefox/86.0,,Firefox,86,Linux,
8,1,3172,"""",html-button-response,305,975366,0.0-305.0,"<img src='jspsych/CFDfaces/CFD-WF-204-038-N.jpg' height=""250px"">,</br><b>Elizabeth</b>",1,256,IntactOrRearranged,Test,"""","""","""","""",CFD-LM-200-045-N.jpg,Travis,1,1,"""","""",1,3/11/2021 19:12,173.185.139.15,Mozilla/5.0 (X11; Linux x86_64; rv:86.0) Gecko/20100101 Firefox/86.0,,Firefox,86,Linux,
8,1,3023,"""",html-slider-response,306,978406,0.0-306.0,"<img src='jspsych/CFDfaces/CFD-WF-204-038-N.jpg' height=""250px"">,</br><b>Elizabeth</b>","""",256,ConfidenceQuery,Test,"""","""","""","""",CFD-LM-200-045-N.jpg,Travis,1,"""",0,89,1,3/11/2021 19:12,173.185.139.15,Mozilla/5.0 (X11; Linux x86_64; rv:86.0) Gecko/20100101 Firefox/86.0,,Firefox,86,Linux,
8,1,null,"""",html-keyboard-response,307,979409,0.0-307.0,"<div style=""font-size:60px;"">+</div>","""",256,ITI,Test,null,1000,"""","""","""","""","""","""","""","""",1,3/11/2021 19:12,173.185.139.15,Mozilla/5.0 (X11; Linux x86_64; rv:86.0) Gecko/20100101 Firefox/86.0,,Firefox,86,Linux,
8,1,null,"""",image-keyboard-response,308,979671,0.0-308.0,jspsych/scrambledDisgustFaces/scrambledAF33DIS.JPG,"""",256,forwardMask,Test,null,250,"""",d,"""","""","""","""","""","""",1,3/11/2021 19:12,173.185.139.15,Mozilla/5.0 (X11; Linux x86_64; rv:86.0) Gecko/20100101 Firefox/86.0,,Firefox,86,Linux,
8,1,null,"""",image-keyboard-response,309,979696,0.0-309.0,jspsych/disgustFaces/AF33DIS.JPG,"""",256,Cue,Test,null,16,"""","""","""","""","""","""","""","""",1,3/11/2021 19:12,173.185.139.15,Mozilla/5.0 (X11; Linux x86_64; rv:86.0) Gecko/20100101 Firefox/86.0,,Firefox,86,Linux,
8,1,null,"""",image-keyboard-response,310,979803,0.0-310.0,jspsych/neutralFaces/BF27NES.JPG,"""",256,backwardMask,Test,null,100,"""","""","""","""","""","""","""","""",1,3/11/2021 19:12,173.185.139.15,Mozilla/5.0 (X11; Linux x86_64; rv:86.0) Gecko/20100101 Firefox/86.0,,Firefox,86,Linux,
8,1,null,"""",html-keyboard-response,311,980804,0.0-311.0,"<div style=""font-size:60px;"">+</div>","""",256,fixationBtwnNeutralMaskAndPrompt,Test,null,1000,"""","""","""","""","""","""","""","""",1,3/11/2021 19:12,173.185.139.15,Mozilla/5.0 (X11; Linux x86_64; rv:86.0) Gecko/20100101 Firefox/86.0,,Firefox,86,Linux,
8,1,2273,"""",html-button-response,312,983079,0.0-312.0,"<img src='jspsych/CFDfaces/CFD-WF-017-003-N.jpg' height=""250px"">,</br><b>Ashley</b>",1,256,IntactOrRearranged,Test,"""","""","""","""",CFD-WF-029-002-N.jpg,Melissa,1,1,"""","""",1,3/11/2021 19:12,173.185.139.15,Mozilla/5.0 (X11; Linux x86_64; rv:86.0) Gecko/20100101 Firefox/86.0,,Firefox,86,Linux,
8,1,2734,"""",html-slider-response,313,985837,0.0-313.0,"<img src='jspsych/CFDfaces/CFD-WF-017-003-N.jpg' height=""250px"">,</br><b>Ashley</b>","""",256,ConfidenceQuery,Test,"""","""","""","""",CFD-WF-029-002-N.jpg,Melissa,1,"""",0,79,1,3/11/2021 19:12,173.185.139.15,Mozilla/5.0 (X11; Linux x86_64; rv:86.0) Gecko/20100101 Firefox/86.0,,Firefox,86,Linux,
8,1,null,"""",html-keyboard-response,314,986840,0.0-314.0,"<div style=""font-size:60px;"">+</div>","""",256,ITI,Test,null,1000,"""","""","""","""","""","""","""","""",1,3/11/2021 19:12,173.185.139.15,Mozilla/5.0 (X11; Linux x86_64; rv:86.0) Gecko/20100101 Firefox/86.0,,Firefox,86,Linux,
