run_id,condition,rt,responses,trial_type,trial_index,time_elapsed,internal_node_id,question_order,stimulus,button_pressed,iTrial,Phase,ExperimentPhase,key_press,StimulusDurationSetting,CharacterResponse,correctResponse,Face,Name,rearranged,slider_start,response,didSubjectEnterRearranged,Block,recorded_at,ip,user_agent,device,browser,browser_version,platform,platform_version
227,1,14107,"{""Q0"":""A1ZG2V2YO558WL""}",survey-text,0,14116,0.0-0.0,"""","""","""","""","""","""","""","""","""","""","""","""","""","""","""","""","""",5/2/2021 4:09,208.221.46.224,Mozilla/5.0 (Windows NT 6.3; Win64; x64; rv:88.0) Gecko/20100101 Firefox/88.0,,Firefox,88,Windows,6.3
227,1,7634,"{""Q0"":""40""}",survey-text,1,21779,0.0-1.0,"""","""","""","""","""","""","""","""","""","""","""","""","""","""","""","""","""",5/2/2021 4:09,208.221.46.224,Mozilla/5.0 (Windows NT 6.3; Win64; x64; rv:88.0) Gecko/20100101 Firefox/88.0,,Firefox,88,Windows,6.3
227,1,7431,"{""Q0"":""male"",""Q1"":""Not Hispanic/Latino"",""Q2"":""White or Caucasian""}",survey-multi-choice,2,29225,0.0-2.0,"[0,1,2]","""","""","""","""","""","""","""","""","""","""","""","""","""","""","""","""",5/2/2021 4:09,208.221.46.224,Mozilla/5.0 (Windows NT 6.3; Win64; x64; rv:88.0) Gecko/20100101 Firefox/88.0,,Firefox,88,Windows,6.3
227,1,25615,"""",image-button-response,3,54911,0.0-3.0,"""",directionsMemoryAssociation1.JPG,0,1,IntroDirections1,break,"""","""","""","""","""","""","""","""","""","""","""",5/2/2021 4:09,208.221.46.224,Mozilla/5.0 (Windows NT 6.3; Win64; x64; rv:88.0) Gecko/20100101 Firefox/88.0,,Firefox,88,Windows,6.3
227,1,78415,"""",image-button-response,4,133364,0.0-4.0,"""",directionsMemoryAssociation2.JPG,0,1,IntroDirections2,break,"""","""","""","""","""","""","""","""","""","""","""",5/2/2021 4:09,208.221.46.224,Mozilla/5.0 (Windows NT 6.3; Win64; x64; rv:88.0) Gecko/20100101 Firefox/88.0,,Firefox,88,Windows,6.3
227,1,null,"""",html-keyboard-response,5,138394,0.0-5.0,"""","<img src='jspsych/CFDfaces/CFD-WM-006-002-N.jpg' height=""250px"">,</br><b>Carlos</b>","""",1,IntactFace,Practice,null,5000,"""","""","""","""","""","""","""","""","""",5/2/2021 4:09,208.221.46.224,Mozilla/5.0 (Windows NT 6.3; Win64; x64; rv:88.0) Gecko/20100101 Firefox/88.0,,Firefox,88,Windows,6.3
227,1,null,"""",html-keyboard-response,6,138900,0.0-6.0,"""","<div style=""font-size:60px;"">+</div>","""",1,ITI,Practice,null,1000,"""","""","""","""","""","""","""","""","""",5/2/2021 4:09,208.221.46.224,Mozilla/5.0 (Windows NT 6.3; Win64; x64; rv:88.0) Gecko/20100101 Firefox/88.0,,Firefox,88,Windows,6.3
227,1,4821,"""",html-keyboard-response,7,143912,0.0-7.0,"""","<img src='jspsych/CFDfaces/CFD-AF-228-173-N.jpg' height=""250px"">,</br><b>Shannon</b>","""",2,IntactFace,Practice,70,5000,f,"""","""","""","""","""","""","""","""",5/2/2021 4:09,208.221.46.224,Mozilla/5.0 (Windows NT 6.3; Win64; x64; rv:88.0) Gecko/20100101 Firefox/88.0,,Firefox,88,Windows,6.3
227,1,null,"""",html-keyboard-response,8,144416,0.0-8.0,"""","<div style=""font-size:60px;"">+</div>","""",2,ITI,Practice,null,1000,"""","""","""","""","""","""","""","""","""",5/2/2021 4:09,208.221.46.224,Mozilla/5.0 (Windows NT 6.3; Win64; x64; rv:88.0) Gecko/20100101 Firefox/88.0,,Firefox,88,Windows,6.3
227,1,1931,"""",html-keyboard-response,9,149428,0.0-9.0,"""","<img src='jspsych/CFDfaces/CFD-BM-001-014-N.jpg' height=""250px"">,</br><b>Patrick</b>","""",3,IntactFace,Practice,70,5000,f,"""","""","""","""","""","""","""","""",5/2/2021 4:09,208.221.46.224,Mozilla/5.0 (Windows NT 6.3; Win64; x64; rv:88.0) Gecko/20100101 Firefox/88.0,,Firefox,88,Windows,6.3
227,1,null,"""",html-keyboard-response,10,149933,0.0-10.0,"""","<div style=""font-size:60px;"">+</div>","""",3,ITI,Practice,null,1000,"""","""","""","""","""","""","""","""","""",5/2/2021 4:09,208.221.46.224,Mozilla/5.0 (Windows NT 6.3; Win64; x64; rv:88.0) Gecko/20100101 Firefox/88.0,,Firefox,88,Windows,6.3
227,1,1624,"""",html-keyboard-response,11,154946,0.0-11.0,"""","<img src='jspsych/CFDfaces/CFD-AF-241-141-N.jpg' height=""250px"">,</br><b>Tara</b>","""",4,IntactFace,Practice,70,5000,f,"""","""","""","""","""","""","""","""",5/2/2021 4:09,208.221.46.224,Mozilla/5.0 (Windows NT 6.3; Win64; x64; rv:88.0) Gecko/20100101 Firefox/88.0,,Firefox,88,Windows,6.3
227,1,null,"""",html-keyboard-response,12,155449,0.0-12.0,"""","<div style=""font-size:60px;"">+</div>","""",4,ITI,Practice,null,1000,"""","""","""","""","""","""","""","""","""",5/2/2021 4:09,208.221.46.224,Mozilla/5.0 (Windows NT 6.3; Win64; x64; rv:88.0) Gecko/20100101 Firefox/88.0,,Firefox,88,Windows,6.3
227,1,1488,"""",html-keyboard-response,13,160461,0.0-13.0,"""","<img src='jspsych/CFDfaces/CFD-LF-231-260-N.jpg' height=""250px"">,</br><b>Katelyn</b>","""",5,IntactFace,Practice,70,5000,f,"""","""","""","""","""","""","""","""",5/2/2021 4:09,208.221.46.224,Mozilla/5.0 (Windows NT 6.3; Win64; x64; rv:88.0) Gecko/20100101 Firefox/88.0,,Firefox,88,Windows,6.3
227,1,null,"""",html-keyboard-response,14,160966,0.0-14.0,"""","<div style=""font-size:60px;"">+</div>","""",5,ITI,Practice,null,1000,"""","""","""","""","""","""","""","""","""",5/2/2021 4:09,208.221.46.224,Mozilla/5.0 (Windows NT 6.3; Win64; x64; rv:88.0) Gecko/20100101 Firefox/88.0,,Firefox,88,Windows,6.3
227,1,2496,"""",html-keyboard-response,15,165977,0.0-15.0,"""","<img src='jspsych/CFDfaces/CFD-AM-248-104-N.jpg' height=""250px"">,</br><b>Marcus</b>","""",6,IntactFace,Practice,78,5000,n,"""","""","""","""","""","""","""","""",5/2/2021 4:09,208.221.46.224,Mozilla/5.0 (Windows NT 6.3; Win64; x64; rv:88.0) Gecko/20100101 Firefox/88.0,,Firefox,88,Windows,6.3
227,1,null,"""",html-keyboard-response,16,166483,0.0-16.0,"""","<div style=""font-size:60px;"">+</div>","""",6,ITI,Practice,null,1000,"""","""","""","""","""","""","""","""","""",5/2/2021 4:09,208.221.46.224,Mozilla/5.0 (Windows NT 6.3; Win64; x64; rv:88.0) Gecko/20100101 Firefox/88.0,,Firefox,88,Windows,6.3
227,1,2564,"""",html-keyboard-response,17,171496,0.0-17.0,"""","<img src='jspsych/CFDfaces/CFD-LF-200-058-N.jpg' height=""250px"">,</br><b>Cassandra</b>","""",7,IntactFace,Practice,70,5000,f,"""","""","""","""","""","""","""","""",5/2/2021 4:09,208.221.46.224,Mozilla/5.0 (Windows NT 6.3; Win64; x64; rv:88.0) Gecko/20100101 Firefox/88.0,,Firefox,88,Windows,6.3
227,1,null,"""",html-keyboard-response,18,171999,0.0-18.0,"""","<div style=""font-size:60px;"">+</div>","""",7,ITI,Practice,null,1000,"""","""","""","""","""","""","""","""","""",5/2/2021 4:09,208.221.46.224,Mozilla/5.0 (Windows NT 6.3; Win64; x64; rv:88.0) Gecko/20100101 Firefox/88.0,,Firefox,88,Windows,6.3
227,1,2535,"""",html-keyboard-response,19,177009,0.0-19.0,"""","<img src='jspsych/CFDfaces/CFD-BM-203-001-N.jpg' height=""250px"">,</br><b>Samuel</b>","""",8,IntactFace,Practice,78,5000,n,"""","""","""","""","""","""","""","""",5/2/2021 4:09,208.221.46.224,Mozilla/5.0 (Windows NT 6.3; Win64; x64; rv:88.0) Gecko/20100101 Firefox/88.0,,Firefox,88,Windows,6.3
227,1,null,"""",html-keyboard-response,20,177513,0.0-20.0,"""","<div style=""font-size:60px;"">+</div>","""",8,ITI,Practice,null,1000,"""","""","""","""","""","""","""","""","""",5/2/2021 4:09,208.221.46.224,Mozilla/5.0 (Windows NT 6.3; Win64; x64; rv:88.0) Gecko/20100101 Firefox/88.0,,Firefox,88,Windows,6.3
227,1,2882,"""",image-button-response,21,180442,0.0-21.0,"""",directionsForTest.JPG,0,1,directionsForTest,break,"""","""","""","""","""","""","""","""","""","""","""",5/2/2021 4:09,208.221.46.224,Mozilla/5.0 (Windows NT 6.3; Win64; x64; rv:88.0) Gecko/20100101 Firefox/88.0,,Firefox,88,Windows,6.3
227,1,35271,"""",image-button-response,22,215743,0.0-22.0,"""",directionsForTest2.JPG,0,1,directionsForTest2,break,"""","""","""","""","""","""","""","""","""","""","""",5/2/2021 4:09,208.221.46.224,Mozilla/5.0 (Windows NT 6.3; Win64; x64; rv:88.0) Gecko/20100101 Firefox/88.0,,Firefox,88,Windows,6.3
227,1,null,"""",html-keyboard-response,23,216761,0.0-23.0,"""","<div style=""font-size:60px;"">+</div>","""",1,ITI,Practice,null,1000,"""","""","""","""","""","""","""","""","""",5/2/2021 4:09,208.221.46.224,Mozilla/5.0 (Windows NT 6.3; Win64; x64; rv:88.0) Gecko/20100101 Firefox/88.0,,Firefox,88,Windows,6.3
227,1,null,"""",image-keyboard-response,24,217019,0.0-24.0,"""",jspsych/scrambledDisgustFaces/scrambledBM18DIS.JPG,"""",1,forwardMask,Practice,null,250,"""",d,"""","""","""","""","""","""","""",5/2/2021 4:09,208.221.46.224,Mozilla/5.0 (Windows NT 6.3; Win64; x64; rv:88.0) Gecko/20100101 Firefox/88.0,,Firefox,88,Windows,6.3
227,1,null,"""",image-keyboard-response,25,217042,0.0-25.0,"""",jspsych/disgustFaces/BM19DIS.JPG,"""",1,Cue,Practice,null,16,"""","""","""","""","""","""","""","""","""",5/2/2021 4:09,208.221.46.224,Mozilla/5.0 (Windows NT 6.3; Win64; x64; rv:88.0) Gecko/20100101 Firefox/88.0,,Firefox,88,Windows,6.3
227,1,null,"""",image-keyboard-response,26,217152,0.0-26.0,"""",jspsych/neutralFaces/BM04NES.JPG,"""",1,backwardMask,Practice,null,100,"""","""","""","""","""","""","""","""","""",5/2/2021 4:09,208.221.46.224,Mozilla/5.0 (Windows NT 6.3; Win64; x64; rv:88.0) Gecko/20100101 Firefox/88.0,,Firefox,88,Windows,6.3
227,1,null,"""",html-keyboard-response,27,218156,0.0-27.0,"""","<div style=""font-size:60px;"">+</div>","""",1,fixationBtwnNeutralMaskAndPrompt,Practice,null,1000,"""","""","""","""","""","""","""","""","""",5/2/2021 4:09,208.221.46.224,Mozilla/5.0 (Windows NT 6.3; Win64; x64; rv:88.0) Gecko/20100101 Firefox/88.0,,Firefox,88,Windows,6.3
227,1,null,"""",html-button-response,28,223169,0.0-28.0,"""","<img src='jspsych/CFDfaces/CFD-AF-241-141-N.jpg'height=""250px""></br><b>Tara</b>",null,1,IntactOrRearranged,Practice,"""","""","""","""",CFD-AF-241-141-N.jpg,Tara,0,"""","""","""","""",5/2/2021 4:09,208.221.46.224,Mozilla/5.0 (Windows NT 6.3; Win64; x64; rv:88.0) Gecko/20100101 Firefox/88.0,,Firefox,88,Windows,6.3
227,1,3526,"""",html-slider-response,29,226716,0.0-29.0,"""","<img src='jspsych/CFDfaces/CFD-AF-241-141-N.jpg'height=""250px""></br><b>Tara</b>","""",1,ConfidenceQuery,Practice,"""","""","""","""",CFD-LM-201-057-N.jpg,Kenneth,0,0,61,"""","""",5/2/2021 4:09,208.221.46.224,Mozilla/5.0 (Windows NT 6.3; Win64; x64; rv:88.0) Gecko/20100101 Firefox/88.0,,Firefox,88,Windows,6.3
227,1,8084,"""",html-button-response,30,234815,0.0-30.0,"""",<p>Please click either button: REARRANGED or INTACT before the 5-second time limit.</p>,0,1,feedback,Practice,"""","""","""","""","""","""","""","""","""","""","""",5/2/2021 4:09,208.221.46.224,Mozilla/5.0 (Windows NT 6.3; Win64; x64; rv:88.0) Gecko/20100101 Firefox/88.0,,Firefox,88,Windows,6.3
227,1,null,"""",html-keyboard-response,31,235832,0.0-31.0,"""","<div style=""font-size:60px;"">+</div>","""",2,ITI,Practice,null,1000,"""","""","""","""","""","""","""","""","""",5/2/2021 4:09,208.221.46.224,Mozilla/5.0 (Windows NT 6.3; Win64; x64; rv:88.0) Gecko/20100101 Firefox/88.0,,Firefox,88,Windows,6.3
227,1,null,"""",image-keyboard-response,32,236090,0.0-32.0,"""",jspsych/scrambledDisgustFaces/scrambledAF02DIS.JPG,"""",2,forwardMask,Practice,null,250,"""",d,"""","""","""","""","""","""","""",5/2/2021 4:09,208.221.46.224,Mozilla/5.0 (Windows NT 6.3; Win64; x64; rv:88.0) Gecko/20100101 Firefox/88.0,,Firefox,88,Windows,6.3
227,1,null,"""",image-keyboard-response,33,236110,0.0-33.0,"""",jspsych/disgustFaces/AF02DIS.JPG,"""",2,Cue,Practice,null,16,"""","""","""","""","""","""","""","""","""",5/2/2021 4:09,208.221.46.224,Mozilla/5.0 (Windows NT 6.3; Win64; x64; rv:88.0) Gecko/20100101 Firefox/88.0,,Firefox,88,Windows,6.3
227,1,null,"""",image-keyboard-response,34,236217,0.0-34.0,"""",jspsych/neutralFaces/BF20NES.JPG,"""",2,backwardMask,Practice,null,100,"""","""","""","""","""","""","""","""","""",5/2/2021 4:09,208.221.46.224,Mozilla/5.0 (Windows NT 6.3; Win64; x64; rv:88.0) Gecko/20100101 Firefox/88.0,,Firefox,88,Windows,6.3
227,1,null,"""",html-keyboard-response,35,237218,0.0-35.0,"""","<div style=""font-size:60px;"">+</div>","""",2,fixationBtwnNeutralMaskAndPrompt,Practice,null,1000,"""","""","""","""","""","""","""","""","""",5/2/2021 4:09,208.221.46.224,Mozilla/5.0 (Windows NT 6.3; Win64; x64; rv:88.0) Gecko/20100101 Firefox/88.0,,Firefox,88,Windows,6.3
227,1,3444,"""",html-button-response,36,240668,0.0-36.0,"""","<img src='jspsych/CFDfaces/CFD-WM-006-002-N.jpg'height=""250px""></br><b>Marcus</b>",0,2,IntactOrRearranged,Practice,"""","""","""","""",CFD-WM-006-002-N.jpg,Marcus,1,"""","""",0,"""",5/2/2021 4:09,208.221.46.224,Mozilla/5.0 (Windows NT 6.3; Win64; x64; rv:88.0) Gecko/20100101 Firefox/88.0,,Firefox,88,Windows,6.3
227,1,3920,"""",html-slider-response,37,244607,0.0-37.0,"""","<img src='jspsych/CFDfaces/CFD-WM-006-002-N.jpg'height=""250px""></br><b>Marcus</b>","""",2,ConfidenceQuery,Practice,"""","""","""","""",CFD-LM-201-057-N.jpg,Kenneth,1,0,71,"""","""",5/2/2021 4:09,208.221.46.224,Mozilla/5.0 (Windows NT 6.3; Win64; x64; rv:88.0) Gecko/20100101 Firefox/88.0,,Firefox,88,Windows,6.3
227,1,1830,"""",html-button-response,38,246441,0.0-38.0,"""",You are Incorrect. You called a Rearranged Pair Intact,0,2,feedback,Practice,"""","""","""","""","""","""","""","""","""","""","""",5/2/2021 4:09,208.221.46.224,Mozilla/5.0 (Windows NT 6.3; Win64; x64; rv:88.0) Gecko/20100101 Firefox/88.0,,Firefox,88,Windows,6.3
227,1,null,"""",html-keyboard-response,39,247450,0.0-39.0,"""","<div style=""font-size:60px;"">+</div>","""",3,ITI,Practice,null,1000,"""","""","""","""","""","""","""","""","""",5/2/2021 4:09,208.221.46.224,Mozilla/5.0 (Windows NT 6.3; Win64; x64; rv:88.0) Gecko/20100101 Firefox/88.0,,Firefox,88,Windows,6.3
227,1,null,"""",image-keyboard-response,40,247707,0.0-40.0,"""",jspsych/scrambledDisgustFaces/scrambledAF09DIS.JPG,"""",3,forwardMask,Practice,null,250,"""",d,"""","""","""","""","""","""","""",5/2/2021 4:09,208.221.46.224,Mozilla/5.0 (Windows NT 6.3; Win64; x64; rv:88.0) Gecko/20100101 Firefox/88.0,,Firefox,88,Windows,6.3
227,1,null,"""",image-keyboard-response,41,247727,0.0-41.0,"""",jspsych/disgustFaces/AF09DIS.JPG,"""",3,Cue,Practice,null,16,"""","""","""","""","""","""","""","""","""",5/2/2021 4:09,208.221.46.224,Mozilla/5.0 (Windows NT 6.3; Win64; x64; rv:88.0) Gecko/20100101 Firefox/88.0,,Firefox,88,Windows,6.3
227,1,null,"""",image-keyboard-response,42,247832,0.0-42.0,"""",jspsych/neutralFaces/AF25NES.JPG,"""",3,backwardMask,Practice,null,100,"""","""","""","""","""","""","""","""","""",5/2/2021 4:09,208.221.46.224,Mozilla/5.0 (Windows NT 6.3; Win64; x64; rv:88.0) Gecko/20100101 Firefox/88.0,,Firefox,88,Windows,6.3
227,1,null,"""",html-keyboard-response,43,248834,0.0-43.0,"""","<div style=""font-size:60px;"">+</div>","""",3,fixationBtwnNeutralMaskAndPrompt,Practice,null,1000,"""","""","""","""","""","""","""","""","""",5/2/2021 4:09,208.221.46.224,Mozilla/5.0 (Windows NT 6.3; Win64; x64; rv:88.0) Gecko/20100101 Firefox/88.0,,Firefox,88,Windows,6.3
227,1,3412,"""",html-button-response,44,252252,0.0-44.0,"""","<img src='jspsych/CFDfaces/CFD-BM-001-014-N.jpg'height=""250px""></br><b>Patrick</b>",0,3,IntactOrRearranged,Practice,"""","""","""","""",CFD-BM-001-014-N.jpg,Patrick,0,"""","""",0,"""",5/2/2021 4:09,208.221.46.224,Mozilla/5.0 (Windows NT 6.3; Win64; x64; rv:88.0) Gecko/20100101 Firefox/88.0,,Firefox,88,Windows,6.3
227,1,null,"""",html-slider-response,45,257268,0.0-45.0,"""","<img src='jspsych/CFDfaces/CFD-BM-001-014-N.jpg'height=""250px""></br><b>Patrick</b>","""",3,ConfidenceQuery,Practice,"""","""","""","""",CFD-LM-201-057-N.jpg,Kenneth,0,0,null,"""","""",5/2/2021 4:09,208.221.46.224,Mozilla/5.0 (Windows NT 6.3; Win64; x64; rv:88.0) Gecko/20100101 Firefox/88.0,,Firefox,88,Windows,6.3
227,1,7690,"""",html-button-response,46,264964,0.0-46.0,"""",You are Correct. You called an Intact Pair Intact,0,3,feedback,Practice,"""","""","""","""","""","""","""","""","""","""","""",5/2/2021 4:09,208.221.46.224,Mozilla/5.0 (Windows NT 6.3; Win64; x64; rv:88.0) Gecko/20100101 Firefox/88.0,,Firefox,88,Windows,6.3
227,1,null,"""",html-keyboard-response,47,265991,0.0-47.0,"""","<div style=""font-size:60px;"">+</div>","""",4,ITI,Practice,null,1000,"""","""","""","""","""","""","""","""","""",5/2/2021 4:09,208.221.46.224,Mozilla/5.0 (Windows NT 6.3; Win64; x64; rv:88.0) Gecko/20100101 Firefox/88.0,,Firefox,88,Windows,6.3
227,1,null,"""",image-keyboard-response,48,266249,0.0-48.0,"""",jspsych/scrambledDisgustFaces/scrambledAF15DIS.JPG,"""",4,forwardMask,Practice,null,250,"""",d,"""","""","""","""","""","""","""",5/2/2021 4:09,208.221.46.224,Mozilla/5.0 (Windows NT 6.3; Win64; x64; rv:88.0) Gecko/20100101 Firefox/88.0,,Firefox,88,Windows,6.3
227,1,null,"""",image-keyboard-response,49,266272,0.0-49.0,"""",jspsych/disgustFaces/AF15DIS.JPG,"""",4,Cue,Practice,null,16,"""","""","""","""","""","""","""","""","""",5/2/2021 4:09,208.221.46.224,Mozilla/5.0 (Windows NT 6.3; Win64; x64; rv:88.0) Gecko/20100101 Firefox/88.0,,Firefox,88,Windows,6.3
227,1,null,"""",image-keyboard-response,50,266380,0.0-50.0,"""",jspsych/neutralFaces/AF26NES.JPG,"""",4,backwardMask,Practice,null,100,"""","""","""","""","""","""","""","""","""",5/2/2021 4:09,208.221.46.224,Mozilla/5.0 (Windows NT 6.3; Win64; x64; rv:88.0) Gecko/20100101 Firefox/88.0,,Firefox,88,Windows,6.3
227,1,null,"""",html-keyboard-response,51,267383,0.0-51.0,"""","<div style=""font-size:60px;"">+</div>","""",4,fixationBtwnNeutralMaskAndPrompt,Practice,null,1000,"""","""","""","""","""","""","""","""","""",5/2/2021 4:09,208.221.46.224,Mozilla/5.0 (Windows NT 6.3; Win64; x64; rv:88.0) Gecko/20100101 Firefox/88.0,,Firefox,88,Windows,6.3
227,1,null,"""",html-button-response,52,272387,0.0-52.0,"""","<img src='jspsych/CFDfaces/CFD-BM-203-001-N.jpg'height=""250px""></br><b>Samuel</b>",null,4,IntactOrRearranged,Practice,"""","""","""","""",CFD-BM-203-001-N.jpg,Samuel,0,"""","""","""","""",5/2/2021 4:09,208.221.46.224,Mozilla/5.0 (Windows NT 6.3; Win64; x64; rv:88.0) Gecko/20100101 Firefox/88.0,,Firefox,88,Windows,6.3
227,1,2637,"""",html-slider-response,53,275044,0.0-53.0,"""","<img src='jspsych/CFDfaces/CFD-BM-203-001-N.jpg'height=""250px""></br><b>Samuel</b>","""",4,ConfidenceQuery,Practice,"""","""","""","""",CFD-LM-201-057-N.jpg,Kenneth,0,0,33,"""","""",5/2/2021 4:09,208.221.46.224,Mozilla/5.0 (Windows NT 6.3; Win64; x64; rv:88.0) Gecko/20100101 Firefox/88.0,,Firefox,88,Windows,6.3
227,1,1982,"""",html-button-response,54,277033,0.0-54.0,"""",<p>Please click either button: REARRANGED or INTACT before the 5-second time limit.</p>,0,4,feedback,Practice,"""","""","""","""","""","""","""","""","""","""","""",5/2/2021 4:09,208.221.46.224,Mozilla/5.0 (Windows NT 6.3; Win64; x64; rv:88.0) Gecko/20100101 Firefox/88.0,,Firefox,88,Windows,6.3
227,1,null,"""",html-keyboard-response,55,278038,0.0-55.0,"""","<div style=""font-size:60px;"">+</div>","""",5,ITI,Practice,null,1000,"""","""","""","""","""","""","""","""","""",5/2/2021 4:09,208.221.46.224,Mozilla/5.0 (Windows NT 6.3; Win64; x64; rv:88.0) Gecko/20100101 Firefox/88.0,,Firefox,88,Windows,6.3
227,1,null,"""",image-keyboard-response,56,278312,0.0-56.0,"""",jspsych/scrambledDisgustFaces/scrambledAF27DIS.JPG,"""",5,forwardMask,Practice,null,250,"""",d,"""","""","""","""","""","""","""",5/2/2021 4:09,208.221.46.224,Mozilla/5.0 (Windows NT 6.3; Win64; x64; rv:88.0) Gecko/20100101 Firefox/88.0,,Firefox,88,Windows,6.3
227,1,null,"""",image-keyboard-response,57,278336,0.0-57.0,"""",jspsych/disgustFaces/AF27DIS.JPG,"""",5,Cue,Practice,null,16,"""","""","""","""","""","""","""","""","""",5/2/2021 4:09,208.221.46.224,Mozilla/5.0 (Windows NT 6.3; Win64; x64; rv:88.0) Gecko/20100101 Firefox/88.0,,Firefox,88,Windows,6.3
227,1,null,"""",image-keyboard-response,58,278442,0.0-58.0,"""",jspsych/neutralFaces/AF05NES.JPG,"""",5,backwardMask,Practice,null,100,"""","""","""","""","""","""","""","""","""",5/2/2021 4:09,208.221.46.224,Mozilla/5.0 (Windows NT 6.3; Win64; x64; rv:88.0) Gecko/20100101 Firefox/88.0,,Firefox,88,Windows,6.3
227,1,null,"""",html-keyboard-response,59,279444,0.0-59.0,"""","<div style=""font-size:60px;"">+</div>","""",5,fixationBtwnNeutralMaskAndPrompt,Practice,null,1000,"""","""","""","""","""","""","""","""","""",5/2/2021 4:09,208.221.46.224,Mozilla/5.0 (Windows NT 6.3; Win64; x64; rv:88.0) Gecko/20100101 Firefox/88.0,,Firefox,88,Windows,6.3
227,1,3357,"""",html-button-response,60,282805,0.0-60.0,"""","<img src='jspsych/CFDfaces/CFD-LF-231-260-N.jpg'height=""250px""></br><b>Cassandra</b>",1,5,IntactOrRearranged,Practice,"""","""","""","""",CFD-LF-231-260-N.jpg,Cassandra,1,"""","""",1,"""",5/2/2021 4:09,208.221.46.224,Mozilla/5.0 (Windows NT 6.3; Win64; x64; rv:88.0) Gecko/20100101 Firefox/88.0,,Firefox,88,Windows,6.3
227,1,2936,"""",html-slider-response,61,285750,0.0-61.0,"""","<img src='jspsych/CFDfaces/CFD-LF-231-260-N.jpg'height=""250px""></br><b>Cassandra</b>","""",5,ConfidenceQuery,Practice,"""","""","""","""",CFD-LM-201-057-N.jpg,Kenneth,1,0,33,"""","""",5/2/2021 4:09,208.221.46.224,Mozilla/5.0 (Windows NT 6.3; Win64; x64; rv:88.0) Gecko/20100101 Firefox/88.0,,Firefox,88,Windows,6.3
227,1,2151,"""",html-button-response,62,287912,0.0-62.0,"""",You are Correct. You Called A Rearranged Pair Rearranged,0,5,feedback,Practice,"""","""","""","""","""","""","""","""","""","""","""",5/2/2021 4:09,208.221.46.224,Mozilla/5.0 (Windows NT 6.3; Win64; x64; rv:88.0) Gecko/20100101 Firefox/88.0,,Firefox,88,Windows,6.3
227,1,null,"""",html-keyboard-response,63,288916,0.0-63.0,"""","<div style=""font-size:60px;"">+</div>","""",6,ITI,Practice,null,1000,"""","""","""","""","""","""","""","""","""",5/2/2021 4:09,208.221.46.224,Mozilla/5.0 (Windows NT 6.3; Win64; x64; rv:88.0) Gecko/20100101 Firefox/88.0,,Firefox,88,Windows,6.3
227,1,null,"""",image-keyboard-response,64,289173,0.0-64.0,"""",jspsych/scrambledDisgustFaces/scrambledAM19DIS.JPG,"""",6,forwardMask,Practice,null,250,"""",d,"""","""","""","""","""","""","""",5/2/2021 4:09,208.221.46.224,Mozilla/5.0 (Windows NT 6.3; Win64; x64; rv:88.0) Gecko/20100101 Firefox/88.0,,Firefox,88,Windows,6.3
227,1,null,"""",image-keyboard-response,65,289195,0.0-65.0,"""",jspsych/disgustFaces/AM19DIS.JPG,"""",6,Cue,Practice,null,16,"""","""","""","""","""","""","""","""","""",5/2/2021 4:09,208.221.46.224,Mozilla/5.0 (Windows NT 6.3; Win64; x64; rv:88.0) Gecko/20100101 Firefox/88.0,,Firefox,88,Windows,6.3
227,1,null,"""",image-keyboard-response,66,289304,0.0-66.0,"""",jspsych/neutralFaces/BM16NES.JPG,"""",6,backwardMask,Practice,null,100,"""","""","""","""","""","""","""","""","""",5/2/2021 4:09,208.221.46.224,Mozilla/5.0 (Windows NT 6.3; Win64; x64; rv:88.0) Gecko/20100101 Firefox/88.0,,Firefox,88,Windows,6.3
227,1,null,"""",html-keyboard-response,67,290315,0.0-67.0,"""","<div style=""font-size:60px;"">+</div>","""",6,fixationBtwnNeutralMaskAndPrompt,Practice,null,1000,"""","""","""","""","""","""","""","""","""",5/2/2021 4:09,208.221.46.224,Mozilla/5.0 (Windows NT 6.3; Win64; x64; rv:88.0) Gecko/20100101 Firefox/88.0,,Firefox,88,Windows,6.3
227,1,1490,"""",html-button-response,68,291807,0.0-68.0,"""","<img src='jspsych/CFDfaces/CFD-AF-228-173-N.jpg'height=""250px""></br><b>Shannon</b>",1,6,IntactOrRearranged,Practice,"""","""","""","""",CFD-AF-228-173-N.jpg,Shannon,0,"""","""",1,"""",5/2/2021 4:09,208.221.46.224,Mozilla/5.0 (Windows NT 6.3; Win64; x64; rv:88.0) Gecko/20100101 Firefox/88.0,,Firefox,88,Windows,6.3
227,1,2604,"""",html-slider-response,69,294429,0.0-69.0,"""","<img src='jspsych/CFDfaces/CFD-AF-228-173-N.jpg'height=""250px""></br><b>Shannon</b>","""",6,ConfidenceQuery,Practice,"""","""","""","""",CFD-LM-201-057-N.jpg,Kenneth,0,0,48,"""","""",5/2/2021 4:09,208.221.46.224,Mozilla/5.0 (Windows NT 6.3; Win64; x64; rv:88.0) Gecko/20100101 Firefox/88.0,,Firefox,88,Windows,6.3
227,1,16174,"""",html-button-response,70,310614,0.0-70.0,"""",You are Incorrect. You Called an Intact Pair Rearranged,0,6,feedback,Practice,"""","""","""","""","""","""","""","""","""","""","""",5/2/2021 4:09,208.221.46.224,Mozilla/5.0 (Windows NT 6.3; Win64; x64; rv:88.0) Gecko/20100101 Firefox/88.0,,Firefox,88,Windows,6.3
227,1,null,"""",html-keyboard-response,71,311628,0.0-71.0,"""","<div style=""font-size:60px;"">+</div>","""",7,ITI,Practice,null,1000,"""","""","""","""","""","""","""","""","""",5/2/2021 4:09,208.221.46.224,Mozilla/5.0 (Windows NT 6.3; Win64; x64; rv:88.0) Gecko/20100101 Firefox/88.0,,Firefox,88,Windows,6.3
227,1,null,"""",image-keyboard-response,72,311886,0.0-72.0,"""",jspsych/scrambledDisgustFaces/scrambledBF21DIS.JPG,"""",7,forwardMask,Practice,null,250,"""",d,"""","""","""","""","""","""","""",5/2/2021 4:09,208.221.46.224,Mozilla/5.0 (Windows NT 6.3; Win64; x64; rv:88.0) Gecko/20100101 Firefox/88.0,,Firefox,88,Windows,6.3
227,1,null,"""",image-keyboard-response,73,311907,0.0-73.0,"""",jspsych/disgustFaces/BF21DIS.JPG,"""",7,Cue,Practice,null,16,"""","""","""","""","""","""","""","""","""",5/2/2021 4:09,208.221.46.224,Mozilla/5.0 (Windows NT 6.3; Win64; x64; rv:88.0) Gecko/20100101 Firefox/88.0,,Firefox,88,Windows,6.3
227,1,null,"""",image-keyboard-response,74,312013,0.0-74.0,"""",jspsych/neutralFaces/AF21NES.JPG,"""",7,backwardMask,Practice,null,100,"""","""","""","""","""","""","""","""","""",5/2/2021 4:09,208.221.46.224,Mozilla/5.0 (Windows NT 6.3; Win64; x64; rv:88.0) Gecko/20100101 Firefox/88.0,,Firefox,88,Windows,6.3
227,1,null,"""",html-keyboard-response,75,313017,0.0-75.0,"""","<div style=""font-size:60px;"">+</div>","""",7,fixationBtwnNeutralMaskAndPrompt,Practice,null,1000,"""","""","""","""","""","""","""","""","""",5/2/2021 4:09,208.221.46.224,Mozilla/5.0 (Windows NT 6.3; Win64; x64; rv:88.0) Gecko/20100101 Firefox/88.0,,Firefox,88,Windows,6.3
227,1,null,"""",html-button-response,76,318024,0.0-76.0,"""","<img src='jspsych/CFDfaces/CFD-AM-248-104-N.jpg'height=""250px""></br><b>Carlos</b>",null,7,IntactOrRearranged,Practice,"""","""","""","""",CFD-AM-248-104-N.jpg,Carlos,1,"""","""","""","""",5/2/2021 4:09,208.221.46.224,Mozilla/5.0 (Windows NT 6.3; Win64; x64; rv:88.0) Gecko/20100101 Firefox/88.0,,Firefox,88,Windows,6.3
227,1,2424,"""",html-slider-response,77,320480,0.0-77.0,"""","<img src='jspsych/CFDfaces/CFD-AM-248-104-N.jpg'height=""250px""></br><b>Carlos</b>","""",7,ConfidenceQuery,Practice,"""","""","""","""",CFD-LM-201-057-N.jpg,Kenneth,1,0,24,"""","""",5/2/2021 4:09,208.221.46.224,Mozilla/5.0 (Windows NT 6.3; Win64; x64; rv:88.0) Gecko/20100101 Firefox/88.0,,Firefox,88,Windows,6.3
227,1,5193,"""",html-button-response,78,325680,0.0-78.0,"""",<p>Please click either button: REARRANGED or INTACT before the 5-second time limit.</p>,0,7,feedback,Practice,"""","""","""","""","""","""","""","""","""","""","""",5/2/2021 4:09,208.221.46.224,Mozilla/5.0 (Windows NT 6.3; Win64; x64; rv:88.0) Gecko/20100101 Firefox/88.0,,Firefox,88,Windows,6.3
227,1,null,"""",html-keyboard-response,79,326696,0.0-79.0,"""","<div style=""font-size:60px;"">+</div>","""",8,ITI,Practice,null,1000,"""","""","""","""","""","""","""","""","""",5/2/2021 4:09,208.221.46.224,Mozilla/5.0 (Windows NT 6.3; Win64; x64; rv:88.0) Gecko/20100101 Firefox/88.0,,Firefox,88,Windows,6.3
227,1,null,"""",image-keyboard-response,80,326954,0.0-80.0,"""",jspsych/scrambledDisgustFaces/scrambledBM02DIS.JPG,"""",8,forwardMask,Practice,null,250,"""",d,"""","""","""","""","""","""","""",5/2/2021 4:09,208.221.46.224,Mozilla/5.0 (Windows NT 6.3; Win64; x64; rv:88.0) Gecko/20100101 Firefox/88.0,,Firefox,88,Windows,6.3
227,1,null,"""",image-keyboard-response,81,326977,0.0-81.0,"""",jspsych/disgustFaces/BM03DIS.JPG,"""",8,Cue,Practice,null,16,"""","""","""","""","""","""","""","""","""",5/2/2021 4:09,208.221.46.224,Mozilla/5.0 (Windows NT 6.3; Win64; x64; rv:88.0) Gecko/20100101 Firefox/88.0,,Firefox,88,Windows,6.3
227,1,null,"""",image-keyboard-response,82,327085,0.0-82.0,"""",jspsych/neutralFaces/BM30NES.JPG,"""",8,backwardMask,Practice,null,100,"""","""","""","""","""","""","""","""","""",5/2/2021 4:09,208.221.46.224,Mozilla/5.0 (Windows NT 6.3; Win64; x64; rv:88.0) Gecko/20100101 Firefox/88.0,,Firefox,88,Windows,6.3
227,1,null,"""",html-keyboard-response,83,328086,0.0-83.0,"""","<div style=""font-size:60px;"">+</div>","""",8,fixationBtwnNeutralMaskAndPrompt,Practice,null,1000,"""","""","""","""","""","""","""","""","""",5/2/2021 4:09,208.221.46.224,Mozilla/5.0 (Windows NT 6.3; Win64; x64; rv:88.0) Gecko/20100101 Firefox/88.0,,Firefox,88,Windows,6.3
227,1,4287,"""",html-button-response,84,332379,0.0-84.0,"""","<img src='jspsych/CFDfaces/CFD-LF-200-058-N.jpg'height=""250px""></br><b>Katelyn</b>",0,8,IntactOrRearranged,Practice,"""","""","""","""",CFD-LF-200-058-N.jpg,Katelyn,1,"""","""",0,"""",5/2/2021 4:09,208.221.46.224,Mozilla/5.0 (Windows NT 6.3; Win64; x64; rv:88.0) Gecko/20100101 Firefox/88.0,,Firefox,88,Windows,6.3
227,1,2655,"""",html-slider-response,85,335051,0.0-85.0,"""","<img src='jspsych/CFDfaces/CFD-LF-200-058-N.jpg'height=""250px""></br><b>Katelyn</b>","""",8,ConfidenceQuery,Practice,"""","""","""","""",CFD-LM-201-057-N.jpg,Kenneth,1,0,26,"""","""",5/2/2021 4:09,208.221.46.224,Mozilla/5.0 (Windows NT 6.3; Win64; x64; rv:88.0) Gecko/20100101 Firefox/88.0,,Firefox,88,Windows,6.3
227,1,2846,"""",html-button-response,86,337905,0.0-86.0,"""",You are Incorrect. You called a Rearranged Pair Intact,0,8,feedback,Practice,"""","""","""","""","""","""","""","""","""","""","""",5/2/2021 4:09,208.221.46.224,Mozilla/5.0 (Windows NT 6.3; Win64; x64; rv:88.0) Gecko/20100101 Firefox/88.0,,Firefox,88,Windows,6.3
227,1,3911,"""",image-button-response,87,341879,0.0-87.0,"""",directionsMemoryAssociation3.JPG,0,128,DirectionsBeforeActualTEst,Break,"""","""","""","""","""","""","""","""","""","""","""",5/2/2021 4:09,208.221.46.224,Mozilla/5.0 (Windows NT 6.3; Win64; x64; rv:88.0) Gecko/20100101 Firefox/88.0,,Firefox,88,Windows,6.3
227,1,3483,"""",image-button-response,88,345405,0.0-88.0,"""",directionsForTest2.JPG,0,1,directionsForTest2,break,"""","""","""","""","""","""","""","""","""","""","""",5/2/2021 4:09,208.221.46.224,Mozilla/5.0 (Windows NT 6.3; Win64; x64; rv:88.0) Gecko/20100101 Firefox/88.0,,Firefox,88,Windows,6.3
227,1,20004,"""",html-button-response,89,365428,0.0-89.0,"""","<p>You will be asked to memorize and then recall four sets of face-name pairs. </p> <p> Each set will have 32 pairs. </p> <p>After the fourth set, there will be a brief follow-up experiment (<40 min alltogether)</p>",0,"""","""","""","""","""","""","""","""","""","""","""","""","""","""",5/2/2021 4:09,208.221.46.224,Mozilla/5.0 (Windows NT 6.3; Win64; x64; rv:88.0) Gecko/20100101 Firefox/88.0,,Firefox,88,Windows,6.3
227,1,3211,"""",html-keyboard-response,90,370442,0.0-90.0,"""","<img src='jspsych/CFDfaces/CFD-AM-243-212-N.jpg' height=""250px""></br><b>Juan</b>","""",256,IntactFace,Memorization,70,5000,f,"""",CFD-LF-208-127-N.jpg,Laura,0,"""","""","""",1,5/2/2021 4:09,208.221.46.224,Mozilla/5.0 (Windows NT 6.3; Win64; x64; rv:88.0) Gecko/20100101 Firefox/88.0,,Firefox,88,Windows,6.3
227,1,null,"""",html-keyboard-response,91,370956,0.0-91.0,"""","<div style=""font-size:60px;"">+</div>","""",256,fixation,Memorization,null,500,"""","""","""","""","""","""","""","""",1,5/2/2021 4:09,208.221.46.224,Mozilla/5.0 (Windows NT 6.3; Win64; x64; rv:88.0) Gecko/20100101 Firefox/88.0,,Firefox,88,Windows,6.3
227,1,2037,"""",html-keyboard-response,92,375960,0.0-92.0,"""","<img src='jspsych/CFDfaces/CFD-AM-214-168-N.jpg' height=""250px""></br><b>Nicholas</b>","""",256,IntactFace,Memorization,70,5000,f,"""",CFD-LF-203-066-N.jpg,Rebecca,0,"""","""","""",1,5/2/2021 4:09,208.221.46.224,Mozilla/5.0 (Windows NT 6.3; Win64; x64; rv:88.0) Gecko/20100101 Firefox/88.0,,Firefox,88,Windows,6.3
227,1,null,"""",html-keyboard-response,93,376468,0.0-93.0,"""","<div style=""font-size:60px;"">+</div>","""",256,fixation,Memorization,null,500,"""","""","""","""","""","""","""","""",1,5/2/2021 4:09,208.221.46.224,Mozilla/5.0 (Windows NT 6.3; Win64; x64; rv:88.0) Gecko/20100101 Firefox/88.0,,Firefox,88,Windows,6.3
227,1,1422,"""",html-keyboard-response,94,381476,0.0-94.0,"""","<img src='jspsych/CFDfaces/CFD-WM-232-070-N.jpg' height=""250px""></br><b>Brandon</b>","""",256,IntactFace,Memorization,70,5000,f,"""",CFD-AF-203-077-N.jpg,Sara,0,"""","""","""",1,5/2/2021 4:09,208.221.46.224,Mozilla/5.0 (Windows NT 6.3; Win64; x64; rv:88.0) Gecko/20100101 Firefox/88.0,,Firefox,88,Windows,6.3
227,1,null,"""",html-keyboard-response,95,381997,0.0-95.0,"""","<div style=""font-size:60px;"">+</div>","""",256,fixation,Memorization,null,500,"""","""","""","""","""","""","""","""",1,5/2/2021 4:09,208.221.46.224,Mozilla/5.0 (Windows NT 6.3; Win64; x64; rv:88.0) Gecko/20100101 Firefox/88.0,,Firefox,88,Windows,6.3
227,1,491,"""",html-keyboard-response,96,387003,0.0-96.0,"""","<img src='jspsych/CFDfaces/CFD-AF-226-251-N.jpg' height=""250px""></br><b>Ashley</b>","""",256,IntactFace,Memorization,70,5000,f,"""",CFD-BF-218-207-N.jpg,Melissa,0,"""","""","""",1,5/2/2021 4:09,208.221.46.224,Mozilla/5.0 (Windows NT 6.3; Win64; x64; rv:88.0) Gecko/20100101 Firefox/88.0,,Firefox,88,Windows,6.3
227,1,null,"""",html-keyboard-response,97,387515,0.0-97.0,"""","<div style=""font-size:60px;"">+</div>","""",256,fixation,Memorization,null,500,"""","""","""","""","""","""","""","""",1,5/2/2021 4:09,208.221.46.224,Mozilla/5.0 (Windows NT 6.3; Win64; x64; rv:88.0) Gecko/20100101 Firefox/88.0,,Firefox,88,Windows,6.3
227,1,1784,"""",html-keyboard-response,98,392522,0.0-98.0,"""","<img src='jspsych/CFDfaces/CFD-LM-239-075-N.jpg' height=""250px""></br><b>Jason</b>","""",256,IntactFace,Memorization,70,5000,f,"""",CFD-BF-023-010-N.jpg,Jenna,0,"""","""","""",1,5/2/2021 4:09,208.221.46.224,Mozilla/5.0 (Windows NT 6.3; Win64; x64; rv:88.0) Gecko/20100101 Firefox/88.0,,Firefox,88,Windows,6.3
227,1,null,"""",html-keyboard-response,99,393033,0.0-99.0,"""","<div style=""font-size:60px;"">+</div>","""",256,fixation,Memorization,null,500,"""","""","""","""","""","""","""","""",1,5/2/2021 4:09,208.221.46.224,Mozilla/5.0 (Windows NT 6.3; Win64; x64; rv:88.0) Gecko/20100101 Firefox/88.0,,Firefox,88,Windows,6.3
227,1,1590,"""",html-keyboard-response,100,398040,0.0-100.0,"""","<img src='jspsych/CFDfaces/CFD-LM-224-162-N.jpg' height=""250px""></br><b>Eric</b>","""",256,IntactFace,Memorization,70,5000,f,"""",CFD-LF-215-157-N.jpg,Taylor,0,"""","""","""",1,5/2/2021 4:09,208.221.46.224,Mozilla/5.0 (Windows NT 6.3; Win64; x64; rv:88.0) Gecko/20100101 Firefox/88.0,,Firefox,88,Windows,6.3
227,1,null,"""",html-keyboard-response,101,398552,0.0-101.0,"""","<div style=""font-size:60px;"">+</div>","""",256,fixation,Memorization,null,500,"""","""","""","""","""","""","""","""",1,5/2/2021 4:09,208.221.46.224,Mozilla/5.0 (Windows NT 6.3; Win64; x64; rv:88.0) Gecko/20100101 Firefox/88.0,,Firefox,88,Windows,6.3
227,1,1048,"""",html-keyboard-response,102,403560,0.0-102.0,"""","<img src='jspsych/CFDfaces/CFD-WF-029-002-N.jpg' height=""250px""></br><b>Emily</b>","""",256,IntactFace,Memorization,70,5000,f,"""",CFD-LF-213-079-N.jpg,Amy,0,"""","""","""",1,5/2/2021 4:09,208.221.46.224,Mozilla/5.0 (Windows NT 6.3; Win64; x64; rv:88.0) Gecko/20100101 Firefox/88.0,,Firefox,88,Windows,6.3
227,1,null,"""",html-keyboard-response,103,404074,0.0-103.0,"""","<div style=""font-size:60px;"">+</div>","""",256,fixation,Memorization,null,500,"""","""","""","""","""","""","""","""",1,5/2/2021 4:09,208.221.46.224,Mozilla/5.0 (Windows NT 6.3; Win64; x64; rv:88.0) Gecko/20100101 Firefox/88.0,,Firefox,88,Windows,6.3
227,1,2297,"""",html-keyboard-response,104,409080,0.0-104.0,"""","<img src='jspsych/CFDfaces/CFD-AM-229-224-N.jpg' height=""250px""></br><b>Daniel</b>","""",256,IntactFace,Memorization,70,5000,f,"""",CFD-WM-015-002-N.jpg,Cameron,0,"""","""","""",1,5/2/2021 4:09,208.221.46.224,Mozilla/5.0 (Windows NT 6.3; Win64; x64; rv:88.0) Gecko/20100101 Firefox/88.0,,Firefox,88,Windows,6.3
227,1,null,"""",html-keyboard-response,105,409591,0.0-105.0,"""","<div style=""font-size:60px;"">+</div>","""",256,fixation,Memorization,null,500,"""","""","""","""","""","""","""","""",1,5/2/2021 4:09,208.221.46.224,Mozilla/5.0 (Windows NT 6.3; Win64; x64; rv:88.0) Gecko/20100101 Firefox/88.0,,Firefox,88,Windows,6.3
227,1,1003,"""",html-keyboard-response,106,414598,0.0-106.0,"""","<img src='jspsych/CFDfaces/CFD-LM-209-111-N.jpg' height=""250px""></br><b>Jeffrey</b>","""",256,IntactFace,Memorization,70,5000,f,"""",CFD-AF-243-170-N.jpg,Whitney,0,"""","""","""",1,5/2/2021 4:09,208.221.46.224,Mozilla/5.0 (Windows NT 6.3; Win64; x64; rv:88.0) Gecko/20100101 Firefox/88.0,,Firefox,88,Windows,6.3
227,1,null,"""",html-keyboard-response,107,415111,0.0-107.0,"""","<div style=""font-size:60px;"">+</div>","""",256,fixation,Memorization,null,500,"""","""","""","""","""","""","""","""",1,5/2/2021 4:09,208.221.46.224,Mozilla/5.0 (Windows NT 6.3; Win64; x64; rv:88.0) Gecko/20100101 Firefox/88.0,,Firefox,88,Windows,6.3
227,1,1234,"""",html-keyboard-response,108,420119,0.0-108.0,"""","<img src='jspsych/CFDfaces/CFD-LF-204-133-N.jpg' height=""250px""></br><b>Amanda</b>","""",256,IntactFace,Memorization,70,5000,f,"""",CFD-AM-221-184-N.jpg,Steven,0,"""","""","""",1,5/2/2021 4:09,208.221.46.224,Mozilla/5.0 (Windows NT 6.3; Win64; x64; rv:88.0) Gecko/20100101 Firefox/88.0,,Firefox,88,Windows,6.3
227,1,null,"""",html-keyboard-response,109,420632,0.0-109.0,"""","<div style=""font-size:60px;"">+</div>","""",256,fixation,Memorization,null,500,"""","""","""","""","""","""","""","""",1,5/2/2021 4:09,208.221.46.224,Mozilla/5.0 (Windows NT 6.3; Win64; x64; rv:88.0) Gecko/20100101 Firefox/88.0,,Firefox,88,Windows,6.3
227,1,615,"""",html-keyboard-response,110,425642,0.0-110.0,"""","<img src='jspsych/CFDfaces/CFD-LF-218-072-N.jpg' height=""250px""></br><b>Samantha</b>","""",256,IntactFace,Memorization,70,5000,f,"""",CFD-BF-221-223-N.jpg,Angela,0,"""","""","""",1,5/2/2021 4:09,208.221.46.224,Mozilla/5.0 (Windows NT 6.3; Win64; x64; rv:88.0) Gecko/20100101 Firefox/88.0,,Firefox,88,Windows,6.3
227,1,null,"""",html-keyboard-response,111,426155,0.0-111.0,"""","<div style=""font-size:60px;"">+</div>","""",256,fixation,Memorization,null,500,"""","""","""","""","""","""","""","""",1,5/2/2021 4:09,208.221.46.224,Mozilla/5.0 (Windows NT 6.3; Win64; x64; rv:88.0) Gecko/20100101 Firefox/88.0,,Firefox,88,Windows,6.3
227,1,457,"""",html-keyboard-response,112,431161,0.0-112.0,"""","<img src='jspsych/CFDfaces/CFD-LF-232-199-N.jpg' height=""250px""></br><b>Meghan</b>","""",256,IntactFace,Memorization,70,5000,f,"""",CFD-BM-043-071-N.jpg,Justin,0,"""","""","""",1,5/2/2021 4:09,208.221.46.224,Mozilla/5.0 (Windows NT 6.3; Win64; x64; rv:88.0) Gecko/20100101 Firefox/88.0,,Firefox,88,Windows,6.3
227,1,null,"""",html-keyboard-response,113,431675,0.0-113.0,"""","<div style=""font-size:60px;"">+</div>","""",256,fixation,Memorization,null,500,"""","""","""","""","""","""","""","""",1,5/2/2021 4:09,208.221.46.224,Mozilla/5.0 (Windows NT 6.3; Win64; x64; rv:88.0) Gecko/20100101 Firefox/88.0,,Firefox,88,Windows,6.3
227,1,1672,"""",html-keyboard-response,114,436685,0.0-114.0,"""","<img src='jspsych/CFDfaces/CFD-AF-214-139-N.jpg' height=""250px""></br><b>Christina</b>","""",256,IntactFace,Memorization,70,5000,f,"""",CFD-WM-212-097-N.jpg,Travis,0,"""","""","""",1,5/2/2021 4:09,208.221.46.224,Mozilla/5.0 (Windows NT 6.3; Win64; x64; rv:88.0) Gecko/20100101 Firefox/88.0,,Firefox,88,Windows,6.3
227,1,null,"""",html-keyboard-response,115,437201,0.0-115.0,"""","<div style=""font-size:60px;"">+</div>","""",256,fixation,Memorization,null,500,"""","""","""","""","""","""","""","""",1,5/2/2021 4:09,208.221.46.224,Mozilla/5.0 (Windows NT 6.3; Win64; x64; rv:88.0) Gecko/20100101 Firefox/88.0,,Firefox,88,Windows,6.3
227,1,1419,"""",html-keyboard-response,116,442205,0.0-116.0,"""","<img src='jspsych/CFDfaces/CFD-AF-242-158-N.jpg' height=""250px""></br><b>Michelle</b>","""",256,IntactFace,Memorization,70,5000,f,"""",CFD-LM-246-087-N.jpg,Luis,0,"""","""","""",1,5/2/2021 4:09,208.221.46.224,Mozilla/5.0 (Windows NT 6.3; Win64; x64; rv:88.0) Gecko/20100101 Firefox/88.0,,Firefox,88,Windows,6.3
227,1,null,"""",html-keyboard-response,117,442723,0.0-117.0,"""","<div style=""font-size:60px;"">+</div>","""",256,fixation,Memorization,null,500,"""","""","""","""","""","""","""","""",1,5/2/2021 4:09,208.221.46.224,Mozilla/5.0 (Windows NT 6.3; Win64; x64; rv:88.0) Gecko/20100101 Firefox/88.0,,Firefox,88,Windows,6.3
227,1,2385,"""",html-keyboard-response,118,447732,0.0-118.0,"""","<img src='jspsych/CFDfaces/CFD-BF-209-172-N.jpg' height=""250px""></br><b>Andrea</b>","""",256,IntactFace,Memorization,78,5000,n,"""",CFD-WF-215-145-N.jpg,Lauren,0,"""","""","""",1,5/2/2021 4:09,208.221.46.224,Mozilla/5.0 (Windows NT 6.3; Win64; x64; rv:88.0) Gecko/20100101 Firefox/88.0,,Firefox,88,Windows,6.3
227,1,null,"""",html-keyboard-response,119,448243,0.0-119.0,"""","<div style=""font-size:60px;"">+</div>","""",256,fixation,Memorization,null,500,"""","""","""","""","""","""","""","""",1,5/2/2021 4:09,208.221.46.224,Mozilla/5.0 (Windows NT 6.3; Win64; x64; rv:88.0) Gecko/20100101 Firefox/88.0,,Firefox,88,Windows,6.3
227,1,2156,"""",html-keyboard-response,120,453251,0.0-120.0,"""","<img src='jspsych/CFDfaces/CFD-AM-234-355-N.jpg' height=""250px""></br><b>Peter</b>","""",256,IntactFace,Memorization,70,5000,f,"""",CFD-BF-001-025-N.jpg,Tiffany,0,"""","""","""",1,5/2/2021 4:09,208.221.46.224,Mozilla/5.0 (Windows NT 6.3; Win64; x64; rv:88.0) Gecko/20100101 Firefox/88.0,,Firefox,88,Windows,6.3
227,1,null,"""",html-keyboard-response,121,453754,0.0-121.0,"""","<div style=""font-size:60px;"">+</div>","""",256,fixation,Memorization,null,500,"""","""","""","""","""","""","""","""",1,5/2/2021 4:09,208.221.46.224,Mozilla/5.0 (Windows NT 6.3; Win64; x64; rv:88.0) Gecko/20100101 Firefox/88.0,,Firefox,88,Windows,6.3
227,1,2282,"""",html-keyboard-response,122,458771,0.0-122.0,"""","<img src='jspsych/CFDfaces/CFD-BM-041-035-N.jpg' height=""250px""></br><b>Christian</b>","""",256,IntactFace,Memorization,78,5000,n,"""",CFD-WF-016-015-N.jpg,Jasmine,0,"""","""","""",1,5/2/2021 4:09,208.221.46.224,Mozilla/5.0 (Windows NT 6.3; Win64; x64; rv:88.0) Gecko/20100101 Firefox/88.0,,Firefox,88,Windows,6.3
227,1,null,"""",html-keyboard-response,123,459277,0.0-123.0,"""","<div style=""font-size:60px;"">+</div>","""",256,fixation,Memorization,null,500,"""","""","""","""","""","""","""","""",1,5/2/2021 4:09,208.221.46.224,Mozilla/5.0 (Windows NT 6.3; Win64; x64; rv:88.0) Gecko/20100101 Firefox/88.0,,Firefox,88,Windows,6.3
227,1,1903,"""",html-keyboard-response,124,464290,0.0-124.0,"""","<img src='jspsych/CFDfaces/CFD-BF-009-002-N.jpg' height=""250px""></br><b>Vanessa</b>","""",256,IntactFace,Memorization,78,5000,n,"""",CFD-WF-038-021-N.jpg,Erin,0,"""","""","""",1,5/2/2021 4:09,208.221.46.224,Mozilla/5.0 (Windows NT 6.3; Win64; x64; rv:88.0) Gecko/20100101 Firefox/88.0,,Firefox,88,Windows,6.3
227,1,null,"""",html-keyboard-response,125,464793,0.0-125.0,"""","<div style=""font-size:60px;"">+</div>","""",256,fixation,Memorization,null,500,"""","""","""","""","""","""","""","""",1,5/2/2021 4:09,208.221.46.224,Mozilla/5.0 (Windows NT 6.3; Win64; x64; rv:88.0) Gecko/20100101 Firefox/88.0,,Firefox,88,Windows,6.3
227,1,2912,"""",html-keyboard-response,126,469800,0.0-126.0,"""","<img src='jspsych/CFDfaces/CFD-LF-220-120-N.jpg' height=""250px""></br><b>Brittany</b>","""",256,IntactFace,Memorization,78,5000,n,"""",CFD-AM-230-150-N.jpg,Sean,0,"""","""","""",1,5/2/2021 4:09,208.221.46.224,Mozilla/5.0 (Windows NT 6.3; Win64; x64; rv:88.0) Gecko/20100101 Firefox/88.0,,Firefox,88,Windows,6.3
227,1,null,"""",html-keyboard-response,127,470319,0.0-127.0,"""","<div style=""font-size:60px;"">+</div>","""",256,fixation,Memorization,null,500,"""","""","""","""","""","""","""","""",1,5/2/2021 4:09,208.221.46.224,Mozilla/5.0 (Windows NT 6.3; Win64; x64; rv:88.0) Gecko/20100101 Firefox/88.0,,Firefox,88,Windows,6.3
227,1,1027,"""",html-keyboard-response,128,475335,0.0-128.0,"""","<img src='jspsych/CFDfaces/CFD-WF-202-056-N.jpg' height=""250px""></br><b>Victoria</b>","""",256,IntactFace,Memorization,78,5000,n,"""",CFD-LM-223-175-N.jpg,Ryan,0,"""","""","""",1,5/2/2021 4:09,208.221.46.224,Mozilla/5.0 (Windows NT 6.3; Win64; x64; rv:88.0) Gecko/20100101 Firefox/88.0,,Firefox,88,Windows,6.3
227,1,null,"""",html-keyboard-response,129,475846,0.0-129.0,"""","<div style=""font-size:60px;"">+</div>","""",256,fixation,Memorization,null,500,"""","""","""","""","""","""","""","""",1,5/2/2021 4:09,208.221.46.224,Mozilla/5.0 (Windows NT 6.3; Win64; x64; rv:88.0) Gecko/20100101 Firefox/88.0,,Firefox,88,Windows,6.3
227,1,3015,"""",html-keyboard-response,130,480852,0.0-130.0,"""","<img src='jspsych/CFDfaces/CFD-AF-208-003-N.jpg' height=""250px""></br><b>Elizabeth</b>","""",256,IntactFace,Memorization,78,5000,n,"""",CFD-LM-200-045-N.jpg,Mark,0,"""","""","""",1,5/2/2021 4:09,208.221.46.224,Mozilla/5.0 (Windows NT 6.3; Win64; x64; rv:88.0) Gecko/20100101 Firefox/88.0,,Firefox,88,Windows,6.3
227,1,null,"""",html-keyboard-response,131,481364,0.0-131.0,"""","<div style=""font-size:60px;"">+</div>","""",256,fixation,Memorization,null,500,"""","""","""","""","""","""","""","""",1,5/2/2021 4:09,208.221.46.224,Mozilla/5.0 (Windows NT 6.3; Win64; x64; rv:88.0) Gecko/20100101 Firefox/88.0,,Firefox,88,Windows,6.3
227,1,3006,"""",html-keyboard-response,132,486371,0.0-132.0,"""","<img src='jspsych/CFDfaces/CFD-LM-221-216-N.jpg' height=""250px""></br><b>Brian</b>","""",256,IntactFace,Memorization,70,5000,f,"""",CFD-LM-217-162-N.jpg,Vincent,0,"""","""","""",1,5/2/2021 4:09,208.221.46.224,Mozilla/5.0 (Windows NT 6.3; Win64; x64; rv:88.0) Gecko/20100101 Firefox/88.0,,Firefox,88,Windows,6.3
227,1,null,"""",html-keyboard-response,133,486876,0.0-133.0,"""","<div style=""font-size:60px;"">+</div>","""",256,fixation,Memorization,null,500,"""","""","""","""","""","""","""","""",1,5/2/2021 4:09,208.221.46.224,Mozilla/5.0 (Windows NT 6.3; Win64; x64; rv:88.0) Gecko/20100101 Firefox/88.0,,Firefox,88,Windows,6.3
227,1,3597,"""",html-keyboard-response,134,491894,0.0-134.0,"""","<img src='jspsych/CFDfaces/CFD-LF-230-203-N.jpg' height=""250px""></br><b>Julie</b>","""",256,IntactFace,Memorization,70,5000,f,"""",CFD-BM-022-022-N.jpg,Dustin,0,"""","""","""",1,5/2/2021 4:09,208.221.46.224,Mozilla/5.0 (Windows NT 6.3; Win64; x64; rv:88.0) Gecko/20100101 Firefox/88.0,,Firefox,88,Windows,6.3
227,1,null,"""",html-keyboard-response,135,492405,0.0-135.0,"""","<div style=""font-size:60px;"">+</div>","""",256,fixation,Memorization,null,500,"""","""","""","""","""","""","""","""",1,5/2/2021 4:09,208.221.46.224,Mozilla/5.0 (Windows NT 6.3; Win64; x64; rv:88.0) Gecko/20100101 Firefox/88.0,,Firefox,88,Windows,6.3
227,1,1456,"""",html-keyboard-response,136,497418,0.0-136.0,"""","<img src='jspsych/CFDfaces/CFD-LM-248-089-N.jpg' height=""250px""></br><b>James</b>","""",256,IntactFace,Memorization,70,5000,f,"""",CFD-LF-243-175-N.jpg,Jordan,0,"""","""","""",1,5/2/2021 4:09,208.221.46.224,Mozilla/5.0 (Windows NT 6.3; Win64; x64; rv:88.0) Gecko/20100101 Firefox/88.0,,Firefox,88,Windows,6.3
227,1,null,"""",html-keyboard-response,137,497935,0.0-137.0,"""","<div style=""font-size:60px;"">+</div>","""",256,fixation,Memorization,null,500,"""","""","""","""","""","""","""","""",1,5/2/2021 4:09,208.221.46.224,Mozilla/5.0 (Windows NT 6.3; Win64; x64; rv:88.0) Gecko/20100101 Firefox/88.0,,Firefox,88,Windows,6.3
227,1,2929,"""",html-keyboard-response,138,502941,0.0-138.0,"""","<img src='jspsych/CFDfaces/CFD-BF-047-003-N.jpg' height=""250px""></br><b>Kimberly</b>","""",256,IntactFace,Memorization,78,5000,n,"""",CFD-AM-205-153-N.jpg,Jacob,0,"""","""","""",1,5/2/2021 4:09,208.221.46.224,Mozilla/5.0 (Windows NT 6.3; Win64; x64; rv:88.0) Gecko/20100101 Firefox/88.0,,Firefox,88,Windows,6.3
227,1,null,"""",html-keyboard-response,139,503452,0.0-139.0,"""","<div style=""font-size:60px;"">+</div>","""",256,fixation,Memorization,null,500,"""","""","""","""","""","""","""","""",1,5/2/2021 4:09,208.221.46.224,Mozilla/5.0 (Windows NT 6.3; Win64; x64; rv:88.0) Gecko/20100101 Firefox/88.0,,Firefox,88,Windows,6.3
227,1,null,"""",html-keyboard-response,140,508457,0.0-140.0,"""","<img src='jspsych/CFDfaces/CFD-BF-212-315-N.jpg' height=""250px""></br><b>Stephanie</b>","""",256,IntactFace,Memorization,null,5000,"""","""",CFD-AF-209-006-N.jpg,Lindsey,0,"""","""","""",1,5/2/2021 4:09,208.221.46.224,Mozilla/5.0 (Windows NT 6.3; Win64; x64; rv:88.0) Gecko/20100101 Firefox/88.0,,Firefox,88,Windows,6.3
227,1,null,"""",html-keyboard-response,141,508971,0.0-141.0,"""","<div style=""font-size:60px;"">+</div>","""",256,fixation,Memorization,null,500,"""","""","""","""","""","""","""","""",1,5/2/2021 4:09,208.221.46.224,Mozilla/5.0 (Windows NT 6.3; Win64; x64; rv:88.0) Gecko/20100101 Firefox/88.0,,Firefox,88,Windows,6.3
227,1,null,"""",html-keyboard-response,142,513979,0.0-142.0,"""","<img src='jspsych/CFDfaces/CFD-WM-032-001-N.jpg' height=""250px""></br><b>Ian</b>","""",256,IntactFace,Memorization,null,5000,"""","""",CFD-BF-008-001-N.jpg,Heather,0,"""","""","""",1,5/2/2021 4:09,208.221.46.224,Mozilla/5.0 (Windows NT 6.3; Win64; x64; rv:88.0) Gecko/20100101 Firefox/88.0,,Firefox,88,Windows,6.3
227,1,null,"""",html-keyboard-response,143,514494,0.0-143.0,"""","<div style=""font-size:60px;"">+</div>","""",256,fixation,Memorization,null,500,"""","""","""","""","""","""","""","""",1,5/2/2021 4:09,208.221.46.224,Mozilla/5.0 (Windows NT 6.3; Win64; x64; rv:88.0) Gecko/20100101 Firefox/88.0,,Firefox,88,Windows,6.3
227,1,1098,"""",html-keyboard-response,144,519500,0.0-144.0,"""","<img src='jspsych/CFDfaces/CFD-AF-239-171-N.jpg' height=""250px""></br><b>Kayla</b>","""",256,IntactFace,Memorization,70,5000,f,"""",CFD-BM-210-148-N.jpg,Kenneth,0,"""","""","""",1,5/2/2021 4:09,208.221.46.224,Mozilla/5.0 (Windows NT 6.3; Win64; x64; rv:88.0) Gecko/20100101 Firefox/88.0,,Firefox,88,Windows,6.3
227,1,null,"""",html-keyboard-response,145,520015,0.0-145.0,"""","<div style=""font-size:60px;"">+</div>","""",256,fixation,Memorization,null,500,"""","""","""","""","""","""","""","""",1,5/2/2021 4:09,208.221.46.224,Mozilla/5.0 (Windows NT 6.3; Win64; x64; rv:88.0) Gecko/20100101 Firefox/88.0,,Firefox,88,Windows,6.3
227,1,null,"""",html-keyboard-response,146,525025,0.0-146.0,"""","<img src='jspsych/CFDfaces/CFD-BM-027-001-N.jpg' height=""250px""></br><b>Robert</b>","""",256,IntactFace,Memorization,null,5000,"""","""",CFD-LM-201-057-N.jpg,Jesse,0,"""","""","""",1,5/2/2021 4:09,208.221.46.224,Mozilla/5.0 (Windows NT 6.3; Win64; x64; rv:88.0) Gecko/20100101 Firefox/88.0,,Firefox,88,Windows,6.3
227,1,null,"""",html-keyboard-response,147,525541,0.0-147.0,"""","<div style=""font-size:60px;"">+</div>","""",256,fixation,Memorization,null,500,"""","""","""","""","""","""","""","""",1,5/2/2021 4:09,208.221.46.224,Mozilla/5.0 (Windows NT 6.3; Win64; x64; rv:88.0) Gecko/20100101 Firefox/88.0,,Firefox,88,Windows,6.3
227,1,548,"""",html-keyboard-response,148,530545,0.0-148.0,"""","<img src='jspsych/CFDfaces/CFD-BM-010-003-N.jpg' height=""250px""></br><b>Gregory</b>","""",256,IntactFace,Memorization,70,5000,f,"""",CFD-AM-231-136-N.jpg,Timothy,0,"""","""","""",1,5/2/2021 4:09,208.221.46.224,Mozilla/5.0 (Windows NT 6.3; Win64; x64; rv:88.0) Gecko/20100101 Firefox/88.0,,Firefox,88,Windows,6.3
227,1,null,"""",html-keyboard-response,149,531048,0.0-149.0,"""","<div style=""font-size:60px;"">+</div>","""",256,fixation,Memorization,null,500,"""","""","""","""","""","""","""","""",1,5/2/2021 4:09,208.221.46.224,Mozilla/5.0 (Windows NT 6.3; Win64; x64; rv:88.0) Gecko/20100101 Firefox/88.0,,Firefox,88,Windows,6.3
227,1,2647,"""",html-keyboard-response,150,536065,0.0-150.0,"""","<img src='jspsych/CFDfaces/CFD-AM-212-050-N.jpg' height=""250px""></br><b>Joshua</b>","""",256,IntactFace,Memorization,78,5000,n,"""",CFD-LM-219-295-N.jpg,Jeremy,0,"""","""","""",1,5/2/2021 4:09,208.221.46.224,Mozilla/5.0 (Windows NT 6.3; Win64; x64; rv:88.0) Gecko/20100101 Firefox/88.0,,Firefox,88,Windows,6.3
227,1,null,"""",html-keyboard-response,151,536572,0.0-151.0,"""","<div style=""font-size:60px;"">+</div>","""",256,fixation,Memorization,null,500,"""","""","""","""","""","""","""","""",1,5/2/2021 4:09,208.221.46.224,Mozilla/5.0 (Windows NT 6.3; Win64; x64; rv:88.0) Gecko/20100101 Firefox/88.0,,Firefox,88,Windows,6.3
227,1,2872,"""",html-keyboard-response,152,541579,0.0-152.0,"""","<img src='jspsych/CFDfaces/CFD-BM-011-016-N.jpg' height=""250px""></br><b>Richard</b>","""",256,IntactFace,Memorization,78,5000,n,"""",CFD-BM-002-013-N.jpg,Austin,0,"""","""","""",1,5/2/2021 4:09,208.221.46.224,Mozilla/5.0 (Windows NT 6.3; Win64; x64; rv:88.0) Gecko/20100101 Firefox/88.0,,Firefox,88,Windows,6.3
227,1,null,"""",html-keyboard-response,153,542093,0.0-153.0,"""","<div style=""font-size:60px;"">+</div>","""",256,fixation,Memorization,null,500,"""","""","""","""","""","""","""","""",1,5/2/2021 4:09,208.221.46.224,Mozilla/5.0 (Windows NT 6.3; Win64; x64; rv:88.0) Gecko/20100101 Firefox/88.0,,Firefox,88,Windows,6.3
227,1,13041,"""",html-keyboard-response,154,555141,0.0-154.0,"""",Press Any Key to Begin Memory Test,"""",1,welcomeScreen,Break,83,"""","""","""","""","""","""","""","""","""",1,5/2/2021 4:09,208.221.46.224,Mozilla/5.0 (Windows NT 6.3; Win64; x64; rv:88.0) Gecko/20100101 Firefox/88.0,,Firefox,88,Windows,6.3
227,1,null,"""",html-keyboard-response,155,556159,0.0-155.0,"""","<div style=""font-size:60px;"">+</div>","""",256,ITI,Test,null,1000,"""","""","""","""","""","""","""","""",1,5/2/2021 4:09,208.221.46.224,Mozilla/5.0 (Windows NT 6.3; Win64; x64; rv:88.0) Gecko/20100101 Firefox/88.0,,Firefox,88,Windows,6.3
227,1,null,"""",image-keyboard-response,156,556420,0.0-156.0,"""",jspsych/scrambledDisgustFaces/scrambledBM18DIS.JPG,"""",256,forwardMask,Test,null,250,"""",d,"""","""","""","""","""","""",1,5/2/2021 4:09,208.221.46.224,Mozilla/5.0 (Windows NT 6.3; Win64; x64; rv:88.0) Gecko/20100101 Firefox/88.0,,Firefox,88,Windows,6.3
227,1,null,"""",image-keyboard-response,157,556442,0.0-157.0,"""",jspsych/disgustFaces/BM19DIS.JPG,"""",256,Cue,Test,null,16,"""","""","""","""","""","""","""","""",1,5/2/2021 4:09,208.221.46.224,Mozilla/5.0 (Windows NT 6.3; Win64; x64; rv:88.0) Gecko/20100101 Firefox/88.0,,Firefox,88,Windows,6.3
227,1,null,"""",image-keyboard-response,158,556549,0.0-158.0,"""",jspsych/neutralFaces/BM04NES.JPG,"""",256,backwardMask,Test,null,100,"""","""","""","""","""","""","""","""",1,5/2/2021 4:09,208.221.46.224,Mozilla/5.0 (Windows NT 6.3; Win64; x64; rv:88.0) Gecko/20100101 Firefox/88.0,,Firefox,88,Windows,6.3
227,1,null,"""",html-keyboard-response,159,557552,0.0-159.0,"""","<div style=""font-size:60px;"">+</div>","""",256,fixationBtwnNeutralMaskAndPrompt,Test,null,1000,"""","""","""","""","""","""","""","""",1,5/2/2021 4:09,208.221.46.224,Mozilla/5.0 (Windows NT 6.3; Win64; x64; rv:88.0) Gecko/20100101 Firefox/88.0,,Firefox,88,Windows,6.3
227,1,1934,"""",html-button-response,160,559491,0.0-160.0,"""","<img src='jspsych/CFDfaces/CFD-AF-214-139-N.jpg' height=""250px"">,</br><b>Victoria</b>",0,256,IntactOrRearranged,Test,"""","""","""","""",CFD-AM-230-150-N.jpg,Sean,1,"""","""",0,1,5/2/2021 4:09,208.221.46.224,Mozilla/5.0 (Windows NT 6.3; Win64; x64; rv:88.0) Gecko/20100101 Firefox/88.0,,Firefox,88,Windows,6.3
227,1,3801,"""",html-slider-response,161,563303,0.0-161.0,"""","<img src='jspsych/CFDfaces/CFD-AF-214-139-N.jpg' height=""250px"">,</br><b>Victoria</b>","""",256,ConfidenceQuery,Test,"""","""","""","""",CFD-AM-230-150-N.jpg,Sean,1,0,30,"""",1,5/2/2021 4:09,208.221.46.224,Mozilla/5.0 (Windows NT 6.3; Win64; x64; rv:88.0) Gecko/20100101 Firefox/88.0,,Firefox,88,Windows,6.3
227,1,null,"""",html-keyboard-response,162,564322,0.0-162.0,"""","<div style=""font-size:60px;"">+</div>","""",256,ITI,Test,null,1000,"""","""","""","""","""","""","""","""",1,5/2/2021 4:09,208.221.46.224,Mozilla/5.0 (Windows NT 6.3; Win64; x64; rv:88.0) Gecko/20100101 Firefox/88.0,,Firefox,88,Windows,6.3
227,1,null,"""",image-keyboard-response,163,564594,0.0-163.0,"""",jspsych/scrambledDisgustFaces/scrambledAF02DIS.JPG,"""",256,forwardMask,Test,null,250,"""",d,"""","""","""","""","""","""",1,5/2/2021 4:09,208.221.46.224,Mozilla/5.0 (Windows NT 6.3; Win64; x64; rv:88.0) Gecko/20100101 Firefox/88.0,,Firefox,88,Windows,6.3
227,1,null,"""",image-keyboard-response,164,564615,0.0-164.0,"""",jspsych/disgustFaces/AF02DIS.JPG,"""",256,Cue,Test,null,16,"""","""","""","""","""","""","""","""",1,5/2/2021 4:09,208.221.46.224,Mozilla/5.0 (Windows NT 6.3; Win64; x64; rv:88.0) Gecko/20100101 Firefox/88.0,,Firefox,88,Windows,6.3
227,1,null,"""",image-keyboard-response,165,564721,0.0-165.0,"""",jspsych/neutralFaces/BF20NES.JPG,"""",256,backwardMask,Test,null,100,"""","""","""","""","""","""","""","""",1,5/2/2021 4:09,208.221.46.224,Mozilla/5.0 (Windows NT 6.3; Win64; x64; rv:88.0) Gecko/20100101 Firefox/88.0,,Firefox,88,Windows,6.3
227,1,null,"""",html-keyboard-response,166,565723,0.0-166.0,"""","<div style=""font-size:60px;"">+</div>","""",256,fixationBtwnNeutralMaskAndPrompt,Test,null,1000,"""","""","""","""","""","""","""","""",1,5/2/2021 4:09,208.221.46.224,Mozilla/5.0 (Windows NT 6.3; Win64; x64; rv:88.0) Gecko/20100101 Firefox/88.0,,Firefox,88,Windows,6.3
227,1,2507,"""",html-button-response,167,568234,0.0-167.0,"""","<img src='jspsych/CFDfaces/CFD-LF-204-133-N.jpg' height=""250px"">,</br><b>Christina</b>",0,256,IntactOrRearranged,Test,"""","""","""","""",CFD-BM-002-013-N.jpg,Mark,1,"""","""",0,1,5/2/2021 4:09,208.221.46.224,Mozilla/5.0 (Windows NT 6.3; Win64; x64; rv:88.0) Gecko/20100101 Firefox/88.0,,Firefox,88,Windows,6.3
227,1,2244,"""",html-slider-response,168,570497,0.0-168.0,"""","<img src='jspsych/CFDfaces/CFD-LF-204-133-N.jpg' height=""250px"">,</br><b>Christina</b>","""",256,ConfidenceQuery,Test,"""","""","""","""",CFD-BM-002-013-N.jpg,Mark,1,0,21,"""",1,5/2/2021 4:09,208.221.46.224,Mozilla/5.0 (Windows NT 6.3; Win64; x64; rv:88.0) Gecko/20100101 Firefox/88.0,,Firefox,88,Windows,6.3
227,1,null,"""",html-keyboard-response,169,571510,0.0-169.0,"""","<div style=""font-size:60px;"">+</div>","""",256,ITI,Test,null,1000,"""","""","""","""","""","""","""","""",1,5/2/2021 4:09,208.221.46.224,Mozilla/5.0 (Windows NT 6.3; Win64; x64; rv:88.0) Gecko/20100101 Firefox/88.0,,Firefox,88,Windows,6.3
227,1,null,"""",image-keyboard-response,170,571768,0.0-170.0,"""",jspsych/scrambledDisgustFaces/scrambledAF09DIS.JPG,"""",256,forwardMask,Test,null,250,"""",d,"""","""","""","""","""","""",1,5/2/2021 4:09,208.221.46.224,Mozilla/5.0 (Windows NT 6.3; Win64; x64; rv:88.0) Gecko/20100101 Firefox/88.0,,Firefox,88,Windows,6.3
227,1,null,"""",image-keyboard-response,171,571790,0.0-171.0,"""",jspsych/disgustFaces/AF09DIS.JPG,"""",256,Cue,Test,null,16,"""","""","""","""","""","""","""","""",1,5/2/2021 4:09,208.221.46.224,Mozilla/5.0 (Windows NT 6.3; Win64; x64; rv:88.0) Gecko/20100101 Firefox/88.0,,Firefox,88,Windows,6.3
227,1,null,"""",image-keyboard-response,172,571896,0.0-172.0,"""",jspsych/neutralFaces/AF25NES.JPG,"""",256,backwardMask,Test,null,100,"""","""","""","""","""","""","""","""",1,5/2/2021 4:09,208.221.46.224,Mozilla/5.0 (Windows NT 6.3; Win64; x64; rv:88.0) Gecko/20100101 Firefox/88.0,,Firefox,88,Windows,6.3
227,1,null,"""",html-keyboard-response,173,572899,0.0-173.0,"""","<div style=""font-size:60px;"">+</div>","""",256,fixationBtwnNeutralMaskAndPrompt,Test,null,1000,"""","""","""","""","""","""","""","""",1,5/2/2021 4:09,208.221.46.224,Mozilla/5.0 (Windows NT 6.3; Win64; x64; rv:88.0) Gecko/20100101 Firefox/88.0,,Firefox,88,Windows,6.3
227,1,null,"""",html-button-response,174,577906,0.0-174.0,"""","<img src='jspsych/CFDfaces/CFD-BF-009-002-N.jpg' height=""250px"">,</br><b>Vanessa</b>",null,256,IntactOrRearranged,Test,"""","""","""","""",CFD-BF-023-010-N.jpg,Jasmine,0,"""","""","""",1,5/2/2021 4:09,208.221.46.224,Mozilla/5.0 (Windows NT 6.3; Win64; x64; rv:88.0) Gecko/20100101 Firefox/88.0,,Firefox,88,Windows,6.3
227,1,4261,"""",html-slider-response,175,582187,0.0-175.0,"""","<img src='jspsych/CFDfaces/CFD-BF-009-002-N.jpg' height=""250px"">,</br><b>Vanessa</b>","""",256,ConfidenceQuery,Test,"""","""","""","""",CFD-BF-023-010-N.jpg,Jasmine,0,0,14,"""",1,5/2/2021 4:09,208.221.46.224,Mozilla/5.0 (Windows NT 6.3; Win64; x64; rv:88.0) Gecko/20100101 Firefox/88.0,,Firefox,88,Windows,6.3
227,1,null,"""",html-keyboard-response,176,583194,0.0-176.0,"""","<div style=""font-size:60px;"">+</div>","""",256,ITI,Test,null,1000,"""","""","""","""","""","""","""","""",1,5/2/2021 4:09,208.221.46.224,Mozilla/5.0 (Windows NT 6.3; Win64; x64; rv:88.0) Gecko/20100101 Firefox/88.0,,Firefox,88,Windows,6.3
227,1,null,"""",image-keyboard-response,177,583451,0.0-177.0,"""",jspsych/scrambledDisgustFaces/scrambledAF15DIS.JPG,"""",256,forwardMask,Test,null,250,"""",d,"""","""","""","""","""","""",1,5/2/2021 4:09,208.221.46.224,Mozilla/5.0 (Windows NT 6.3; Win64; x64; rv:88.0) Gecko/20100101 Firefox/88.0,,Firefox,88,Windows,6.3
227,1,null,"""",image-keyboard-response,178,583471,0.0-178.0,"""",jspsych/disgustFaces/AF15DIS.JPG,"""",256,Cue,Test,null,16,"""","""","""","""","""","""","""","""",1,5/2/2021 4:09,208.221.46.224,Mozilla/5.0 (Windows NT 6.3; Win64; x64; rv:88.0) Gecko/20100101 Firefox/88.0,,Firefox,88,Windows,6.3
227,1,null,"""",image-keyboard-response,179,583577,0.0-179.0,"""",jspsych/neutralFaces/AF26NES.JPG,"""",256,backwardMask,Test,null,100,"""","""","""","""","""","""","""","""",1,5/2/2021 4:09,208.221.46.224,Mozilla/5.0 (Windows NT 6.3; Win64; x64; rv:88.0) Gecko/20100101 Firefox/88.0,,Firefox,88,Windows,6.3
227,1,null,"""",html-keyboard-response,180,584590,0.0-180.0,"""","<div style=""font-size:60px;"">+</div>","""",256,fixationBtwnNeutralMaskAndPrompt,Test,null,1000,"""","""","""","""","""","""","""","""",1,5/2/2021 4:09,208.221.46.224,Mozilla/5.0 (Windows NT 6.3; Win64; x64; rv:88.0) Gecko/20100101 Firefox/88.0,,Firefox,88,Windows,6.3
227,1,null,"""",html-button-response,181,589597,0.0-181.0,"""","<img src='jspsych/CFDfaces/CFD-AM-243-212-N.jpg' height=""250px"">,</br><b>Juan</b>",null,256,IntactOrRearranged,Test,"""","""","""","""",CFD-LM-200-045-N.jpg,Jesse,0,"""","""","""",1,5/2/2021 4:09,208.221.46.224,Mozilla/5.0 (Windows NT 6.3; Win64; x64; rv:88.0) Gecko/20100101 Firefox/88.0,,Firefox,88,Windows,6.3
227,1,null,"""",html-slider-response,182,594613,0.0-182.0,"""","<img src='jspsych/CFDfaces/CFD-AM-243-212-N.jpg' height=""250px"">,</br><b>Juan</b>","""",256,ConfidenceQuery,Test,"""","""","""","""",CFD-LM-200-045-N.jpg,Jesse,0,0,null,"""",1,5/2/2021 4:09,208.221.46.224,Mozilla/5.0 (Windows NT 6.3; Win64; x64; rv:88.0) Gecko/20100101 Firefox/88.0,,Firefox,88,Windows,6.3
227,1,null,"""",html-keyboard-response,183,595618,0.0-183.0,"""","<div style=""font-size:60px;"">+</div>","""",256,ITI,Test,null,1000,"""","""","""","""","""","""","""","""",1,5/2/2021 4:09,208.221.46.224,Mozilla/5.0 (Windows NT 6.3; Win64; x64; rv:88.0) Gecko/20100101 Firefox/88.0,,Firefox,88,Windows,6.3
227,1,null,"""",image-keyboard-response,184,595891,0.0-184.0,"""",jspsych/scrambledDisgustFaces/scrambledAF27DIS.JPG,"""",256,forwardMask,Test,null,250,"""",d,"""","""","""","""","""","""",1,5/2/2021 4:09,208.221.46.224,Mozilla/5.0 (Windows NT 6.3; Win64; x64; rv:88.0) Gecko/20100101 Firefox/88.0,,Firefox,88,Windows,6.3
227,1,null,"""",image-keyboard-response,185,595913,0.0-185.0,"""",jspsych/disgustFaces/AF27DIS.JPG,"""",256,Cue,Test,null,16,"""","""","""","""","""","""","""","""",1,5/2/2021 4:09,208.221.46.224,Mozilla/5.0 (Windows NT 6.3; Win64; x64; rv:88.0) Gecko/20100101 Firefox/88.0,,Firefox,88,Windows,6.3
227,1,null,"""",image-keyboard-response,186,596020,0.0-186.0,"""",jspsych/neutralFaces/AF05NES.JPG,"""",256,backwardMask,Test,null,100,"""","""","""","""","""","""","""","""",1,5/2/2021 4:09,208.221.46.224,Mozilla/5.0 (Windows NT 6.3; Win64; x64; rv:88.0) Gecko/20100101 Firefox/88.0,,Firefox,88,Windows,6.3
227,1,null,"""",html-keyboard-response,187,597023,0.0-187.0,"""","<div style=""font-size:60px;"">+</div>","""",256,fixationBtwnNeutralMaskAndPrompt,Test,null,1000,"""","""","""","""","""","""","""","""",1,5/2/2021 4:09,208.221.46.224,Mozilla/5.0 (Windows NT 6.3; Win64; x64; rv:88.0) Gecko/20100101 Firefox/88.0,,Firefox,88,Windows,6.3
227,1,2455,"""",html-button-response,188,599482,0.0-188.0,"""","<img src='jspsych/CFDfaces/CFD-LF-230-203-N.jpg' height=""250px"">,</br><b>Julie</b>",0,256,IntactOrRearranged,Test,"""","""","""","""",CFD-BF-218-207-N.jpg,Melissa,0,"""","""",0,1,5/2/2021 4:09,208.221.46.224,Mozilla/5.0 (Windows NT 6.3; Win64; x64; rv:88.0) Gecko/20100101 Firefox/88.0,,Firefox,88,Windows,6.3
227,1,1398,"""",html-slider-response,189,600889,0.0-189.0,"""","<img src='jspsych/CFDfaces/CFD-LF-230-203-N.jpg' height=""250px"">,</br><b>Julie</b>","""",256,ConfidenceQuery,Test,"""","""","""","""",CFD-BF-218-207-N.jpg,Melissa,0,0,0,"""",1,5/2/2021 4:09,208.221.46.224,Mozilla/5.0 (Windows NT 6.3; Win64; x64; rv:88.0) Gecko/20100101 Firefox/88.0,,Firefox,88,Windows,6.3
227,1,null,"""",html-keyboard-response,190,601894,0.0-190.0,"""","<div style=""font-size:60px;"">+</div>","""",256,ITI,Test,null,1000,"""","""","""","""","""","""","""","""",1,5/2/2021 4:09,208.221.46.224,Mozilla/5.0 (Windows NT 6.3; Win64; x64; rv:88.0) Gecko/20100101 Firefox/88.0,,Firefox,88,Windows,6.3
227,1,null,"""",image-keyboard-response,191,602159,0.0-191.0,"""",jspsych/scrambledDisgustFaces/scrambledAM19DIS.JPG,"""",256,forwardMask,Test,null,250,"""",d,"""","""","""","""","""","""",1,5/2/2021 4:09,208.221.46.224,Mozilla/5.0 (Windows NT 6.3; Win64; x64; rv:88.0) Gecko/20100101 Firefox/88.0,,Firefox,88,Windows,6.3
227,1,null,"""",image-keyboard-response,192,602181,0.0-192.0,"""",jspsych/disgustFaces/AM19DIS.JPG,"""",256,Cue,Test,null,16,"""","""","""","""","""","""","""","""",1,5/2/2021 4:09,208.221.46.224,Mozilla/5.0 (Windows NT 6.3; Win64; x64; rv:88.0) Gecko/20100101 Firefox/88.0,,Firefox,88,Windows,6.3
227,1,null,"""",image-keyboard-response,193,602288,0.0-193.0,"""",jspsych/neutralFaces/BM16NES.JPG,"""",256,backwardMask,Test,null,100,"""","""","""","""","""","""","""","""",1,5/2/2021 4:09,208.221.46.224,Mozilla/5.0 (Windows NT 6.3; Win64; x64; rv:88.0) Gecko/20100101 Firefox/88.0,,Firefox,88,Windows,6.3
227,1,null,"""",html-keyboard-response,194,603292,0.0-194.0,"""","<div style=""font-size:60px;"">+</div>","""",256,fixationBtwnNeutralMaskAndPrompt,Test,null,1000,"""","""","""","""","""","""","""","""",1,5/2/2021 4:09,208.221.46.224,Mozilla/5.0 (Windows NT 6.3; Win64; x64; rv:88.0) Gecko/20100101 Firefox/88.0,,Firefox,88,Windows,6.3
227,1,1292,"""",html-button-response,195,604587,0.0-195.0,"""","<img src='jspsych/CFDfaces/CFD-LM-224-162-N.jpg' height=""250px"">,</br><b>Gregory</b>",0,256,IntactOrRearranged,Test,"""","""","""","""",CFD-BM-210-148-N.jpg,Jeremy,1,"""","""",0,1,5/2/2021 4:09,208.221.46.224,Mozilla/5.0 (Windows NT 6.3; Win64; x64; rv:88.0) Gecko/20100101 Firefox/88.0,,Firefox,88,Windows,6.3
227,1,2503,"""",html-slider-response,196,607099,0.0-196.0,"""","<img src='jspsych/CFDfaces/CFD-LM-224-162-N.jpg' height=""250px"">,</br><b>Gregory</b>","""",256,ConfidenceQuery,Test,"""","""","""","""",CFD-BM-210-148-N.jpg,Jeremy,1,0,21,"""",1,5/2/2021 4:09,208.221.46.224,Mozilla/5.0 (Windows NT 6.3; Win64; x64; rv:88.0) Gecko/20100101 Firefox/88.0,,Firefox,88,Windows,6.3
227,1,null,"""",html-keyboard-response,197,608106,0.0-197.0,"""","<div style=""font-size:60px;"">+</div>","""",256,ITI,Test,null,1000,"""","""","""","""","""","""","""","""",1,5/2/2021 4:09,208.221.46.224,Mozilla/5.0 (Windows NT 6.3; Win64; x64; rv:88.0) Gecko/20100101 Firefox/88.0,,Firefox,88,Windows,6.3
227,1,null,"""",image-keyboard-response,198,608378,0.0-198.0,"""",jspsych/scrambledDisgustFaces/scrambledBF21DIS.JPG,"""",256,forwardMask,Test,null,250,"""",d,"""","""","""","""","""","""",1,5/2/2021 4:09,208.221.46.224,Mozilla/5.0 (Windows NT 6.3; Win64; x64; rv:88.0) Gecko/20100101 Firefox/88.0,,Firefox,88,Windows,6.3
227,1,null,"""",image-keyboard-response,199,608401,0.0-199.0,"""",jspsych/disgustFaces/BF21DIS.JPG,"""",256,Cue,Test,null,16,"""","""","""","""","""","""","""","""",1,5/2/2021 4:09,208.221.46.224,Mozilla/5.0 (Windows NT 6.3; Win64; x64; rv:88.0) Gecko/20100101 Firefox/88.0,,Firefox,88,Windows,6.3
227,1,null,"""",image-keyboard-response,200,608508,0.0-200.0,"""",jspsych/neutralFaces/AF21NES.JPG,"""",256,backwardMask,Test,null,100,"""","""","""","""","""","""","""","""",1,5/2/2021 4:09,208.221.46.224,Mozilla/5.0 (Windows NT 6.3; Win64; x64; rv:88.0) Gecko/20100101 Firefox/88.0,,Firefox,88,Windows,6.3
227,1,null,"""",html-keyboard-response,201,609510,0.0-201.0,"""","<div style=""font-size:60px;"">+</div>","""",256,fixationBtwnNeutralMaskAndPrompt,Test,null,1000,"""","""","""","""","""","""","""","""",1,5/2/2021 4:09,208.221.46.224,Mozilla/5.0 (Windows NT 6.3; Win64; x64; rv:88.0) Gecko/20100101 Firefox/88.0,,Firefox,88,Windows,6.3
227,1,1903,"""",html-button-response,202,611417,0.0-202.0,"""","<img src='jspsych/CFDfaces/CFD-AM-212-050-N.jpg' height=""250px"">,</br><b>Eric</b>",0,256,IntactOrRearranged,Test,"""","""","""","""",CFD-WM-212-097-N.jpg,Travis,1,"""","""",0,1,5/2/2021 4:09,208.221.46.224,Mozilla/5.0 (Windows NT 6.3; Win64; x64; rv:88.0) Gecko/20100101 Firefox/88.0,,Firefox,88,Windows,6.3
227,1,2097,"""",html-slider-response,203,613521,0.0-203.0,"""","<img src='jspsych/CFDfaces/CFD-AM-212-050-N.jpg' height=""250px"">,</br><b>Eric</b>","""",256,ConfidenceQuery,Test,"""","""","""","""",CFD-WM-212-097-N.jpg,Travis,1,0,21,"""",1,5/2/2021 4:09,208.221.46.224,Mozilla/5.0 (Windows NT 6.3; Win64; x64; rv:88.0) Gecko/20100101 Firefox/88.0,,Firefox,88,Windows,6.3
227,1,null,"""",html-keyboard-response,204,614526,0.0-204.0,"""","<div style=""font-size:60px;"">+</div>","""",256,ITI,Test,null,1000,"""","""","""","""","""","""","""","""",1,5/2/2021 4:09,208.221.46.224,Mozilla/5.0 (Windows NT 6.3; Win64; x64; rv:88.0) Gecko/20100101 Firefox/88.0,,Firefox,88,Windows,6.3
227,1,null,"""",image-keyboard-response,205,614794,0.0-205.0,"""",jspsych/scrambledDisgustFaces/scrambledBM02DIS.JPG,"""",256,forwardMask,Test,null,250,"""",d,"""","""","""","""","""","""",1,5/2/2021 4:09,208.221.46.224,Mozilla/5.0 (Windows NT 6.3; Win64; x64; rv:88.0) Gecko/20100101 Firefox/88.0,,Firefox,88,Windows,6.3
227,1,null,"""",image-keyboard-response,206,614816,0.0-206.0,"""",jspsych/disgustFaces/BM03DIS.JPG,"""",256,Cue,Test,null,16,"""","""","""","""","""","""","""","""",1,5/2/2021 4:09,208.221.46.224,Mozilla/5.0 (Windows NT 6.3; Win64; x64; rv:88.0) Gecko/20100101 Firefox/88.0,,Firefox,88,Windows,6.3
227,1,null,"""",image-keyboard-response,207,614924,0.0-207.0,"""",jspsych/neutralFaces/BM30NES.JPG,"""",256,backwardMask,Test,null,100,"""","""","""","""","""","""","""","""",1,5/2/2021 4:09,208.221.46.224,Mozilla/5.0 (Windows NT 6.3; Win64; x64; rv:88.0) Gecko/20100101 Firefox/88.0,,Firefox,88,Windows,6.3
227,1,null,"""",html-keyboard-response,208,615926,0.0-208.0,"""","<div style=""font-size:60px;"">+</div>","""",256,fixationBtwnNeutralMaskAndPrompt,Test,null,1000,"""","""","""","""","""","""","""","""",1,5/2/2021 4:09,208.221.46.224,Mozilla/5.0 (Windows NT 6.3; Win64; x64; rv:88.0) Gecko/20100101 Firefox/88.0,,Firefox,88,Windows,6.3
227,1,1607,"""",html-button-response,209,617536,0.0-209.0,"""","<img src='jspsych/CFDfaces/CFD-LM-221-216-N.jpg' height=""250px"">,</br><b>Brian</b>",0,256,IntactOrRearranged,Test,"""","""","""","""",CFD-LF-215-157-N.jpg,Taylor,0,"""","""",0,1,5/2/2021 4:09,208.221.46.224,Mozilla/5.0 (Windows NT 6.3; Win64; x64; rv:88.0) Gecko/20100101 Firefox/88.0,,Firefox,88,Windows,6.3
227,1,2758,"""",html-slider-response,210,620299,0.0-210.0,"""","<img src='jspsych/CFDfaces/CFD-LM-221-216-N.jpg' height=""250px"">,</br><b>Brian</b>","""",256,ConfidenceQuery,Test,"""","""","""","""",CFD-LF-215-157-N.jpg,Taylor,0,0,18,"""",1,5/2/2021 4:09,208.221.46.224,Mozilla/5.0 (Windows NT 6.3; Win64; x64; rv:88.0) Gecko/20100101 Firefox/88.0,,Firefox,88,Windows,6.3
227,1,null,"""",html-keyboard-response,211,621325,0.0-211.0,"""","<div style=""font-size:60px;"">+</div>","""",256,ITI,Test,null,1000,"""","""","""","""","""","""","""","""",1,5/2/2021 4:09,208.221.46.224,Mozilla/5.0 (Windows NT 6.3; Win64; x64; rv:88.0) Gecko/20100101 Firefox/88.0,,Firefox,88,Windows,6.3
227,1,null,"""",image-keyboard-response,212,621585,0.0-212.0,"""",jspsych/scrambledNeutralFaces/scrambledBM05NES.JPG,"""",256,forwardMask,Test,null,250,"""",n,"""","""","""","""","""","""",1,5/2/2021 4:09,208.221.46.224,Mozilla/5.0 (Windows NT 6.3; Win64; x64; rv:88.0) Gecko/20100101 Firefox/88.0,,Firefox,88,Windows,6.3
227,1,null,"""",image-keyboard-response,213,621606,0.0-213.0,"""",jspsych/neutralFaces/BM05NES.JPG,"""",256,Cue,Test,null,16,"""","""","""","""","""","""","""","""",1,5/2/2021 4:09,208.221.46.224,Mozilla/5.0 (Windows NT 6.3; Win64; x64; rv:88.0) Gecko/20100101 Firefox/88.0,,Firefox,88,Windows,6.3
227,1,null,"""",image-keyboard-response,214,621715,0.0-214.0,"""",jspsych/neutralFaces/BM11NES.JPG,"""",256,backwardMask,Test,null,100,"""","""","""","""","""","""","""","""",1,5/2/2021 4:09,208.221.46.224,Mozilla/5.0 (Windows NT 6.3; Win64; x64; rv:88.0) Gecko/20100101 Firefox/88.0,,Firefox,88,Windows,6.3
227,1,null,"""",html-keyboard-response,215,622718,0.0-215.0,"""","<div style=""font-size:60px;"">+</div>","""",256,fixationBtwnNeutralMaskAndPrompt,Test,null,1000,"""","""","""","""","""","""","""","""",1,5/2/2021 4:09,208.221.46.224,Mozilla/5.0 (Windows NT 6.3; Win64; x64; rv:88.0) Gecko/20100101 Firefox/88.0,,Firefox,88,Windows,6.3
227,1,1676,"""",html-button-response,216,624398,0.0-216.0,"""","<img src='jspsych/CFDfaces/CFD-BM-041-035-N.jpg' height=""250px"">,</br><b>Joshua</b>",0,256,IntactOrRearranged,Test,"""","""","""","""",CFD-LM-219-295-N.jpg,Ryan,1,"""","""",0,1,5/2/2021 4:09,208.221.46.224,Mozilla/5.0 (Windows NT 6.3; Win64; x64; rv:88.0) Gecko/20100101 Firefox/88.0,,Firefox,88,Windows,6.3
227,1,3638,"""",html-slider-response,217,628042,0.0-217.0,"""","<img src='jspsych/CFDfaces/CFD-BM-041-035-N.jpg' height=""250px"">,</br><b>Joshua</b>","""",256,ConfidenceQuery,Test,"""","""","""","""",CFD-LM-219-295-N.jpg,Ryan,1,0,0,"""",1,5/2/2021 4:09,208.221.46.224,Mozilla/5.0 (Windows NT 6.3; Win64; x64; rv:88.0) Gecko/20100101 Firefox/88.0,,Firefox,88,Windows,6.3
227,1,null,"""",html-keyboard-response,218,629059,0.0-218.0,"""","<div style=""font-size:60px;"">+</div>","""",256,ITI,Test,null,1000,"""","""","""","""","""","""","""","""",1,5/2/2021 4:09,208.221.46.224,Mozilla/5.0 (Windows NT 6.3; Win64; x64; rv:88.0) Gecko/20100101 Firefox/88.0,,Firefox,88,Windows,6.3
227,1,null,"""",image-keyboard-response,219,629341,0.0-219.0,"""",jspsych/scrambledNeutralFaces/scrambledBF25NES.JPG,"""",256,forwardMask,Test,null,250,"""",n,"""","""","""","""","""","""",1,5/2/2021 4:09,208.221.46.224,Mozilla/5.0 (Windows NT 6.3; Win64; x64; rv:88.0) Gecko/20100101 Firefox/88.0,,Firefox,88,Windows,6.3
227,1,null,"""",image-keyboard-response,220,629363,0.0-220.0,"""",jspsych/neutralFaces/BF25NES.JPG,"""",256,Cue,Test,null,16,"""","""","""","""","""","""","""","""",1,5/2/2021 4:09,208.221.46.224,Mozilla/5.0 (Windows NT 6.3; Win64; x64; rv:88.0) Gecko/20100101 Firefox/88.0,,Firefox,88,Windows,6.3
227,1,null,"""",image-keyboard-response,221,629470,0.0-221.0,"""",jspsych/neutralFaces/BF35NES.JPG,"""",256,backwardMask,Test,null,100,"""","""","""","""","""","""","""","""",1,5/2/2021 4:09,208.221.46.224,Mozilla/5.0 (Windows NT 6.3; Win64; x64; rv:88.0) Gecko/20100101 Firefox/88.0,,Firefox,88,Windows,6.3
227,1,null,"""",html-keyboard-response,222,630473,0.0-222.0,"""","<div style=""font-size:60px;"">+</div>","""",256,fixationBtwnNeutralMaskAndPrompt,Test,null,1000,"""","""","""","""","""","""","""","""",1,5/2/2021 4:09,208.221.46.224,Mozilla/5.0 (Windows NT 6.3; Win64; x64; rv:88.0) Gecko/20100101 Firefox/88.0,,Firefox,88,Windows,6.3
227,1,1119,"""",html-button-response,223,631596,0.0-223.0,"""","<img src='jspsych/CFDfaces/CFD-WM-032-001-N.jpg' height=""250px"">,</br><b>Ian</b>",0,256,IntactOrRearranged,Test,"""","""","""","""",CFD-AM-221-184-N.jpg,Steven,0,"""","""",0,1,5/2/2021 4:09,208.221.46.224,Mozilla/5.0 (Windows NT 6.3; Win64; x64; rv:88.0) Gecko/20100101 Firefox/88.0,,Firefox,88,Windows,6.3
227,1,3384,"""",html-slider-response,224,634986,0.0-224.0,"""","<img src='jspsych/CFDfaces/CFD-WM-032-001-N.jpg' height=""250px"">,</br><b>Ian</b>","""",256,ConfidenceQuery,Test,"""","""","""","""",CFD-AM-221-184-N.jpg,Steven,0,0,18,"""",1,5/2/2021 4:09,208.221.46.224,Mozilla/5.0 (Windows NT 6.3; Win64; x64; rv:88.0) Gecko/20100101 Firefox/88.0,,Firefox,88,Windows,6.3
227,1,null,"""",html-keyboard-response,225,636003,0.0-225.0,"""","<div style=""font-size:60px;"">+</div>","""",256,ITI,Test,null,1000,"""","""","""","""","""","""","""","""",1,5/2/2021 4:09,208.221.46.224,Mozilla/5.0 (Windows NT 6.3; Win64; x64; rv:88.0) Gecko/20100101 Firefox/88.0,,Firefox,88,Windows,6.3
227,1,null,"""",image-keyboard-response,226,636260,0.0-226.0,"""",jspsych/scrambledNeutralFaces/scrambledBF09NES.JPG,"""",256,forwardMask,Test,null,250,"""",n,"""","""","""","""","""","""",1,5/2/2021 4:09,208.221.46.224,Mozilla/5.0 (Windows NT 6.3; Win64; x64; rv:88.0) Gecko/20100101 Firefox/88.0,,Firefox,88,Windows,6.3
227,1,null,"""",image-keyboard-response,227,636281,0.0-227.0,"""",jspsych/neutralFaces/BF09NES.JPG,"""",256,Cue,Test,null,16,"""","""","""","""","""","""","""","""",1,5/2/2021 4:09,208.221.46.224,Mozilla/5.0 (Windows NT 6.3; Win64; x64; rv:88.0) Gecko/20100101 Firefox/88.0,,Firefox,88,Windows,6.3
227,1,null,"""",image-keyboard-response,228,636386,0.0-228.0,"""",jspsych/neutralFaces/BF20NES.JPG,"""",256,backwardMask,Test,null,100,"""","""","""","""","""","""","""","""",1,5/2/2021 4:09,208.221.46.224,Mozilla/5.0 (Windows NT 6.3; Win64; x64; rv:88.0) Gecko/20100101 Firefox/88.0,,Firefox,88,Windows,6.3
227,1,null,"""",html-keyboard-response,229,637389,0.0-229.0,"""","<div style=""font-size:60px;"">+</div>","""",256,fixationBtwnNeutralMaskAndPrompt,Test,null,1000,"""","""","""","""","""","""","""","""",1,5/2/2021 4:09,208.221.46.224,Mozilla/5.0 (Windows NT 6.3; Win64; x64; rv:88.0) Gecko/20100101 Firefox/88.0,,Firefox,88,Windows,6.3
227,1,1054,"""",html-button-response,230,638449,0.0-230.0,"""","<img src='jspsych/CFDfaces/CFD-AF-242-158-N.jpg' height=""250px"">,</br><b>Michelle</b>",0,256,IntactOrRearranged,Test,"""","""","""","""",CFD-AF-203-077-N.jpg,Lauren,0,"""","""",0,1,5/2/2021 4:09,208.221.46.224,Mozilla/5.0 (Windows NT 6.3; Win64; x64; rv:88.0) Gecko/20100101 Firefox/88.0,,Firefox,88,Windows,6.3
227,1,2681,"""",html-slider-response,231,641137,0.0-231.0,"""","<img src='jspsych/CFDfaces/CFD-AF-242-158-N.jpg' height=""250px"">,</br><b>Michelle</b>","""",256,ConfidenceQuery,Test,"""","""","""","""",CFD-AF-203-077-N.jpg,Lauren,0,0,29,"""",1,5/2/2021 4:09,208.221.46.224,Mozilla/5.0 (Windows NT 6.3; Win64; x64; rv:88.0) Gecko/20100101 Firefox/88.0,,Firefox,88,Windows,6.3
227,1,null,"""",html-keyboard-response,232,642153,0.0-232.0,"""","<div style=""font-size:60px;"">+</div>","""",256,ITI,Test,null,1000,"""","""","""","""","""","""","""","""",1,5/2/2021 4:09,208.221.46.224,Mozilla/5.0 (Windows NT 6.3; Win64; x64; rv:88.0) Gecko/20100101 Firefox/88.0,,Firefox,88,Windows,6.3
227,1,null,"""",image-keyboard-response,233,642409,0.0-233.0,"""",jspsych/scrambledDisgustFaces/scrambledBF25DIS.JPG,"""",256,forwardMask,Test,null,250,"""",d,"""","""","""","""","""","""",1,5/2/2021 4:09,208.221.46.224,Mozilla/5.0 (Windows NT 6.3; Win64; x64; rv:88.0) Gecko/20100101 Firefox/88.0,,Firefox,88,Windows,6.3
227,1,null,"""",image-keyboard-response,234,642432,0.0-234.0,"""",jspsych/disgustFaces/BF25DIS.JPG,"""",256,Cue,Test,null,16,"""","""","""","""","""","""","""","""",1,5/2/2021 4:09,208.221.46.224,Mozilla/5.0 (Windows NT 6.3; Win64; x64; rv:88.0) Gecko/20100101 Firefox/88.0,,Firefox,88,Windows,6.3
227,1,null,"""",image-keyboard-response,235,642535,0.0-235.0,"""",jspsych/neutralFaces/BF35NES.JPG,"""",256,backwardMask,Test,null,100,"""","""","""","""","""","""","""","""",1,5/2/2021 4:09,208.221.46.224,Mozilla/5.0 (Windows NT 6.3; Win64; x64; rv:88.0) Gecko/20100101 Firefox/88.0,,Firefox,88,Windows,6.3
227,1,null,"""",html-keyboard-response,236,643536,0.0-236.0,"""","<div style=""font-size:60px;"">+</div>","""",256,fixationBtwnNeutralMaskAndPrompt,Test,null,1000,"""","""","""","""","""","""","""","""",1,5/2/2021 4:09,208.221.46.224,Mozilla/5.0 (Windows NT 6.3; Win64; x64; rv:88.0) Gecko/20100101 Firefox/88.0,,Firefox,88,Windows,6.3
227,1,1032,"""",html-button-response,237,644569,0.0-237.0,"""","<img src='jspsych/CFDfaces/CFD-WF-202-056-N.jpg' height=""250px"">,</br><b>Ashley</b>",0,256,IntactOrRearranged,Test,"""","""","""","""",CFD-LM-223-175-N.jpg,Cameron,1,"""","""",0,1,5/2/2021 4:09,208.221.46.224,Mozilla/5.0 (Windows NT 6.3; Win64; x64; rv:88.0) Gecko/20100101 Firefox/88.0,,Firefox,88,Windows,6.3
227,1,2258,"""",html-slider-response,238,646833,0.0-238.0,"""","<img src='jspsych/CFDfaces/CFD-WF-202-056-N.jpg' height=""250px"">,</br><b>Ashley</b>","""",256,ConfidenceQuery,Test,"""","""","""","""",CFD-LM-223-175-N.jpg,Cameron,1,0,25,"""",1,5/2/2021 4:09,208.221.46.224,Mozilla/5.0 (Windows NT 6.3; Win64; x64; rv:88.0) Gecko/20100101 Firefox/88.0,,Firefox,88,Windows,6.3
227,1,null,"""",html-keyboard-response,239,647847,0.0-239.0,"""","<div style=""font-size:60px;"">+</div>","""",256,ITI,Test,null,1000,"""","""","""","""","""","""","""","""",1,5/2/2021 4:09,208.221.46.224,Mozilla/5.0 (Windows NT 6.3; Win64; x64; rv:88.0) Gecko/20100101 Firefox/88.0,,Firefox,88,Windows,6.3
227,1,null,"""",image-keyboard-response,240,648103,0.0-240.0,"""",jspsych/scrambledNeutralFaces/scrambledAF09NES.JPG,"""",256,forwardMask,Test,null,250,"""",n,"""","""","""","""","""","""",1,5/2/2021 4:09,208.221.46.224,Mozilla/5.0 (Windows NT 6.3; Win64; x64; rv:88.0) Gecko/20100101 Firefox/88.0,,Firefox,88,Windows,6.3
227,1,null,"""",image-keyboard-response,241,648126,0.0-241.0,"""",jspsych/neutralFaces/AF09NES.JPG,"""",256,Cue,Test,null,16,"""","""","""","""","""","""","""","""",1,5/2/2021 4:09,208.221.46.224,Mozilla/5.0 (Windows NT 6.3; Win64; x64; rv:88.0) Gecko/20100101 Firefox/88.0,,Firefox,88,Windows,6.3
227,1,null,"""",image-keyboard-response,242,648235,0.0-242.0,"""",jspsych/neutralFaces/AF13NES.JPG,"""",256,backwardMask,Test,null,100,"""","""","""","""","""","""","""","""",1,5/2/2021 4:09,208.221.46.224,Mozilla/5.0 (Windows NT 6.3; Win64; x64; rv:88.0) Gecko/20100101 Firefox/88.0,,Firefox,88,Windows,6.3
227,1,null,"""",html-keyboard-response,243,649238,0.0-243.0,"""","<div style=""font-size:60px;"">+</div>","""",256,fixationBtwnNeutralMaskAndPrompt,Test,null,1000,"""","""","""","""","""","""","""","""",1,5/2/2021 4:09,208.221.46.224,Mozilla/5.0 (Windows NT 6.3; Win64; x64; rv:88.0) Gecko/20100101 Firefox/88.0,,Firefox,88,Windows,6.3
227,1,1521,"""",html-button-response,244,650761,0.0-244.0,"""","<img src='jspsych/CFDfaces/CFD-AM-214-168-N.jpg' height=""250px"">,</br><b>Nicholas</b>",0,256,IntactOrRearranged,Test,"""","""","""","""",CFD-BM-022-022-N.jpg,Dustin,0,"""","""",0,1,5/2/2021 4:09,208.221.46.224,Mozilla/5.0 (Windows NT 6.3; Win64; x64; rv:88.0) Gecko/20100101 Firefox/88.0,,Firefox,88,Windows,6.3
227,1,2415,"""",html-slider-response,245,653185,0.0-245.0,"""","<img src='jspsych/CFDfaces/CFD-AM-214-168-N.jpg' height=""250px"">,</br><b>Nicholas</b>","""",256,ConfidenceQuery,Test,"""","""","""","""",CFD-BM-022-022-N.jpg,Dustin,0,0,22,"""",1,5/2/2021 4:09,208.221.46.224,Mozilla/5.0 (Windows NT 6.3; Win64; x64; rv:88.0) Gecko/20100101 Firefox/88.0,,Firefox,88,Windows,6.3
227,1,null,"""",html-keyboard-response,246,654202,0.0-246.0,"""","<div style=""font-size:60px;"">+</div>","""",256,ITI,Test,null,1000,"""","""","""","""","""","""","""","""",1,5/2/2021 4:09,208.221.46.224,Mozilla/5.0 (Windows NT 6.3; Win64; x64; rv:88.0) Gecko/20100101 Firefox/88.0,,Firefox,88,Windows,6.3
227,1,null,"""",image-keyboard-response,247,654459,0.0-247.0,"""",jspsych/scrambledNeutralFaces/scrambledBF21NES.JPG,"""",256,forwardMask,Test,null,250,"""",n,"""","""","""","""","""","""",1,5/2/2021 4:09,208.221.46.224,Mozilla/5.0 (Windows NT 6.3; Win64; x64; rv:88.0) Gecko/20100101 Firefox/88.0,,Firefox,88,Windows,6.3
227,1,null,"""",image-keyboard-response,248,654480,0.0-248.0,"""",jspsych/neutralFaces/BF21NES.JPG,"""",256,Cue,Test,null,16,"""","""","""","""","""","""","""","""",1,5/2/2021 4:09,208.221.46.224,Mozilla/5.0 (Windows NT 6.3; Win64; x64; rv:88.0) Gecko/20100101 Firefox/88.0,,Firefox,88,Windows,6.3
227,1,null,"""",image-keyboard-response,249,654587,0.0-249.0,"""",jspsych/neutralFaces/BF06NES.JPG,"""",256,backwardMask,Test,null,100,"""","""","""","""","""","""","""","""",1,5/2/2021 4:09,208.221.46.224,Mozilla/5.0 (Windows NT 6.3; Win64; x64; rv:88.0) Gecko/20100101 Firefox/88.0,,Firefox,88,Windows,6.3
227,1,null,"""",html-keyboard-response,250,655590,0.0-250.0,"""","<div style=""font-size:60px;"">+</div>","""",256,fixationBtwnNeutralMaskAndPrompt,Test,null,1000,"""","""","""","""","""","""","""","""",1,5/2/2021 4:09,208.221.46.224,Mozilla/5.0 (Windows NT 6.3; Win64; x64; rv:88.0) Gecko/20100101 Firefox/88.0,,Firefox,88,Windows,6.3
227,1,2887,"""",html-button-response,251,658482,0.0-251.0,"""","<img src='jspsych/CFDfaces/CFD-WM-232-070-N.jpg' height=""250px"">,</br><b>Brandon</b>",0,256,IntactOrRearranged,Test,"""","""","""","""",CFD-AF-243-170-N.jpg,Whitney,0,"""","""",0,1,5/2/2021 4:09,208.221.46.224,Mozilla/5.0 (Windows NT 6.3; Win64; x64; rv:88.0) Gecko/20100101 Firefox/88.0,,Firefox,88,Windows,6.3
227,1,2776,"""",html-slider-response,252,661266,0.0-252.0,"""","<img src='jspsych/CFDfaces/CFD-WM-232-070-N.jpg' height=""250px"">,</br><b>Brandon</b>","""",256,ConfidenceQuery,Test,"""","""","""","""",CFD-AF-243-170-N.jpg,Whitney,0,0,23,"""",1,5/2/2021 4:09,208.221.46.224,Mozilla/5.0 (Windows NT 6.3; Win64; x64; rv:88.0) Gecko/20100101 Firefox/88.0,,Firefox,88,Windows,6.3
227,1,null,"""",html-keyboard-response,253,662285,0.0-253.0,"""","<div style=""font-size:60px;"">+</div>","""",256,ITI,Test,null,1000,"""","""","""","""","""","""","""","""",1,5/2/2021 4:09,208.221.46.224,Mozilla/5.0 (Windows NT 6.3; Win64; x64; rv:88.0) Gecko/20100101 Firefox/88.0,,Firefox,88,Windows,6.3
227,1,null,"""",image-keyboard-response,254,662543,0.0-254.0,"""",jspsych/scrambledDisgustFaces/scrambledBM30DIS.JPG,"""",256,forwardMask,Test,null,250,"""",d,"""","""","""","""","""","""",1,5/2/2021 4:09,208.221.46.224,Mozilla/5.0 (Windows NT 6.3; Win64; x64; rv:88.0) Gecko/20100101 Firefox/88.0,,Firefox,88,Windows,6.3
227,1,null,"""",image-keyboard-response,255,662567,0.0-255.0,"""",jspsych/disgustFaces/BM31DIS.JPG,"""",256,Cue,Test,null,16,"""","""","""","""","""","""","""","""",1,5/2/2021 4:09,208.221.46.224,Mozilla/5.0 (Windows NT 6.3; Win64; x64; rv:88.0) Gecko/20100101 Firefox/88.0,,Firefox,88,Windows,6.3
227,1,null,"""",image-keyboard-response,256,662675,0.0-256.0,"""",jspsych/neutralFaces/BM34NES.JPG,"""",256,backwardMask,Test,null,100,"""","""","""","""","""","""","""","""",1,5/2/2021 4:09,208.221.46.224,Mozilla/5.0 (Windows NT 6.3; Win64; x64; rv:88.0) Gecko/20100101 Firefox/88.0,,Firefox,88,Windows,6.3
227,1,null,"""",html-keyboard-response,257,663679,0.0-257.0,"""","<div style=""font-size:60px;"">+</div>","""",256,fixationBtwnNeutralMaskAndPrompt,Test,null,1000,"""","""","""","""","""","""","""","""",1,5/2/2021 4:09,208.221.46.224,Mozilla/5.0 (Windows NT 6.3; Win64; x64; rv:88.0) Gecko/20100101 Firefox/88.0,,Firefox,88,Windows,6.3
227,1,984,"""",html-button-response,258,664667,0.0-258.0,"""","<img src='jspsych/CFDfaces/CFD-LM-248-089-N.jpg' height=""250px"">,</br><b>Jeffrey</b>",0,256,IntactOrRearranged,Test,"""","""","""","""",CFD-AM-231-136-N.jpg,Austin,1,"""","""",0,1,5/2/2021 4:09,208.221.46.224,Mozilla/5.0 (Windows NT 6.3; Win64; x64; rv:88.0) Gecko/20100101 Firefox/88.0,,Firefox,88,Windows,6.3
227,1,2287,"""",html-slider-response,259,666962,0.0-259.0,"""","<img src='jspsych/CFDfaces/CFD-LM-248-089-N.jpg' height=""250px"">,</br><b>Jeffrey</b>","""",256,ConfidenceQuery,Test,"""","""","""","""",CFD-AM-231-136-N.jpg,Austin,1,0,20,"""",1,5/2/2021 4:09,208.221.46.224,Mozilla/5.0 (Windows NT 6.3; Win64; x64; rv:88.0) Gecko/20100101 Firefox/88.0,,Firefox,88,Windows,6.3
227,1,null,"""",html-keyboard-response,260,667995,0.0-260.0,"""","<div style=""font-size:60px;"">+</div>","""",256,ITI,Test,null,1000,"""","""","""","""","""","""","""","""",1,5/2/2021 4:09,208.221.46.224,Mozilla/5.0 (Windows NT 6.3; Win64; x64; rv:88.0) Gecko/20100101 Firefox/88.0,,Firefox,88,Windows,6.3
227,1,null,"""",image-keyboard-response,261,668252,0.0-261.0,"""",jspsych/scrambledNeutralFaces/scrambledAM18NES.JPG,"""",256,forwardMask,Test,null,250,"""",n,"""","""","""","""","""","""",1,5/2/2021 4:09,208.221.46.224,Mozilla/5.0 (Windows NT 6.3; Win64; x64; rv:88.0) Gecko/20100101 Firefox/88.0,,Firefox,88,Windows,6.3
227,1,null,"""",image-keyboard-response,262,668274,0.0-262.0,"""",jspsych/neutralFaces/AM18NES.JPG,"""",256,Cue,Test,null,16,"""","""","""","""","""","""","""","""",1,5/2/2021 4:09,208.221.46.224,Mozilla/5.0 (Windows NT 6.3; Win64; x64; rv:88.0) Gecko/20100101 Firefox/88.0,,Firefox,88,Windows,6.3
227,1,null,"""",image-keyboard-response,263,668406,0.0-263.0,"""",jspsych/neutralFaces/BM28NES.JPG,"""",256,backwardMask,Test,null,100,"""","""","""","""","""","""","""","""",1,5/2/2021 4:09,208.221.46.224,Mozilla/5.0 (Windows NT 6.3; Win64; x64; rv:88.0) Gecko/20100101 Firefox/88.0,,Firefox,88,Windows,6.3
227,1,null,"""",html-keyboard-response,264,669408,0.0-264.0,"""","<div style=""font-size:60px;"">+</div>","""",256,fixationBtwnNeutralMaskAndPrompt,Test,null,1000,"""","""","""","""","""","""","""","""",1,5/2/2021 4:09,208.221.46.224,Mozilla/5.0 (Windows NT 6.3; Win64; x64; rv:88.0) Gecko/20100101 Firefox/88.0,,Firefox,88,Windows,6.3
227,1,1486,"""",html-button-response,265,670897,0.0-265.0,"""","<img src='jspsych/CFDfaces/CFD-AF-208-003-N.jpg' height=""250px"">,</br><b>Kimberly</b>",0,256,IntactOrRearranged,Test,"""","""","""","""",CFD-AF-209-006-N.jpg,Lindsey,1,"""","""",0,1,5/2/2021 4:09,208.221.46.224,Mozilla/5.0 (Windows NT 6.3; Win64; x64; rv:88.0) Gecko/20100101 Firefox/88.0,,Firefox,88,Windows,6.3
227,1,2324,"""",html-slider-response,266,673228,0.0-266.0,"""","<img src='jspsych/CFDfaces/CFD-AF-208-003-N.jpg' height=""250px"">,</br><b>Kimberly</b>","""",256,ConfidenceQuery,Test,"""","""","""","""",CFD-AF-209-006-N.jpg,Lindsey,1,0,24,"""",1,5/2/2021 4:09,208.221.46.224,Mozilla/5.0 (Windows NT 6.3; Win64; x64; rv:88.0) Gecko/20100101 Firefox/88.0,,Firefox,88,Windows,6.3
227,1,null,"""",html-keyboard-response,267,674245,0.0-267.0,"""","<div style=""font-size:60px;"">+</div>","""",256,ITI,Test,null,1000,"""","""","""","""","""","""","""","""",1,5/2/2021 4:09,208.221.46.224,Mozilla/5.0 (Windows NT 6.3; Win64; x64; rv:88.0) Gecko/20100101 Firefox/88.0,,Firefox,88,Windows,6.3
227,1,null,"""",image-keyboard-response,268,674501,0.0-268.0,"""",jspsych/scrambledDisgustFaces/scrambledBF13DIS.JPG,"""",256,forwardMask,Test,null,250,"""",d,"""","""","""","""","""","""",1,5/2/2021 4:09,208.221.46.224,Mozilla/5.0 (Windows NT 6.3; Win64; x64; rv:88.0) Gecko/20100101 Firefox/88.0,,Firefox,88,Windows,6.3
227,1,null,"""",image-keyboard-response,269,674522,0.0-269.0,"""",jspsych/disgustFaces/BF13DIS.JPG,"""",256,Cue,Test,null,16,"""","""","""","""","""","""","""","""",1,5/2/2021 4:09,208.221.46.224,Mozilla/5.0 (Windows NT 6.3; Win64; x64; rv:88.0) Gecko/20100101 Firefox/88.0,,Firefox,88,Windows,6.3
227,1,null,"""",image-keyboard-response,270,674629,0.0-270.0,"""",jspsych/neutralFaces/AF29NES.JPG,"""",256,backwardMask,Test,null,100,"""","""","""","""","""","""","""","""",1,5/2/2021 4:09,208.221.46.224,Mozilla/5.0 (Windows NT 6.3; Win64; x64; rv:88.0) Gecko/20100101 Firefox/88.0,,Firefox,88,Windows,6.3
227,1,null,"""",html-keyboard-response,271,675632,0.0-271.0,"""","<div style=""font-size:60px;"">+</div>","""",256,fixationBtwnNeutralMaskAndPrompt,Test,null,1000,"""","""","""","""","""","""","""","""",1,5/2/2021 4:09,208.221.46.224,Mozilla/5.0 (Windows NT 6.3; Win64; x64; rv:88.0) Gecko/20100101 Firefox/88.0,,Firefox,88,Windows,6.3
227,1,863,"""",html-button-response,272,676496,0.0-272.0,"""","<img src='jspsych/CFDfaces/CFD-BM-027-001-N.jpg' height=""250px"">,</br><b>Robert</b>",0,256,IntactOrRearranged,Test,"""","""","""","""",CFD-LM-217-162-N.jpg,Vincent,0,"""","""",0,1,5/2/2021 4:09,208.221.46.224,Mozilla/5.0 (Windows NT 6.3; Win64; x64; rv:88.0) Gecko/20100101 Firefox/88.0,,Firefox,88,Windows,6.3
227,1,2622,"""",html-slider-response,273,679125,0.0-273.0,"""","<img src='jspsych/CFDfaces/CFD-BM-027-001-N.jpg' height=""250px"">,</br><b>Robert</b>","""",256,ConfidenceQuery,Test,"""","""","""","""",CFD-LM-217-162-N.jpg,Vincent,0,0,29,"""",1,5/2/2021 4:09,208.221.46.224,Mozilla/5.0 (Windows NT 6.3; Win64; x64; rv:88.0) Gecko/20100101 Firefox/88.0,,Firefox,88,Windows,6.3
227,1,null,"""",html-keyboard-response,274,680155,0.0-274.0,"""","<div style=""font-size:60px;"">+</div>","""",256,ITI,Test,null,1000,"""","""","""","""","""","""","""","""",1,5/2/2021 4:09,208.221.46.224,Mozilla/5.0 (Windows NT 6.3; Win64; x64; rv:88.0) Gecko/20100101 Firefox/88.0,,Firefox,88,Windows,6.3
227,1,null,"""",image-keyboard-response,275,680414,0.0-275.0,"""",jspsych/scrambledDisgustFaces/scrambledBM12DIS.JPG,"""",256,forwardMask,Test,null,250,"""",d,"""","""","""","""","""","""",1,5/2/2021 4:09,208.221.46.224,Mozilla/5.0 (Windows NT 6.3; Win64; x64; rv:88.0) Gecko/20100101 Firefox/88.0,,Firefox,88,Windows,6.3
227,1,null,"""",image-keyboard-response,276,680436,0.0-276.0,"""",jspsych/disgustFaces/BM13DIS.JPG,"""",256,Cue,Test,null,16,"""","""","""","""","""","""","""","""",1,5/2/2021 4:09,208.221.46.224,Mozilla/5.0 (Windows NT 6.3; Win64; x64; rv:88.0) Gecko/20100101 Firefox/88.0,,Firefox,88,Windows,6.3
227,1,null,"""",image-keyboard-response,277,680537,0.0-277.0,"""",jspsych/neutralFaces/BM11NES.JPG,"""",256,backwardMask,Test,null,100,"""","""","""","""","""","""","""","""",1,5/2/2021 4:09,208.221.46.224,Mozilla/5.0 (Windows NT 6.3; Win64; x64; rv:88.0) Gecko/20100101 Firefox/88.0,,Firefox,88,Windows,6.3
227,1,null,"""",html-keyboard-response,278,681540,0.0-278.0,"""","<div style=""font-size:60px;"">+</div>","""",256,fixationBtwnNeutralMaskAndPrompt,Test,null,1000,"""","""","""","""","""","""","""","""",1,5/2/2021 4:09,208.221.46.224,Mozilla/5.0 (Windows NT 6.3; Win64; x64; rv:88.0) Gecko/20100101 Firefox/88.0,,Firefox,88,Windows,6.3
227,1,3652,"""",html-button-response,279,685197,0.0-279.0,"""","<img src='jspsych/CFDfaces/CFD-BM-010-003-N.jpg' height=""250px"">,</br><b>Daniel</b>",1,256,IntactOrRearranged,Test,"""","""","""","""",CFD-WM-015-002-N.jpg,Timothy,1,"""","""",1,1,5/2/2021 4:09,208.221.46.224,Mozilla/5.0 (Windows NT 6.3; Win64; x64; rv:88.0) Gecko/20100101 Firefox/88.0,,Firefox,88,Windows,6.3
227,1,2569,"""",html-slider-response,280,687787,0.0-280.0,"""","<img src='jspsych/CFDfaces/CFD-BM-010-003-N.jpg' height=""250px"">,</br><b>Daniel</b>","""",256,ConfidenceQuery,Test,"""","""","""","""",CFD-WM-015-002-N.jpg,Timothy,1,0,34,"""",1,5/2/2021 4:09,208.221.46.224,Mozilla/5.0 (Windows NT 6.3; Win64; x64; rv:88.0) Gecko/20100101 Firefox/88.0,,Firefox,88,Windows,6.3
227,1,null,"""",html-keyboard-response,281,688792,0.0-281.0,"""","<div style=""font-size:60px;"">+</div>","""",256,ITI,Test,null,1000,"""","""","""","""","""","""","""","""",1,5/2/2021 4:09,208.221.46.224,Mozilla/5.0 (Windows NT 6.3; Win64; x64; rv:88.0) Gecko/20100101 Firefox/88.0,,Firefox,88,Windows,6.3
227,1,null,"""",image-keyboard-response,282,689049,0.0-282.0,"""",jspsych/scrambledNeutralFaces/scrambledBM02NES.JPG,"""",256,forwardMask,Test,null,250,"""",n,"""","""","""","""","""","""",1,5/2/2021 4:09,208.221.46.224,Mozilla/5.0 (Windows NT 6.3; Win64; x64; rv:88.0) Gecko/20100101 Firefox/88.0,,Firefox,88,Windows,6.3
227,1,null,"""",image-keyboard-response,283,689074,0.0-283.0,"""",jspsych/neutralFaces/BM02NES.JPG,"""",256,Cue,Test,null,16,"""","""","""","""","""","""","""","""",1,5/2/2021 4:09,208.221.46.224,Mozilla/5.0 (Windows NT 6.3; Win64; x64; rv:88.0) Gecko/20100101 Firefox/88.0,,Firefox,88,Windows,6.3
227,1,null,"""",image-keyboard-response,284,689184,0.0-284.0,"""",jspsych/neutralFaces/BM13NES.JPG,"""",256,backwardMask,Test,null,100,"""","""","""","""","""","""","""","""",1,5/2/2021 4:09,208.221.46.224,Mozilla/5.0 (Windows NT 6.3; Win64; x64; rv:88.0) Gecko/20100101 Firefox/88.0,,Firefox,88,Windows,6.3
227,1,null,"""",html-keyboard-response,285,690187,0.0-285.0,"""","<div style=""font-size:60px;"">+</div>","""",256,fixationBtwnNeutralMaskAndPrompt,Test,null,1000,"""","""","""","""","""","""","""","""",1,5/2/2021 4:09,208.221.46.224,Mozilla/5.0 (Windows NT 6.3; Win64; x64; rv:88.0) Gecko/20100101 Firefox/88.0,,Firefox,88,Windows,6.3
227,1,1337,"""",html-button-response,286,691527,0.0-286.0,"""","<img src='jspsych/CFDfaces/CFD-AM-234-355-N.jpg' height=""250px"">,</br><b>Peter</b>",0,256,IntactOrRearranged,Test,"""","""","""","""",CFD-WF-215-145-N.jpg,Jordan,0,"""","""",0,1,5/2/2021 4:09,208.221.46.224,Mozilla/5.0 (Windows NT 6.3; Win64; x64; rv:88.0) Gecko/20100101 Firefox/88.0,,Firefox,88,Windows,6.3
227,1,null,"""",html-slider-response,287,696546,0.0-287.0,"""","<img src='jspsych/CFDfaces/CFD-AM-234-355-N.jpg' height=""250px"">,</br><b>Peter</b>","""",256,ConfidenceQuery,Test,"""","""","""","""",CFD-WF-215-145-N.jpg,Jordan,0,0,null,"""",1,5/2/2021 4:09,208.221.46.224,Mozilla/5.0 (Windows NT 6.3; Win64; x64; rv:88.0) Gecko/20100101 Firefox/88.0,,Firefox,88,Windows,6.3
227,1,null,"""",html-keyboard-response,288,697554,0.0-288.0,"""","<div style=""font-size:60px;"">+</div>","""",256,ITI,Test,null,1000,"""","""","""","""","""","""","""","""",1,5/2/2021 4:09,208.221.46.224,Mozilla/5.0 (Windows NT 6.3; Win64; x64; rv:88.0) Gecko/20100101 Firefox/88.0,,Firefox,88,Windows,6.3
227,1,null,"""",image-keyboard-response,289,697844,0.0-289.0,"""",jspsych/scrambledNeutralFaces/scrambledBF15NES.JPG,"""",256,forwardMask,Test,null,250,"""",n,"""","""","""","""","""","""",1,5/2/2021 4:09,208.221.46.224,Mozilla/5.0 (Windows NT 6.3; Win64; x64; rv:88.0) Gecko/20100101 Firefox/88.0,,Firefox,88,Windows,6.3
227,1,null,"""",image-keyboard-response,290,697869,0.0-290.0,"""",jspsych/neutralFaces/BF15NES.JPG,"""",256,Cue,Test,null,16,"""","""","""","""","""","""","""","""",1,5/2/2021 4:09,208.221.46.224,Mozilla/5.0 (Windows NT 6.3; Win64; x64; rv:88.0) Gecko/20100101 Firefox/88.0,,Firefox,88,Windows,6.3
227,1,null,"""",image-keyboard-response,291,697978,0.0-291.0,"""",jspsych/neutralFaces/BF30NES.JPG,"""",256,backwardMask,Test,null,100,"""","""","""","""","""","""","""","""",1,5/2/2021 4:09,208.221.46.224,Mozilla/5.0 (Windows NT 6.3; Win64; x64; rv:88.0) Gecko/20100101 Firefox/88.0,,Firefox,88,Windows,6.3
227,1,null,"""",html-keyboard-response,292,698981,0.0-292.0,"""","<div style=""font-size:60px;"">+</div>","""",256,fixationBtwnNeutralMaskAndPrompt,Test,null,1000,"""","""","""","""","""","""","""","""",1,5/2/2021 4:09,208.221.46.224,Mozilla/5.0 (Windows NT 6.3; Win64; x64; rv:88.0) Gecko/20100101 Firefox/88.0,,Firefox,88,Windows,6.3
227,1,2812,"""",html-button-response,293,701796,0.0-293.0,"""","<img src='jspsych/CFDfaces/CFD-BM-011-016-N.jpg' height=""250px"">,</br><b>Christian</b>",0,256,IntactOrRearranged,Test,"""","""","""","""",CFD-LF-243-175-N.jpg,Jenna,1,"""","""",0,1,5/2/2021 4:09,208.221.46.224,Mozilla/5.0 (Windows NT 6.3; Win64; x64; rv:88.0) Gecko/20100101 Firefox/88.0,,Firefox,88,Windows,6.3
227,1,2178,"""",html-slider-response,294,703982,0.0-294.0,"""","<img src='jspsych/CFDfaces/CFD-BM-011-016-N.jpg' height=""250px"">,</br><b>Christian</b>","""",256,ConfidenceQuery,Test,"""","""","""","""",CFD-LF-243-175-N.jpg,Jenna,1,0,35,"""",1,5/2/2021 4:09,208.221.46.224,Mozilla/5.0 (Windows NT 6.3; Win64; x64; rv:88.0) Gecko/20100101 Firefox/88.0,,Firefox,88,Windows,6.3
227,1,null,"""",html-keyboard-response,295,705003,0.0-295.0,"""","<div style=""font-size:60px;"">+</div>","""",256,ITI,Test,null,1000,"""","""","""","""","""","""","""","""",1,5/2/2021 4:09,208.221.46.224,Mozilla/5.0 (Windows NT 6.3; Win64; x64; rv:88.0) Gecko/20100101 Firefox/88.0,,Firefox,88,Windows,6.3
