run_id,condition,rt,responses,trial_type,trial_index,time_elapsed,internal_node_id,question_order,stimulus,button_pressed,iTrial,Phase,ExperimentPhase,key_press,StimulusDurationSetting,CharacterResponse,correctResponse,Face,Name,rearranged,didSubjectEnterRearranged,slider_start,response,Block,recorded_at,ip,user_agent,device,browser,browser_version,platform,platform_version
60,1,9316,"{""Q0"":""ATZ6GERYJ2LSK""}",survey-text,0,9320,0.0-0.0,"""","""","""","""","""","""","""","""","""","""","""","""","""","""","""","""","""",4/20/2021 16:49,73.169.242.36,Mozilla/5.0 (Macintosh; Intel Mac OS X 10.15; rv:85.0) Gecko/20100101 Firefox/85.0,Macintosh,Firefox,85,OS X,10.15
60,1,3148,"{""Q0"":""40""}",survey-text,1,12475,0.0-1.0,"""","""","""","""","""","""","""","""","""","""","""","""","""","""","""","""","""",4/20/2021 16:49,73.169.242.36,Mozilla/5.0 (Macintosh; Intel Mac OS X 10.15; rv:85.0) Gecko/20100101 Firefox/85.0,Macintosh,Firefox,85,OS X,10.15
60,1,5334,"{""Q0"":""male"",""Q1"":""Not Hispanic/Latino"",""Q2"":""White or Caucasian""}",survey-multi-choice,2,17812,0.0-2.0,"[0,1,2]","""","""","""","""","""","""","""","""","""","""","""","""","""","""","""","""",4/20/2021 16:49,73.169.242.36,Mozilla/5.0 (Macintosh; Intel Mac OS X 10.15; rv:85.0) Gecko/20100101 Firefox/85.0,Macintosh,Firefox,85,OS X,10.15
60,1,15797,"""",image-button-response,3,33620,0.0-3.0,"""",directionsMemoryAssociation1.JPG,0,1,IntroDirections1,break,"""","""","""","""","""","""","""","""","""","""","""",4/20/2021 16:49,73.169.242.36,Mozilla/5.0 (Macintosh; Intel Mac OS X 10.15; rv:85.0) Gecko/20100101 Firefox/85.0,Macintosh,Firefox,85,OS X,10.15
60,1,24415,"""",image-button-response,4,58043,0.0-4.0,"""",directionsMemoryAssociation2.JPG,0,1,IntroDirections2,break,"""","""","""","""","""","""","""","""","""","""","""",4/20/2021 16:49,73.169.242.36,Mozilla/5.0 (Macintosh; Intel Mac OS X 10.15; rv:85.0) Gecko/20100101 Firefox/85.0,Macintosh,Firefox,85,OS X,10.15
60,1,null,"""",html-keyboard-response,5,63048,0.0-5.0,"""","<img src='jspsych/CFDfaces/CFD-LF-202-065-N.jpg' height=""250px"">,</br><b>Cassandra</b>","""",1,IntactFace,Practice,null,5000,"""","""","""","""","""","""","""","""","""",4/20/2021 16:49,73.169.242.36,Mozilla/5.0 (Macintosh; Intel Mac OS X 10.15; rv:85.0) Gecko/20100101 Firefox/85.0,Macintosh,Firefox,85,OS X,10.15
60,1,null,"""",html-keyboard-response,6,63552,0.0-6.0,"""","<div style=""font-size:60px;"">+</div>","""",1,ITI,Practice,null,1000,"""","""","""","""","""","""","""","""","""",4/20/2021 16:49,73.169.242.36,Mozilla/5.0 (Macintosh; Intel Mac OS X 10.15; rv:85.0) Gecko/20100101 Firefox/85.0,Macintosh,Firefox,85,OS X,10.15
60,1,3437,"""",html-keyboard-response,7,68557,0.0-7.0,"""","<img src='jspsych/CFDfaces/CFD-LF-218-072-N.jpg' height=""250px"">,</br><b>Tara</b>","""",2,IntactFace,Practice,70,5000,f,"""","""","""","""","""","""","""","""",4/20/2021 16:49,73.169.242.36,Mozilla/5.0 (Macintosh; Intel Mac OS X 10.15; rv:85.0) Gecko/20100101 Firefox/85.0,Macintosh,Firefox,85,OS X,10.15
60,1,null,"""",html-keyboard-response,8,69061,0.0-8.0,"""","<div style=""font-size:60px;"">+</div>","""",2,ITI,Practice,null,1000,"""","""","""","""","""","""","""","""","""",4/20/2021 16:49,73.169.242.36,Mozilla/5.0 (Macintosh; Intel Mac OS X 10.15; rv:85.0) Gecko/20100101 Firefox/85.0,Macintosh,Firefox,85,OS X,10.15
60,1,3421,"""",html-keyboard-response,9,74068,0.0-9.0,"""","<img src='jspsych/CFDfaces/CFD-WF-218-087-N.jpg' height=""250px"">,</br><b>Katelyn</b>","""",3,IntactFace,Practice,70,5000,f,"""","""","""","""","""","""","""","""",4/20/2021 16:49,73.169.242.36,Mozilla/5.0 (Macintosh; Intel Mac OS X 10.15; rv:85.0) Gecko/20100101 Firefox/85.0,Macintosh,Firefox,85,OS X,10.15
60,1,null,"""",html-keyboard-response,10,74574,0.0-10.0,"""","<div style=""font-size:60px;"">+</div>","""",3,ITI,Practice,null,1000,"""","""","""","""","""","""","""","""","""",4/20/2021 16:49,73.169.242.36,Mozilla/5.0 (Macintosh; Intel Mac OS X 10.15; rv:85.0) Gecko/20100101 Firefox/85.0,Macintosh,Firefox,85,OS X,10.15
60,1,2467,"""",html-keyboard-response,11,79581,0.0-11.0,"""","<img src='jspsych/CFDfaces/CFD-AM-237-154-N.jpg' height=""250px"">,</br><b>Carlos</b>","""",4,IntactFace,Practice,78,5000,n,"""","""","""","""","""","""","""","""",4/20/2021 16:49,73.169.242.36,Mozilla/5.0 (Macintosh; Intel Mac OS X 10.15; rv:85.0) Gecko/20100101 Firefox/85.0,Macintosh,Firefox,85,OS X,10.15
60,1,null,"""",html-keyboard-response,12,80082,0.0-12.0,"""","<div style=""font-size:60px;"">+</div>","""",4,ITI,Practice,null,1000,"""","""","""","""","""","""","""","""","""",4/20/2021 16:49,73.169.242.36,Mozilla/5.0 (Macintosh; Intel Mac OS X 10.15; rv:85.0) Gecko/20100101 Firefox/85.0,Macintosh,Firefox,85,OS X,10.15
60,1,2996,"""",html-keyboard-response,13,85089,0.0-13.0,"""","<img src='jspsych/CFDfaces/CFD-WM-019-003-N.jpg' height=""250px"">,</br><b>Patrick</b>","""",5,IntactFace,Practice,78,5000,n,"""","""","""","""","""","""","""","""",4/20/2021 16:49,73.169.242.36,Mozilla/5.0 (Macintosh; Intel Mac OS X 10.15; rv:85.0) Gecko/20100101 Firefox/85.0,Macintosh,Firefox,85,OS X,10.15
60,1,null,"""",html-keyboard-response,14,85594,0.0-14.0,"""","<div style=""font-size:60px;"">+</div>","""",5,ITI,Practice,null,1000,"""","""","""","""","""","""","""","""","""",4/20/2021 16:49,73.169.242.36,Mozilla/5.0 (Macintosh; Intel Mac OS X 10.15; rv:85.0) Gecko/20100101 Firefox/85.0,Macintosh,Firefox,85,OS X,10.15
60,1,3161,"""",html-keyboard-response,15,90597,0.0-15.0,"""","<img src='jspsych/CFDfaces/CFD-WM-222-057-N.jpg' height=""250px"">,</br><b>Marcus</b>","""",6,IntactFace,Practice,78,5000,n,"""","""","""","""","""","""","""","""",4/20/2021 16:49,73.169.242.36,Mozilla/5.0 (Macintosh; Intel Mac OS X 10.15; rv:85.0) Gecko/20100101 Firefox/85.0,Macintosh,Firefox,85,OS X,10.15
60,1,null,"""",html-keyboard-response,16,91101,0.0-16.0,"""","<div style=""font-size:60px;"">+</div>","""",6,ITI,Practice,null,1000,"""","""","""","""","""","""","""","""","""",4/20/2021 16:49,73.169.242.36,Mozilla/5.0 (Macintosh; Intel Mac OS X 10.15; rv:85.0) Gecko/20100101 Firefox/85.0,Macintosh,Firefox,85,OS X,10.15
60,1,null,"""",html-keyboard-response,17,96107,0.0-17.0,"""","<img src='jspsych/CFDfaces/CFD-WF-016-015-N.jpg' height=""250px"">,</br><b>Shannon</b>","""",7,IntactFace,Practice,null,5000,"""","""","""","""","""","""","""","""","""",4/20/2021 16:49,73.169.242.36,Mozilla/5.0 (Macintosh; Intel Mac OS X 10.15; rv:85.0) Gecko/20100101 Firefox/85.0,Macintosh,Firefox,85,OS X,10.15
60,1,null,"""",html-keyboard-response,18,96612,0.0-18.0,"""","<div style=""font-size:60px;"">+</div>","""",7,ITI,Practice,null,1000,"""","""","""","""","""","""","""","""","""",4/20/2021 16:49,73.169.242.36,Mozilla/5.0 (Macintosh; Intel Mac OS X 10.15; rv:85.0) Gecko/20100101 Firefox/85.0,Macintosh,Firefox,85,OS X,10.15
60,1,3040,"""",html-keyboard-response,19,101618,0.0-19.0,"""","<img src='jspsych/CFDfaces/CFD-AM-248-104-N.jpg' height=""250px"">,</br><b>Samuel</b>","""",8,IntactFace,Practice,70,5000,f,"""","""","""","""","""","""","""","""",4/20/2021 16:49,73.169.242.36,Mozilla/5.0 (Macintosh; Intel Mac OS X 10.15; rv:85.0) Gecko/20100101 Firefox/85.0,Macintosh,Firefox,85,OS X,10.15
60,1,null,"""",html-keyboard-response,20,102124,0.0-20.0,"""","<div style=""font-size:60px;"">+</div>","""",8,ITI,Practice,null,1000,"""","""","""","""","""","""","""","""","""",4/20/2021 16:49,73.169.242.36,Mozilla/5.0 (Macintosh; Intel Mac OS X 10.15; rv:85.0) Gecko/20100101 Firefox/85.0,Macintosh,Firefox,85,OS X,10.15
60,1,26512,"""",image-button-response,21,128644,0.0-21.0,"""",directionsForTest.JPG,0,1,directionsForTest,break,"""","""","""","""","""","""","""","""","""","""","""",4/20/2021 16:49,73.169.242.36,Mozilla/5.0 (Macintosh; Intel Mac OS X 10.15; rv:85.0) Gecko/20100101 Firefox/85.0,Macintosh,Firefox,85,OS X,10.15
60,1,13410,"""",image-button-response,22,142064,0.0-22.0,"""",directionsForTest2.JPG,0,1,directionsForTest2,break,"""","""","""","""","""","""","""","""","""","""","""",4/20/2021 16:49,73.169.242.36,Mozilla/5.0 (Macintosh; Intel Mac OS X 10.15; rv:85.0) Gecko/20100101 Firefox/85.0,Macintosh,Firefox,85,OS X,10.15
60,1,null,"""",html-keyboard-response,23,143066,0.0-23.0,"""","<div style=""font-size:60px;"">+</div>","""",1,ITI,Practice,null,1000,"""","""","""","""","""","""","""","""","""",4/20/2021 16:49,73.169.242.36,Mozilla/5.0 (Macintosh; Intel Mac OS X 10.15; rv:85.0) Gecko/20100101 Firefox/85.0,Macintosh,Firefox,85,OS X,10.15
60,1,null,"""",image-keyboard-response,24,143322,0.0-24.0,"""",jspsych/scrambledDisgustFaces/scrambledBF26DIS.JPG,"""",1,forwardMask,Practice,null,250,"""",d,"""","""","""","""","""","""","""",4/20/2021 16:49,73.169.242.36,Mozilla/5.0 (Macintosh; Intel Mac OS X 10.15; rv:85.0) Gecko/20100101 Firefox/85.0,Macintosh,Firefox,85,OS X,10.15
60,1,null,"""",image-keyboard-response,25,143342,0.0-25.0,"""",jspsych/disgustFaces/BF26DIS.JPG,"""",1,Cue,Practice,null,16,"""","""","""","""","""","""","""","""","""",4/20/2021 16:49,73.169.242.36,Mozilla/5.0 (Macintosh; Intel Mac OS X 10.15; rv:85.0) Gecko/20100101 Firefox/85.0,Macintosh,Firefox,85,OS X,10.15
60,1,null,"""",image-keyboard-response,26,143447,0.0-26.0,"""",jspsych/neutralFaces/AF19NES.JPG,"""",1,backwardMask,Practice,null,100,"""","""","""","""","""","""","""","""","""",4/20/2021 16:49,73.169.242.36,Mozilla/5.0 (Macintosh; Intel Mac OS X 10.15; rv:85.0) Gecko/20100101 Firefox/85.0,Macintosh,Firefox,85,OS X,10.15
60,1,null,"""",html-keyboard-response,27,144450,0.0-27.0,"""","<div style=""font-size:60px;"">+</div>","""",1,fixationBtwnNeutralMaskAndPrompt,Practice,null,1000,"""","""","""","""","""","""","""","""","""",4/20/2021 16:49,73.169.242.36,Mozilla/5.0 (Macintosh; Intel Mac OS X 10.15; rv:85.0) Gecko/20100101 Firefox/85.0,Macintosh,Firefox,85,OS X,10.15
60,1,4058,"""",html-button-response,28,148509,0.0-28.0,"""","<img src='jspsych/CFDfaces/CFD-AM-248-104-N.jpg'height=""250px""></br><b>Samuel</b>",0,1,IntactOrRearranged,Practice,"""","""","""","""",CFD-AM-248-104-N.jpg,Samuel,0,0,"""","""","""",4/20/2021 16:49,73.169.242.36,Mozilla/5.0 (Macintosh; Intel Mac OS X 10.15; rv:85.0) Gecko/20100101 Firefox/85.0,Macintosh,Firefox,85,OS X,10.15
60,1,3244,"""",html-slider-response,29,151758,0.0-29.0,"""","<img src='jspsych/CFDfaces/CFD-AM-248-104-N.jpg'height=""250px""></br><b>Samuel</b>","""",1,ConfidenceQuery,Practice,"""","""","""","""",CFD-AF-228-173-N.jpg,Taylor,0,"""",0,87,"""",4/20/2021 16:49,73.169.242.36,Mozilla/5.0 (Macintosh; Intel Mac OS X 10.15; rv:85.0) Gecko/20100101 Firefox/85.0,Macintosh,Firefox,85,OS X,10.15
60,1,2292,"""",html-button-response,30,154055,0.0-30.0,"""",You are Correct. You called an Intact Pair Intact,0,1,feedback,Practice,"""","""","""","""","""","""","""","""","""","""","""",4/20/2021 16:49,73.169.242.36,Mozilla/5.0 (Macintosh; Intel Mac OS X 10.15; rv:85.0) Gecko/20100101 Firefox/85.0,Macintosh,Firefox,85,OS X,10.15
60,1,null,"""",html-keyboard-response,31,155056,0.0-31.0,"""","<div style=""font-size:60px;"">+</div>","""",2,ITI,Practice,null,1000,"""","""","""","""","""","""","""","""","""",4/20/2021 16:49,73.169.242.36,Mozilla/5.0 (Macintosh; Intel Mac OS X 10.15; rv:85.0) Gecko/20100101 Firefox/85.0,Macintosh,Firefox,85,OS X,10.15
60,1,null,"""",image-keyboard-response,32,155309,0.0-32.0,"""",jspsych/scrambledNeutralFaces/scrambledBF23NES.JPG,"""",2,forwardMask,Practice,null,250,"""",n,"""","""","""","""","""","""","""",4/20/2021 16:49,73.169.242.36,Mozilla/5.0 (Macintosh; Intel Mac OS X 10.15; rv:85.0) Gecko/20100101 Firefox/85.0,Macintosh,Firefox,85,OS X,10.15
60,1,null,"""",image-keyboard-response,33,155329,0.0-33.0,"""",jspsych/neutralFaces/BF23NES.JPG,"""",2,Cue,Practice,null,16,"""","""","""","""","""","""","""","""","""",4/20/2021 16:49,73.169.242.36,Mozilla/5.0 (Macintosh; Intel Mac OS X 10.15; rv:85.0) Gecko/20100101 Firefox/85.0,Macintosh,Firefox,85,OS X,10.15
60,1,null,"""",image-keyboard-response,34,155433,0.0-34.0,"""",jspsych/neutralFaces/BF20NES.JPG,"""",2,backwardMask,Practice,null,100,"""","""","""","""","""","""","""","""","""",4/20/2021 16:49,73.169.242.36,Mozilla/5.0 (Macintosh; Intel Mac OS X 10.15; rv:85.0) Gecko/20100101 Firefox/85.0,Macintosh,Firefox,85,OS X,10.15
60,1,null,"""",html-keyboard-response,35,156435,0.0-35.0,"""","<div style=""font-size:60px;"">+</div>","""",2,fixationBtwnNeutralMaskAndPrompt,Practice,null,1000,"""","""","""","""","""","""","""","""","""",4/20/2021 16:49,73.169.242.36,Mozilla/5.0 (Macintosh; Intel Mac OS X 10.15; rv:85.0) Gecko/20100101 Firefox/85.0,Macintosh,Firefox,85,OS X,10.15
60,1,2410,"""",html-button-response,36,158846,0.0-36.0,"""","<img src='jspsych/CFDfaces/CFD-WM-019-003-N.jpg'height=""250px""></br><b>Patrick</b>",0,2,IntactOrRearranged,Practice,"""","""","""","""",CFD-WM-019-003-N.jpg,Patrick,0,0,"""","""","""",4/20/2021 16:49,73.169.242.36,Mozilla/5.0 (Macintosh; Intel Mac OS X 10.15; rv:85.0) Gecko/20100101 Firefox/85.0,Macintosh,Firefox,85,OS X,10.15
60,1,4638,"""",html-slider-response,37,163488,0.0-37.0,"""","<img src='jspsych/CFDfaces/CFD-WM-019-003-N.jpg'height=""250px""></br><b>Patrick</b>","""",2,ConfidenceQuery,Practice,"""","""","""","""",CFD-AF-228-173-N.jpg,Taylor,0,"""",0,100,"""",4/20/2021 16:49,73.169.242.36,Mozilla/5.0 (Macintosh; Intel Mac OS X 10.15; rv:85.0) Gecko/20100101 Firefox/85.0,Macintosh,Firefox,85,OS X,10.15
60,1,1198,"""",html-button-response,38,164688,0.0-38.0,"""",You are Correct. You called an Intact Pair Intact,0,2,feedback,Practice,"""","""","""","""","""","""","""","""","""","""","""",4/20/2021 16:49,73.169.242.36,Mozilla/5.0 (Macintosh; Intel Mac OS X 10.15; rv:85.0) Gecko/20100101 Firefox/85.0,Macintosh,Firefox,85,OS X,10.15
60,1,null,"""",html-keyboard-response,39,165697,0.0-39.0,"""","<div style=""font-size:60px;"">+</div>","""",3,ITI,Practice,null,1000,"""","""","""","""","""","""","""","""","""",4/20/2021 16:49,73.169.242.36,Mozilla/5.0 (Macintosh; Intel Mac OS X 10.15; rv:85.0) Gecko/20100101 Firefox/85.0,Macintosh,Firefox,85,OS X,10.15
60,1,null,"""",image-keyboard-response,40,165952,0.0-40.0,"""",jspsych/scrambledNeutralFaces/scrambledBF07NES.JPG,"""",3,forwardMask,Practice,null,250,"""",n,"""","""","""","""","""","""","""",4/20/2021 16:49,73.169.242.36,Mozilla/5.0 (Macintosh; Intel Mac OS X 10.15; rv:85.0) Gecko/20100101 Firefox/85.0,Macintosh,Firefox,85,OS X,10.15
60,1,null,"""",image-keyboard-response,41,165976,0.0-41.0,"""",jspsych/neutralFaces/BF07NES.JPG,"""",3,Cue,Practice,null,16,"""","""","""","""","""","""","""","""","""",4/20/2021 16:49,73.169.242.36,Mozilla/5.0 (Macintosh; Intel Mac OS X 10.15; rv:85.0) Gecko/20100101 Firefox/85.0,Macintosh,Firefox,85,OS X,10.15
60,1,null,"""",image-keyboard-response,42,166080,0.0-42.0,"""",jspsych/neutralFaces/AF12NES.JPG,"""",3,backwardMask,Practice,null,100,"""","""","""","""","""","""","""","""","""",4/20/2021 16:49,73.169.242.36,Mozilla/5.0 (Macintosh; Intel Mac OS X 10.15; rv:85.0) Gecko/20100101 Firefox/85.0,Macintosh,Firefox,85,OS X,10.15
60,1,null,"""",html-keyboard-response,43,167082,0.0-43.0,"""","<div style=""font-size:60px;"">+</div>","""",3,fixationBtwnNeutralMaskAndPrompt,Practice,null,1000,"""","""","""","""","""","""","""","""","""",4/20/2021 16:49,73.169.242.36,Mozilla/5.0 (Macintosh; Intel Mac OS X 10.15; rv:85.0) Gecko/20100101 Firefox/85.0,Macintosh,Firefox,85,OS X,10.15
60,1,2952,"""",html-button-response,44,170035,0.0-44.0,"""","<img src='jspsych/CFDfaces/CFD-WM-222-057-N.jpg'height=""250px""></br><b>Carlos</b>",1,3,IntactOrRearranged,Practice,"""","""","""","""",CFD-WM-222-057-N.jpg,Carlos,1,1,"""","""","""",4/20/2021 16:49,73.169.242.36,Mozilla/5.0 (Macintosh; Intel Mac OS X 10.15; rv:85.0) Gecko/20100101 Firefox/85.0,Macintosh,Firefox,85,OS X,10.15
60,1,3204,"""",html-slider-response,45,173243,0.0-45.0,"""","<img src='jspsych/CFDfaces/CFD-WM-222-057-N.jpg'height=""250px""></br><b>Carlos</b>","""",3,ConfidenceQuery,Practice,"""","""","""","""",CFD-AF-228-173-N.jpg,Taylor,1,"""",0,100,"""",4/20/2021 16:49,73.169.242.36,Mozilla/5.0 (Macintosh; Intel Mac OS X 10.15; rv:85.0) Gecko/20100101 Firefox/85.0,Macintosh,Firefox,85,OS X,10.15
60,1,2535,"""",html-button-response,46,175780,0.0-46.0,"""",You are Correct. You Called A Rearranged Pair Rearranged,0,3,feedback,Practice,"""","""","""","""","""","""","""","""","""","""","""",4/20/2021 16:49,73.169.242.36,Mozilla/5.0 (Macintosh; Intel Mac OS X 10.15; rv:85.0) Gecko/20100101 Firefox/85.0,Macintosh,Firefox,85,OS X,10.15
60,1,null,"""",html-keyboard-response,47,176785,0.0-47.0,"""","<div style=""font-size:60px;"">+</div>","""",4,ITI,Practice,null,1000,"""","""","""","""","""","""","""","""","""",4/20/2021 16:49,73.169.242.36,Mozilla/5.0 (Macintosh; Intel Mac OS X 10.15; rv:85.0) Gecko/20100101 Firefox/85.0,Macintosh,Firefox,85,OS X,10.15
60,1,null,"""",image-keyboard-response,48,177040,0.0-48.0,"""",jspsych/scrambledNeutralFaces/scrambledBF11NES.JPG,"""",4,forwardMask,Practice,null,250,"""",n,"""","""","""","""","""","""","""",4/20/2021 16:49,73.169.242.36,Mozilla/5.0 (Macintosh; Intel Mac OS X 10.15; rv:85.0) Gecko/20100101 Firefox/85.0,Macintosh,Firefox,85,OS X,10.15
60,1,null,"""",image-keyboard-response,49,177060,0.0-49.0,"""",jspsych/neutralFaces/BF11NES.JPG,"""",4,Cue,Practice,null,16,"""","""","""","""","""","""","""","""","""",4/20/2021 16:49,73.169.242.36,Mozilla/5.0 (Macintosh; Intel Mac OS X 10.15; rv:85.0) Gecko/20100101 Firefox/85.0,Macintosh,Firefox,85,OS X,10.15
60,1,null,"""",image-keyboard-response,50,177163,0.0-50.0,"""",jspsych/neutralFaces/AF20NES.JPG,"""",4,backwardMask,Practice,null,100,"""","""","""","""","""","""","""","""","""",4/20/2021 16:49,73.169.242.36,Mozilla/5.0 (Macintosh; Intel Mac OS X 10.15; rv:85.0) Gecko/20100101 Firefox/85.0,Macintosh,Firefox,85,OS X,10.15
60,1,null,"""",html-keyboard-response,51,178166,0.0-51.0,"""","<div style=""font-size:60px;"">+</div>","""",4,fixationBtwnNeutralMaskAndPrompt,Practice,null,1000,"""","""","""","""","""","""","""","""","""",4/20/2021 16:49,73.169.242.36,Mozilla/5.0 (Macintosh; Intel Mac OS X 10.15; rv:85.0) Gecko/20100101 Firefox/85.0,Macintosh,Firefox,85,OS X,10.15
60,1,1934,"""",html-button-response,52,180103,0.0-52.0,"""","<img src='jspsych/CFDfaces/CFD-AM-237-154-N.jpg'height=""250px""></br><b>Marcus</b>",0,4,IntactOrRearranged,Practice,"""","""","""","""",CFD-AM-237-154-N.jpg,Marcus,1,0,"""","""","""",4/20/2021 16:49,73.169.242.36,Mozilla/5.0 (Macintosh; Intel Mac OS X 10.15; rv:85.0) Gecko/20100101 Firefox/85.0,Macintosh,Firefox,85,OS X,10.15
60,1,null,"""",html-slider-response,53,185105,0.0-53.0,"""","<img src='jspsych/CFDfaces/CFD-AM-237-154-N.jpg'height=""250px""></br><b>Marcus</b>","""",4,ConfidenceQuery,Practice,"""","""","""","""",CFD-AF-228-173-N.jpg,Taylor,1,"""",0,null,"""",4/20/2021 16:49,73.169.242.36,Mozilla/5.0 (Macintosh; Intel Mac OS X 10.15; rv:85.0) Gecko/20100101 Firefox/85.0,Macintosh,Firefox,85,OS X,10.15
60,1,1540,"""",html-button-response,54,186648,0.0-54.0,"""",You are Incorrect. You called a Rearranged Pair Intact,0,4,feedback,Practice,"""","""","""","""","""","""","""","""","""","""","""",4/20/2021 16:49,73.169.242.36,Mozilla/5.0 (Macintosh; Intel Mac OS X 10.15; rv:85.0) Gecko/20100101 Firefox/85.0,Macintosh,Firefox,85,OS X,10.15
60,1,null,"""",html-keyboard-response,55,187650,0.0-55.0,"""","<div style=""font-size:60px;"">+</div>","""",5,ITI,Practice,null,1000,"""","""","""","""","""","""","""","""","""",4/20/2021 16:49,73.169.242.36,Mozilla/5.0 (Macintosh; Intel Mac OS X 10.15; rv:85.0) Gecko/20100101 Firefox/85.0,Macintosh,Firefox,85,OS X,10.15
60,1,null,"""",image-keyboard-response,56,187902,0.0-56.0,"""",jspsych/scrambledDisgustFaces/scrambledAF35DIS.JPG,"""",5,forwardMask,Practice,null,250,"""",d,"""","""","""","""","""","""","""",4/20/2021 16:49,73.169.242.36,Mozilla/5.0 (Macintosh; Intel Mac OS X 10.15; rv:85.0) Gecko/20100101 Firefox/85.0,Macintosh,Firefox,85,OS X,10.15
60,1,null,"""",image-keyboard-response,57,187925,0.0-57.0,"""",jspsych/disgustFaces/AF35DIS.JPG,"""",5,Cue,Practice,null,16,"""","""","""","""","""","""","""","""","""",4/20/2021 16:49,73.169.242.36,Mozilla/5.0 (Macintosh; Intel Mac OS X 10.15; rv:85.0) Gecko/20100101 Firefox/85.0,Macintosh,Firefox,85,OS X,10.15
60,1,null,"""",image-keyboard-response,58,188028,0.0-58.0,"""",jspsych/neutralFaces/AF31NES.JPG,"""",5,backwardMask,Practice,null,100,"""","""","""","""","""","""","""","""","""",4/20/2021 16:49,73.169.242.36,Mozilla/5.0 (Macintosh; Intel Mac OS X 10.15; rv:85.0) Gecko/20100101 Firefox/85.0,Macintosh,Firefox,85,OS X,10.15
60,1,null,"""",html-keyboard-response,59,189030,0.0-59.0,"""","<div style=""font-size:60px;"">+</div>","""",5,fixationBtwnNeutralMaskAndPrompt,Practice,null,1000,"""","""","""","""","""","""","""","""","""",4/20/2021 16:49,73.169.242.36,Mozilla/5.0 (Macintosh; Intel Mac OS X 10.15; rv:85.0) Gecko/20100101 Firefox/85.0,Macintosh,Firefox,85,OS X,10.15
60,1,2547,"""",html-button-response,60,191578,0.0-60.0,"""","<img src='jspsych/CFDfaces/CFD-WF-218-087-N.jpg'height=""250px""></br><b>Cassandra</b>",1,5,IntactOrRearranged,Practice,"""","""","""","""",CFD-WF-218-087-N.jpg,Cassandra,1,1,"""","""","""",4/20/2021 16:49,73.169.242.36,Mozilla/5.0 (Macintosh; Intel Mac OS X 10.15; rv:85.0) Gecko/20100101 Firefox/85.0,Macintosh,Firefox,85,OS X,10.15
60,1,2453,"""",html-slider-response,61,194034,0.0-61.0,"""","<img src='jspsych/CFDfaces/CFD-WF-218-087-N.jpg'height=""250px""></br><b>Cassandra</b>","""",5,ConfidenceQuery,Practice,"""","""","""","""",CFD-AF-228-173-N.jpg,Taylor,1,"""",0,78,"""",4/20/2021 16:49,73.169.242.36,Mozilla/5.0 (Macintosh; Intel Mac OS X 10.15; rv:85.0) Gecko/20100101 Firefox/85.0,Macintosh,Firefox,85,OS X,10.15
60,1,1328,"""",html-button-response,62,195364,0.0-62.0,"""",You are Correct. You Called A Rearranged Pair Rearranged,0,5,feedback,Practice,"""","""","""","""","""","""","""","""","""","""","""",4/20/2021 16:49,73.169.242.36,Mozilla/5.0 (Macintosh; Intel Mac OS X 10.15; rv:85.0) Gecko/20100101 Firefox/85.0,Macintosh,Firefox,85,OS X,10.15
60,1,null,"""",html-keyboard-response,63,196364,0.0-63.0,"""","<div style=""font-size:60px;"">+</div>","""",6,ITI,Practice,null,1000,"""","""","""","""","""","""","""","""","""",4/20/2021 16:49,73.169.242.36,Mozilla/5.0 (Macintosh; Intel Mac OS X 10.15; rv:85.0) Gecko/20100101 Firefox/85.0,Macintosh,Firefox,85,OS X,10.15
60,1,null,"""",image-keyboard-response,64,196617,0.0-64.0,"""",jspsych/scrambledDisgustFaces/scrambledAM19DIS.JPG,"""",6,forwardMask,Practice,null,250,"""",d,"""","""","""","""","""","""","""",4/20/2021 16:49,73.169.242.36,Mozilla/5.0 (Macintosh; Intel Mac OS X 10.15; rv:85.0) Gecko/20100101 Firefox/85.0,Macintosh,Firefox,85,OS X,10.15
60,1,null,"""",image-keyboard-response,65,196641,0.0-65.0,"""",jspsych/disgustFaces/AM19DIS.JPG,"""",6,Cue,Practice,null,16,"""","""","""","""","""","""","""","""","""",4/20/2021 16:49,73.169.242.36,Mozilla/5.0 (Macintosh; Intel Mac OS X 10.15; rv:85.0) Gecko/20100101 Firefox/85.0,Macintosh,Firefox,85,OS X,10.15
60,1,null,"""",image-keyboard-response,66,196745,0.0-66.0,"""",jspsych/neutralFaces/BM04NES.JPG,"""",6,backwardMask,Practice,null,100,"""","""","""","""","""","""","""","""","""",4/20/2021 16:49,73.169.242.36,Mozilla/5.0 (Macintosh; Intel Mac OS X 10.15; rv:85.0) Gecko/20100101 Firefox/85.0,Macintosh,Firefox,85,OS X,10.15
60,1,null,"""",html-keyboard-response,67,197746,0.0-67.0,"""","<div style=""font-size:60px;"">+</div>","""",6,fixationBtwnNeutralMaskAndPrompt,Practice,null,1000,"""","""","""","""","""","""","""","""","""",4/20/2021 16:49,73.169.242.36,Mozilla/5.0 (Macintosh; Intel Mac OS X 10.15; rv:85.0) Gecko/20100101 Firefox/85.0,Macintosh,Firefox,85,OS X,10.15
60,1,1793,"""",html-button-response,68,199541,0.0-68.0,"""","<img src='jspsych/CFDfaces/CFD-LF-218-072-N.jpg'height=""250px""></br><b>Tara</b>",0,6,IntactOrRearranged,Practice,"""","""","""","""",CFD-LF-218-072-N.jpg,Tara,0,0,"""","""","""",4/20/2021 16:49,73.169.242.36,Mozilla/5.0 (Macintosh; Intel Mac OS X 10.15; rv:85.0) Gecko/20100101 Firefox/85.0,Macintosh,Firefox,85,OS X,10.15
60,1,3271,"""",html-slider-response,69,202814,0.0-69.0,"""","<img src='jspsych/CFDfaces/CFD-LF-218-072-N.jpg'height=""250px""></br><b>Tara</b>","""",6,ConfidenceQuery,Practice,"""","""","""","""",CFD-AF-228-173-N.jpg,Taylor,0,"""",0,70,"""",4/20/2021 16:49,73.169.242.36,Mozilla/5.0 (Macintosh; Intel Mac OS X 10.15; rv:85.0) Gecko/20100101 Firefox/85.0,Macintosh,Firefox,85,OS X,10.15
60,1,1624,"""",html-button-response,70,204439,0.0-70.0,"""",You are Correct. You called an Intact Pair Intact,0,6,feedback,Practice,"""","""","""","""","""","""","""","""","""","""","""",4/20/2021 16:49,73.169.242.36,Mozilla/5.0 (Macintosh; Intel Mac OS X 10.15; rv:85.0) Gecko/20100101 Firefox/85.0,Macintosh,Firefox,85,OS X,10.15
60,1,null,"""",html-keyboard-response,71,205447,0.0-71.0,"""","<div style=""font-size:60px;"">+</div>","""",7,ITI,Practice,null,1000,"""","""","""","""","""","""","""","""","""",4/20/2021 16:49,73.169.242.36,Mozilla/5.0 (Macintosh; Intel Mac OS X 10.15; rv:85.0) Gecko/20100101 Firefox/85.0,Macintosh,Firefox,85,OS X,10.15
60,1,null,"""",image-keyboard-response,72,205701,0.0-72.0,"""",jspsych/scrambledDisgustFaces/scrambledAF28DIS.JPG,"""",7,forwardMask,Practice,null,250,"""",d,"""","""","""","""","""","""","""",4/20/2021 16:49,73.169.242.36,Mozilla/5.0 (Macintosh; Intel Mac OS X 10.15; rv:85.0) Gecko/20100101 Firefox/85.0,Macintosh,Firefox,85,OS X,10.15
60,1,null,"""",image-keyboard-response,73,205722,0.0-73.0,"""",jspsych/disgustFaces/AF28DIS.JPG,"""",7,Cue,Practice,null,16,"""","""","""","""","""","""","""","""","""",4/20/2021 16:49,73.169.242.36,Mozilla/5.0 (Macintosh; Intel Mac OS X 10.15; rv:85.0) Gecko/20100101 Firefox/85.0,Macintosh,Firefox,85,OS X,10.15
60,1,null,"""",image-keyboard-response,74,205827,0.0-74.0,"""",jspsych/neutralFaces/BF13NES.JPG,"""",7,backwardMask,Practice,null,100,"""","""","""","""","""","""","""","""","""",4/20/2021 16:49,73.169.242.36,Mozilla/5.0 (Macintosh; Intel Mac OS X 10.15; rv:85.0) Gecko/20100101 Firefox/85.0,Macintosh,Firefox,85,OS X,10.15
60,1,null,"""",html-keyboard-response,75,206832,0.0-75.0,"""","<div style=""font-size:60px;"">+</div>","""",7,fixationBtwnNeutralMaskAndPrompt,Practice,null,1000,"""","""","""","""","""","""","""","""","""",4/20/2021 16:49,73.169.242.36,Mozilla/5.0 (Macintosh; Intel Mac OS X 10.15; rv:85.0) Gecko/20100101 Firefox/85.0,Macintosh,Firefox,85,OS X,10.15
60,1,1888,"""",html-button-response,76,208722,0.0-76.0,"""","<img src='jspsych/CFDfaces/CFD-LF-202-065-N.jpg'height=""250px""></br><b>Katelyn</b>",0,7,IntactOrRearranged,Practice,"""","""","""","""",CFD-LF-202-065-N.jpg,Katelyn,1,0,"""","""","""",4/20/2021 16:49,73.169.242.36,Mozilla/5.0 (Macintosh; Intel Mac OS X 10.15; rv:85.0) Gecko/20100101 Firefox/85.0,Macintosh,Firefox,85,OS X,10.15
60,1,3231,"""",html-slider-response,77,211955,0.0-77.0,"""","<img src='jspsych/CFDfaces/CFD-LF-202-065-N.jpg'height=""250px""></br><b>Katelyn</b>","""",7,ConfidenceQuery,Practice,"""","""","""","""",CFD-AF-228-173-N.jpg,Taylor,1,"""",0,48,"""",4/20/2021 16:49,73.169.242.36,Mozilla/5.0 (Macintosh; Intel Mac OS X 10.15; rv:85.0) Gecko/20100101 Firefox/85.0,Macintosh,Firefox,85,OS X,10.15
60,1,1935,"""",html-button-response,78,213891,0.0-78.0,"""",You are Incorrect. You called a Rearranged Pair Intact,0,7,feedback,Practice,"""","""","""","""","""","""","""","""","""","""","""",4/20/2021 16:49,73.169.242.36,Mozilla/5.0 (Macintosh; Intel Mac OS X 10.15; rv:85.0) Gecko/20100101 Firefox/85.0,Macintosh,Firefox,85,OS X,10.15
60,1,null,"""",html-keyboard-response,79,214894,0.0-79.0,"""","<div style=""font-size:60px;"">+</div>","""",8,ITI,Practice,null,1000,"""","""","""","""","""","""","""","""","""",4/20/2021 16:49,73.169.242.36,Mozilla/5.0 (Macintosh; Intel Mac OS X 10.15; rv:85.0) Gecko/20100101 Firefox/85.0,Macintosh,Firefox,85,OS X,10.15
60,1,null,"""",image-keyboard-response,80,215147,0.0-80.0,"""",jspsych/scrambledNeutralFaces/scrambledBM33NES.JPG,"""",8,forwardMask,Practice,null,250,"""",n,"""","""","""","""","""","""","""",4/20/2021 16:49,73.169.242.36,Mozilla/5.0 (Macintosh; Intel Mac OS X 10.15; rv:85.0) Gecko/20100101 Firefox/85.0,Macintosh,Firefox,85,OS X,10.15
60,1,null,"""",image-keyboard-response,81,215170,0.0-81.0,"""",jspsych/neutralFaces/BM33NES.JPG,"""",8,Cue,Practice,null,16,"""","""","""","""","""","""","""","""","""",4/20/2021 16:49,73.169.242.36,Mozilla/5.0 (Macintosh; Intel Mac OS X 10.15; rv:85.0) Gecko/20100101 Firefox/85.0,Macintosh,Firefox,85,OS X,10.15
60,1,null,"""",image-keyboard-response,82,215273,0.0-82.0,"""",jspsych/neutralFaces/BM25NES.JPG,"""",8,backwardMask,Practice,null,100,"""","""","""","""","""","""","""","""","""",4/20/2021 16:49,73.169.242.36,Mozilla/5.0 (Macintosh; Intel Mac OS X 10.15; rv:85.0) Gecko/20100101 Firefox/85.0,Macintosh,Firefox,85,OS X,10.15
60,1,null,"""",html-keyboard-response,83,216276,0.0-83.0,"""","<div style=""font-size:60px;"">+</div>","""",8,fixationBtwnNeutralMaskAndPrompt,Practice,null,1000,"""","""","""","""","""","""","""","""","""",4/20/2021 16:49,73.169.242.36,Mozilla/5.0 (Macintosh; Intel Mac OS X 10.15; rv:85.0) Gecko/20100101 Firefox/85.0,Macintosh,Firefox,85,OS X,10.15
60,1,2137,"""",html-button-response,84,218413,0.0-84.0,"""","<img src='jspsych/CFDfaces/CFD-WF-016-015-N.jpg'height=""250px""></br><b>Shannon</b>",0,8,IntactOrRearranged,Practice,"""","""","""","""",CFD-WF-016-015-N.jpg,Shannon,0,0,"""","""","""",4/20/2021 16:49,73.169.242.36,Mozilla/5.0 (Macintosh; Intel Mac OS X 10.15; rv:85.0) Gecko/20100101 Firefox/85.0,Macintosh,Firefox,85,OS X,10.15
60,1,2734,"""",html-slider-response,85,221152,0.0-85.0,"""","<img src='jspsych/CFDfaces/CFD-WF-016-015-N.jpg'height=""250px""></br><b>Shannon</b>","""",8,ConfidenceQuery,Practice,"""","""","""","""",CFD-AF-228-173-N.jpg,Taylor,0,"""",0,88,"""",4/20/2021 16:49,73.169.242.36,Mozilla/5.0 (Macintosh; Intel Mac OS X 10.15; rv:85.0) Gecko/20100101 Firefox/85.0,Macintosh,Firefox,85,OS X,10.15
60,1,901,"""",html-button-response,86,222055,0.0-86.0,"""",You are Correct. You called an Intact Pair Intact,0,8,feedback,Practice,"""","""","""","""","""","""","""","""","""","""","""",4/20/2021 16:49,73.169.242.36,Mozilla/5.0 (Macintosh; Intel Mac OS X 10.15; rv:85.0) Gecko/20100101 Firefox/85.0,Macintosh,Firefox,85,OS X,10.15
60,1,113473,"""",image-button-response,87,335535,0.0-87.0,"""",directionsMemoryAssociation3.JPG,0,128,DirectionsBeforeActualTEst,Break,"""","""","""","""","""","""","""","""","""","""","""",4/20/2021 16:49,73.169.242.36,Mozilla/5.0 (Macintosh; Intel Mac OS X 10.15; rv:85.0) Gecko/20100101 Firefox/85.0,Macintosh,Firefox,85,OS X,10.15
60,1,4337,"""",image-button-response,88,339887,0.0-88.0,"""",directionsForTest2.JPG,0,1,directionsForTest2,break,"""","""","""","""","""","""","""","""","""","""","""",4/20/2021 16:49,73.169.242.36,Mozilla/5.0 (Macintosh; Intel Mac OS X 10.15; rv:85.0) Gecko/20100101 Firefox/85.0,Macintosh,Firefox,85,OS X,10.15
60,1,14122,"""",html-button-response,89,354012,0.0-89.0,"""","<p>You will be asked to memorize and then recall four sets of face-name pairs. </p> <p> Each set will have 32 pairs. </p> <p>After the fourth set, there will be a brief follow-up experiment (<40 min alltogether)</p>",0,"""","""","""","""","""","""","""","""","""","""","""","""","""","""",4/20/2021 16:49,73.169.242.36,Mozilla/5.0 (Macintosh; Intel Mac OS X 10.15; rv:85.0) Gecko/20100101 Firefox/85.0,Macintosh,Firefox,85,OS X,10.15
60,1,3495,"""",html-keyboard-response,90,359021,0.0-90.0,"""","<img src='jspsych/CFDfaces/CFD-WM-017-002-N.jpg' height=""250px""></br><b>Ian</b>","""",256,IntactFace,Memorization,70,5000,f,"""",CFD-AF-240-206-N.jpg,Jordan,0,"""","""","""",1,4/20/2021 16:49,73.169.242.36,Mozilla/5.0 (Macintosh; Intel Mac OS X 10.15; rv:85.0) Gecko/20100101 Firefox/85.0,Macintosh,Firefox,85,OS X,10.15
60,1,null,"""",html-keyboard-response,91,359524,0.0-91.0,"""","<div style=""font-size:60px;"">+</div>","""",256,fixation,Memorization,null,500,"""","""","""","""","""","""","""","""",1,4/20/2021 16:49,73.169.242.36,Mozilla/5.0 (Macintosh; Intel Mac OS X 10.15; rv:85.0) Gecko/20100101 Firefox/85.0,Macintosh,Firefox,85,OS X,10.15
60,1,3488,"""",html-keyboard-response,92,364530,0.0-92.0,"""","<img src='jspsych/CFDfaces/CFD-BM-211-174-N.jpg' height=""250px""></br><b>Peter</b>","""",256,IntactFace,Memorization,70,5000,f,"""",CFD-WM-232-070-N.jpg,Timothy,0,"""","""","""",1,4/20/2021 16:49,73.169.242.36,Mozilla/5.0 (Macintosh; Intel Mac OS X 10.15; rv:85.0) Gecko/20100101 Firefox/85.0,Macintosh,Firefox,85,OS X,10.15
60,1,null,"""",html-keyboard-response,93,365032,0.0-93.0,"""","<div style=""font-size:60px;"">+</div>","""",256,fixation,Memorization,null,500,"""","""","""","""","""","""","""","""",1,4/20/2021 16:49,73.169.242.36,Mozilla/5.0 (Macintosh; Intel Mac OS X 10.15; rv:85.0) Gecko/20100101 Firefox/85.0,Macintosh,Firefox,85,OS X,10.15
60,1,2913,"""",html-keyboard-response,94,370036,0.0-94.0,"""","<img src='jspsych/CFDfaces/CFD-WM-022-001-N.jpg' height=""250px""></br><b>Jeffrey</b>","""",256,IntactFace,Memorization,78,5000,n,"""",CFD-BM-026-002-N.jpg,Mark,0,"""","""","""",1,4/20/2021 16:49,73.169.242.36,Mozilla/5.0 (Macintosh; Intel Mac OS X 10.15; rv:85.0) Gecko/20100101 Firefox/85.0,Macintosh,Firefox,85,OS X,10.15
60,1,null,"""",html-keyboard-response,95,370542,0.0-95.0,"""","<div style=""font-size:60px;"">+</div>","""",256,fixation,Memorization,null,500,"""","""","""","""","""","""","""","""",1,4/20/2021 16:49,73.169.242.36,Mozilla/5.0 (Macintosh; Intel Mac OS X 10.15; rv:85.0) Gecko/20100101 Firefox/85.0,Macintosh,Firefox,85,OS X,10.15
60,1,3071,"""",html-keyboard-response,96,375545,0.0-96.0,"""","<img src='jspsych/CFDfaces/CFD-BF-001-025-N.jpg' height=""250px""></br><b>Stephanie</b>","""",256,IntactFace,Memorization,70,5000,f,"""",CFD-AF-228-173-N.jpg,Taylor,0,"""","""","""",1,4/20/2021 16:49,73.169.242.36,Mozilla/5.0 (Macintosh; Intel Mac OS X 10.15; rv:85.0) Gecko/20100101 Firefox/85.0,Macintosh,Firefox,85,OS X,10.15
60,1,null,"""",html-keyboard-response,97,376052,0.0-97.0,"""","<div style=""font-size:60px;"">+</div>","""",256,fixation,Memorization,null,500,"""","""","""","""","""","""","""","""",1,4/20/2021 16:49,73.169.242.36,Mozilla/5.0 (Macintosh; Intel Mac OS X 10.15; rv:85.0) Gecko/20100101 Firefox/85.0,Macintosh,Firefox,85,OS X,10.15
60,1,2889,"""",html-keyboard-response,98,381053,0.0-98.0,"""","<img src='jspsych/CFDfaces/CFD-AF-230-193-N.jpg' height=""250px""></br><b>Vanessa</b>","""",256,IntactFace,Memorization,70,5000,f,"""",CFD-AF-239-171-N.jpg,Erin,0,"""","""","""",1,4/20/2021 16:49,73.169.242.36,Mozilla/5.0 (Macintosh; Intel Mac OS X 10.15; rv:85.0) Gecko/20100101 Firefox/85.0,Macintosh,Firefox,85,OS X,10.15
60,1,null,"""",html-keyboard-response,99,381559,0.0-99.0,"""","<div style=""font-size:60px;"">+</div>","""",256,fixation,Memorization,null,500,"""","""","""","""","""","""","""","""",1,4/20/2021 16:49,73.169.242.36,Mozilla/5.0 (Macintosh; Intel Mac OS X 10.15; rv:85.0) Gecko/20100101 Firefox/85.0,Macintosh,Firefox,85,OS X,10.15
60,1,2310,"""",html-keyboard-response,100,386564,0.0-100.0,"""","<img src='jspsych/CFDfaces/CFD-LF-231-260-N.jpg' height=""250px""></br><b>Brittany</b>","""",256,IntactFace,Memorization,78,5000,n,"""",CFD-BM-032-024-N.jpg,Ryan,0,"""","""","""",1,4/20/2021 16:49,73.169.242.36,Mozilla/5.0 (Macintosh; Intel Mac OS X 10.15; rv:85.0) Gecko/20100101 Firefox/85.0,Macintosh,Firefox,85,OS X,10.15
60,1,null,"""",html-keyboard-response,101,387067,0.0-101.0,"""","<div style=""font-size:60px;"">+</div>","""",256,fixation,Memorization,null,500,"""","""","""","""","""","""","""","""",1,4/20/2021 16:49,73.169.242.36,Mozilla/5.0 (Macintosh; Intel Mac OS X 10.15; rv:85.0) Gecko/20100101 Firefox/85.0,Macintosh,Firefox,85,OS X,10.15
60,1,2509,"""",html-keyboard-response,102,392071,0.0-102.0,"""","<img src='jspsych/CFDfaces/CFD-WF-019-005-N.jpg' height=""250px""></br><b>Victoria</b>","""",256,IntactFace,Memorization,70,5000,f,"""",CFD-BM-027-001-N.jpg,Jesse,0,"""","""","""",1,4/20/2021 16:49,73.169.242.36,Mozilla/5.0 (Macintosh; Intel Mac OS X 10.15; rv:85.0) Gecko/20100101 Firefox/85.0,Macintosh,Firefox,85,OS X,10.15
60,1,null,"""",html-keyboard-response,103,392581,0.0-103.0,"""","<div style=""font-size:60px;"">+</div>","""",256,fixation,Memorization,null,500,"""","""","""","""","""","""","""","""",1,4/20/2021 16:49,73.169.242.36,Mozilla/5.0 (Macintosh; Intel Mac OS X 10.15; rv:85.0) Gecko/20100101 Firefox/85.0,Macintosh,Firefox,85,OS X,10.15
60,1,3177,"""",html-keyboard-response,104,397586,0.0-104.0,"""","<img src='jspsych/CFDfaces/CFD-WM-213-076-N.jpg' height=""250px""></br><b>Richard</b>","""",256,IntactFace,Memorization,78,5000,n,"""",CFD-AF-235-170-N.jpg,Jasmine,0,"""","""","""",1,4/20/2021 16:49,73.169.242.36,Mozilla/5.0 (Macintosh; Intel Mac OS X 10.15; rv:85.0) Gecko/20100101 Firefox/85.0,Macintosh,Firefox,85,OS X,10.15
60,1,null,"""",html-keyboard-response,105,398097,0.0-105.0,"""","<div style=""font-size:60px;"">+</div>","""",256,fixation,Memorization,null,500,"""","""","""","""","""","""","""","""",1,4/20/2021 16:49,73.169.242.36,Mozilla/5.0 (Macintosh; Intel Mac OS X 10.15; rv:85.0) Gecko/20100101 Firefox/85.0,Macintosh,Firefox,85,OS X,10.15
60,1,2864,"""",html-keyboard-response,106,403101,0.0-106.0,"""","<img src='jspsych/CFDfaces/CFD-WF-029-002-N.jpg' height=""250px""></br><b>Amanda</b>","""",256,IntactFace,Memorization,70,5000,f,"""",CFD-LF-204-133-N.jpg,Tiffany,0,"""","""","""",1,4/20/2021 16:49,73.169.242.36,Mozilla/5.0 (Macintosh; Intel Mac OS X 10.15; rv:85.0) Gecko/20100101 Firefox/85.0,Macintosh,Firefox,85,OS X,10.15
60,1,null,"""",html-keyboard-response,107,403604,0.0-107.0,"""","<div style=""font-size:60px;"">+</div>","""",256,fixation,Memorization,null,500,"""","""","""","""","""","""","""","""",1,4/20/2021 16:49,73.169.242.36,Mozilla/5.0 (Macintosh; Intel Mac OS X 10.15; rv:85.0) Gecko/20100101 Firefox/85.0,Macintosh,Firefox,85,OS X,10.15
60,1,2274,"""",html-keyboard-response,108,408611,0.0-108.0,"""","<img src='jspsych/CFDfaces/CFD-WF-006-002-N.jpg' height=""250px""></br><b>Ashley</b>","""",256,IntactFace,Memorization,70,5000,f,"""",CFD-BF-005-001-N.jpg,Jenna,0,"""","""","""",1,4/20/2021 16:49,73.169.242.36,Mozilla/5.0 (Macintosh; Intel Mac OS X 10.15; rv:85.0) Gecko/20100101 Firefox/85.0,Macintosh,Firefox,85,OS X,10.15
60,1,null,"""",html-keyboard-response,109,409116,0.0-109.0,"""","<div style=""font-size:60px;"">+</div>","""",256,fixation,Memorization,null,500,"""","""","""","""","""","""","""","""",1,4/20/2021 16:49,73.169.242.36,Mozilla/5.0 (Macintosh; Intel Mac OS X 10.15; rv:85.0) Gecko/20100101 Firefox/85.0,Macintosh,Firefox,85,OS X,10.15
60,1,3645,"""",html-keyboard-response,110,414118,0.0-110.0,"""","<img src='jspsych/CFDfaces/CFD-AM-234-355-N.jpg' height=""250px""></br><b>Jason</b>","""",256,IntactFace,Memorization,70,5000,f,"""",CFD-AF-215-70-N.jpg,Rebecca,0,"""","""","""",1,4/20/2021 16:49,73.169.242.36,Mozilla/5.0 (Macintosh; Intel Mac OS X 10.15; rv:85.0) Gecko/20100101 Firefox/85.0,Macintosh,Firefox,85,OS X,10.15
60,1,null,"""",html-keyboard-response,111,414624,0.0-111.0,"""","<div style=""font-size:60px;"">+</div>","""",256,fixation,Memorization,null,500,"""","""","""","""","""","""","""","""",1,4/20/2021 16:49,73.169.242.36,Mozilla/5.0 (Macintosh; Intel Mac OS X 10.15; rv:85.0) Gecko/20100101 Firefox/85.0,Macintosh,Firefox,85,OS X,10.15
60,1,2696,"""",html-keyboard-response,112,419628,0.0-112.0,"""","<img src='jspsych/CFDfaces/CFD-BM-018-001-N.jpg' height=""250px""></br><b>Gregory</b>","""",256,IntactFace,Memorization,70,5000,f,"""",CFD-BM-001-014-N.jpg,Justin,0,"""","""","""",1,4/20/2021 16:49,73.169.242.36,Mozilla/5.0 (Macintosh; Intel Mac OS X 10.15; rv:85.0) Gecko/20100101 Firefox/85.0,Macintosh,Firefox,85,OS X,10.15
60,1,null,"""",html-keyboard-response,113,420130,0.0-113.0,"""","<div style=""font-size:60px;"">+</div>","""",256,fixation,Memorization,null,500,"""","""","""","""","""","""","""","""",1,4/20/2021 16:49,73.169.242.36,Mozilla/5.0 (Macintosh; Intel Mac OS X 10.15; rv:85.0) Gecko/20100101 Firefox/85.0,Macintosh,Firefox,85,OS X,10.15
60,1,2720,"""",html-keyboard-response,114,425135,0.0-114.0,"""","<img src='jspsych/CFDfaces/CFD-WM-212-097-N.jpg' height=""250px""></br><b>Brian</b>","""",256,IntactFace,Memorization,70,5000,f,"""",CFD-WM-216-061-N.jpg,Austin,0,"""","""","""",1,4/20/2021 16:49,73.169.242.36,Mozilla/5.0 (Macintosh; Intel Mac OS X 10.15; rv:85.0) Gecko/20100101 Firefox/85.0,Macintosh,Firefox,85,OS X,10.15
60,1,null,"""",html-keyboard-response,115,425636,0.0-115.0,"""","<div style=""font-size:60px;"">+</div>","""",256,fixation,Memorization,null,500,"""","""","""","""","""","""","""","""",1,4/20/2021 16:49,73.169.242.36,Mozilla/5.0 (Macintosh; Intel Mac OS X 10.15; rv:85.0) Gecko/20100101 Firefox/85.0,Macintosh,Firefox,85,OS X,10.15
60,1,3206,"""",html-keyboard-response,116,430643,0.0-116.0,"""","<img src='jspsych/CFDfaces/CFD-LF-206-078-N.jpg' height=""250px""></br><b>Andrea</b>","""",256,IntactFace,Memorization,70,5000,f,"""",CFD-LM-221-216-N.jpg,Jacob,0,"""","""","""",1,4/20/2021 16:49,73.169.242.36,Mozilla/5.0 (Macintosh; Intel Mac OS X 10.15; rv:85.0) Gecko/20100101 Firefox/85.0,Macintosh,Firefox,85,OS X,10.15
60,1,null,"""",html-keyboard-response,117,431145,0.0-117.0,"""","<div style=""font-size:60px;"">+</div>","""",256,fixation,Memorization,null,500,"""","""","""","""","""","""","""","""",1,4/20/2021 16:49,73.169.242.36,Mozilla/5.0 (Macintosh; Intel Mac OS X 10.15; rv:85.0) Gecko/20100101 Firefox/85.0,Macintosh,Firefox,85,OS X,10.15
60,1,3049,"""",html-keyboard-response,118,436146,0.0-118.0,"""","<img src='jspsych/CFDfaces/CFD-AF-243-170-N.jpg' height=""250px""></br><b>Samantha</b>","""",256,IntactFace,Memorization,78,5000,n,"""",CFD-LM-213-061-N.jpg,Vincent,0,"""","""","""",1,4/20/2021 16:49,73.169.242.36,Mozilla/5.0 (Macintosh; Intel Mac OS X 10.15; rv:85.0) Gecko/20100101 Firefox/85.0,Macintosh,Firefox,85,OS X,10.15
60,1,null,"""",html-keyboard-response,119,436656,0.0-119.0,"""","<div style=""font-size:60px;"">+</div>","""",256,fixation,Memorization,null,500,"""","""","""","""","""","""","""","""",1,4/20/2021 16:49,73.169.242.36,Mozilla/5.0 (Macintosh; Intel Mac OS X 10.15; rv:85.0) Gecko/20100101 Firefox/85.0,Macintosh,Firefox,85,OS X,10.15
60,1,3053,"""",html-keyboard-response,120,441658,0.0-120.0,"""","<img src='jspsych/CFDfaces/CFD-BM-011-016-N.jpg' height=""250px""></br><b>James</b>","""",256,IntactFace,Memorization,70,5000,f,"""",CFD-AF-203-077-N.jpg,Heather,0,"""","""","""",1,4/20/2021 16:49,73.169.242.36,Mozilla/5.0 (Macintosh; Intel Mac OS X 10.15; rv:85.0) Gecko/20100101 Firefox/85.0,Macintosh,Firefox,85,OS X,10.15
60,1,null,"""",html-keyboard-response,121,442160,0.0-121.0,"""","<div style=""font-size:60px;"">+</div>","""",256,fixation,Memorization,null,500,"""","""","""","""","""","""","""","""",1,4/20/2021 16:49,73.169.242.36,Mozilla/5.0 (Macintosh; Intel Mac OS X 10.15; rv:85.0) Gecko/20100101 Firefox/85.0,Macintosh,Firefox,85,OS X,10.15
60,1,2582,"""",html-keyboard-response,122,447166,0.0-122.0,"""","<img src='jspsych/CFDfaces/CFD-BM-010-003-N.jpg' height=""250px""></br><b>Juan</b>","""",256,IntactFace,Memorization,78,5000,n,"""",CFD-AF-233-190-N.jpg,Lindsey,0,"""","""","""",1,4/20/2021 16:49,73.169.242.36,Mozilla/5.0 (Macintosh; Intel Mac OS X 10.15; rv:85.0) Gecko/20100101 Firefox/85.0,Macintosh,Firefox,85,OS X,10.15
60,1,null,"""",html-keyboard-response,123,447668,0.0-123.0,"""","<div style=""font-size:60px;"">+</div>","""",256,fixation,Memorization,null,500,"""","""","""","""","""","""","""","""",1,4/20/2021 16:49,73.169.242.36,Mozilla/5.0 (Macintosh; Intel Mac OS X 10.15; rv:85.0) Gecko/20100101 Firefox/85.0,Macintosh,Firefox,85,OS X,10.15
60,1,2974,"""",html-keyboard-response,124,452670,0.0-124.0,"""","<img src='jspsych/CFDfaces/CFD-AF-226-251-N.jpg' height=""250px""></br><b>Christina</b>","""",256,IntactFace,Memorization,70,5000,f,"""",CFD-LF-239-148-N.jpg,Amy,0,"""","""","""",1,4/20/2021 16:49,73.169.242.36,Mozilla/5.0 (Macintosh; Intel Mac OS X 10.15; rv:85.0) Gecko/20100101 Firefox/85.0,Macintosh,Firefox,85,OS X,10.15
60,1,null,"""",html-keyboard-response,125,453174,0.0-125.0,"""","<div style=""font-size:60px;"">+</div>","""",256,fixation,Memorization,null,500,"""","""","""","""","""","""","""","""",1,4/20/2021 16:49,73.169.242.36,Mozilla/5.0 (Macintosh; Intel Mac OS X 10.15; rv:85.0) Gecko/20100101 Firefox/85.0,Macintosh,Firefox,85,OS X,10.15
60,1,2911,"""",html-keyboard-response,126,458177,0.0-126.0,"""","<img src='jspsych/CFDfaces/CFD-BF-016-017-N.jpg' height=""250px""></br><b>Kimberly</b>","""",256,IntactFace,Memorization,78,5000,n,"""",CFD-BF-212-315-N.jpg,Lauren,0,"""","""","""",1,4/20/2021 16:49,73.169.242.36,Mozilla/5.0 (Macintosh; Intel Mac OS X 10.15; rv:85.0) Gecko/20100101 Firefox/85.0,Macintosh,Firefox,85,OS X,10.15
60,1,null,"""",html-keyboard-response,127,458682,0.0-127.0,"""","<div style=""font-size:60px;"">+</div>","""",256,fixation,Memorization,null,500,"""","""","""","""","""","""","""","""",1,4/20/2021 16:49,73.169.242.36,Mozilla/5.0 (Macintosh; Intel Mac OS X 10.15; rv:85.0) Gecko/20100101 Firefox/85.0,Macintosh,Firefox,85,OS X,10.15
60,1,2786,"""",html-keyboard-response,128,463685,0.0-128.0,"""","<img src='jspsych/CFDfaces/CFD-LM-220-329-N.jpg' height=""250px""></br><b>Robert</b>","""",256,IntactFace,Memorization,78,5000,n,"""",CFD-LM-217-162-N.jpg,Luis,0,"""","""","""",1,4/20/2021 16:49,73.169.242.36,Mozilla/5.0 (Macintosh; Intel Mac OS X 10.15; rv:85.0) Gecko/20100101 Firefox/85.0,Macintosh,Firefox,85,OS X,10.15
60,1,null,"""",html-keyboard-response,129,464190,0.0-129.0,"""","<div style=""font-size:60px;"">+</div>","""",256,fixation,Memorization,null,500,"""","""","""","""","""","""","""","""",1,4/20/2021 16:49,73.169.242.36,Mozilla/5.0 (Macintosh; Intel Mac OS X 10.15; rv:85.0) Gecko/20100101 Firefox/85.0,Macintosh,Firefox,85,OS X,10.15
60,1,3415,"""",html-keyboard-response,130,469197,0.0-130.0,"""","<img src='jspsych/CFDfaces/CFD-WF-217-085-N.jpg' height=""250px""></br><b>Julie</b>","""",256,IntactFace,Memorization,70,5000,f,"""",CFD-LF-208-127-N.jpg,Angela,0,"""","""","""",1,4/20/2021 16:49,73.169.242.36,Mozilla/5.0 (Macintosh; Intel Mac OS X 10.15; rv:85.0) Gecko/20100101 Firefox/85.0,Macintosh,Firefox,85,OS X,10.15
60,1,null,"""",html-keyboard-response,131,469698,0.0-131.0,"""","<div style=""font-size:60px;"">+</div>","""",256,fixation,Memorization,null,500,"""","""","""","""","""","""","""","""",1,4/20/2021 16:49,73.169.242.36,Mozilla/5.0 (Macintosh; Intel Mac OS X 10.15; rv:85.0) Gecko/20100101 Firefox/85.0,Macintosh,Firefox,85,OS X,10.15
60,1,3066,"""",html-keyboard-response,132,474701,0.0-132.0,"""","<img src='jspsych/CFDfaces/CFD-LM-252-076-N.jpg' height=""250px""></br><b>Daniel</b>","""",256,IntactFace,Memorization,70,5000,f,"""",CFD-BM-039-029-N.jpg,Steven,0,"""","""","""",1,4/20/2021 16:49,73.169.242.36,Mozilla/5.0 (Macintosh; Intel Mac OS X 10.15; rv:85.0) Gecko/20100101 Firefox/85.0,Macintosh,Firefox,85,OS X,10.15
60,1,null,"""",html-keyboard-response,133,475208,0.0-133.0,"""","<div style=""font-size:60px;"">+</div>","""",256,fixation,Memorization,null,500,"""","""","""","""","""","""","""","""",1,4/20/2021 16:49,73.169.242.36,Mozilla/5.0 (Macintosh; Intel Mac OS X 10.15; rv:85.0) Gecko/20100101 Firefox/85.0,Macintosh,Firefox,85,OS X,10.15
60,1,2730,"""",html-keyboard-response,134,480209,0.0-134.0,"""","<img src='jspsych/CFDfaces/CFD-WF-023-003-N.jpg' height=""250px""></br><b>Emily</b>","""",256,IntactFace,Memorization,70,5000,f,"""",CFD-BM-208-065-N.jpg,Jeremy,0,"""","""","""",1,4/20/2021 16:49,73.169.242.36,Mozilla/5.0 (Macintosh; Intel Mac OS X 10.15; rv:85.0) Gecko/20100101 Firefox/85.0,Macintosh,Firefox,85,OS X,10.15
60,1,null,"""",html-keyboard-response,135,480711,0.0-135.0,"""","<div style=""font-size:60px;"">+</div>","""",256,fixation,Memorization,null,500,"""","""","""","""","""","""","""","""",1,4/20/2021 16:49,73.169.242.36,Mozilla/5.0 (Macintosh; Intel Mac OS X 10.15; rv:85.0) Gecko/20100101 Firefox/85.0,Macintosh,Firefox,85,OS X,10.15
60,1,2837,"""",html-keyboard-response,136,485715,0.0-136.0,"""","<img src='jspsych/CFDfaces/CFD-LF-243-175-N.jpg' height=""250px""></br><b>Kayla</b>","""",256,IntactFace,Memorization,70,5000,f,"""",CFD-AM-238-269-N.jpg,Travis,0,"""","""","""",1,4/20/2021 16:49,73.169.242.36,Mozilla/5.0 (Macintosh; Intel Mac OS X 10.15; rv:85.0) Gecko/20100101 Firefox/85.0,Macintosh,Firefox,85,OS X,10.15
60,1,null,"""",html-keyboard-response,137,486218,0.0-137.0,"""","<div style=""font-size:60px;"">+</div>","""",256,fixation,Memorization,null,500,"""","""","""","""","""","""","""","""",1,4/20/2021 16:49,73.169.242.36,Mozilla/5.0 (Macintosh; Intel Mac OS X 10.15; rv:85.0) Gecko/20100101 Firefox/85.0,Macintosh,Firefox,85,OS X,10.15
60,1,3348,"""",html-keyboard-response,138,491221,0.0-138.0,"""","<img src='jspsych/CFDfaces/CFD-LM-209-111-N.jpg' height=""250px""></br><b>Joshua</b>","""",256,IntactFace,Memorization,70,5000,f,"""",CFD-LF-244-096-N.jpg,Melissa,0,"""","""","""",1,4/20/2021 16:49,73.169.242.36,Mozilla/5.0 (Macintosh; Intel Mac OS X 10.15; rv:85.0) Gecko/20100101 Firefox/85.0,Macintosh,Firefox,85,OS X,10.15
60,1,null,"""",html-keyboard-response,139,491729,0.0-139.0,"""","<div style=""font-size:60px;"">+</div>","""",256,fixation,Memorization,null,500,"""","""","""","""","""","""","""","""",1,4/20/2021 16:49,73.169.242.36,Mozilla/5.0 (Macintosh; Intel Mac OS X 10.15; rv:85.0) Gecko/20100101 Firefox/85.0,Macintosh,Firefox,85,OS X,10.15
60,1,4127,"""",html-keyboard-response,140,496731,0.0-140.0,"""","<img src='jspsych/CFDfaces/CFD-BF-226-119-N.jpg' height=""250px""></br><b>Michelle</b>","""",256,IntactFace,Memorization,78,5000,n,"""",CFD-AF-242-158-N.jpg,Sara,0,"""","""","""",1,4/20/2021 16:49,73.169.242.36,Mozilla/5.0 (Macintosh; Intel Mac OS X 10.15; rv:85.0) Gecko/20100101 Firefox/85.0,Macintosh,Firefox,85,OS X,10.15
60,1,null,"""",html-keyboard-response,141,497232,0.0-141.0,"""","<div style=""font-size:60px;"">+</div>","""",256,fixation,Memorization,null,500,"""","""","""","""","""","""","""","""",1,4/20/2021 16:49,73.169.242.36,Mozilla/5.0 (Macintosh; Intel Mac OS X 10.15; rv:85.0) Gecko/20100101 Firefox/85.0,Macintosh,Firefox,85,OS X,10.15
60,1,2710,"""",html-keyboard-response,142,502237,0.0-142.0,"""","<img src='jspsych/CFDfaces/CFD-LM-246-087-N.jpg' height=""250px""></br><b>Christian</b>","""",256,IntactFace,Memorization,78,5000,n,"""",CFD-WM-020-001-N.jpg,Sean,0,"""","""","""",1,4/20/2021 16:49,73.169.242.36,Mozilla/5.0 (Macintosh; Intel Mac OS X 10.15; rv:85.0) Gecko/20100101 Firefox/85.0,Macintosh,Firefox,85,OS X,10.15
60,1,null,"""",html-keyboard-response,143,502738,0.0-143.0,"""","<div style=""font-size:60px;"">+</div>","""",256,fixation,Memorization,null,500,"""","""","""","""","""","""","""","""",1,4/20/2021 16:49,73.169.242.36,Mozilla/5.0 (Macintosh; Intel Mac OS X 10.15; rv:85.0) Gecko/20100101 Firefox/85.0,Macintosh,Firefox,85,OS X,10.15
60,1,2536,"""",html-keyboard-response,144,507743,0.0-144.0,"""","<img src='jspsych/CFDfaces/CFD-AM-211-052-N.jpg' height=""250px""></br><b>Eric</b>","""",256,IntactFace,Memorization,70,5000,f,"""",CFD-AM-220-134-N.jpg,Dustin,0,"""","""","""",1,4/20/2021 16:49,73.169.242.36,Mozilla/5.0 (Macintosh; Intel Mac OS X 10.15; rv:85.0) Gecko/20100101 Firefox/85.0,Macintosh,Firefox,85,OS X,10.15
60,1,null,"""",html-keyboard-response,145,508252,0.0-145.0,"""","<div style=""font-size:60px;"">+</div>","""",256,fixation,Memorization,null,500,"""","""","""","""","""","""","""","""",1,4/20/2021 16:49,73.169.242.36,Mozilla/5.0 (Macintosh; Intel Mac OS X 10.15; rv:85.0) Gecko/20100101 Firefox/85.0,Macintosh,Firefox,85,OS X,10.15
60,1,3014,"""",html-keyboard-response,146,513254,0.0-146.0,"""","<img src='jspsych/CFDfaces/CFD-AM-212-050-N.jpg' height=""250px""></br><b>Brandon</b>","""",256,IntactFace,Memorization,70,5000,f,"""",CFD-WF-003-003-N.jpg,Whitney,0,"""","""","""",1,4/20/2021 16:49,73.169.242.36,Mozilla/5.0 (Macintosh; Intel Mac OS X 10.15; rv:85.0) Gecko/20100101 Firefox/85.0,Macintosh,Firefox,85,OS X,10.15
60,1,null,"""",html-keyboard-response,147,513758,0.0-147.0,"""","<div style=""font-size:60px;"">+</div>","""",256,fixation,Memorization,null,500,"""","""","""","""","""","""","""","""",1,4/20/2021 16:49,73.169.242.36,Mozilla/5.0 (Macintosh; Intel Mac OS X 10.15; rv:85.0) Gecko/20100101 Firefox/85.0,Macintosh,Firefox,85,OS X,10.15
60,1,2688,"""",html-keyboard-response,148,518763,0.0-148.0,"""","<img src='jspsych/CFDfaces/CFD-LF-213-079-N.jpg' height=""250px""></br><b>Elizabeth</b>","""",256,IntactFace,Memorization,78,5000,n,"""",CFD-LM-233-171-N.jpg,Cameron,0,"""","""","""",1,4/20/2021 16:49,73.169.242.36,Mozilla/5.0 (Macintosh; Intel Mac OS X 10.15; rv:85.0) Gecko/20100101 Firefox/85.0,Macintosh,Firefox,85,OS X,10.15
60,1,null,"""",html-keyboard-response,149,519269,0.0-149.0,"""","<div style=""font-size:60px;"">+</div>","""",256,fixation,Memorization,null,500,"""","""","""","""","""","""","""","""",1,4/20/2021 16:49,73.169.242.36,Mozilla/5.0 (Macintosh; Intel Mac OS X 10.15; rv:85.0) Gecko/20100101 Firefox/85.0,Macintosh,Firefox,85,OS X,10.15
60,1,3114,"""",html-keyboard-response,150,524272,0.0-150.0,"""","<img src='jspsych/CFDfaces/CFD-BF-221-223-N.jpg' height=""250px""></br><b>Meghan</b>","""",256,IntactFace,Memorization,78,5000,n,"""",CFD-BF-222-240-N.jpg,Laura,0,"""","""","""",1,4/20/2021 16:49,73.169.242.36,Mozilla/5.0 (Macintosh; Intel Mac OS X 10.15; rv:85.0) Gecko/20100101 Firefox/85.0,Macintosh,Firefox,85,OS X,10.15
60,1,null,"""",html-keyboard-response,151,524776,0.0-151.0,"""","<div style=""font-size:60px;"">+</div>","""",256,fixation,Memorization,null,500,"""","""","""","""","""","""","""","""",1,4/20/2021 16:49,73.169.242.36,Mozilla/5.0 (Macintosh; Intel Mac OS X 10.15; rv:85.0) Gecko/20100101 Firefox/85.0,Macintosh,Firefox,85,OS X,10.15
60,1,3190,"""",html-keyboard-response,152,529779,0.0-152.0,"""","<img src='jspsych/CFDfaces/CFD-AM-231-136-N.jpg' height=""250px""></br><b>Nicholas</b>","""",256,IntactFace,Memorization,70,5000,f,"""",CFD-AM-221-184-N.jpg,Kenneth,0,"""","""","""",1,4/20/2021 16:49,73.169.242.36,Mozilla/5.0 (Macintosh; Intel Mac OS X 10.15; rv:85.0) Gecko/20100101 Firefox/85.0,Macintosh,Firefox,85,OS X,10.15
60,1,null,"""",html-keyboard-response,153,530282,0.0-153.0,"""","<div style=""font-size:60px;"">+</div>","""",256,fixation,Memorization,null,500,"""","""","""","""","""","""","""","""",1,4/20/2021 16:49,73.169.242.36,Mozilla/5.0 (Macintosh; Intel Mac OS X 10.15; rv:85.0) Gecko/20100101 Firefox/85.0,Macintosh,Firefox,85,OS X,10.15
60,1,1759,"""",html-keyboard-response,154,532045,0.0-154.0,"""",Press Any Key to Begin Memory Test,"""",1,welcomeScreen,Break,78,"""","""","""","""","""","""","""","""","""",1,4/20/2021 16:49,73.169.242.36,Mozilla/5.0 (Macintosh; Intel Mac OS X 10.15; rv:85.0) Gecko/20100101 Firefox/85.0,Macintosh,Firefox,85,OS X,10.15
60,1,null,"""",html-keyboard-response,155,533051,0.0-155.0,"""","<div style=""font-size:60px;"">+</div>","""",256,ITI,Test,null,1000,"""","""","""","""","""","""","""","""",1,4/20/2021 16:49,73.169.242.36,Mozilla/5.0 (Macintosh; Intel Mac OS X 10.15; rv:85.0) Gecko/20100101 Firefox/85.0,Macintosh,Firefox,85,OS X,10.15
60,1,null,"""",image-keyboard-response,156,533304,0.0-156.0,"""",jspsych/scrambledDisgustFaces/scrambledBF26DIS.JPG,"""",256,forwardMask,Test,null,250,"""",d,"""","""","""","""","""","""",1,4/20/2021 16:49,73.169.242.36,Mozilla/5.0 (Macintosh; Intel Mac OS X 10.15; rv:85.0) Gecko/20100101 Firefox/85.0,Macintosh,Firefox,85,OS X,10.15
60,1,null,"""",image-keyboard-response,157,533327,0.0-157.0,"""",jspsych/disgustFaces/BF26DIS.JPG,"""",256,Cue,Test,null,16,"""","""","""","""","""","""","""","""",1,4/20/2021 16:49,73.169.242.36,Mozilla/5.0 (Macintosh; Intel Mac OS X 10.15; rv:85.0) Gecko/20100101 Firefox/85.0,Macintosh,Firefox,85,OS X,10.15
60,1,null,"""",image-keyboard-response,158,533435,0.0-158.0,"""",jspsych/neutralFaces/AF19NES.JPG,"""",256,backwardMask,Test,null,100,"""","""","""","""","""","""","""","""",1,4/20/2021 16:49,73.169.242.36,Mozilla/5.0 (Macintosh; Intel Mac OS X 10.15; rv:85.0) Gecko/20100101 Firefox/85.0,Macintosh,Firefox,85,OS X,10.15
60,1,null,"""",html-keyboard-response,159,534439,0.0-159.0,"""","<div style=""font-size:60px;"">+</div>","""",256,fixationBtwnNeutralMaskAndPrompt,Test,null,1000,"""","""","""","""","""","""","""","""",1,4/20/2021 16:49,73.169.242.36,Mozilla/5.0 (Macintosh; Intel Mac OS X 10.15; rv:85.0) Gecko/20100101 Firefox/85.0,Macintosh,Firefox,85,OS X,10.15
60,1,2497,"""",html-button-response,160,536937,0.0-160.0,"""","<img src='jspsych/CFDfaces/CFD-WM-213-076-N.jpg' height=""250px"">,</br><b>Christian</b>",1,256,IntactOrRearranged,Test,"""","""","""","""",CFD-AF-203-077-N.jpg,Heather,1,1,"""","""",1,4/20/2021 16:49,73.169.242.36,Mozilla/5.0 (Macintosh; Intel Mac OS X 10.15; rv:85.0) Gecko/20100101 Firefox/85.0,Macintosh,Firefox,85,OS X,10.15
60,1,3309,"""",html-slider-response,161,540251,0.0-161.0,"""","<img src='jspsych/CFDfaces/CFD-WM-213-076-N.jpg' height=""250px"">,</br><b>Christian</b>","""",256,ConfidenceQuery,Test,"""","""","""","""",CFD-AF-203-077-N.jpg,Heather,1,"""",0,56,1,4/20/2021 16:49,73.169.242.36,Mozilla/5.0 (Macintosh; Intel Mac OS X 10.15; rv:85.0) Gecko/20100101 Firefox/85.0,Macintosh,Firefox,85,OS X,10.15
60,1,null,"""",html-keyboard-response,162,541254,0.0-162.0,"""","<div style=""font-size:60px;"">+</div>","""",256,ITI,Test,null,1000,"""","""","""","""","""","""","""","""",1,4/20/2021 16:49,73.169.242.36,Mozilla/5.0 (Macintosh; Intel Mac OS X 10.15; rv:85.0) Gecko/20100101 Firefox/85.0,Macintosh,Firefox,85,OS X,10.15
60,1,null,"""",image-keyboard-response,163,541506,0.0-163.0,"""",jspsych/scrambledNeutralFaces/scrambledBF23NES.JPG,"""",256,forwardMask,Test,null,250,"""",n,"""","""","""","""","""","""",1,4/20/2021 16:49,73.169.242.36,Mozilla/5.0 (Macintosh; Intel Mac OS X 10.15; rv:85.0) Gecko/20100101 Firefox/85.0,Macintosh,Firefox,85,OS X,10.15
60,1,null,"""",image-keyboard-response,164,541529,0.0-164.0,"""",jspsych/neutralFaces/BF23NES.JPG,"""",256,Cue,Test,null,16,"""","""","""","""","""","""","""","""",1,4/20/2021 16:49,73.169.242.36,Mozilla/5.0 (Macintosh; Intel Mac OS X 10.15; rv:85.0) Gecko/20100101 Firefox/85.0,Macintosh,Firefox,85,OS X,10.15
60,1,null,"""",image-keyboard-response,165,541633,0.0-165.0,"""",jspsych/neutralFaces/BF20NES.JPG,"""",256,backwardMask,Test,null,100,"""","""","""","""","""","""","""","""",1,4/20/2021 16:49,73.169.242.36,Mozilla/5.0 (Macintosh; Intel Mac OS X 10.15; rv:85.0) Gecko/20100101 Firefox/85.0,Macintosh,Firefox,85,OS X,10.15
60,1,null,"""",html-keyboard-response,166,542636,0.0-166.0,"""","<div style=""font-size:60px;"">+</div>","""",256,fixationBtwnNeutralMaskAndPrompt,Test,null,1000,"""","""","""","""","""","""","""","""",1,4/20/2021 16:49,73.169.242.36,Mozilla/5.0 (Macintosh; Intel Mac OS X 10.15; rv:85.0) Gecko/20100101 Firefox/85.0,Macintosh,Firefox,85,OS X,10.15
60,1,4844,"""",html-button-response,167,547485,0.0-167.0,"""","<img src='jspsych/CFDfaces/CFD-BM-018-001-N.jpg' height=""250px"">,</br><b>Daniel</b>",1,256,IntactOrRearranged,Test,"""","""","""","""",CFD-LF-204-133-N.jpg,Tiffany,1,1,"""","""",1,4/20/2021 16:49,73.169.242.36,Mozilla/5.0 (Macintosh; Intel Mac OS X 10.15; rv:85.0) Gecko/20100101 Firefox/85.0,Macintosh,Firefox,85,OS X,10.15
60,1,2872,"""",html-slider-response,168,550358,0.0-168.0,"""","<img src='jspsych/CFDfaces/CFD-BM-018-001-N.jpg' height=""250px"">,</br><b>Daniel</b>","""",256,ConfidenceQuery,Test,"""","""","""","""",CFD-LF-204-133-N.jpg,Tiffany,1,"""",0,38,1,4/20/2021 16:49,73.169.242.36,Mozilla/5.0 (Macintosh; Intel Mac OS X 10.15; rv:85.0) Gecko/20100101 Firefox/85.0,Macintosh,Firefox,85,OS X,10.15
60,1,null,"""",html-keyboard-response,169,551366,0.0-169.0,"""","<div style=""font-size:60px;"">+</div>","""",256,ITI,Test,null,1000,"""","""","""","""","""","""","""","""",1,4/20/2021 16:49,73.169.242.36,Mozilla/5.0 (Macintosh; Intel Mac OS X 10.15; rv:85.0) Gecko/20100101 Firefox/85.0,Macintosh,Firefox,85,OS X,10.15
60,1,null,"""",image-keyboard-response,170,551619,0.0-170.0,"""",jspsych/scrambledNeutralFaces/scrambledBF07NES.JPG,"""",256,forwardMask,Test,null,250,"""",n,"""","""","""","""","""","""",1,4/20/2021 16:49,73.169.242.36,Mozilla/5.0 (Macintosh; Intel Mac OS X 10.15; rv:85.0) Gecko/20100101 Firefox/85.0,Macintosh,Firefox,85,OS X,10.15
60,1,null,"""",image-keyboard-response,171,551641,0.0-171.0,"""",jspsych/neutralFaces/BF07NES.JPG,"""",256,Cue,Test,null,16,"""","""","""","""","""","""","""","""",1,4/20/2021 16:49,73.169.242.36,Mozilla/5.0 (Macintosh; Intel Mac OS X 10.15; rv:85.0) Gecko/20100101 Firefox/85.0,Macintosh,Firefox,85,OS X,10.15
60,1,null,"""",image-keyboard-response,172,551746,0.0-172.0,"""",jspsych/neutralFaces/AF12NES.JPG,"""",256,backwardMask,Test,null,100,"""","""","""","""","""","""","""","""",1,4/20/2021 16:49,73.169.242.36,Mozilla/5.0 (Macintosh; Intel Mac OS X 10.15; rv:85.0) Gecko/20100101 Firefox/85.0,Macintosh,Firefox,85,OS X,10.15
60,1,null,"""",html-keyboard-response,173,552748,0.0-173.0,"""","<div style=""font-size:60px;"">+</div>","""",256,fixationBtwnNeutralMaskAndPrompt,Test,null,1000,"""","""","""","""","""","""","""","""",1,4/20/2021 16:49,73.169.242.36,Mozilla/5.0 (Macintosh; Intel Mac OS X 10.15; rv:85.0) Gecko/20100101 Firefox/85.0,Macintosh,Firefox,85,OS X,10.15
60,1,3915,"""",html-button-response,174,556664,0.0-174.0,"""","<img src='jspsych/CFDfaces/CFD-BF-226-119-N.jpg' height=""250px"">,</br><b>Michelle</b>",1,256,IntactOrRearranged,Test,"""","""","""","""",CFD-LF-244-096-N.jpg,Melissa,0,1,"""","""",1,4/20/2021 16:49,73.169.242.36,Mozilla/5.0 (Macintosh; Intel Mac OS X 10.15; rv:85.0) Gecko/20100101 Firefox/85.0,Macintosh,Firefox,85,OS X,10.15
60,1,3220,"""",html-slider-response,175,559889,0.0-175.0,"""","<img src='jspsych/CFDfaces/CFD-BF-226-119-N.jpg' height=""250px"">,</br><b>Michelle</b>","""",256,ConfidenceQuery,Test,"""","""","""","""",CFD-LF-244-096-N.jpg,Melissa,0,"""",0,70,1,4/20/2021 16:49,73.169.242.36,Mozilla/5.0 (Macintosh; Intel Mac OS X 10.15; rv:85.0) Gecko/20100101 Firefox/85.0,Macintosh,Firefox,85,OS X,10.15
60,1,null,"""",html-keyboard-response,176,560892,0.0-176.0,"""","<div style=""font-size:60px;"">+</div>","""",256,ITI,Test,null,1000,"""","""","""","""","""","""","""","""",1,4/20/2021 16:49,73.169.242.36,Mozilla/5.0 (Macintosh; Intel Mac OS X 10.15; rv:85.0) Gecko/20100101 Firefox/85.0,Macintosh,Firefox,85,OS X,10.15
60,1,null,"""",image-keyboard-response,177,561148,0.0-177.0,"""",jspsych/scrambledNeutralFaces/scrambledBF11NES.JPG,"""",256,forwardMask,Test,null,250,"""",n,"""","""","""","""","""","""",1,4/20/2021 16:49,73.169.242.36,Mozilla/5.0 (Macintosh; Intel Mac OS X 10.15; rv:85.0) Gecko/20100101 Firefox/85.0,Macintosh,Firefox,85,OS X,10.15
60,1,null,"""",image-keyboard-response,178,561168,0.0-178.0,"""",jspsych/neutralFaces/BF11NES.JPG,"""",256,Cue,Test,null,16,"""","""","""","""","""","""","""","""",1,4/20/2021 16:49,73.169.242.36,Mozilla/5.0 (Macintosh; Intel Mac OS X 10.15; rv:85.0) Gecko/20100101 Firefox/85.0,Macintosh,Firefox,85,OS X,10.15
60,1,null,"""",image-keyboard-response,179,561275,0.0-179.0,"""",jspsych/neutralFaces/AF20NES.JPG,"""",256,backwardMask,Test,null,100,"""","""","""","""","""","""","""","""",1,4/20/2021 16:49,73.169.242.36,Mozilla/5.0 (Macintosh; Intel Mac OS X 10.15; rv:85.0) Gecko/20100101 Firefox/85.0,Macintosh,Firefox,85,OS X,10.15
60,1,null,"""",html-keyboard-response,180,562276,0.0-180.0,"""","<div style=""font-size:60px;"">+</div>","""",256,fixationBtwnNeutralMaskAndPrompt,Test,null,1000,"""","""","""","""","""","""","""","""",1,4/20/2021 16:49,73.169.242.36,Mozilla/5.0 (Macintosh; Intel Mac OS X 10.15; rv:85.0) Gecko/20100101 Firefox/85.0,Macintosh,Firefox,85,OS X,10.15
60,1,3943,"""",html-button-response,181,566221,0.0-181.0,"""","<img src='jspsych/CFDfaces/CFD-AF-226-251-N.jpg' height=""250px"">,</br><b>Victoria</b>",0,256,IntactOrRearranged,Test,"""","""","""","""",CFD-BM-001-014-N.jpg,Justin,1,0,"""","""",1,4/20/2021 16:49,73.169.242.36,Mozilla/5.0 (Macintosh; Intel Mac OS X 10.15; rv:85.0) Gecko/20100101 Firefox/85.0,Macintosh,Firefox,85,OS X,10.15
60,1,2339,"""",html-slider-response,182,568566,0.0-182.0,"""","<img src='jspsych/CFDfaces/CFD-AF-226-251-N.jpg' height=""250px"">,</br><b>Victoria</b>","""",256,ConfidenceQuery,Test,"""","""","""","""",CFD-BM-001-014-N.jpg,Justin,1,"""",0,67,1,4/20/2021 16:49,73.169.242.36,Mozilla/5.0 (Macintosh; Intel Mac OS X 10.15; rv:85.0) Gecko/20100101 Firefox/85.0,Macintosh,Firefox,85,OS X,10.15
60,1,null,"""",html-keyboard-response,183,569568,0.0-183.0,"""","<div style=""font-size:60px;"">+</div>","""",256,ITI,Test,null,1000,"""","""","""","""","""","""","""","""",1,4/20/2021 16:49,73.169.242.36,Mozilla/5.0 (Macintosh; Intel Mac OS X 10.15; rv:85.0) Gecko/20100101 Firefox/85.0,Macintosh,Firefox,85,OS X,10.15
60,1,null,"""",image-keyboard-response,184,569820,0.0-184.0,"""",jspsych/scrambledDisgustFaces/scrambledAF35DIS.JPG,"""",256,forwardMask,Test,null,250,"""",d,"""","""","""","""","""","""",1,4/20/2021 16:49,73.169.242.36,Mozilla/5.0 (Macintosh; Intel Mac OS X 10.15; rv:85.0) Gecko/20100101 Firefox/85.0,Macintosh,Firefox,85,OS X,10.15
60,1,null,"""",image-keyboard-response,185,569840,0.0-185.0,"""",jspsych/disgustFaces/AF35DIS.JPG,"""",256,Cue,Test,null,16,"""","""","""","""","""","""","""","""",1,4/20/2021 16:49,73.169.242.36,Mozilla/5.0 (Macintosh; Intel Mac OS X 10.15; rv:85.0) Gecko/20100101 Firefox/85.0,Macintosh,Firefox,85,OS X,10.15
60,1,null,"""",image-keyboard-response,186,569945,0.0-186.0,"""",jspsych/neutralFaces/AF31NES.JPG,"""",256,backwardMask,Test,null,100,"""","""","""","""","""","""","""","""",1,4/20/2021 16:49,73.169.242.36,Mozilla/5.0 (Macintosh; Intel Mac OS X 10.15; rv:85.0) Gecko/20100101 Firefox/85.0,Macintosh,Firefox,85,OS X,10.15
60,1,null,"""",html-keyboard-response,187,570946,0.0-187.0,"""","<div style=""font-size:60px;"">+</div>","""",256,fixationBtwnNeutralMaskAndPrompt,Test,null,1000,"""","""","""","""","""","""","""","""",1,4/20/2021 16:49,73.169.242.36,Mozilla/5.0 (Macintosh; Intel Mac OS X 10.15; rv:85.0) Gecko/20100101 Firefox/85.0,Macintosh,Firefox,85,OS X,10.15
60,1,4043,"""",html-button-response,188,574991,0.0-188.0,"""","<img src='jspsych/CFDfaces/CFD-LF-213-079-N.jpg' height=""250px"">,</br><b>Kimberly</b>",1,256,IntactOrRearranged,Test,"""","""","""","""",CFD-WM-020-001-N.jpg,Sean,1,1,"""","""",1,4/20/2021 16:49,73.169.242.36,Mozilla/5.0 (Macintosh; Intel Mac OS X 10.15; rv:85.0) Gecko/20100101 Firefox/85.0,Macintosh,Firefox,85,OS X,10.15
60,1,3708,"""",html-slider-response,189,578703,0.0-189.0,"""","<img src='jspsych/CFDfaces/CFD-LF-213-079-N.jpg' height=""250px"">,</br><b>Kimberly</b>","""",256,ConfidenceQuery,Test,"""","""","""","""",CFD-WM-020-001-N.jpg,Sean,1,"""",0,58,1,4/20/2021 16:49,73.169.242.36,Mozilla/5.0 (Macintosh; Intel Mac OS X 10.15; rv:85.0) Gecko/20100101 Firefox/85.0,Macintosh,Firefox,85,OS X,10.15
60,1,null,"""",html-keyboard-response,190,579705,0.0-190.0,"""","<div style=""font-size:60px;"">+</div>","""",256,ITI,Test,null,1000,"""","""","""","""","""","""","""","""",1,4/20/2021 16:49,73.169.242.36,Mozilla/5.0 (Macintosh; Intel Mac OS X 10.15; rv:85.0) Gecko/20100101 Firefox/85.0,Macintosh,Firefox,85,OS X,10.15
60,1,null,"""",image-keyboard-response,191,579958,0.0-191.0,"""",jspsych/scrambledDisgustFaces/scrambledAM19DIS.JPG,"""",256,forwardMask,Test,null,250,"""",d,"""","""","""","""","""","""",1,4/20/2021 16:49,73.169.242.36,Mozilla/5.0 (Macintosh; Intel Mac OS X 10.15; rv:85.0) Gecko/20100101 Firefox/85.0,Macintosh,Firefox,85,OS X,10.15
60,1,null,"""",image-keyboard-response,192,579980,0.0-192.0,"""",jspsych/disgustFaces/AM19DIS.JPG,"""",256,Cue,Test,null,16,"""","""","""","""","""","""","""","""",1,4/20/2021 16:49,73.169.242.36,Mozilla/5.0 (Macintosh; Intel Mac OS X 10.15; rv:85.0) Gecko/20100101 Firefox/85.0,Macintosh,Firefox,85,OS X,10.15
60,1,null,"""",image-keyboard-response,193,580083,0.0-193.0,"""",jspsych/neutralFaces/BM04NES.JPG,"""",256,backwardMask,Test,null,100,"""","""","""","""","""","""","""","""",1,4/20/2021 16:49,73.169.242.36,Mozilla/5.0 (Macintosh; Intel Mac OS X 10.15; rv:85.0) Gecko/20100101 Firefox/85.0,Macintosh,Firefox,85,OS X,10.15
60,1,null,"""",html-keyboard-response,194,581084,0.0-194.0,"""","<div style=""font-size:60px;"">+</div>","""",256,fixationBtwnNeutralMaskAndPrompt,Test,null,1000,"""","""","""","""","""","""","""","""",1,4/20/2021 16:49,73.169.242.36,Mozilla/5.0 (Macintosh; Intel Mac OS X 10.15; rv:85.0) Gecko/20100101 Firefox/85.0,Macintosh,Firefox,85,OS X,10.15
60,1,2097,"""",html-button-response,195,583186,0.0-195.0,"""","<img src='jspsych/CFDfaces/CFD-AM-211-052-N.jpg' height=""250px"">,</br><b>Gregory</b>",1,256,IntactOrRearranged,Test,"""","""","""","""",CFD-WM-216-061-N.jpg,Mark,1,1,"""","""",1,4/20/2021 16:49,73.169.242.36,Mozilla/5.0 (Macintosh; Intel Mac OS X 10.15; rv:85.0) Gecko/20100101 Firefox/85.0,Macintosh,Firefox,85,OS X,10.15
60,1,3583,"""",html-slider-response,196,586771,0.0-196.0,"""","<img src='jspsych/CFDfaces/CFD-AM-211-052-N.jpg' height=""250px"">,</br><b>Gregory</b>","""",256,ConfidenceQuery,Test,"""","""","""","""",CFD-WM-216-061-N.jpg,Mark,1,"""",0,86,1,4/20/2021 16:49,73.169.242.36,Mozilla/5.0 (Macintosh; Intel Mac OS X 10.15; rv:85.0) Gecko/20100101 Firefox/85.0,Macintosh,Firefox,85,OS X,10.15
60,1,null,"""",html-keyboard-response,197,587775,0.0-197.0,"""","<div style=""font-size:60px;"">+</div>","""",256,ITI,Test,null,1000,"""","""","""","""","""","""","""","""",1,4/20/2021 16:49,73.169.242.36,Mozilla/5.0 (Macintosh; Intel Mac OS X 10.15; rv:85.0) Gecko/20100101 Firefox/85.0,Macintosh,Firefox,85,OS X,10.15
60,1,null,"""",image-keyboard-response,198,588031,0.0-198.0,"""",jspsych/scrambledDisgustFaces/scrambledAF28DIS.JPG,"""",256,forwardMask,Test,null,250,"""",d,"""","""","""","""","""","""",1,4/20/2021 16:49,73.169.242.36,Mozilla/5.0 (Macintosh; Intel Mac OS X 10.15; rv:85.0) Gecko/20100101 Firefox/85.0,Macintosh,Firefox,85,OS X,10.15
60,1,null,"""",image-keyboard-response,199,588055,0.0-199.0,"""",jspsych/disgustFaces/AF28DIS.JPG,"""",256,Cue,Test,null,16,"""","""","""","""","""","""","""","""",1,4/20/2021 16:49,73.169.242.36,Mozilla/5.0 (Macintosh; Intel Mac OS X 10.15; rv:85.0) Gecko/20100101 Firefox/85.0,Macintosh,Firefox,85,OS X,10.15
60,1,null,"""",image-keyboard-response,200,588160,0.0-200.0,"""",jspsych/neutralFaces/BF13NES.JPG,"""",256,backwardMask,Test,null,100,"""","""","""","""","""","""","""","""",1,4/20/2021 16:49,73.169.242.36,Mozilla/5.0 (Macintosh; Intel Mac OS X 10.15; rv:85.0) Gecko/20100101 Firefox/85.0,Macintosh,Firefox,85,OS X,10.15
60,1,null,"""",html-keyboard-response,201,589163,0.0-201.0,"""","<div style=""font-size:60px;"">+</div>","""",256,fixationBtwnNeutralMaskAndPrompt,Test,null,1000,"""","""","""","""","""","""","""","""",1,4/20/2021 16:49,73.169.242.36,Mozilla/5.0 (Macintosh; Intel Mac OS X 10.15; rv:85.0) Gecko/20100101 Firefox/85.0,Macintosh,Firefox,85,OS X,10.15
60,1,4098,"""",html-button-response,202,593262,0.0-202.0,"""","<img src='jspsych/CFDfaces/CFD-WM-022-001-N.jpg' height=""250px"">,</br><b>Richard</b>",0,256,IntactOrRearranged,Test,"""","""","""","""",CFD-AF-240-206-N.jpg,Jenna,1,0,"""","""",1,4/20/2021 16:49,73.169.242.36,Mozilla/5.0 (Macintosh; Intel Mac OS X 10.15; rv:85.0) Gecko/20100101 Firefox/85.0,Macintosh,Firefox,85,OS X,10.15
60,1,2935,"""",html-slider-response,203,596198,0.0-203.0,"""","<img src='jspsych/CFDfaces/CFD-WM-022-001-N.jpg' height=""250px"">,</br><b>Richard</b>","""",256,ConfidenceQuery,Test,"""","""","""","""",CFD-AF-240-206-N.jpg,Jenna,1,"""",0,39,1,4/20/2021 16:49,73.169.242.36,Mozilla/5.0 (Macintosh; Intel Mac OS X 10.15; rv:85.0) Gecko/20100101 Firefox/85.0,Macintosh,Firefox,85,OS X,10.15
60,1,null,"""",html-keyboard-response,204,597205,0.0-204.0,"""","<div style=""font-size:60px;"">+</div>","""",256,ITI,Test,null,1000,"""","""","""","""","""","""","""","""",1,4/20/2021 16:49,73.169.242.36,Mozilla/5.0 (Macintosh; Intel Mac OS X 10.15; rv:85.0) Gecko/20100101 Firefox/85.0,Macintosh,Firefox,85,OS X,10.15
60,1,null,"""",image-keyboard-response,205,597458,0.0-205.0,"""",jspsych/scrambledNeutralFaces/scrambledBM33NES.JPG,"""",256,forwardMask,Test,null,250,"""",n,"""","""","""","""","""","""",1,4/20/2021 16:49,73.169.242.36,Mozilla/5.0 (Macintosh; Intel Mac OS X 10.15; rv:85.0) Gecko/20100101 Firefox/85.0,Macintosh,Firefox,85,OS X,10.15
60,1,null,"""",image-keyboard-response,206,597478,0.0-206.0,"""",jspsych/neutralFaces/BM33NES.JPG,"""",256,Cue,Test,null,16,"""","""","""","""","""","""","""","""",1,4/20/2021 16:49,73.169.242.36,Mozilla/5.0 (Macintosh; Intel Mac OS X 10.15; rv:85.0) Gecko/20100101 Firefox/85.0,Macintosh,Firefox,85,OS X,10.15
60,1,null,"""",image-keyboard-response,207,597583,0.0-207.0,"""",jspsych/neutralFaces/BM25NES.JPG,"""",256,backwardMask,Test,null,100,"""","""","""","""","""","""","""","""",1,4/20/2021 16:49,73.169.242.36,Mozilla/5.0 (Macintosh; Intel Mac OS X 10.15; rv:85.0) Gecko/20100101 Firefox/85.0,Macintosh,Firefox,85,OS X,10.15
60,1,null,"""",html-keyboard-response,208,598584,0.0-208.0,"""","<div style=""font-size:60px;"">+</div>","""",256,fixationBtwnNeutralMaskAndPrompt,Test,null,1000,"""","""","""","""","""","""","""","""",1,4/20/2021 16:49,73.169.242.36,Mozilla/5.0 (Macintosh; Intel Mac OS X 10.15; rv:85.0) Gecko/20100101 Firefox/85.0,Macintosh,Firefox,85,OS X,10.15
60,1,2214,"""",html-button-response,209,600800,0.0-209.0,"""","<img src='jspsych/CFDfaces/CFD-BM-010-003-N.jpg' height=""250px"">,</br><b>Juan</b>",0,256,IntactOrRearranged,Test,"""","""","""","""",CFD-BF-212-315-N.jpg,Jordan,0,0,"""","""",1,4/20/2021 16:49,73.169.242.36,Mozilla/5.0 (Macintosh; Intel Mac OS X 10.15; rv:85.0) Gecko/20100101 Firefox/85.0,Macintosh,Firefox,85,OS X,10.15
60,1,null,"""",html-slider-response,210,605803,0.0-210.0,"""","<img src='jspsych/CFDfaces/CFD-BM-010-003-N.jpg' height=""250px"">,</br><b>Juan</b>","""",256,ConfidenceQuery,Test,"""","""","""","""",CFD-BF-212-315-N.jpg,Jordan,0,"""",0,null,1,4/20/2021 16:49,73.169.242.36,Mozilla/5.0 (Macintosh; Intel Mac OS X 10.15; rv:85.0) Gecko/20100101 Firefox/85.0,Macintosh,Firefox,85,OS X,10.15
60,1,null,"""",html-keyboard-response,211,606808,0.0-211.0,"""","<div style=""font-size:60px;"">+</div>","""",256,ITI,Test,null,1000,"""","""","""","""","""","""","""","""",1,4/20/2021 16:49,73.169.242.36,Mozilla/5.0 (Macintosh; Intel Mac OS X 10.15; rv:85.0) Gecko/20100101 Firefox/85.0,Macintosh,Firefox,85,OS X,10.15
60,1,null,"""",image-keyboard-response,212,607062,0.0-212.0,"""",jspsych/scrambledNeutralFaces/scrambledBF15NES.JPG,"""",256,forwardMask,Test,null,250,"""",n,"""","""","""","""","""","""",1,4/20/2021 16:49,73.169.242.36,Mozilla/5.0 (Macintosh; Intel Mac OS X 10.15; rv:85.0) Gecko/20100101 Firefox/85.0,Macintosh,Firefox,85,OS X,10.15
60,1,null,"""",image-keyboard-response,213,607085,0.0-213.0,"""",jspsych/neutralFaces/BF15NES.JPG,"""",256,Cue,Test,null,16,"""","""","""","""","""","""","""","""",1,4/20/2021 16:49,73.169.242.36,Mozilla/5.0 (Macintosh; Intel Mac OS X 10.15; rv:85.0) Gecko/20100101 Firefox/85.0,Macintosh,Firefox,85,OS X,10.15
60,1,null,"""",image-keyboard-response,214,607190,0.0-214.0,"""",jspsych/neutralFaces/AF19NES.JPG,"""",256,backwardMask,Test,null,100,"""","""","""","""","""","""","""","""",1,4/20/2021 16:49,73.169.242.36,Mozilla/5.0 (Macintosh; Intel Mac OS X 10.15; rv:85.0) Gecko/20100101 Firefox/85.0,Macintosh,Firefox,85,OS X,10.15
60,1,null,"""",html-keyboard-response,215,608197,0.0-215.0,"""","<div style=""font-size:60px;"">+</div>","""",256,fixationBtwnNeutralMaskAndPrompt,Test,null,1000,"""","""","""","""","""","""","""","""",1,4/20/2021 16:49,73.169.242.36,Mozilla/5.0 (Macintosh; Intel Mac OS X 10.15; rv:85.0) Gecko/20100101 Firefox/85.0,Macintosh,Firefox,85,OS X,10.15
60,1,1555,"""",html-button-response,216,609752,0.0-216.0,"""","<img src='jspsych/CFDfaces/CFD-AM-234-355-N.jpg' height=""250px"">,</br><b>Jason</b>",0,256,IntactOrRearranged,Test,"""","""","""","""",CFD-BM-027-001-N.jpg,Kenneth,0,0,"""","""",1,4/20/2021 16:49,73.169.242.36,Mozilla/5.0 (Macintosh; Intel Mac OS X 10.15; rv:85.0) Gecko/20100101 Firefox/85.0,Macintosh,Firefox,85,OS X,10.15
60,1,1942,"""",html-slider-response,217,611697,0.0-217.0,"""","<img src='jspsych/CFDfaces/CFD-AM-234-355-N.jpg' height=""250px"">,</br><b>Jason</b>","""",256,ConfidenceQuery,Test,"""","""","""","""",CFD-BM-027-001-N.jpg,Kenneth,0,"""",0,100,1,4/20/2021 16:49,73.169.242.36,Mozilla/5.0 (Macintosh; Intel Mac OS X 10.15; rv:85.0) Gecko/20100101 Firefox/85.0,Macintosh,Firefox,85,OS X,10.15
60,1,null,"""",html-keyboard-response,218,612701,0.0-218.0,"""","<div style=""font-size:60px;"">+</div>","""",256,ITI,Test,null,1000,"""","""","""","""","""","""","""","""",1,4/20/2021 16:49,73.169.242.36,Mozilla/5.0 (Macintosh; Intel Mac OS X 10.15; rv:85.0) Gecko/20100101 Firefox/85.0,Macintosh,Firefox,85,OS X,10.15
60,1,null,"""",image-keyboard-response,219,612958,0.0-219.0,"""",jspsych/scrambledDisgustFaces/scrambledBM02DIS.JPG,"""",256,forwardMask,Test,null,250,"""",d,"""","""","""","""","""","""",1,4/20/2021 16:49,73.169.242.36,Mozilla/5.0 (Macintosh; Intel Mac OS X 10.15; rv:85.0) Gecko/20100101 Firefox/85.0,Macintosh,Firefox,85,OS X,10.15
60,1,null,"""",image-keyboard-response,220,612978,0.0-220.0,"""",jspsych/disgustFaces/BM03DIS.JPG,"""",256,Cue,Test,null,16,"""","""","""","""","""","""","""","""",1,4/20/2021 16:49,73.169.242.36,Mozilla/5.0 (Macintosh; Intel Mac OS X 10.15; rv:85.0) Gecko/20100101 Firefox/85.0,Macintosh,Firefox,85,OS X,10.15
60,1,null,"""",image-keyboard-response,221,613083,0.0-221.0,"""",jspsych/neutralFaces/BM35NES.JPG,"""",256,backwardMask,Test,null,100,"""","""","""","""","""","""","""","""",1,4/20/2021 16:49,73.169.242.36,Mozilla/5.0 (Macintosh; Intel Mac OS X 10.15; rv:85.0) Gecko/20100101 Firefox/85.0,Macintosh,Firefox,85,OS X,10.15
60,1,null,"""",html-keyboard-response,222,614084,0.0-222.0,"""","<div style=""font-size:60px;"">+</div>","""",256,fixationBtwnNeutralMaskAndPrompt,Test,null,1000,"""","""","""","""","""","""","""","""",1,4/20/2021 16:49,73.169.242.36,Mozilla/5.0 (Macintosh; Intel Mac OS X 10.15; rv:85.0) Gecko/20100101 Firefox/85.0,Macintosh,Firefox,85,OS X,10.15
60,1,4896,"""",html-button-response,223,618981,0.0-223.0,"""","<img src='jspsych/CFDfaces/CFD-AM-231-136-N.jpg' height=""250px"">,</br><b>Nicholas</b>",0,256,IntactOrRearranged,Test,"""","""","""","""",CFD-LF-239-148-N.jpg,Amy,0,0,"""","""",1,4/20/2021 16:49,73.169.242.36,Mozilla/5.0 (Macintosh; Intel Mac OS X 10.15; rv:85.0) Gecko/20100101 Firefox/85.0,Macintosh,Firefox,85,OS X,10.15
60,1,2794,"""",html-slider-response,224,621781,0.0-224.0,"""","<img src='jspsych/CFDfaces/CFD-AM-231-136-N.jpg' height=""250px"">,</br><b>Nicholas</b>","""",256,ConfidenceQuery,Test,"""","""","""","""",CFD-LF-239-148-N.jpg,Amy,0,"""",0,59,1,4/20/2021 16:49,73.169.242.36,Mozilla/5.0 (Macintosh; Intel Mac OS X 10.15; rv:85.0) Gecko/20100101 Firefox/85.0,Macintosh,Firefox,85,OS X,10.15
60,1,null,"""",html-keyboard-response,225,622783,0.0-225.0,"""","<div style=""font-size:60px;"">+</div>","""",256,ITI,Test,null,1000,"""","""","""","""","""","""","""","""",1,4/20/2021 16:49,73.169.242.36,Mozilla/5.0 (Macintosh; Intel Mac OS X 10.15; rv:85.0) Gecko/20100101 Firefox/85.0,Macintosh,Firefox,85,OS X,10.15
60,1,null,"""",image-keyboard-response,226,623036,0.0-226.0,"""",jspsych/scrambledNeutralFaces/scrambledBF28NES.JPG,"""",256,forwardMask,Test,null,250,"""",n,"""","""","""","""","""","""",1,4/20/2021 16:49,73.169.242.36,Mozilla/5.0 (Macintosh; Intel Mac OS X 10.15; rv:85.0) Gecko/20100101 Firefox/85.0,Macintosh,Firefox,85,OS X,10.15
60,1,null,"""",image-keyboard-response,227,623056,0.0-227.0,"""",jspsych/neutralFaces/BF28NES.JPG,"""",256,Cue,Test,null,16,"""","""","""","""","""","""","""","""",1,4/20/2021 16:49,73.169.242.36,Mozilla/5.0 (Macintosh; Intel Mac OS X 10.15; rv:85.0) Gecko/20100101 Firefox/85.0,Macintosh,Firefox,85,OS X,10.15
60,1,null,"""",image-keyboard-response,228,623160,0.0-228.0,"""",jspsych/neutralFaces/AF09NES.JPG,"""",256,backwardMask,Test,null,100,"""","""","""","""","""","""","""","""",1,4/20/2021 16:49,73.169.242.36,Mozilla/5.0 (Macintosh; Intel Mac OS X 10.15; rv:85.0) Gecko/20100101 Firefox/85.0,Macintosh,Firefox,85,OS X,10.15
60,1,null,"""",html-keyboard-response,229,624162,0.0-229.0,"""","<div style=""font-size:60px;"">+</div>","""",256,fixationBtwnNeutralMaskAndPrompt,Test,null,1000,"""","""","""","""","""","""","""","""",1,4/20/2021 16:49,73.169.242.36,Mozilla/5.0 (Macintosh; Intel Mac OS X 10.15; rv:85.0) Gecko/20100101 Firefox/85.0,Macintosh,Firefox,85,OS X,10.15
60,1,2020,"""",html-button-response,230,626183,0.0-230.0,"""","<img src='jspsych/CFDfaces/CFD-LM-246-087-N.jpg' height=""250px"">,</br><b>Joshua</b>",1,256,IntactOrRearranged,Test,"""","""","""","""",CFD-LF-208-127-N.jpg,Erin,1,1,"""","""",1,4/20/2021 16:49,73.169.242.36,Mozilla/5.0 (Macintosh; Intel Mac OS X 10.15; rv:85.0) Gecko/20100101 Firefox/85.0,Macintosh,Firefox,85,OS X,10.15
60,1,3115,"""",html-slider-response,231,629304,0.0-231.0,"""","<img src='jspsych/CFDfaces/CFD-LM-246-087-N.jpg' height=""250px"">,</br><b>Joshua</b>","""",256,ConfidenceQuery,Test,"""","""","""","""",CFD-LF-208-127-N.jpg,Erin,1,"""",0,100,1,4/20/2021 16:49,73.169.242.36,Mozilla/5.0 (Macintosh; Intel Mac OS X 10.15; rv:85.0) Gecko/20100101 Firefox/85.0,Macintosh,Firefox,85,OS X,10.15
60,1,null,"""",html-keyboard-response,232,630307,0.0-232.0,"""","<div style=""font-size:60px;"">+</div>","""",256,ITI,Test,null,1000,"""","""","""","""","""","""","""","""",1,4/20/2021 16:49,73.169.242.36,Mozilla/5.0 (Macintosh; Intel Mac OS X 10.15; rv:85.0) Gecko/20100101 Firefox/85.0,Macintosh,Firefox,85,OS X,10.15
60,1,null,"""",image-keyboard-response,233,630561,0.0-233.0,"""",jspsych/scrambledNeutralFaces/scrambledAF18NES.JPG,"""",256,forwardMask,Test,null,250,"""",n,"""","""","""","""","""","""",1,4/20/2021 16:49,73.169.242.36,Mozilla/5.0 (Macintosh; Intel Mac OS X 10.15; rv:85.0) Gecko/20100101 Firefox/85.0,Macintosh,Firefox,85,OS X,10.15
60,1,null,"""",image-keyboard-response,234,630580,0.0-234.0,"""",jspsych/neutralFaces/AF18NES.JPG,"""",256,Cue,Test,null,16,"""","""","""","""","""","""","""","""",1,4/20/2021 16:49,73.169.242.36,Mozilla/5.0 (Macintosh; Intel Mac OS X 10.15; rv:85.0) Gecko/20100101 Firefox/85.0,Macintosh,Firefox,85,OS X,10.15
60,1,null,"""",image-keyboard-response,235,630686,0.0-235.0,"""",jspsych/neutralFaces/BF29NES.JPG,"""",256,backwardMask,Test,null,100,"""","""","""","""","""","""","""","""",1,4/20/2021 16:49,73.169.242.36,Mozilla/5.0 (Macintosh; Intel Mac OS X 10.15; rv:85.0) Gecko/20100101 Firefox/85.0,Macintosh,Firefox,85,OS X,10.15
60,1,null,"""",html-keyboard-response,236,631687,0.0-236.0,"""","<div style=""font-size:60px;"">+</div>","""",256,fixationBtwnNeutralMaskAndPrompt,Test,null,1000,"""","""","""","""","""","""","""","""",1,4/20/2021 16:49,73.169.242.36,Mozilla/5.0 (Macintosh; Intel Mac OS X 10.15; rv:85.0) Gecko/20100101 Firefox/85.0,Macintosh,Firefox,85,OS X,10.15
60,1,3965,"""",html-button-response,237,635653,0.0-237.0,"""","<img src='jspsych/CFDfaces/CFD-AF-243-170-N.jpg' height=""250px"">,</br><b>Samantha</b>",0,256,IntactOrRearranged,Test,"""","""","""","""",CFD-BM-208-065-N.jpg,Ryan,0,0,"""","""",1,4/20/2021 16:49,73.169.242.36,Mozilla/5.0 (Macintosh; Intel Mac OS X 10.15; rv:85.0) Gecko/20100101 Firefox/85.0,Macintosh,Firefox,85,OS X,10.15
60,1,3026,"""",html-slider-response,238,638686,0.0-238.0,"""","<img src='jspsych/CFDfaces/CFD-AF-243-170-N.jpg' height=""250px"">,</br><b>Samantha</b>","""",256,ConfidenceQuery,Test,"""","""","""","""",CFD-BM-208-065-N.jpg,Ryan,0,"""",0,69,1,4/20/2021 16:49,73.169.242.36,Mozilla/5.0 (Macintosh; Intel Mac OS X 10.15; rv:85.0) Gecko/20100101 Firefox/85.0,Macintosh,Firefox,85,OS X,10.15
60,1,null,"""",html-keyboard-response,239,639687,0.0-239.0,"""","<div style=""font-size:60px;"">+</div>","""",256,ITI,Test,null,1000,"""","""","""","""","""","""","""","""",1,4/20/2021 16:49,73.169.242.36,Mozilla/5.0 (Macintosh; Intel Mac OS X 10.15; rv:85.0) Gecko/20100101 Firefox/85.0,Macintosh,Firefox,85,OS X,10.15
60,1,null,"""",image-keyboard-response,240,639940,0.0-240.0,"""",jspsych/scrambledDisgustFaces/scrambledBM31DIS.JPG,"""",256,forwardMask,Test,null,250,"""",d,"""","""","""","""","""","""",1,4/20/2021 16:49,73.169.242.36,Mozilla/5.0 (Macintosh; Intel Mac OS X 10.15; rv:85.0) Gecko/20100101 Firefox/85.0,Macintosh,Firefox,85,OS X,10.15
60,1,null,"""",image-keyboard-response,241,639960,0.0-241.0,"""",jspsych/disgustFaces/BM32DIS.JPG,"""",256,Cue,Test,null,16,"""","""","""","""","""","""","""","""",1,4/20/2021 16:49,73.169.242.36,Mozilla/5.0 (Macintosh; Intel Mac OS X 10.15; rv:85.0) Gecko/20100101 Firefox/85.0,Macintosh,Firefox,85,OS X,10.15
60,1,null,"""",image-keyboard-response,242,640067,0.0-242.0,"""",jspsych/neutralFaces/AM34NES.JPG,"""",256,backwardMask,Test,null,100,"""","""","""","""","""","""","""","""",1,4/20/2021 16:49,73.169.242.36,Mozilla/5.0 (Macintosh; Intel Mac OS X 10.15; rv:85.0) Gecko/20100101 Firefox/85.0,Macintosh,Firefox,85,OS X,10.15
60,1,null,"""",html-keyboard-response,243,641069,0.0-243.0,"""","<div style=""font-size:60px;"">+</div>","""",256,fixationBtwnNeutralMaskAndPrompt,Test,null,1000,"""","""","""","""","""","""","""","""",1,4/20/2021 16:49,73.169.242.36,Mozilla/5.0 (Macintosh; Intel Mac OS X 10.15; rv:85.0) Gecko/20100101 Firefox/85.0,Macintosh,Firefox,85,OS X,10.15
60,1,3192,"""",html-button-response,244,644261,0.0-244.0,"""","<img src='jspsych/CFDfaces/CFD-LM-220-329-N.jpg' height=""250px"">,</br><b>Robert</b>",1,256,IntactOrRearranged,Test,"""","""","""","""",CFD-BM-032-024-N.jpg,Cameron,0,1,"""","""",1,4/20/2021 16:49,73.169.242.36,Mozilla/5.0 (Macintosh; Intel Mac OS X 10.15; rv:85.0) Gecko/20100101 Firefox/85.0,Macintosh,Firefox,85,OS X,10.15
60,1,2289,"""",html-slider-response,245,646558,0.0-245.0,"""","<img src='jspsych/CFDfaces/CFD-LM-220-329-N.jpg' height=""250px"">,</br><b>Robert</b>","""",256,ConfidenceQuery,Test,"""","""","""","""",CFD-BM-032-024-N.jpg,Cameron,0,"""",0,88,1,4/20/2021 16:49,73.169.242.36,Mozilla/5.0 (Macintosh; Intel Mac OS X 10.15; rv:85.0) Gecko/20100101 Firefox/85.0,Macintosh,Firefox,85,OS X,10.15
60,1,null,"""",html-keyboard-response,246,647560,0.0-246.0,"""","<div style=""font-size:60px;"">+</div>","""",256,ITI,Test,null,1000,"""","""","""","""","""","""","""","""",1,4/20/2021 16:49,73.169.242.36,Mozilla/5.0 (Macintosh; Intel Mac OS X 10.15; rv:85.0) Gecko/20100101 Firefox/85.0,Macintosh,Firefox,85,OS X,10.15
60,1,null,"""",image-keyboard-response,247,647814,0.0-247.0,"""",jspsych/scrambledNeutralFaces/scrambledBF17NES.JPG,"""",256,forwardMask,Test,null,250,"""",n,"""","""","""","""","""","""",1,4/20/2021 16:49,73.169.242.36,Mozilla/5.0 (Macintosh; Intel Mac OS X 10.15; rv:85.0) Gecko/20100101 Firefox/85.0,Macintosh,Firefox,85,OS X,10.15
60,1,null,"""",image-keyboard-response,248,647836,0.0-248.0,"""",jspsych/neutralFaces/BF17NES.JPG,"""",256,Cue,Test,null,16,"""","""","""","""","""","""","""","""",1,4/20/2021 16:49,73.169.242.36,Mozilla/5.0 (Macintosh; Intel Mac OS X 10.15; rv:85.0) Gecko/20100101 Firefox/85.0,Macintosh,Firefox,85,OS X,10.15
60,1,null,"""",image-keyboard-response,249,647943,0.0-249.0,"""",jspsych/neutralFaces/AF18NES.JPG,"""",256,backwardMask,Test,null,100,"""","""","""","""","""","""","""","""",1,4/20/2021 16:49,73.169.242.36,Mozilla/5.0 (Macintosh; Intel Mac OS X 10.15; rv:85.0) Gecko/20100101 Firefox/85.0,Macintosh,Firefox,85,OS X,10.15
60,1,null,"""",html-keyboard-response,250,648948,0.0-250.0,"""","<div style=""font-size:60px;"">+</div>","""",256,fixationBtwnNeutralMaskAndPrompt,Test,null,1000,"""","""","""","""","""","""","""","""",1,4/20/2021 16:49,73.169.242.36,Mozilla/5.0 (Macintosh; Intel Mac OS X 10.15; rv:85.0) Gecko/20100101 Firefox/85.0,Macintosh,Firefox,85,OS X,10.15
60,1,3573,"""",html-button-response,251,652522,0.0-251.0,"""","<img src='jspsych/CFDfaces/CFD-BM-211-174-N.jpg' height=""250px"">,</br><b>Peter</b>",1,256,IntactOrRearranged,Test,"""","""","""","""",CFD-BM-039-029-N.jpg,Steven,0,1,"""","""",1,4/20/2021 16:49,73.169.242.36,Mozilla/5.0 (Macintosh; Intel Mac OS X 10.15; rv:85.0) Gecko/20100101 Firefox/85.0,Macintosh,Firefox,85,OS X,10.15
60,1,3130,"""",html-slider-response,252,655659,0.0-252.0,"""","<img src='jspsych/CFDfaces/CFD-BM-211-174-N.jpg' height=""250px"">,</br><b>Peter</b>","""",256,ConfidenceQuery,Test,"""","""","""","""",CFD-BM-039-029-N.jpg,Steven,0,"""",0,62,1,4/20/2021 16:49,73.169.242.36,Mozilla/5.0 (Macintosh; Intel Mac OS X 10.15; rv:85.0) Gecko/20100101 Firefox/85.0,Macintosh,Firefox,85,OS X,10.15
60,1,null,"""",html-keyboard-response,253,656661,0.0-253.0,"""","<div style=""font-size:60px;"">+</div>","""",256,ITI,Test,null,1000,"""","""","""","""","""","""","""","""",1,4/20/2021 16:49,73.169.242.36,Mozilla/5.0 (Macintosh; Intel Mac OS X 10.15; rv:85.0) Gecko/20100101 Firefox/85.0,Macintosh,Firefox,85,OS X,10.15
60,1,null,"""",image-keyboard-response,254,656915,0.0-254.0,"""",jspsych/scrambledNeutralFaces/scrambledAM06NES.JPG,"""",256,forwardMask,Test,null,250,"""",n,"""","""","""","""","""","""",1,4/20/2021 16:49,73.169.242.36,Mozilla/5.0 (Macintosh; Intel Mac OS X 10.15; rv:85.0) Gecko/20100101 Firefox/85.0,Macintosh,Firefox,85,OS X,10.15
60,1,null,"""",image-keyboard-response,255,656938,0.0-255.0,"""",jspsych/neutralFaces/AM06NES.JPG,"""",256,Cue,Test,null,16,"""","""","""","""","""","""","""","""",1,4/20/2021 16:49,73.169.242.36,Mozilla/5.0 (Macintosh; Intel Mac OS X 10.15; rv:85.0) Gecko/20100101 Firefox/85.0,Macintosh,Firefox,85,OS X,10.15
60,1,null,"""",image-keyboard-response,256,657045,0.0-256.0,"""",jspsych/neutralFaces/AM09NES.JPG,"""",256,backwardMask,Test,null,100,"""","""","""","""","""","""","""","""",1,4/20/2021 16:49,73.169.242.36,Mozilla/5.0 (Macintosh; Intel Mac OS X 10.15; rv:85.0) Gecko/20100101 Firefox/85.0,Macintosh,Firefox,85,OS X,10.15
60,1,null,"""",html-keyboard-response,257,658048,0.0-257.0,"""","<div style=""font-size:60px;"">+</div>","""",256,fixationBtwnNeutralMaskAndPrompt,Test,null,1000,"""","""","""","""","""","""","""","""",1,4/20/2021 16:49,73.169.242.36,Mozilla/5.0 (Macintosh; Intel Mac OS X 10.15; rv:85.0) Gecko/20100101 Firefox/85.0,Macintosh,Firefox,85,OS X,10.15
60,1,4004,"""",html-button-response,258,662053,0.0-258.0,"""","<img src='jspsych/CFDfaces/CFD-LF-231-260-N.jpg' height=""250px"">,</br><b>Brittany</b>",0,256,IntactOrRearranged,Test,"""","""","""","""",CFD-WM-232-070-N.jpg,Austin,0,0,"""","""",1,4/20/2021 16:49,73.169.242.36,Mozilla/5.0 (Macintosh; Intel Mac OS X 10.15; rv:85.0) Gecko/20100101 Firefox/85.0,Macintosh,Firefox,85,OS X,10.15
60,1,null,"""",html-slider-response,259,667061,0.0-259.0,"""","<img src='jspsych/CFDfaces/CFD-LF-231-260-N.jpg' height=""250px"">,</br><b>Brittany</b>","""",256,ConfidenceQuery,Test,"""","""","""","""",CFD-WM-232-070-N.jpg,Austin,0,"""",0,null,1,4/20/2021 16:49,73.169.242.36,Mozilla/5.0 (Macintosh; Intel Mac OS X 10.15; rv:85.0) Gecko/20100101 Firefox/85.0,Macintosh,Firefox,85,OS X,10.15
60,1,null,"""",html-keyboard-response,260,668064,0.0-260.0,"""","<div style=""font-size:60px;"">+</div>","""",256,ITI,Test,null,1000,"""","""","""","""","""","""","""","""",1,4/20/2021 16:49,73.169.242.36,Mozilla/5.0 (Macintosh; Intel Mac OS X 10.15; rv:85.0) Gecko/20100101 Firefox/85.0,Macintosh,Firefox,85,OS X,10.15
60,1,null,"""",image-keyboard-response,261,668325,0.0-261.0,"""",jspsych/scrambledDisgustFaces/scrambledBF23DIS.JPG,"""",256,forwardMask,Test,null,250,"""",d,"""","""","""","""","""","""",1,4/20/2021 16:49,73.169.242.36,Mozilla/5.0 (Macintosh; Intel Mac OS X 10.15; rv:85.0) Gecko/20100101 Firefox/85.0,Macintosh,Firefox,85,OS X,10.15
60,1,null,"""",image-keyboard-response,262,668348,0.0-262.0,"""",jspsych/disgustFaces/BF23DIS.JPG,"""",256,Cue,Test,null,16,"""","""","""","""","""","""","""","""",1,4/20/2021 16:49,73.169.242.36,Mozilla/5.0 (Macintosh; Intel Mac OS X 10.15; rv:85.0) Gecko/20100101 Firefox/85.0,Macintosh,Firefox,85,OS X,10.15
60,1,null,"""",image-keyboard-response,263,668455,0.0-263.0,"""",jspsych/neutralFaces/BF31NES.JPG,"""",256,backwardMask,Test,null,100,"""","""","""","""","""","""","""","""",1,4/20/2021 16:49,73.169.242.36,Mozilla/5.0 (Macintosh; Intel Mac OS X 10.15; rv:85.0) Gecko/20100101 Firefox/85.0,Macintosh,Firefox,85,OS X,10.15
60,1,null,"""",html-keyboard-response,264,669460,0.0-264.0,"""","<div style=""font-size:60px;"">+</div>","""",256,fixationBtwnNeutralMaskAndPrompt,Test,null,1000,"""","""","""","""","""","""","""","""",1,4/20/2021 16:49,73.169.242.36,Mozilla/5.0 (Macintosh; Intel Mac OS X 10.15; rv:85.0) Gecko/20100101 Firefox/85.0,Macintosh,Firefox,85,OS X,10.15
60,1,2678,"""",html-button-response,265,672139,0.0-265.0,"""","<img src='jspsych/CFDfaces/CFD-LF-243-175-N.jpg' height=""250px"">,</br><b>Kayla</b>",1,256,IntactOrRearranged,Test,"""","""","""","""",CFD-AF-242-158-N.jpg,Lauren,0,1,"""","""",1,4/20/2021 16:49,73.169.242.36,Mozilla/5.0 (Macintosh; Intel Mac OS X 10.15; rv:85.0) Gecko/20100101 Firefox/85.0,Macintosh,Firefox,85,OS X,10.15
60,1,1901,"""",html-slider-response,266,674041,0.0-266.0,"""","<img src='jspsych/CFDfaces/CFD-LF-243-175-N.jpg' height=""250px"">,</br><b>Kayla</b>","""",256,ConfidenceQuery,Test,"""","""","""","""",CFD-AF-242-158-N.jpg,Lauren,0,"""",0,78,1,4/20/2021 16:49,73.169.242.36,Mozilla/5.0 (Macintosh; Intel Mac OS X 10.15; rv:85.0) Gecko/20100101 Firefox/85.0,Macintosh,Firefox,85,OS X,10.15
60,1,null,"""",html-keyboard-response,267,675048,0.0-267.0,"""","<div style=""font-size:60px;"">+</div>","""",256,ITI,Test,null,1000,"""","""","""","""","""","""","""","""",1,4/20/2021 16:49,73.169.242.36,Mozilla/5.0 (Macintosh; Intel Mac OS X 10.15; rv:85.0) Gecko/20100101 Firefox/85.0,Macintosh,Firefox,85,OS X,10.15
60,1,null,"""",image-keyboard-response,268,675303,0.0-268.0,"""",jspsych/scrambledDisgustFaces/scrambledAF22DIS.JPG,"""",256,forwardMask,Test,null,250,"""",d,"""","""","""","""","""","""",1,4/20/2021 16:49,73.169.242.36,Mozilla/5.0 (Macintosh; Intel Mac OS X 10.15; rv:85.0) Gecko/20100101 Firefox/85.0,Macintosh,Firefox,85,OS X,10.15
60,1,null,"""",image-keyboard-response,269,675326,0.0-269.0,"""",jspsych/disgustFaces/AF22DIS.JPG,"""",256,Cue,Test,null,16,"""","""","""","""","""","""","""","""",1,4/20/2021 16:49,73.169.242.36,Mozilla/5.0 (Macintosh; Intel Mac OS X 10.15; rv:85.0) Gecko/20100101 Firefox/85.0,Macintosh,Firefox,85,OS X,10.15
60,1,null,"""",image-keyboard-response,270,675434,0.0-270.0,"""",jspsych/neutralFaces/AF30NES.JPG,"""",256,backwardMask,Test,null,100,"""","""","""","""","""","""","""","""",1,4/20/2021 16:49,73.169.242.36,Mozilla/5.0 (Macintosh; Intel Mac OS X 10.15; rv:85.0) Gecko/20100101 Firefox/85.0,Macintosh,Firefox,85,OS X,10.15
60,1,null,"""",html-keyboard-response,271,676435,0.0-271.0,"""","<div style=""font-size:60px;"">+</div>","""",256,fixationBtwnNeutralMaskAndPrompt,Test,null,1000,"""","""","""","""","""","""","""","""",1,4/20/2021 16:49,73.169.242.36,Mozilla/5.0 (Macintosh; Intel Mac OS X 10.15; rv:85.0) Gecko/20100101 Firefox/85.0,Macintosh,Firefox,85,OS X,10.15
60,1,4505,"""",html-button-response,272,680942,0.0-272.0,"""","<img src='jspsych/CFDfaces/CFD-WF-006-002-N.jpg' height=""250px"">,</br><b>Elizabeth</b>",0,256,IntactOrRearranged,Test,"""","""","""","""",CFD-BM-026-002-N.jpg,Jesse,1,0,"""","""",1,4/20/2021 16:49,73.169.242.36,Mozilla/5.0 (Macintosh; Intel Mac OS X 10.15; rv:85.0) Gecko/20100101 Firefox/85.0,Macintosh,Firefox,85,OS X,10.15
60,1,null,"""",html-slider-response,273,685945,0.0-273.0,"""","<img src='jspsych/CFDfaces/CFD-WF-006-002-N.jpg' height=""250px"">,</br><b>Elizabeth</b>","""",256,ConfidenceQuery,Test,"""","""","""","""",CFD-BM-026-002-N.jpg,Jesse,1,"""",0,null,1,4/20/2021 16:49,73.169.242.36,Mozilla/5.0 (Macintosh; Intel Mac OS X 10.15; rv:85.0) Gecko/20100101 Firefox/85.0,Macintosh,Firefox,85,OS X,10.15
60,1,null,"""",html-keyboard-response,274,686953,0.0-274.0,"""","<div style=""font-size:60px;"">+</div>","""",256,ITI,Test,null,1000,"""","""","""","""","""","""","""","""",1,4/20/2021 16:49,73.169.242.36,Mozilla/5.0 (Macintosh; Intel Mac OS X 10.15; rv:85.0) Gecko/20100101 Firefox/85.0,Macintosh,Firefox,85,OS X,10.15
60,1,null,"""",image-keyboard-response,275,687206,0.0-275.0,"""",jspsych/scrambledNeutralFaces/scrambledAF32NES.JPG,"""",256,forwardMask,Test,null,250,"""",n,"""","""","""","""","""","""",1,4/20/2021 16:49,73.169.242.36,Mozilla/5.0 (Macintosh; Intel Mac OS X 10.15; rv:85.0) Gecko/20100101 Firefox/85.0,Macintosh,Firefox,85,OS X,10.15
60,1,null,"""",image-keyboard-response,276,687226,0.0-276.0,"""",jspsych/neutralFaces/AF32NES.JPG,"""",256,Cue,Test,null,16,"""","""","""","""","""","""","""","""",1,4/20/2021 16:49,73.169.242.36,Mozilla/5.0 (Macintosh; Intel Mac OS X 10.15; rv:85.0) Gecko/20100101 Firefox/85.0,Macintosh,Firefox,85,OS X,10.15
60,1,null,"""",image-keyboard-response,277,687330,0.0-277.0,"""",jspsych/neutralFaces/AF04NES.JPG,"""",256,backwardMask,Test,null,100,"""","""","""","""","""","""","""","""",1,4/20/2021 16:49,73.169.242.36,Mozilla/5.0 (Macintosh; Intel Mac OS X 10.15; rv:85.0) Gecko/20100101 Firefox/85.0,Macintosh,Firefox,85,OS X,10.15
60,1,null,"""",html-keyboard-response,278,688334,0.0-278.0,"""","<div style=""font-size:60px;"">+</div>","""",256,fixationBtwnNeutralMaskAndPrompt,Test,null,1000,"""","""","""","""","""","""","""","""",1,4/20/2021 16:49,73.169.242.36,Mozilla/5.0 (Macintosh; Intel Mac OS X 10.15; rv:85.0) Gecko/20100101 Firefox/85.0,Macintosh,Firefox,85,OS X,10.15
60,1,2156,"""",html-button-response,279,690491,0.0-279.0,"""","<img src='jspsych/CFDfaces/CFD-WM-017-002-N.jpg' height=""250px"">,</br><b>Ian</b>",0,256,IntactOrRearranged,Test,"""","""","""","""",CFD-AF-235-170-N.jpg,Angela,0,0,"""","""",1,4/20/2021 16:49,73.169.242.36,Mozilla/5.0 (Macintosh; Intel Mac OS X 10.15; rv:85.0) Gecko/20100101 Firefox/85.0,Macintosh,Firefox,85,OS X,10.15
60,1,2309,"""",html-slider-response,280,692803,0.0-280.0,"""","<img src='jspsych/CFDfaces/CFD-WM-017-002-N.jpg' height=""250px"">,</br><b>Ian</b>","""",256,ConfidenceQuery,Test,"""","""","""","""",CFD-AF-235-170-N.jpg,Angela,0,"""",0,79,1,4/20/2021 16:49,73.169.242.36,Mozilla/5.0 (Macintosh; Intel Mac OS X 10.15; rv:85.0) Gecko/20100101 Firefox/85.0,Macintosh,Firefox,85,OS X,10.15
60,1,null,"""",html-keyboard-response,281,693809,0.0-281.0,"""","<div style=""font-size:60px;"">+</div>","""",256,ITI,Test,null,1000,"""","""","""","""","""","""","""","""",1,4/20/2021 16:49,73.169.242.36,Mozilla/5.0 (Macintosh; Intel Mac OS X 10.15; rv:85.0) Gecko/20100101 Firefox/85.0,Macintosh,Firefox,85,OS X,10.15
60,1,null,"""",image-keyboard-response,282,694061,0.0-282.0,"""",jspsych/scrambledDisgustFaces/scrambledAM04DIS.JPG,"""",256,forwardMask,Test,null,250,"""",d,"""","""","""","""","""","""",1,4/20/2021 16:49,73.169.242.36,Mozilla/5.0 (Macintosh; Intel Mac OS X 10.15; rv:85.0) Gecko/20100101 Firefox/85.0,Macintosh,Firefox,85,OS X,10.15
60,1,null,"""",image-keyboard-response,283,694084,0.0-283.0,"""",jspsych/disgustFaces/AM04DIS.JPG,"""",256,Cue,Test,null,16,"""","""","""","""","""","""","""","""",1,4/20/2021 16:49,73.169.242.36,Mozilla/5.0 (Macintosh; Intel Mac OS X 10.15; rv:85.0) Gecko/20100101 Firefox/85.0,Macintosh,Firefox,85,OS X,10.15
60,1,null,"""",image-keyboard-response,284,694189,0.0-284.0,"""",jspsych/neutralFaces/AM33NES.JPG,"""",256,backwardMask,Test,null,100,"""","""","""","""","""","""","""","""",1,4/20/2021 16:49,73.169.242.36,Mozilla/5.0 (Macintosh; Intel Mac OS X 10.15; rv:85.0) Gecko/20100101 Firefox/85.0,Macintosh,Firefox,85,OS X,10.15
60,1,null,"""",html-keyboard-response,285,695191,0.0-285.0,"""","<div style=""font-size:60px;"">+</div>","""",256,fixationBtwnNeutralMaskAndPrompt,Test,null,1000,"""","""","""","""","""","""","""","""",1,4/20/2021 16:49,73.169.242.36,Mozilla/5.0 (Macintosh; Intel Mac OS X 10.15; rv:85.0) Gecko/20100101 Firefox/85.0,Macintosh,Firefox,85,OS X,10.15
