run_id,condition,rt,responses,trial_type,trial_index,time_elapsed,internal_node_id,question_order,stimulus,button_pressed,iTrial,Phase,ExperimentPhase,key_press,StimulusDurationSetting,CharacterResponse,correctResponse,Face,Name,rearranged,didSubjectEnterRearranged,slider_start,response,Block,recorded_at,ip,user_agent,device,browser,browser_version,platform,platform_version
51,1,17481,"{""Q0"":""A193P3TUPEADWK""}",survey-text,0,17483,0.0-0.0,"""","""","""","""","""","""","""","""","""","""","""","""","""","""","""","""","""",4/20/2021 2:17,108.31.110.153,Mozilla/5.0 (Windows NT 10.0; Win64; x64; rv:88.0) Gecko/20100101 Firefox/88.0,,Firefox,88,Windows,10
51,1,2208,"{""Q0"":""25""}",survey-text,1,19696,0.0-1.0,"""","""","""","""","""","""","""","""","""","""","""","""","""","""","""","""","""",4/20/2021 2:17,108.31.110.153,Mozilla/5.0 (Windows NT 10.0; Win64; x64; rv:88.0) Gecko/20100101 Firefox/88.0,,Firefox,88,Windows,10
51,1,5584,"{""Q0"":""male"",""Q1"":""Not Hispanic/Latino"",""Q2"":""Other""}",survey-multi-choice,2,25282,0.0-2.0,"[0,1,2]","""","""","""","""","""","""","""","""","""","""","""","""","""","""","""","""",4/20/2021 2:17,108.31.110.153,Mozilla/5.0 (Windows NT 10.0; Win64; x64; rv:88.0) Gecko/20100101 Firefox/88.0,,Firefox,88,Windows,10
51,1,1597,"""",image-button-response,3,26924,0.0-3.0,"""",directionsMemoryAssociation1.JPG,0,1,IntroDirections1,break,"""","""","""","""","""","""","""","""","""","""","""",4/20/2021 2:17,108.31.110.153,Mozilla/5.0 (Windows NT 10.0; Win64; x64; rv:88.0) Gecko/20100101 Firefox/88.0,,Firefox,88,Windows,10
51,1,871,"""",image-button-response,4,27799,0.0-4.0,"""",directionsMemoryAssociation2.JPG,0,1,IntroDirections2,break,"""","""","""","""","""","""","""","""","""","""","""",4/20/2021 2:17,108.31.110.153,Mozilla/5.0 (Windows NT 10.0; Win64; x64; rv:88.0) Gecko/20100101 Firefox/88.0,,Firefox,88,Windows,10
51,1,778,"""",html-keyboard-response,5,32805,0.0-5.0,"""","<img src='jspsych/CFDfaces/CFD-AM-237-154-N.jpg' height=""250px"">,</br><b>Patrick</b>","""",1,IntactFace,Practice,70,5000,f,"""","""","""","""","""","""","""","""",4/20/2021 2:17,108.31.110.153,Mozilla/5.0 (Windows NT 10.0; Win64; x64; rv:88.0) Gecko/20100101 Firefox/88.0,,Firefox,88,Windows,10
51,1,null,"""",html-keyboard-response,6,33311,0.0-6.0,"""","<div style=""font-size:60px;"">+</div>","""",1,ITI,Practice,null,1000,"""","""","""","""","""","""","""","""","""",4/20/2021 2:17,108.31.110.153,Mozilla/5.0 (Windows NT 10.0; Win64; x64; rv:88.0) Gecko/20100101 Firefox/88.0,,Firefox,88,Windows,10
51,1,359,"""",html-keyboard-response,7,38334,0.0-7.0,"""","<img src='jspsych/CFDfaces/CFD-AM-211-052-N.jpg' height=""250px"">,</br><b>Samuel</b>","""",2,IntactFace,Practice,70,5000,f,"""","""","""","""","""","""","""","""",4/20/2021 2:17,108.31.110.153,Mozilla/5.0 (Windows NT 10.0; Win64; x64; rv:88.0) Gecko/20100101 Firefox/88.0,,Firefox,88,Windows,10
51,1,null,"""",html-keyboard-response,8,38837,0.0-8.0,"""","<div style=""font-size:60px;"">+</div>","""",2,ITI,Practice,null,1000,"""","""","""","""","""","""","""","""","""",4/20/2021 2:17,108.31.110.153,Mozilla/5.0 (Windows NT 10.0; Win64; x64; rv:88.0) Gecko/20100101 Firefox/88.0,,Firefox,88,Windows,10
51,1,null,"""",html-keyboard-response,9,43852,0.0-9.0,"""","<img src='jspsych/CFDfaces/CFD-AF-209-006-N.jpg' height=""250px"">,</br><b>Tara</b>","""",3,IntactFace,Practice,null,5000,"""","""","""","""","""","""","""","""","""",4/20/2021 2:17,108.31.110.153,Mozilla/5.0 (Windows NT 10.0; Win64; x64; rv:88.0) Gecko/20100101 Firefox/88.0,,Firefox,88,Windows,10
51,1,null,"""",html-keyboard-response,10,44363,0.0-10.0,"""","<div style=""font-size:60px;"">+</div>","""",3,ITI,Practice,null,1000,"""","""","""","""","""","""","""","""","""",4/20/2021 2:17,108.31.110.153,Mozilla/5.0 (Windows NT 10.0; Win64; x64; rv:88.0) Gecko/20100101 Firefox/88.0,,Firefox,88,Windows,10
51,1,null,"""",html-keyboard-response,11,49378,0.0-11.0,"""","<img src='jspsych/CFDfaces/CFD-WF-200-099-N.jpg' height=""250px"">,</br><b>Katelyn</b>","""",4,IntactFace,Practice,null,5000,"""","""","""","""","""","""","""","""","""",4/20/2021 2:17,108.31.110.153,Mozilla/5.0 (Windows NT 10.0; Win64; x64; rv:88.0) Gecko/20100101 Firefox/88.0,,Firefox,88,Windows,10
51,1,null,"""",html-keyboard-response,12,49890,0.0-12.0,"""","<div style=""font-size:60px;"">+</div>","""",4,ITI,Practice,null,1000,"""","""","""","""","""","""","""","""","""",4/20/2021 2:17,108.31.110.153,Mozilla/5.0 (Windows NT 10.0; Win64; x64; rv:88.0) Gecko/20100101 Firefox/88.0,,Firefox,88,Windows,10
51,1,null,"""",html-keyboard-response,13,54901,0.0-13.0,"""","<img src='jspsych/CFDfaces/CFD-BF-001-025-N.jpg' height=""250px"">,</br><b>Shannon</b>","""",5,IntactFace,Practice,null,5000,"""","""","""","""","""","""","""","""","""",4/20/2021 2:17,108.31.110.153,Mozilla/5.0 (Windows NT 10.0; Win64; x64; rv:88.0) Gecko/20100101 Firefox/88.0,,Firefox,88,Windows,10
51,1,null,"""",html-keyboard-response,14,55408,0.0-14.0,"""","<div style=""font-size:60px;"">+</div>","""",5,ITI,Practice,null,1000,"""","""","""","""","""","""","""","""","""",4/20/2021 2:17,108.31.110.153,Mozilla/5.0 (Windows NT 10.0; Win64; x64; rv:88.0) Gecko/20100101 Firefox/88.0,,Firefox,88,Windows,10
51,1,null,"""",html-keyboard-response,15,60419,0.0-15.0,"""","<img src='jspsych/CFDfaces/CFD-WM-041-021-N.jpg' height=""250px"">,</br><b>Marcus</b>","""",6,IntactFace,Practice,null,5000,"""","""","""","""","""","""","""","""","""",4/20/2021 2:17,108.31.110.153,Mozilla/5.0 (Windows NT 10.0; Win64; x64; rv:88.0) Gecko/20100101 Firefox/88.0,,Firefox,88,Windows,10
51,1,null,"""",html-keyboard-response,16,60936,0.0-16.0,"""","<div style=""font-size:60px;"">+</div>","""",6,ITI,Practice,null,1000,"""","""","""","""","""","""","""","""","""",4/20/2021 2:17,108.31.110.153,Mozilla/5.0 (Windows NT 10.0; Win64; x64; rv:88.0) Gecko/20100101 Firefox/88.0,,Firefox,88,Windows,10
51,1,2431,"""",html-keyboard-response,17,65950,0.0-17.0,"""","<img src='jspsych/CFDfaces/CFD-BM-029-024-N.jpg' height=""250px"">,</br><b>Carlos</b>","""",7,IntactFace,Practice,70,5000,f,"""","""","""","""","""","""","""","""",4/20/2021 2:17,108.31.110.153,Mozilla/5.0 (Windows NT 10.0; Win64; x64; rv:88.0) Gecko/20100101 Firefox/88.0,,Firefox,88,Windows,10
51,1,null,"""",html-keyboard-response,18,66463,0.0-18.0,"""","<div style=""font-size:60px;"">+</div>","""",7,ITI,Practice,null,1000,"""","""","""","""","""","""","""","""","""",4/20/2021 2:17,108.31.110.153,Mozilla/5.0 (Windows NT 10.0; Win64; x64; rv:88.0) Gecko/20100101 Firefox/88.0,,Firefox,88,Windows,10
51,1,null,"""",html-keyboard-response,19,71466,0.0-19.0,"""","<img src='jspsych/CFDfaces/CFD-AF-241-141-N.jpg' height=""250px"">,</br><b>Cassandra</b>","""",8,IntactFace,Practice,null,5000,"""","""","""","""","""","""","""","""","""",4/20/2021 2:17,108.31.110.153,Mozilla/5.0 (Windows NT 10.0; Win64; x64; rv:88.0) Gecko/20100101 Firefox/88.0,,Firefox,88,Windows,10
51,1,null,"""",html-keyboard-response,20,71974,0.0-20.0,"""","<div style=""font-size:60px;"">+</div>","""",8,ITI,Practice,null,1000,"""","""","""","""","""","""","""","""","""",4/20/2021 2:17,108.31.110.153,Mozilla/5.0 (Windows NT 10.0; Win64; x64; rv:88.0) Gecko/20100101 Firefox/88.0,,Firefox,88,Windows,10
51,1,343721,"""",image-button-response,21,415701,0.0-21.0,"""",directionsForTest.JPG,0,1,directionsForTest,break,"""","""","""","""","""","""","""","""","""","""","""",4/20/2021 2:17,108.31.110.153,Mozilla/5.0 (Windows NT 10.0; Win64; x64; rv:88.0) Gecko/20100101 Firefox/88.0,,Firefox,88,Windows,10
51,1,769764,"""",image-button-response,22,1185474,0.0-22.0,"""",directionsForTest2.JPG,0,1,directionsForTest2,break,"""","""","""","""","""","""","""","""","""","""","""",4/20/2021 2:17,108.31.110.153,Mozilla/5.0 (Windows NT 10.0; Win64; x64; rv:88.0) Gecko/20100101 Firefox/88.0,,Firefox,88,Windows,10
51,1,null,"""",html-keyboard-response,23,1186478,0.0-23.0,"""","<div style=""font-size:60px;"">+</div>","""",1,ITI,Practice,null,1000,"""","""","""","""","""","""","""","""","""",4/20/2021 2:17,108.31.110.153,Mozilla/5.0 (Windows NT 10.0; Win64; x64; rv:88.0) Gecko/20100101 Firefox/88.0,,Firefox,88,Windows,10
51,1,null,"""",image-keyboard-response,24,1186738,0.0-24.0,"""",jspsych/scrambledNeutralFaces/scrambledAF04NES.JPG,"""",1,forwardMask,Practice,null,250,"""",n,"""","""","""","""","""","""","""",4/20/2021 2:17,108.31.110.153,Mozilla/5.0 (Windows NT 10.0; Win64; x64; rv:88.0) Gecko/20100101 Firefox/88.0,,Firefox,88,Windows,10
51,1,null,"""",image-keyboard-response,25,1186768,0.0-25.0,"""",jspsych/neutralFaces/AF04NES.JPG,"""",1,Cue,Practice,null,16,"""","""","""","""","""","""","""","""","""",4/20/2021 2:17,108.31.110.153,Mozilla/5.0 (Windows NT 10.0; Win64; x64; rv:88.0) Gecko/20100101 Firefox/88.0,,Firefox,88,Windows,10
51,1,null,"""",image-keyboard-response,26,1186877,0.0-26.0,"""",jspsych/neutralFaces/BF09NES.JPG,"""",1,backwardMask,Practice,null,100,"""","""","""","""","""","""","""","""","""",4/20/2021 2:17,108.31.110.153,Mozilla/5.0 (Windows NT 10.0; Win64; x64; rv:88.0) Gecko/20100101 Firefox/88.0,,Firefox,88,Windows,10
51,1,null,"""",html-keyboard-response,27,1187891,0.0-27.0,"""","<div style=""font-size:60px;"">+</div>","""",1,fixationBtwnNeutralMaskAndPrompt,Practice,null,1000,"""","""","""","""","""","""","""","""","""",4/20/2021 2:17,108.31.110.153,Mozilla/5.0 (Windows NT 10.0; Win64; x64; rv:88.0) Gecko/20100101 Firefox/88.0,,Firefox,88,Windows,10
51,1,953,"""",html-button-response,28,1188844,0.0-28.0,"""","<img src='jspsych/CFDfaces/CFD-BM-029-024-N.jpg'height=""250px""></br><b>Marcus</b>",0,1,IntactOrRearranged,Practice,"""","""","""","""",CFD-BM-029-024-N.jpg,Marcus,1,0,"""","""","""",4/20/2021 2:17,108.31.110.153,Mozilla/5.0 (Windows NT 10.0; Win64; x64; rv:88.0) Gecko/20100101 Firefox/88.0,,Firefox,88,Windows,10
51,1,2137,"""",html-slider-response,29,1190989,0.0-29.0,"""","<img src='jspsych/CFDfaces/CFD-BM-029-024-N.jpg'height=""250px""></br><b>Marcus</b>","""",1,ConfidenceQuery,Practice,"""","""","""","""",CFD-WF-017-003-N.jpg,Sara,1,"""",0,36,"""",4/20/2021 2:17,108.31.110.153,Mozilla/5.0 (Windows NT 10.0; Win64; x64; rv:88.0) Gecko/20100101 Firefox/88.0,,Firefox,88,Windows,10
51,1,3251,"""",html-button-response,30,1194242,0.0-30.0,"""",You are Incorrect. You called a Rearranged Pair Intact,0,1,feedback,Practice,"""","""","""","""","""","""","""","""","""","""","""",4/20/2021 2:17,108.31.110.153,Mozilla/5.0 (Windows NT 10.0; Win64; x64; rv:88.0) Gecko/20100101 Firefox/88.0,,Firefox,88,Windows,10
51,1,null,"""",html-keyboard-response,31,1195247,0.0-31.0,"""","<div style=""font-size:60px;"">+</div>","""",2,ITI,Practice,null,1000,"""","""","""","""","""","""","""","""","""",4/20/2021 2:17,108.31.110.153,Mozilla/5.0 (Windows NT 10.0; Win64; x64; rv:88.0) Gecko/20100101 Firefox/88.0,,Firefox,88,Windows,10
51,1,null,"""",image-keyboard-response,32,1195499,0.0-32.0,"""",jspsych/scrambledDisgustFaces/scrambledAM33DIS.JPG,"""",2,forwardMask,Practice,null,250,"""",d,"""","""","""","""","""","""","""",4/20/2021 2:17,108.31.110.153,Mozilla/5.0 (Windows NT 10.0; Win64; x64; rv:88.0) Gecko/20100101 Firefox/88.0,,Firefox,88,Windows,10
51,1,null,"""",image-keyboard-response,33,1195518,0.0-33.0,"""",jspsych/disgustFaces/AM33DIS.JPG,"""",2,Cue,Practice,null,16,"""","""","""","""","""","""","""","""","""",4/20/2021 2:17,108.31.110.153,Mozilla/5.0 (Windows NT 10.0; Win64; x64; rv:88.0) Gecko/20100101 Firefox/88.0,,Firefox,88,Windows,10
51,1,null,"""",image-keyboard-response,34,1195622,0.0-34.0,"""",jspsych/neutralFaces/BM23NES.JPG,"""",2,backwardMask,Practice,null,100,"""","""","""","""","""","""","""","""","""",4/20/2021 2:17,108.31.110.153,Mozilla/5.0 (Windows NT 10.0; Win64; x64; rv:88.0) Gecko/20100101 Firefox/88.0,,Firefox,88,Windows,10
51,1,null,"""",html-keyboard-response,35,1196634,0.0-35.0,"""","<div style=""font-size:60px;"">+</div>","""",2,fixationBtwnNeutralMaskAndPrompt,Practice,null,1000,"""","""","""","""","""","""","""","""","""",4/20/2021 2:17,108.31.110.153,Mozilla/5.0 (Windows NT 10.0; Win64; x64; rv:88.0) Gecko/20100101 Firefox/88.0,,Firefox,88,Windows,10
51,1,null,"""",html-button-response,36,1201641,0.0-36.0,"""","<img src='jspsych/CFDfaces/CFD-WM-041-021-N.jpg'height=""250px""></br><b>Carlos</b>",null,2,IntactOrRearranged,Practice,"""","""","""","""",CFD-WM-041-021-N.jpg,Carlos,1,"""","""","""","""",4/20/2021 2:17,108.31.110.153,Mozilla/5.0 (Windows NT 10.0; Win64; x64; rv:88.0) Gecko/20100101 Firefox/88.0,,Firefox,88,Windows,10
51,1,3567,"""",html-slider-response,37,1205211,0.0-37.0,"""","<img src='jspsych/CFDfaces/CFD-WM-041-021-N.jpg'height=""250px""></br><b>Carlos</b>","""",2,ConfidenceQuery,Practice,"""","""","""","""",CFD-WF-017-003-N.jpg,Sara,1,"""",0,50,"""",4/20/2021 2:17,108.31.110.153,Mozilla/5.0 (Windows NT 10.0; Win64; x64; rv:88.0) Gecko/20100101 Firefox/88.0,,Firefox,88,Windows,10
51,1,1436,"""",html-button-response,38,1206648,0.0-38.0,"""",<p>Please click either button: REARRANGED or INTACT before the 5-second time limit.</p>,0,2,feedback,Practice,"""","""","""","""","""","""","""","""","""","""","""",4/20/2021 2:17,108.31.110.153,Mozilla/5.0 (Windows NT 10.0; Win64; x64; rv:88.0) Gecko/20100101 Firefox/88.0,,Firefox,88,Windows,10
51,1,null,"""",html-keyboard-response,39,1207654,0.0-39.0,"""","<div style=""font-size:60px;"">+</div>","""",3,ITI,Practice,null,1000,"""","""","""","""","""","""","""","""","""",4/20/2021 2:17,108.31.110.153,Mozilla/5.0 (Windows NT 10.0; Win64; x64; rv:88.0) Gecko/20100101 Firefox/88.0,,Firefox,88,Windows,10
51,1,null,"""",image-keyboard-response,40,1207908,0.0-40.0,"""",jspsych/scrambledDisgustFaces/scrambledBF03DIS.JPG,"""",3,forwardMask,Practice,null,250,"""",d,"""","""","""","""","""","""","""",4/20/2021 2:17,108.31.110.153,Mozilla/5.0 (Windows NT 10.0; Win64; x64; rv:88.0) Gecko/20100101 Firefox/88.0,,Firefox,88,Windows,10
51,1,null,"""",image-keyboard-response,41,1207928,0.0-41.0,"""",jspsych/disgustFaces/BF03DIS.JPG,"""",3,Cue,Practice,null,16,"""","""","""","""","""","""","""","""","""",4/20/2021 2:17,108.31.110.153,Mozilla/5.0 (Windows NT 10.0; Win64; x64; rv:88.0) Gecko/20100101 Firefox/88.0,,Firefox,88,Windows,10
51,1,null,"""",image-keyboard-response,42,1208042,0.0-42.0,"""",jspsych/neutralFaces/BF02NES.JPG,"""",3,backwardMask,Practice,null,100,"""","""","""","""","""","""","""","""","""",4/20/2021 2:17,108.31.110.153,Mozilla/5.0 (Windows NT 10.0; Win64; x64; rv:88.0) Gecko/20100101 Firefox/88.0,,Firefox,88,Windows,10
51,1,null,"""",html-keyboard-response,43,1209047,0.0-43.0,"""","<div style=""font-size:60px;"">+</div>","""",3,fixationBtwnNeutralMaskAndPrompt,Practice,null,1000,"""","""","""","""","""","""","""","""","""",4/20/2021 2:17,108.31.110.153,Mozilla/5.0 (Windows NT 10.0; Win64; x64; rv:88.0) Gecko/20100101 Firefox/88.0,,Firefox,88,Windows,10
51,1,1856,"""",html-button-response,44,1210903,0.0-44.0,"""","<img src='jspsych/CFDfaces/CFD-AM-237-154-N.jpg'height=""250px""></br><b>Patrick</b>",0,3,IntactOrRearranged,Practice,"""","""","""","""",CFD-AM-237-154-N.jpg,Patrick,0,0,"""","""","""",4/20/2021 2:17,108.31.110.153,Mozilla/5.0 (Windows NT 10.0; Win64; x64; rv:88.0) Gecko/20100101 Firefox/88.0,,Firefox,88,Windows,10
51,1,1685,"""",html-slider-response,45,1212589,0.0-45.0,"""","<img src='jspsych/CFDfaces/CFD-AM-237-154-N.jpg'height=""250px""></br><b>Patrick</b>","""",3,ConfidenceQuery,Practice,"""","""","""","""",CFD-WF-017-003-N.jpg,Sara,0,"""",0,53,"""",4/20/2021 2:17,108.31.110.153,Mozilla/5.0 (Windows NT 10.0; Win64; x64; rv:88.0) Gecko/20100101 Firefox/88.0,,Firefox,88,Windows,10
51,1,1212,"""",html-button-response,46,1213802,0.0-46.0,"""",You are Correct. You called an Intact Pair Intact,0,3,feedback,Practice,"""","""","""","""","""","""","""","""","""","""","""",4/20/2021 2:17,108.31.110.153,Mozilla/5.0 (Windows NT 10.0; Win64; x64; rv:88.0) Gecko/20100101 Firefox/88.0,,Firefox,88,Windows,10
51,1,null,"""",html-keyboard-response,47,1214804,0.0-47.0,"""","<div style=""font-size:60px;"">+</div>","""",4,ITI,Practice,null,1000,"""","""","""","""","""","""","""","""","""",4/20/2021 2:17,108.31.110.153,Mozilla/5.0 (Windows NT 10.0; Win64; x64; rv:88.0) Gecko/20100101 Firefox/88.0,,Firefox,88,Windows,10
51,1,null,"""",image-keyboard-response,48,1215059,0.0-48.0,"""",jspsych/scrambledNeutralFaces/scrambledAM04NES.JPG,"""",4,forwardMask,Practice,null,250,"""",n,"""","""","""","""","""","""","""",4/20/2021 2:17,108.31.110.153,Mozilla/5.0 (Windows NT 10.0; Win64; x64; rv:88.0) Gecko/20100101 Firefox/88.0,,Firefox,88,Windows,10
51,1,null,"""",image-keyboard-response,49,1215090,0.0-49.0,"""",jspsych/neutralFaces/AM04NES.JPG,"""",4,Cue,Practice,null,16,"""","""","""","""","""","""","""","""","""",4/20/2021 2:17,108.31.110.153,Mozilla/5.0 (Windows NT 10.0; Win64; x64; rv:88.0) Gecko/20100101 Firefox/88.0,,Firefox,88,Windows,10
51,1,null,"""",image-keyboard-response,50,1215197,0.0-50.0,"""",jspsych/neutralFaces/BM33NES.JPG,"""",4,backwardMask,Practice,null,100,"""","""","""","""","""","""","""","""","""",4/20/2021 2:17,108.31.110.153,Mozilla/5.0 (Windows NT 10.0; Win64; x64; rv:88.0) Gecko/20100101 Firefox/88.0,,Firefox,88,Windows,10
51,1,null,"""",html-keyboard-response,51,1216204,0.0-51.0,"""","<div style=""font-size:60px;"">+</div>","""",4,fixationBtwnNeutralMaskAndPrompt,Practice,null,1000,"""","""","""","""","""","""","""","""","""",4/20/2021 2:17,108.31.110.153,Mozilla/5.0 (Windows NT 10.0; Win64; x64; rv:88.0) Gecko/20100101 Firefox/88.0,,Firefox,88,Windows,10
51,1,1531,"""",html-button-response,52,1217736,0.0-52.0,"""","<img src='jspsych/CFDfaces/CFD-AF-209-006-N.jpg'height=""250px""></br><b>Tara</b>",1,4,IntactOrRearranged,Practice,"""","""","""","""",CFD-AF-209-006-N.jpg,Tara,0,1,"""","""","""",4/20/2021 2:17,108.31.110.153,Mozilla/5.0 (Windows NT 10.0; Win64; x64; rv:88.0) Gecko/20100101 Firefox/88.0,,Firefox,88,Windows,10
51,1,2364,"""",html-slider-response,53,1220101,0.0-53.0,"""","<img src='jspsych/CFDfaces/CFD-AF-209-006-N.jpg'height=""250px""></br><b>Tara</b>","""",4,ConfidenceQuery,Practice,"""","""","""","""",CFD-WF-017-003-N.jpg,Sara,0,"""",0,49,"""",4/20/2021 2:17,108.31.110.153,Mozilla/5.0 (Windows NT 10.0; Win64; x64; rv:88.0) Gecko/20100101 Firefox/88.0,,Firefox,88,Windows,10
51,1,1416,"""",html-button-response,54,1221520,0.0-54.0,"""",You are Incorrect. You Called an Intact Pair Rearranged,0,4,feedback,Practice,"""","""","""","""","""","""","""","""","""","""","""",4/20/2021 2:17,108.31.110.153,Mozilla/5.0 (Windows NT 10.0; Win64; x64; rv:88.0) Gecko/20100101 Firefox/88.0,,Firefox,88,Windows,10
51,1,null,"""",html-keyboard-response,55,1222521,0.0-55.0,"""","<div style=""font-size:60px;"">+</div>","""",5,ITI,Practice,null,1000,"""","""","""","""","""","""","""","""","""",4/20/2021 2:17,108.31.110.153,Mozilla/5.0 (Windows NT 10.0; Win64; x64; rv:88.0) Gecko/20100101 Firefox/88.0,,Firefox,88,Windows,10
51,1,null,"""",image-keyboard-response,56,1222785,0.0-56.0,"""",jspsych/scrambledNeutralFaces/scrambledAM04NES.JPG,"""",5,forwardMask,Practice,null,250,"""",n,"""","""","""","""","""","""","""",4/20/2021 2:17,108.31.110.153,Mozilla/5.0 (Windows NT 10.0; Win64; x64; rv:88.0) Gecko/20100101 Firefox/88.0,,Firefox,88,Windows,10
51,1,null,"""",image-keyboard-response,57,1222805,0.0-57.0,"""",jspsych/neutralFaces/AM04NES.JPG,"""",5,Cue,Practice,null,16,"""","""","""","""","""","""","""","""","""",4/20/2021 2:17,108.31.110.153,Mozilla/5.0 (Windows NT 10.0; Win64; x64; rv:88.0) Gecko/20100101 Firefox/88.0,,Firefox,88,Windows,10
51,1,null,"""",image-keyboard-response,58,1222907,0.0-58.0,"""",jspsych/neutralFaces/BM08NES.JPG,"""",5,backwardMask,Practice,null,100,"""","""","""","""","""","""","""","""","""",4/20/2021 2:17,108.31.110.153,Mozilla/5.0 (Windows NT 10.0; Win64; x64; rv:88.0) Gecko/20100101 Firefox/88.0,,Firefox,88,Windows,10
51,1,null,"""",html-keyboard-response,59,1223913,0.0-59.0,"""","<div style=""font-size:60px;"">+</div>","""",5,fixationBtwnNeutralMaskAndPrompt,Practice,null,1000,"""","""","""","""","""","""","""","""","""",4/20/2021 2:17,108.31.110.153,Mozilla/5.0 (Windows NT 10.0; Win64; x64; rv:88.0) Gecko/20100101 Firefox/88.0,,Firefox,88,Windows,10
51,1,1571,"""",html-button-response,60,1225485,0.0-60.0,"""","<img src='jspsych/CFDfaces/CFD-AF-241-141-N.jpg'height=""250px""></br><b>Katelyn</b>",0,5,IntactOrRearranged,Practice,"""","""","""","""",CFD-AF-241-141-N.jpg,Katelyn,1,0,"""","""","""",4/20/2021 2:17,108.31.110.153,Mozilla/5.0 (Windows NT 10.0; Win64; x64; rv:88.0) Gecko/20100101 Firefox/88.0,,Firefox,88,Windows,10
51,1,1806,"""",html-slider-response,61,1227293,0.0-61.0,"""","<img src='jspsych/CFDfaces/CFD-AF-241-141-N.jpg'height=""250px""></br><b>Katelyn</b>","""",5,ConfidenceQuery,Practice,"""","""","""","""",CFD-WF-017-003-N.jpg,Sara,1,"""",0,49,"""",4/20/2021 2:17,108.31.110.153,Mozilla/5.0 (Windows NT 10.0; Win64; x64; rv:88.0) Gecko/20100101 Firefox/88.0,,Firefox,88,Windows,10
51,1,800,"""",html-button-response,62,1228093,0.0-62.0,"""",You are Incorrect. You called a Rearranged Pair Intact,0,5,feedback,Practice,"""","""","""","""","""","""","""","""","""","""","""",4/20/2021 2:17,108.31.110.153,Mozilla/5.0 (Windows NT 10.0; Win64; x64; rv:88.0) Gecko/20100101 Firefox/88.0,,Firefox,88,Windows,10
51,1,null,"""",html-keyboard-response,63,1229097,0.0-63.0,"""","<div style=""font-size:60px;"">+</div>","""",6,ITI,Practice,null,1000,"""","""","""","""","""","""","""","""","""",4/20/2021 2:17,108.31.110.153,Mozilla/5.0 (Windows NT 10.0; Win64; x64; rv:88.0) Gecko/20100101 Firefox/88.0,,Firefox,88,Windows,10
51,1,null,"""",image-keyboard-response,64,1229350,0.0-64.0,"""",jspsych/scrambledDisgustFaces/scrambledAM19DIS.JPG,"""",6,forwardMask,Practice,null,250,"""",d,"""","""","""","""","""","""","""",4/20/2021 2:17,108.31.110.153,Mozilla/5.0 (Windows NT 10.0; Win64; x64; rv:88.0) Gecko/20100101 Firefox/88.0,,Firefox,88,Windows,10
51,1,null,"""",image-keyboard-response,65,1229381,0.0-65.0,"""",jspsych/disgustFaces/AM19DIS.JPG,"""",6,Cue,Practice,null,16,"""","""","""","""","""","""","""","""","""",4/20/2021 2:17,108.31.110.153,Mozilla/5.0 (Windows NT 10.0; Win64; x64; rv:88.0) Gecko/20100101 Firefox/88.0,,Firefox,88,Windows,10
51,1,null,"""",image-keyboard-response,66,1229485,0.0-66.0,"""",jspsych/neutralFaces/AM21NES.JPG,"""",6,backwardMask,Practice,null,100,"""","""","""","""","""","""","""","""","""",4/20/2021 2:17,108.31.110.153,Mozilla/5.0 (Windows NT 10.0; Win64; x64; rv:88.0) Gecko/20100101 Firefox/88.0,,Firefox,88,Windows,10
51,1,null,"""",html-keyboard-response,67,1230492,0.0-67.0,"""","<div style=""font-size:60px;"">+</div>","""",6,fixationBtwnNeutralMaskAndPrompt,Practice,null,1000,"""","""","""","""","""","""","""","""","""",4/20/2021 2:17,108.31.110.153,Mozilla/5.0 (Windows NT 10.0; Win64; x64; rv:88.0) Gecko/20100101 Firefox/88.0,,Firefox,88,Windows,10
51,1,1867,"""",html-button-response,68,1232360,0.0-68.0,"""","<img src='jspsych/CFDfaces/CFD-AM-211-052-N.jpg'height=""250px""></br><b>Samuel</b>",1,6,IntactOrRearranged,Practice,"""","""","""","""",CFD-AM-211-052-N.jpg,Samuel,0,1,"""","""","""",4/20/2021 2:17,108.31.110.153,Mozilla/5.0 (Windows NT 10.0; Win64; x64; rv:88.0) Gecko/20100101 Firefox/88.0,,Firefox,88,Windows,10
51,1,1698,"""",html-slider-response,69,1234060,0.0-69.0,"""","<img src='jspsych/CFDfaces/CFD-AM-211-052-N.jpg'height=""250px""></br><b>Samuel</b>","""",6,ConfidenceQuery,Practice,"""","""","""","""",CFD-WF-017-003-N.jpg,Sara,0,"""",0,49,"""",4/20/2021 2:17,108.31.110.153,Mozilla/5.0 (Windows NT 10.0; Win64; x64; rv:88.0) Gecko/20100101 Firefox/88.0,,Firefox,88,Windows,10
51,1,1104,"""",html-button-response,70,1235164,0.0-70.0,"""",You are Incorrect. You Called an Intact Pair Rearranged,0,6,feedback,Practice,"""","""","""","""","""","""","""","""","""","""","""",4/20/2021 2:17,108.31.110.153,Mozilla/5.0 (Windows NT 10.0; Win64; x64; rv:88.0) Gecko/20100101 Firefox/88.0,,Firefox,88,Windows,10
51,1,null,"""",html-keyboard-response,71,1236165,0.0-71.0,"""","<div style=""font-size:60px;"">+</div>","""",7,ITI,Practice,null,1000,"""","""","""","""","""","""","""","""","""",4/20/2021 2:17,108.31.110.153,Mozilla/5.0 (Windows NT 10.0; Win64; x64; rv:88.0) Gecko/20100101 Firefox/88.0,,Firefox,88,Windows,10
51,1,null,"""",image-keyboard-response,72,1236424,0.0-72.0,"""",jspsych/scrambledDisgustFaces/scrambledBM09DIS.JPG,"""",7,forwardMask,Practice,null,250,"""",d,"""","""","""","""","""","""","""",4/20/2021 2:17,108.31.110.153,Mozilla/5.0 (Windows NT 10.0; Win64; x64; rv:88.0) Gecko/20100101 Firefox/88.0,,Firefox,88,Windows,10
51,1,null,"""",image-keyboard-response,73,1236455,0.0-73.0,"""",jspsych/disgustFaces/BM10DIS.JPG,"""",7,Cue,Practice,null,16,"""","""","""","""","""","""","""","""","""",4/20/2021 2:17,108.31.110.153,Mozilla/5.0 (Windows NT 10.0; Win64; x64; rv:88.0) Gecko/20100101 Firefox/88.0,,Firefox,88,Windows,10
51,1,null,"""",image-keyboard-response,74,1236562,0.0-74.0,"""",jspsych/neutralFaces/AM09NES.JPG,"""",7,backwardMask,Practice,null,100,"""","""","""","""","""","""","""","""","""",4/20/2021 2:17,108.31.110.153,Mozilla/5.0 (Windows NT 10.0; Win64; x64; rv:88.0) Gecko/20100101 Firefox/88.0,,Firefox,88,Windows,10
51,1,null,"""",html-keyboard-response,75,1237570,0.0-75.0,"""","<div style=""font-size:60px;"">+</div>","""",7,fixationBtwnNeutralMaskAndPrompt,Practice,null,1000,"""","""","""","""","""","""","""","""","""",4/20/2021 2:17,108.31.110.153,Mozilla/5.0 (Windows NT 10.0; Win64; x64; rv:88.0) Gecko/20100101 Firefox/88.0,,Firefox,88,Windows,10
51,1,1090,"""",html-button-response,76,1238661,0.0-76.0,"""","<img src='jspsych/CFDfaces/CFD-WF-200-099-N.jpg'height=""250px""></br><b>Cassandra</b>",0,7,IntactOrRearranged,Practice,"""","""","""","""",CFD-WF-200-099-N.jpg,Cassandra,1,0,"""","""","""",4/20/2021 2:17,108.31.110.153,Mozilla/5.0 (Windows NT 10.0; Win64; x64; rv:88.0) Gecko/20100101 Firefox/88.0,,Firefox,88,Windows,10
51,1,1737,"""",html-slider-response,77,1240401,0.0-77.0,"""","<img src='jspsych/CFDfaces/CFD-WF-200-099-N.jpg'height=""250px""></br><b>Cassandra</b>","""",7,ConfidenceQuery,Practice,"""","""","""","""",CFD-WF-017-003-N.jpg,Sara,1,"""",0,53,"""",4/20/2021 2:17,108.31.110.153,Mozilla/5.0 (Windows NT 10.0; Win64; x64; rv:88.0) Gecko/20100101 Firefox/88.0,,Firefox,88,Windows,10
51,1,868,"""",html-button-response,78,1241270,0.0-78.0,"""",You are Incorrect. You called a Rearranged Pair Intact,0,7,feedback,Practice,"""","""","""","""","""","""","""","""","""","""","""",4/20/2021 2:17,108.31.110.153,Mozilla/5.0 (Windows NT 10.0; Win64; x64; rv:88.0) Gecko/20100101 Firefox/88.0,,Firefox,88,Windows,10
51,1,null,"""",html-keyboard-response,79,1242271,0.0-79.0,"""","<div style=""font-size:60px;"">+</div>","""",8,ITI,Practice,null,1000,"""","""","""","""","""","""","""","""","""",4/20/2021 2:17,108.31.110.153,Mozilla/5.0 (Windows NT 10.0; Win64; x64; rv:88.0) Gecko/20100101 Firefox/88.0,,Firefox,88,Windows,10
51,1,null,"""",image-keyboard-response,80,1242535,0.0-80.0,"""",jspsych/scrambledNeutralFaces/scrambledBM01NES.JPG,"""",8,forwardMask,Practice,null,250,"""",n,"""","""","""","""","""","""","""",4/20/2021 2:17,108.31.110.153,Mozilla/5.0 (Windows NT 10.0; Win64; x64; rv:88.0) Gecko/20100101 Firefox/88.0,,Firefox,88,Windows,10
51,1,null,"""",image-keyboard-response,81,1242556,0.0-81.0,"""",jspsych/neutralFaces/BM01NES.JPG,"""",8,Cue,Practice,null,16,"""","""","""","""","""","""","""","""","""",4/20/2021 2:17,108.31.110.153,Mozilla/5.0 (Windows NT 10.0; Win64; x64; rv:88.0) Gecko/20100101 Firefox/88.0,,Firefox,88,Windows,10
51,1,null,"""",image-keyboard-response,82,1242659,0.0-82.0,"""",jspsych/neutralFaces/BM31NES.JPG,"""",8,backwardMask,Practice,null,100,"""","""","""","""","""","""","""","""","""",4/20/2021 2:17,108.31.110.153,Mozilla/5.0 (Windows NT 10.0; Win64; x64; rv:88.0) Gecko/20100101 Firefox/88.0,,Firefox,88,Windows,10
51,1,null,"""",html-keyboard-response,83,1243668,0.0-83.0,"""","<div style=""font-size:60px;"">+</div>","""",8,fixationBtwnNeutralMaskAndPrompt,Practice,null,1000,"""","""","""","""","""","""","""","""","""",4/20/2021 2:17,108.31.110.153,Mozilla/5.0 (Windows NT 10.0; Win64; x64; rv:88.0) Gecko/20100101 Firefox/88.0,,Firefox,88,Windows,10
51,1,1283,"""",html-button-response,84,1244952,0.0-84.0,"""","<img src='jspsych/CFDfaces/CFD-BF-001-025-N.jpg'height=""250px""></br><b>Shannon</b>",0,8,IntactOrRearranged,Practice,"""","""","""","""",CFD-BF-001-025-N.jpg,Shannon,0,0,"""","""","""",4/20/2021 2:17,108.31.110.153,Mozilla/5.0 (Windows NT 10.0; Win64; x64; rv:88.0) Gecko/20100101 Firefox/88.0,,Firefox,88,Windows,10
51,1,1253,"""",html-slider-response,85,1246208,0.0-85.0,"""","<img src='jspsych/CFDfaces/CFD-BF-001-025-N.jpg'height=""250px""></br><b>Shannon</b>","""",8,ConfidenceQuery,Practice,"""","""","""","""",CFD-WF-017-003-N.jpg,Sara,0,"""",0,51,"""",4/20/2021 2:17,108.31.110.153,Mozilla/5.0 (Windows NT 10.0; Win64; x64; rv:88.0) Gecko/20100101 Firefox/88.0,,Firefox,88,Windows,10
51,1,854,"""",html-button-response,86,1247063,0.0-86.0,"""",You are Correct. You called an Intact Pair Intact,0,8,feedback,Practice,"""","""","""","""","""","""","""","""","""","""","""",4/20/2021 2:17,108.31.110.153,Mozilla/5.0 (Windows NT 10.0; Win64; x64; rv:88.0) Gecko/20100101 Firefox/88.0,,Firefox,88,Windows,10
51,1,1419,"""",image-button-response,87,1248486,0.0-87.0,"""",directionsMemoryAssociation3.JPG,0,128,DirectionsBeforeActualTEst,Break,"""","""","""","""","""","""","""","""","""","""","""",4/20/2021 2:17,108.31.110.153,Mozilla/5.0 (Windows NT 10.0; Win64; x64; rv:88.0) Gecko/20100101 Firefox/88.0,,Firefox,88,Windows,10
51,1,1210,"""",image-button-response,88,1249701,0.0-88.0,"""",directionsForTest2.JPG,0,1,directionsForTest2,break,"""","""","""","""","""","""","""","""","""","""","""",4/20/2021 2:17,108.31.110.153,Mozilla/5.0 (Windows NT 10.0; Win64; x64; rv:88.0) Gecko/20100101 Firefox/88.0,,Firefox,88,Windows,10
51,1,1136,"""",html-button-response,89,1250837,0.0-89.0,"""","<p>You will be asked to memorize and then recall four sets of face-name pairs. </p> <p> Each set will have 32 pairs. </p> <p>After the fourth set, there will be a brief follow-up experiment (<40 min alltogether)</p>",0,"""","""","""","""","""","""","""","""","""","""","""","""","""","""",4/20/2021 2:17,108.31.110.153,Mozilla/5.0 (Windows NT 10.0; Win64; x64; rv:88.0) Gecko/20100101 Firefox/88.0,,Firefox,88,Windows,10
51,1,2779,"""",html-keyboard-response,90,1255843,0.0-90.0,"""","<img src='jspsych/CFDfaces/CFD-AF-243-170-N.jpg' height=""250px""></br><b>Elizabeth</b>","""",256,IntactFace,Memorization,70,5000,f,"""",CFD-LM-248-089-N.jpg,Steven,0,"""","""","""",1,4/20/2021 2:17,108.31.110.153,Mozilla/5.0 (Windows NT 10.0; Win64; x64; rv:88.0) Gecko/20100101 Firefox/88.0,,Firefox,88,Windows,10
51,1,null,"""",html-keyboard-response,91,1256356,0.0-91.0,"""","<div style=""font-size:60px;"">+</div>","""",256,fixation,Memorization,null,500,"""","""","""","""","""","""","""","""",1,4/20/2021 2:17,108.31.110.153,Mozilla/5.0 (Windows NT 10.0; Win64; x64; rv:88.0) Gecko/20100101 Firefox/88.0,,Firefox,88,Windows,10
51,1,1858,"""",html-keyboard-response,92,1261365,0.0-92.0,"""","<img src='jspsych/CFDfaces/CFD-LM-223-175-N.jpg' height=""250px""></br><b>Daniel</b>","""",256,IntactFace,Memorization,70,5000,f,"""",CFD-WM-032-001-N.jpg,Jacob,0,"""","""","""",1,4/20/2021 2:17,108.31.110.153,Mozilla/5.0 (Windows NT 10.0; Win64; x64; rv:88.0) Gecko/20100101 Firefox/88.0,,Firefox,88,Windows,10
51,1,null,"""",html-keyboard-response,93,1261878,0.0-93.0,"""","<div style=""font-size:60px;"">+</div>","""",256,fixation,Memorization,null,500,"""","""","""","""","""","""","""","""",1,4/20/2021 2:17,108.31.110.153,Mozilla/5.0 (Windows NT 10.0; Win64; x64; rv:88.0) Gecko/20100101 Firefox/88.0,,Firefox,88,Windows,10
51,1,478,"""",html-keyboard-response,94,1266892,0.0-94.0,"""","<img src='jspsych/CFDfaces/CFD-LM-246-087-N.jpg' height=""250px""></br><b>Eric</b>","""",256,IntactFace,Memorization,70,5000,f,"""",CFD-BM-032-024-N.jpg,Austin,0,"""","""","""",1,4/20/2021 2:17,108.31.110.153,Mozilla/5.0 (Windows NT 10.0; Win64; x64; rv:88.0) Gecko/20100101 Firefox/88.0,,Firefox,88,Windows,10
51,1,null,"""",html-keyboard-response,95,1267402,0.0-95.0,"""","<div style=""font-size:60px;"">+</div>","""",256,fixation,Memorization,null,500,"""","""","""","""","""","""","""","""",1,4/20/2021 2:17,108.31.110.153,Mozilla/5.0 (Windows NT 10.0; Win64; x64; rv:88.0) Gecko/20100101 Firefox/88.0,,Firefox,88,Windows,10
51,1,183,"""",html-keyboard-response,96,1272412,0.0-96.0,"""","<img src='jspsych/CFDfaces/CFD-LM-213-061-N.jpg' height=""250px""></br><b>Jeffrey</b>","""",256,IntactFace,Memorization,70,5000,f,"""",CFD-AF-235-170-N.jpg,Tiffany,0,"""","""","""",1,4/20/2021 2:17,108.31.110.153,Mozilla/5.0 (Windows NT 10.0; Win64; x64; rv:88.0) Gecko/20100101 Firefox/88.0,,Firefox,88,Windows,10
51,1,null,"""",html-keyboard-response,97,1272920,0.0-97.0,"""","<div style=""font-size:60px;"">+</div>","""",256,fixation,Memorization,null,500,"""","""","""","""","""","""","""","""",1,4/20/2021 2:17,108.31.110.153,Mozilla/5.0 (Windows NT 10.0; Win64; x64; rv:88.0) Gecko/20100101 Firefox/88.0,,Firefox,88,Windows,10
51,1,null,"""",html-keyboard-response,98,1277925,0.0-98.0,"""","<img src='jspsych/CFDfaces/CFD-AF-228-173-N.jpg' height=""250px""></br><b>Amanda</b>","""",256,IntactFace,Memorization,null,5000,"""","""",CFD-AF-208-003-N.jpg,Lindsey,0,"""","""","""",1,4/20/2021 2:17,108.31.110.153,Mozilla/5.0 (Windows NT 10.0; Win64; x64; rv:88.0) Gecko/20100101 Firefox/88.0,,Firefox,88,Windows,10
51,1,null,"""",html-keyboard-response,99,1278434,0.0-99.0,"""","<div style=""font-size:60px;"">+</div>","""",256,fixation,Memorization,null,500,"""","""","""","""","""","""","""","""",1,4/20/2021 2:17,108.31.110.153,Mozilla/5.0 (Windows NT 10.0; Win64; x64; rv:88.0) Gecko/20100101 Firefox/88.0,,Firefox,88,Windows,10
51,1,null,"""",html-keyboard-response,100,1283447,0.0-100.0,"""","<img src='jspsych/CFDfaces/CFD-LF-236-221-N.jpg' height=""250px""></br><b>Emily</b>","""",256,IntactFace,Memorization,null,5000,"""","""",CFD-BF-039-031-N.jpg,Angela,0,"""","""","""",1,4/20/2021 2:17,108.31.110.153,Mozilla/5.0 (Windows NT 10.0; Win64; x64; rv:88.0) Gecko/20100101 Firefox/88.0,,Firefox,88,Windows,10
51,1,null,"""",html-keyboard-response,101,1283958,0.0-101.0,"""","<div style=""font-size:60px;"">+</div>","""",256,fixation,Memorization,null,500,"""","""","""","""","""","""","""","""",1,4/20/2021 2:17,108.31.110.153,Mozilla/5.0 (Windows NT 10.0; Win64; x64; rv:88.0) Gecko/20100101 Firefox/88.0,,Firefox,88,Windows,10
51,1,null,"""",html-keyboard-response,102,1288971,0.0-102.0,"""","<img src='jspsych/CFDfaces/CFD-LF-201-035-N.jpg' height=""250px""></br><b>Julie</b>","""",256,IntactFace,Memorization,null,5000,"""","""",CFD-LF-231-260-N.jpg,Jenna,0,"""","""","""",1,4/20/2021 2:17,108.31.110.153,Mozilla/5.0 (Windows NT 10.0; Win64; x64; rv:88.0) Gecko/20100101 Firefox/88.0,,Firefox,88,Windows,10
51,1,null,"""",html-keyboard-response,103,1289475,0.0-103.0,"""","<div style=""font-size:60px;"">+</div>","""",256,fixation,Memorization,null,500,"""","""","""","""","""","""","""","""",1,4/20/2021 2:17,108.31.110.153,Mozilla/5.0 (Windows NT 10.0; Win64; x64; rv:88.0) Gecko/20100101 Firefox/88.0,,Firefox,88,Windows,10
51,1,null,"""",html-keyboard-response,104,1294487,0.0-104.0,"""","<img src='jspsych/CFDfaces/CFD-LF-239-148-N.jpg' height=""250px""></br><b>Meghan</b>","""",256,IntactFace,Memorization,null,5000,"""","""",CFD-BF-004-014-N.jpg,Lauren,0,"""","""","""",1,4/20/2021 2:17,108.31.110.153,Mozilla/5.0 (Windows NT 10.0; Win64; x64; rv:88.0) Gecko/20100101 Firefox/88.0,,Firefox,88,Windows,10
51,1,null,"""",html-keyboard-response,105,1295000,0.0-105.0,"""","<div style=""font-size:60px;"">+</div>","""",256,fixation,Memorization,null,500,"""","""","""","""","""","""","""","""",1,4/20/2021 2:17,108.31.110.153,Mozilla/5.0 (Windows NT 10.0; Win64; x64; rv:88.0) Gecko/20100101 Firefox/88.0,,Firefox,88,Windows,10
51,1,null,"""",html-keyboard-response,106,1300018,0.0-106.0,"""","<img src='jspsych/CFDfaces/CFD-WM-207-048-N.jpg' height=""250px""></br><b>James</b>","""",256,IntactFace,Memorization,null,5000,"""","""",CFD-LF-230-203-N.jpg,Melissa,0,"""","""","""",1,4/20/2021 2:17,108.31.110.153,Mozilla/5.0 (Windows NT 10.0; Win64; x64; rv:88.0) Gecko/20100101 Firefox/88.0,,Firefox,88,Windows,10
51,1,null,"""",html-keyboard-response,107,1300532,0.0-107.0,"""","<div style=""font-size:60px;"">+</div>","""",256,fixation,Memorization,null,500,"""","""","""","""","""","""","""","""",1,4/20/2021 2:17,108.31.110.153,Mozilla/5.0 (Windows NT 10.0; Win64; x64; rv:88.0) Gecko/20100101 Firefox/88.0,,Firefox,88,Windows,10
51,1,null,"""",html-keyboard-response,108,1305533,0.0-108.0,"""","<img src='jspsych/CFDfaces/CFD-BF-008-001-N.jpg' height=""250px""></br><b>Christina</b>","""",256,IntactFace,Memorization,null,5000,"""","""",CFD-LM-239-075-N.jpg,Ryan,0,"""","""","""",1,4/20/2021 2:17,108.31.110.153,Mozilla/5.0 (Windows NT 10.0; Win64; x64; rv:88.0) Gecko/20100101 Firefox/88.0,,Firefox,88,Windows,10
51,1,null,"""",html-keyboard-response,109,1306046,0.0-109.0,"""","<div style=""font-size:60px;"">+</div>","""",256,fixation,Memorization,null,500,"""","""","""","""","""","""","""","""",1,4/20/2021 2:17,108.31.110.153,Mozilla/5.0 (Windows NT 10.0; Win64; x64; rv:88.0) Gecko/20100101 Firefox/88.0,,Firefox,88,Windows,10
51,1,null,"""",html-keyboard-response,110,1311061,0.0-110.0,"""","<img src='jspsych/CFDfaces/CFD-WM-232-070-N.jpg' height=""250px""></br><b>Juan</b>","""",256,IntactFace,Memorization,null,5000,"""","""",CFD-WF-223-133-N.jpg,Erin,0,"""","""","""",1,4/20/2021 2:17,108.31.110.153,Mozilla/5.0 (Windows NT 10.0; Win64; x64; rv:88.0) Gecko/20100101 Firefox/88.0,,Firefox,88,Windows,10
51,1,null,"""",html-keyboard-response,111,1311567,0.0-111.0,"""","<div style=""font-size:60px;"">+</div>","""",256,fixation,Memorization,null,500,"""","""","""","""","""","""","""","""",1,4/20/2021 2:17,108.31.110.153,Mozilla/5.0 (Windows NT 10.0; Win64; x64; rv:88.0) Gecko/20100101 Firefox/88.0,,Firefox,88,Windows,10
51,1,null,"""",html-keyboard-response,112,1316581,0.0-112.0,"""","<img src='jspsych/CFDfaces/CFD-BF-005-001-N.jpg' height=""250px""></br><b>Stephanie</b>","""",256,IntactFace,Memorization,null,5000,"""","""",CFD-BM-043-071-N.jpg,Jeremy,0,"""","""","""",1,4/20/2021 2:17,108.31.110.153,Mozilla/5.0 (Windows NT 10.0; Win64; x64; rv:88.0) Gecko/20100101 Firefox/88.0,,Firefox,88,Windows,10
51,1,null,"""",html-keyboard-response,113,1317090,0.0-113.0,"""","<div style=""font-size:60px;"">+</div>","""",256,fixation,Memorization,null,500,"""","""","""","""","""","""","""","""",1,4/20/2021 2:17,108.31.110.153,Mozilla/5.0 (Windows NT 10.0; Win64; x64; rv:88.0) Gecko/20100101 Firefox/88.0,,Firefox,88,Windows,10
51,1,null,"""",html-keyboard-response,114,1322101,0.0-114.0,"""","<img src='jspsych/CFDfaces/CFD-BF-010-001-N.jpg' height=""250px""></br><b>Andrea</b>","""",256,IntactFace,Memorization,null,5000,"""","""",CFD-LM-219-295-N.jpg,Jesse,0,"""","""","""",1,4/20/2021 2:17,108.31.110.153,Mozilla/5.0 (Windows NT 10.0; Win64; x64; rv:88.0) Gecko/20100101 Firefox/88.0,,Firefox,88,Windows,10
51,1,null,"""",html-keyboard-response,115,1322609,0.0-115.0,"""","<div style=""font-size:60px;"">+</div>","""",256,fixation,Memorization,null,500,"""","""","""","""","""","""","""","""",1,4/20/2021 2:17,108.31.110.153,Mozilla/5.0 (Windows NT 10.0; Win64; x64; rv:88.0) Gecko/20100101 Firefox/88.0,,Firefox,88,Windows,10
51,1,null,"""",html-keyboard-response,116,1327622,0.0-116.0,"""","<img src='jspsych/CFDfaces/CFD-LF-203-066-N.jpg' height=""250px""></br><b>Brittany</b>","""",256,IntactFace,Memorization,null,5000,"""","""",CFD-WF-017-003-N.jpg,Laura,0,"""","""","""",1,4/20/2021 2:17,108.31.110.153,Mozilla/5.0 (Windows NT 10.0; Win64; x64; rv:88.0) Gecko/20100101 Firefox/88.0,,Firefox,88,Windows,10
51,1,null,"""",html-keyboard-response,117,1328135,0.0-117.0,"""","<div style=""font-size:60px;"">+</div>","""",256,fixation,Memorization,null,500,"""","""","""","""","""","""","""","""",1,4/20/2021 2:17,108.31.110.153,Mozilla/5.0 (Windows NT 10.0; Win64; x64; rv:88.0) Gecko/20100101 Firefox/88.0,,Firefox,88,Windows,10
51,1,null,"""",html-keyboard-response,118,1333146,0.0-118.0,"""","<img src='jspsych/CFDfaces/CFD-LF-215-157-N.jpg' height=""250px""></br><b>Ashley</b>","""",256,IntactFace,Memorization,null,5000,"""","""",CFD-WF-003-003-N.jpg,Amy,0,"""","""","""",1,4/20/2021 2:17,108.31.110.153,Mozilla/5.0 (Windows NT 10.0; Win64; x64; rv:88.0) Gecko/20100101 Firefox/88.0,,Firefox,88,Windows,10
51,1,null,"""",html-keyboard-response,119,1333660,0.0-119.0,"""","<div style=""font-size:60px;"">+</div>","""",256,fixation,Memorization,null,500,"""","""","""","""","""","""","""","""",1,4/20/2021 2:17,108.31.110.153,Mozilla/5.0 (Windows NT 10.0; Win64; x64; rv:88.0) Gecko/20100101 Firefox/88.0,,Firefox,88,Windows,10
51,1,null,"""",html-keyboard-response,120,1338673,0.0-120.0,"""","<img src='jspsych/CFDfaces/CFD-BF-047-003-N.jpg' height=""250px""></br><b>Kayla</b>","""",256,IntactFace,Memorization,null,5000,"""","""",CFD-AF-237-223-N.jpg,Sara,0,"""","""","""",1,4/20/2021 2:17,108.31.110.153,Mozilla/5.0 (Windows NT 10.0; Win64; x64; rv:88.0) Gecko/20100101 Firefox/88.0,,Firefox,88,Windows,10
51,1,null,"""",html-keyboard-response,121,1339185,0.0-121.0,"""","<div style=""font-size:60px;"">+</div>","""",256,fixation,Memorization,null,500,"""","""","""","""","""","""","""","""",1,4/20/2021 2:17,108.31.110.153,Mozilla/5.0 (Windows NT 10.0; Win64; x64; rv:88.0) Gecko/20100101 Firefox/88.0,,Firefox,88,Windows,10
51,1,null,"""",html-keyboard-response,122,1344218,0.0-122.0,"""","<img src='jspsych/CFDfaces/CFD-WM-011-002-N.jpg' height=""250px""></br><b>Ian</b>","""",256,IntactFace,Memorization,null,5000,"""","""",CFD-BF-221-223-N.jpg,Rebecca,0,"""","""","""",1,4/20/2021 2:17,108.31.110.153,Mozilla/5.0 (Windows NT 10.0; Win64; x64; rv:88.0) Gecko/20100101 Firefox/88.0,,Firefox,88,Windows,10
51,1,null,"""",html-keyboard-response,123,1344730,0.0-123.0,"""","<div style=""font-size:60px;"">+</div>","""",256,fixation,Memorization,null,500,"""","""","""","""","""","""","""","""",1,4/20/2021 2:17,108.31.110.153,Mozilla/5.0 (Windows NT 10.0; Win64; x64; rv:88.0) Gecko/20100101 Firefox/88.0,,Firefox,88,Windows,10
51,1,null,"""",html-keyboard-response,124,1349739,0.0-124.0,"""","<img src='jspsych/CFDfaces/CFD-AF-214-139-N.jpg' height=""250px""></br><b>Victoria</b>","""",256,IntactFace,Memorization,null,5000,"""","""",CFD-LF-205-100-N.jpg,Jasmine,0,"""","""","""",1,4/20/2021 2:17,108.31.110.153,Mozilla/5.0 (Windows NT 10.0; Win64; x64; rv:88.0) Gecko/20100101 Firefox/88.0,,Firefox,88,Windows,10
51,1,null,"""",html-keyboard-response,125,1350247,0.0-125.0,"""","<div style=""font-size:60px;"">+</div>","""",256,fixation,Memorization,null,500,"""","""","""","""","""","""","""","""",1,4/20/2021 2:17,108.31.110.153,Mozilla/5.0 (Windows NT 10.0; Win64; x64; rv:88.0) Gecko/20100101 Firefox/88.0,,Firefox,88,Windows,10
51,1,null,"""",html-keyboard-response,126,1355263,0.0-126.0,"""","<img src='jspsych/CFDfaces/CFD-BM-018-001-N.jpg' height=""250px""></br><b>Brian</b>","""",256,IntactFace,Memorization,null,5000,"""","""",CFD-WF-218-087-N.jpg,Jordan,0,"""","""","""",1,4/20/2021 2:17,108.31.110.153,Mozilla/5.0 (Windows NT 10.0; Win64; x64; rv:88.0) Gecko/20100101 Firefox/88.0,,Firefox,88,Windows,10
51,1,null,"""",html-keyboard-response,127,1355770,0.0-127.0,"""","<div style=""font-size:60px;"">+</div>","""",256,fixation,Memorization,null,500,"""","""","""","""","""","""","""","""",1,4/20/2021 2:17,108.31.110.153,Mozilla/5.0 (Windows NT 10.0; Win64; x64; rv:88.0) Gecko/20100101 Firefox/88.0,,Firefox,88,Windows,10
51,1,null,"""",html-keyboard-response,128,1360776,0.0-128.0,"""","<img src='jspsych/CFDfaces/CFD-AM-230-150-N.jpg' height=""250px""></br><b>Gregory</b>","""",256,IntactFace,Memorization,null,5000,"""","""",CFD-LF-206-078-N.jpg,Heather,0,"""","""","""",1,4/20/2021 2:17,108.31.110.153,Mozilla/5.0 (Windows NT 10.0; Win64; x64; rv:88.0) Gecko/20100101 Firefox/88.0,,Firefox,88,Windows,10
51,1,null,"""",html-keyboard-response,129,1361282,0.0-129.0,"""","<div style=""font-size:60px;"">+</div>","""",256,fixation,Memorization,null,500,"""","""","""","""","""","""","""","""",1,4/20/2021 2:17,108.31.110.153,Mozilla/5.0 (Windows NT 10.0; Win64; x64; rv:88.0) Gecko/20100101 Firefox/88.0,,Firefox,88,Windows,10
51,1,null,"""",html-keyboard-response,130,1366287,0.0-130.0,"""","<img src='jspsych/CFDfaces/CFD-AM-228-214-N.jpg' height=""250px""></br><b>Jason</b>","""",256,IntactFace,Memorization,null,5000,"""","""",CFD-WM-009-002-N.jpg,Kenneth,0,"""","""","""",1,4/20/2021 2:17,108.31.110.153,Mozilla/5.0 (Windows NT 10.0; Win64; x64; rv:88.0) Gecko/20100101 Firefox/88.0,,Firefox,88,Windows,10
51,1,null,"""",html-keyboard-response,131,1366801,0.0-131.0,"""","<div style=""font-size:60px;"">+</div>","""",256,fixation,Memorization,null,500,"""","""","""","""","""","""","""","""",1,4/20/2021 2:17,108.31.110.153,Mozilla/5.0 (Windows NT 10.0; Win64; x64; rv:88.0) Gecko/20100101 Firefox/88.0,,Firefox,88,Windows,10
51,1,null,"""",html-keyboard-response,132,1371810,0.0-132.0,"""","<img src='jspsych/CFDfaces/CFD-LF-202-065-N.jpg' height=""250px""></br><b>Vanessa</b>","""",256,IntactFace,Memorization,null,5000,"""","""",CFD-BM-002-013-N.jpg,Dustin,0,"""","""","""",1,4/20/2021 2:17,108.31.110.153,Mozilla/5.0 (Windows NT 10.0; Win64; x64; rv:88.0) Gecko/20100101 Firefox/88.0,,Firefox,88,Windows,10
51,1,null,"""",html-keyboard-response,133,1372320,0.0-133.0,"""","<div style=""font-size:60px;"">+</div>","""",256,fixation,Memorization,null,500,"""","""","""","""","""","""","""","""",1,4/20/2021 2:17,108.31.110.153,Mozilla/5.0 (Windows NT 10.0; Win64; x64; rv:88.0) Gecko/20100101 Firefox/88.0,,Firefox,88,Windows,10
51,1,null,"""",html-keyboard-response,134,1377331,0.0-134.0,"""","<img src='jspsych/CFDfaces/CFD-BM-039-029-N.jpg' height=""250px""></br><b>Brandon</b>","""",256,IntactFace,Memorization,null,5000,"""","""",CFD-AF-239-171-N.jpg,Taylor,0,"""","""","""",1,4/20/2021 2:17,108.31.110.153,Mozilla/5.0 (Windows NT 10.0; Win64; x64; rv:88.0) Gecko/20100101 Firefox/88.0,,Firefox,88,Windows,10
51,1,null,"""",html-keyboard-response,135,1377840,0.0-135.0,"""","<div style=""font-size:60px;"">+</div>","""",256,fixation,Memorization,null,500,"""","""","""","""","""","""","""","""",1,4/20/2021 2:17,108.31.110.153,Mozilla/5.0 (Windows NT 10.0; Win64; x64; rv:88.0) Gecko/20100101 Firefox/88.0,,Firefox,88,Windows,10
51,1,null,"""",html-keyboard-response,136,1382847,0.0-136.0,"""","<img src='jspsych/CFDfaces/CFD-AM-229-224-N.jpg' height=""250px""></br><b>Peter</b>","""",256,IntactFace,Memorization,null,5000,"""","""",CFD-AM-246-184-N.jpg,Luis,0,"""","""","""",1,4/20/2021 2:17,108.31.110.153,Mozilla/5.0 (Windows NT 10.0; Win64; x64; rv:88.0) Gecko/20100101 Firefox/88.0,,Firefox,88,Windows,10
51,1,null,"""",html-keyboard-response,137,1383351,0.0-137.0,"""","<div style=""font-size:60px;"">+</div>","""",256,fixation,Memorization,null,500,"""","""","""","""","""","""","""","""",1,4/20/2021 2:17,108.31.110.153,Mozilla/5.0 (Windows NT 10.0; Win64; x64; rv:88.0) Gecko/20100101 Firefox/88.0,,Firefox,88,Windows,10
51,1,null,"""",html-keyboard-response,138,1388361,0.0-138.0,"""","<img src='jspsych/CFDfaces/CFD-LM-221-216-N.jpg' height=""250px""></br><b>Joshua</b>","""",256,IntactFace,Memorization,null,5000,"""","""",CFD-BM-026-002-N.jpg,Timothy,0,"""","""","""",1,4/20/2021 2:17,108.31.110.153,Mozilla/5.0 (Windows NT 10.0; Win64; x64; rv:88.0) Gecko/20100101 Firefox/88.0,,Firefox,88,Windows,10
51,1,null,"""",html-keyboard-response,139,1388865,0.0-139.0,"""","<div style=""font-size:60px;"">+</div>","""",256,fixation,Memorization,null,500,"""","""","""","""","""","""","""","""",1,4/20/2021 2:17,108.31.110.153,Mozilla/5.0 (Windows NT 10.0; Win64; x64; rv:88.0) Gecko/20100101 Firefox/88.0,,Firefox,88,Windows,10
51,1,null,"""",html-keyboard-response,140,1393881,0.0-140.0,"""","<img src='jspsych/CFDfaces/CFD-BM-210-148-N.jpg' height=""250px""></br><b>Christian</b>","""",256,IntactFace,Memorization,null,5000,"""","""",CFD-WM-022-001-N.jpg,Cameron,0,"""","""","""",1,4/20/2021 2:17,108.31.110.153,Mozilla/5.0 (Windows NT 10.0; Win64; x64; rv:88.0) Gecko/20100101 Firefox/88.0,,Firefox,88,Windows,10
51,1,null,"""",html-keyboard-response,141,1394388,0.0-141.0,"""","<div style=""font-size:60px;"">+</div>","""",256,fixation,Memorization,null,500,"""","""","""","""","""","""","""","""",1,4/20/2021 2:17,108.31.110.153,Mozilla/5.0 (Windows NT 10.0; Win64; x64; rv:88.0) Gecko/20100101 Firefox/88.0,,Firefox,88,Windows,10
51,1,null,"""",html-keyboard-response,142,1399398,0.0-142.0,"""","<img src='jspsych/CFDfaces/CFD-WF-018-017-N.jpg' height=""250px""></br><b>Samantha</b>","""",256,IntactFace,Memorization,null,5000,"""","""",CFD-LM-225-130-N.jpg,Travis,0,"""","""","""",1,4/20/2021 2:17,108.31.110.153,Mozilla/5.0 (Windows NT 10.0; Win64; x64; rv:88.0) Gecko/20100101 Firefox/88.0,,Firefox,88,Windows,10
51,1,null,"""",html-keyboard-response,143,1399910,0.0-143.0,"""","<div style=""font-size:60px;"">+</div>","""",256,fixation,Memorization,null,500,"""","""","""","""","""","""","""","""",1,4/20/2021 2:17,108.31.110.153,Mozilla/5.0 (Windows NT 10.0; Win64; x64; rv:88.0) Gecko/20100101 Firefox/88.0,,Firefox,88,Windows,10
51,1,null,"""",html-keyboard-response,144,1404915,0.0-144.0,"""","<img src='jspsych/CFDfaces/CFD-AM-202-079-N.jpg' height=""250px""></br><b>Richard</b>","""",256,IntactFace,Memorization,null,5000,"""","""",CFD-LF-210-220-N.jpg,Whitney,0,"""","""","""",1,4/20/2021 2:17,108.31.110.153,Mozilla/5.0 (Windows NT 10.0; Win64; x64; rv:88.0) Gecko/20100101 Firefox/88.0,,Firefox,88,Windows,10
51,1,null,"""",html-keyboard-response,145,1405429,0.0-145.0,"""","<div style=""font-size:60px;"">+</div>","""",256,fixation,Memorization,null,500,"""","""","""","""","""","""","""","""",1,4/20/2021 2:17,108.31.110.153,Mozilla/5.0 (Windows NT 10.0; Win64; x64; rv:88.0) Gecko/20100101 Firefox/88.0,,Firefox,88,Windows,10
51,1,null,"""",html-keyboard-response,146,1410437,0.0-146.0,"""","<img src='jspsych/CFDfaces/CFD-AM-234-355-N.jpg' height=""250px""></br><b>Nicholas</b>","""",256,IntactFace,Memorization,null,5000,"""","""",CFD-WM-006-002-N.jpg,Justin,0,"""","""","""",1,4/20/2021 2:17,108.31.110.153,Mozilla/5.0 (Windows NT 10.0; Win64; x64; rv:88.0) Gecko/20100101 Firefox/88.0,,Firefox,88,Windows,10
51,1,null,"""",html-keyboard-response,147,1410949,0.0-147.0,"""","<div style=""font-size:60px;"">+</div>","""",256,fixation,Memorization,null,500,"""","""","""","""","""","""","""","""",1,4/20/2021 2:17,108.31.110.153,Mozilla/5.0 (Windows NT 10.0; Win64; x64; rv:88.0) Gecko/20100101 Firefox/88.0,,Firefox,88,Windows,10
51,1,null,"""",html-keyboard-response,148,1415954,0.0-148.0,"""","<img src='jspsych/CFDfaces/CFD-AF-200-228-N.jpg' height=""250px""></br><b>Kimberly</b>","""",256,IntactFace,Memorization,null,5000,"""","""",CFD-LM-201-057-N.jpg,Sean,0,"""","""","""",1,4/20/2021 2:17,108.31.110.153,Mozilla/5.0 (Windows NT 10.0; Win64; x64; rv:88.0) Gecko/20100101 Firefox/88.0,,Firefox,88,Windows,10
51,1,null,"""",html-keyboard-response,149,1416467,0.0-149.0,"""","<div style=""font-size:60px;"">+</div>","""",256,fixation,Memorization,null,500,"""","""","""","""","""","""","""","""",1,4/20/2021 2:17,108.31.110.153,Mozilla/5.0 (Windows NT 10.0; Win64; x64; rv:88.0) Gecko/20100101 Firefox/88.0,,Firefox,88,Windows,10
51,1,null,"""",html-keyboard-response,150,1421472,0.0-150.0,"""","<img src='jspsych/CFDfaces/CFD-WF-204-038-N.jpg' height=""250px""></br><b>Michelle</b>","""",256,IntactFace,Memorization,null,5000,"""","""",CFD-BM-208-065-N.jpg,Mark,0,"""","""","""",1,4/20/2021 2:17,108.31.110.153,Mozilla/5.0 (Windows NT 10.0; Win64; x64; rv:88.0) Gecko/20100101 Firefox/88.0,,Firefox,88,Windows,10
51,1,null,"""",html-keyboard-response,151,1421984,0.0-151.0,"""","<div style=""font-size:60px;"">+</div>","""",256,fixation,Memorization,null,500,"""","""","""","""","""","""","""","""",1,4/20/2021 2:17,108.31.110.153,Mozilla/5.0 (Windows NT 10.0; Win64; x64; rv:88.0) Gecko/20100101 Firefox/88.0,,Firefox,88,Windows,10
51,1,null,"""",html-keyboard-response,152,1426990,0.0-152.0,"""","<img src='jspsych/CFDfaces/CFD-BM-017-021-N.jpg' height=""250px""></br><b>Robert</b>","""",256,IntactFace,Memorization,null,5000,"""","""",CFD-WM-034-030-N.jpg,Vincent,0,"""","""","""",1,4/20/2021 2:17,108.31.110.153,Mozilla/5.0 (Windows NT 10.0; Win64; x64; rv:88.0) Gecko/20100101 Firefox/88.0,,Firefox,88,Windows,10
51,1,null,"""",html-keyboard-response,153,1427519,0.0-153.0,"""","<div style=""font-size:60px;"">+</div>","""",256,fixation,Memorization,null,500,"""","""","""","""","""","""","""","""",1,4/20/2021 2:17,108.31.110.153,Mozilla/5.0 (Windows NT 10.0; Win64; x64; rv:88.0) Gecko/20100101 Firefox/88.0,,Firefox,88,Windows,10
51,1,442855,"""",html-keyboard-response,154,1870375,0.0-154.0,"""",Press Any Key to Begin Memory Test,"""",1,welcomeScreen,Break,70,"""","""","""","""","""","""","""","""","""",1,4/20/2021 2:17,108.31.110.153,Mozilla/5.0 (Windows NT 10.0; Win64; x64; rv:88.0) Gecko/20100101 Firefox/88.0,,Firefox,88,Windows,10
51,1,null,"""",html-keyboard-response,155,1871388,0.0-155.0,"""","<div style=""font-size:60px;"">+</div>","""",256,ITI,Test,null,1000,"""","""","""","""","""","""","""","""",1,4/20/2021 2:17,108.31.110.153,Mozilla/5.0 (Windows NT 10.0; Win64; x64; rv:88.0) Gecko/20100101 Firefox/88.0,,Firefox,88,Windows,10
51,1,null,"""",image-keyboard-response,156,1871653,0.0-156.0,"""",jspsych/scrambledNeutralFaces/scrambledAF04NES.JPG,"""",256,forwardMask,Test,null,250,"""",n,"""","""","""","""","""","""",1,4/20/2021 2:17,108.31.110.153,Mozilla/5.0 (Windows NT 10.0; Win64; x64; rv:88.0) Gecko/20100101 Firefox/88.0,,Firefox,88,Windows,10
51,1,null,"""",image-keyboard-response,157,1871683,0.0-157.0,"""",jspsych/neutralFaces/AF04NES.JPG,"""",256,Cue,Test,null,16,"""","""","""","""","""","""","""","""",1,4/20/2021 2:17,108.31.110.153,Mozilla/5.0 (Windows NT 10.0; Win64; x64; rv:88.0) Gecko/20100101 Firefox/88.0,,Firefox,88,Windows,10
51,1,null,"""",image-keyboard-response,158,1871793,0.0-158.0,"""",jspsych/neutralFaces/BF09NES.JPG,"""",256,backwardMask,Test,null,100,"""","""","""","""","""","""","""","""",1,4/20/2021 2:17,108.31.110.153,Mozilla/5.0 (Windows NT 10.0; Win64; x64; rv:88.0) Gecko/20100101 Firefox/88.0,,Firefox,88,Windows,10
51,1,null,"""",html-keyboard-response,159,1872794,0.0-159.0,"""","<div style=""font-size:60px;"">+</div>","""",256,fixationBtwnNeutralMaskAndPrompt,Test,null,1000,"""","""","""","""","""","""","""","""",1,4/20/2021 2:17,108.31.110.153,Mozilla/5.0 (Windows NT 10.0; Win64; x64; rv:88.0) Gecko/20100101 Firefox/88.0,,Firefox,88,Windows,10
51,1,823,"""",html-button-response,160,1873619,0.0-160.0,"""","<img src='jspsych/CFDfaces/CFD-LF-202-065-N.jpg' height=""250px"">,</br><b>Vanessa</b>",0,256,IntactOrRearranged,Test,"""","""","""","""",CFD-WF-218-087-N.jpg,Jenna,0,0,"""","""",1,4/20/2021 2:17,108.31.110.153,Mozilla/5.0 (Windows NT 10.0; Win64; x64; rv:88.0) Gecko/20100101 Firefox/88.0,,Firefox,88,Windows,10
51,1,2004,"""",html-slider-response,161,1875627,0.0-161.0,"""","<img src='jspsych/CFDfaces/CFD-LF-202-065-N.jpg' height=""250px"">,</br><b>Vanessa</b>","""",256,ConfidenceQuery,Test,"""","""","""","""",CFD-WF-218-087-N.jpg,Jenna,0,"""",0,51,1,4/20/2021 2:17,108.31.110.153,Mozilla/5.0 (Windows NT 10.0; Win64; x64; rv:88.0) Gecko/20100101 Firefox/88.0,,Firefox,88,Windows,10
51,1,null,"""",html-keyboard-response,162,1876632,0.0-162.0,"""","<div style=""font-size:60px;"">+</div>","""",256,ITI,Test,null,1000,"""","""","""","""","""","""","""","""",1,4/20/2021 2:17,108.31.110.153,Mozilla/5.0 (Windows NT 10.0; Win64; x64; rv:88.0) Gecko/20100101 Firefox/88.0,,Firefox,88,Windows,10
51,1,null,"""",image-keyboard-response,163,1876897,0.0-163.0,"""",jspsych/scrambledDisgustFaces/scrambledAM33DIS.JPG,"""",256,forwardMask,Test,null,250,"""",d,"""","""","""","""","""","""",1,4/20/2021 2:17,108.31.110.153,Mozilla/5.0 (Windows NT 10.0; Win64; x64; rv:88.0) Gecko/20100101 Firefox/88.0,,Firefox,88,Windows,10
51,1,null,"""",image-keyboard-response,164,1876927,0.0-164.0,"""",jspsych/disgustFaces/AM33DIS.JPG,"""",256,Cue,Test,null,16,"""","""","""","""","""","""","""","""",1,4/20/2021 2:17,108.31.110.153,Mozilla/5.0 (Windows NT 10.0; Win64; x64; rv:88.0) Gecko/20100101 Firefox/88.0,,Firefox,88,Windows,10
51,1,null,"""",image-keyboard-response,165,1877036,0.0-165.0,"""",jspsych/neutralFaces/BM23NES.JPG,"""",256,backwardMask,Test,null,100,"""","""","""","""","""","""","""","""",1,4/20/2021 2:17,108.31.110.153,Mozilla/5.0 (Windows NT 10.0; Win64; x64; rv:88.0) Gecko/20100101 Firefox/88.0,,Firefox,88,Windows,10
51,1,null,"""",html-keyboard-response,166,1878045,0.0-166.0,"""","<div style=""font-size:60px;"">+</div>","""",256,fixationBtwnNeutralMaskAndPrompt,Test,null,1000,"""","""","""","""","""","""","""","""",1,4/20/2021 2:17,108.31.110.153,Mozilla/5.0 (Windows NT 10.0; Win64; x64; rv:88.0) Gecko/20100101 Firefox/88.0,,Firefox,88,Windows,10
51,1,731,"""",html-button-response,167,1878777,0.0-167.0,"""","<img src='jspsych/CFDfaces/CFD-LF-236-221-N.jpg' height=""250px"">,</br><b>Andrea</b>",0,256,IntactOrRearranged,Test,"""","""","""","""",CFD-AF-239-171-N.jpg,Taylor,1,0,"""","""",1,4/20/2021 2:17,108.31.110.153,Mozilla/5.0 (Windows NT 10.0; Win64; x64; rv:88.0) Gecko/20100101 Firefox/88.0,,Firefox,88,Windows,10
51,1,1453,"""",html-slider-response,168,1880232,0.0-168.0,"""","<img src='jspsych/CFDfaces/CFD-LF-236-221-N.jpg' height=""250px"">,</br><b>Andrea</b>","""",256,ConfidenceQuery,Test,"""","""","""","""",CFD-AF-239-171-N.jpg,Taylor,1,"""",0,51,1,4/20/2021 2:17,108.31.110.153,Mozilla/5.0 (Windows NT 10.0; Win64; x64; rv:88.0) Gecko/20100101 Firefox/88.0,,Firefox,88,Windows,10
51,1,null,"""",html-keyboard-response,169,1881234,0.0-169.0,"""","<div style=""font-size:60px;"">+</div>","""",256,ITI,Test,null,1000,"""","""","""","""","""","""","""","""",1,4/20/2021 2:17,108.31.110.153,Mozilla/5.0 (Windows NT 10.0; Win64; x64; rv:88.0) Gecko/20100101 Firefox/88.0,,Firefox,88,Windows,10
51,1,null,"""",image-keyboard-response,170,1881498,0.0-170.0,"""",jspsych/scrambledDisgustFaces/scrambledBF03DIS.JPG,"""",256,forwardMask,Test,null,250,"""",d,"""","""","""","""","""","""",1,4/20/2021 2:17,108.31.110.153,Mozilla/5.0 (Windows NT 10.0; Win64; x64; rv:88.0) Gecko/20100101 Firefox/88.0,,Firefox,88,Windows,10
51,1,null,"""",image-keyboard-response,171,1881529,0.0-171.0,"""",jspsych/disgustFaces/BF03DIS.JPG,"""",256,Cue,Test,null,16,"""","""","""","""","""","""","""","""",1,4/20/2021 2:17,108.31.110.153,Mozilla/5.0 (Windows NT 10.0; Win64; x64; rv:88.0) Gecko/20100101 Firefox/88.0,,Firefox,88,Windows,10
51,1,null,"""",image-keyboard-response,172,1881631,0.0-172.0,"""",jspsych/neutralFaces/BF02NES.JPG,"""",256,backwardMask,Test,null,100,"""","""","""","""","""","""","""","""",1,4/20/2021 2:17,108.31.110.153,Mozilla/5.0 (Windows NT 10.0; Win64; x64; rv:88.0) Gecko/20100101 Firefox/88.0,,Firefox,88,Windows,10
51,1,null,"""",html-keyboard-response,173,1882632,0.0-173.0,"""","<div style=""font-size:60px;"">+</div>","""",256,fixationBtwnNeutralMaskAndPrompt,Test,null,1000,"""","""","""","""","""","""","""","""",1,4/20/2021 2:17,108.31.110.153,Mozilla/5.0 (Windows NT 10.0; Win64; x64; rv:88.0) Gecko/20100101 Firefox/88.0,,Firefox,88,Windows,10
51,1,619,"""",html-button-response,174,1883257,0.0-174.0,"""","<img src='jspsych/CFDfaces/CFD-AM-234-355-N.jpg' height=""250px"">,</br><b>Nicholas</b>",0,256,IntactOrRearranged,Test,"""","""","""","""",CFD-WM-022-001-N.jpg,Timothy,0,0,"""","""",1,4/20/2021 2:17,108.31.110.153,Mozilla/5.0 (Windows NT 10.0; Win64; x64; rv:88.0) Gecko/20100101 Firefox/88.0,,Firefox,88,Windows,10
51,1,1362,"""",html-slider-response,175,1884620,0.0-175.0,"""","<img src='jspsych/CFDfaces/CFD-AM-234-355-N.jpg' height=""250px"">,</br><b>Nicholas</b>","""",256,ConfidenceQuery,Test,"""","""","""","""",CFD-WM-022-001-N.jpg,Timothy,0,"""",0,49,1,4/20/2021 2:17,108.31.110.153,Mozilla/5.0 (Windows NT 10.0; Win64; x64; rv:88.0) Gecko/20100101 Firefox/88.0,,Firefox,88,Windows,10
51,1,null,"""",html-keyboard-response,176,1885625,0.0-176.0,"""","<div style=""font-size:60px;"">+</div>","""",256,ITI,Test,null,1000,"""","""","""","""","""","""","""","""",1,4/20/2021 2:17,108.31.110.153,Mozilla/5.0 (Windows NT 10.0; Win64; x64; rv:88.0) Gecko/20100101 Firefox/88.0,,Firefox,88,Windows,10
51,1,null,"""",image-keyboard-response,177,1885885,0.0-177.0,"""",jspsych/scrambledNeutralFaces/scrambledAM04NES.JPG,"""",256,forwardMask,Test,null,250,"""",n,"""","""","""","""","""","""",1,4/20/2021 2:17,108.31.110.153,Mozilla/5.0 (Windows NT 10.0; Win64; x64; rv:88.0) Gecko/20100101 Firefox/88.0,,Firefox,88,Windows,10
51,1,null,"""",image-keyboard-response,178,1885917,0.0-178.0,"""",jspsych/neutralFaces/AM04NES.JPG,"""",256,Cue,Test,null,16,"""","""","""","""","""","""","""","""",1,4/20/2021 2:17,108.31.110.153,Mozilla/5.0 (Windows NT 10.0; Win64; x64; rv:88.0) Gecko/20100101 Firefox/88.0,,Firefox,88,Windows,10
51,1,null,"""",image-keyboard-response,179,1886027,0.0-179.0,"""",jspsych/neutralFaces/BM33NES.JPG,"""",256,backwardMask,Test,null,100,"""","""","""","""","""","""","""","""",1,4/20/2021 2:17,108.31.110.153,Mozilla/5.0 (Windows NT 10.0; Win64; x64; rv:88.0) Gecko/20100101 Firefox/88.0,,Firefox,88,Windows,10
51,1,null,"""",html-keyboard-response,180,1887027,0.0-180.0,"""","<div style=""font-size:60px;"">+</div>","""",256,fixationBtwnNeutralMaskAndPrompt,Test,null,1000,"""","""","""","""","""","""","""","""",1,4/20/2021 2:17,108.31.110.153,Mozilla/5.0 (Windows NT 10.0; Win64; x64; rv:88.0) Gecko/20100101 Firefox/88.0,,Firefox,88,Windows,10
51,1,710,"""",html-button-response,181,1887738,0.0-181.0,"""","<img src='jspsych/CFDfaces/CFD-WF-018-017-N.jpg' height=""250px"">,</br><b>Samantha</b>",0,256,IntactOrRearranged,Test,"""","""","""","""",CFD-BF-039-031-N.jpg,Erin,0,0,"""","""",1,4/20/2021 2:17,108.31.110.153,Mozilla/5.0 (Windows NT 10.0; Win64; x64; rv:88.0) Gecko/20100101 Firefox/88.0,,Firefox,88,Windows,10
51,1,1128,"""",html-slider-response,182,1888868,0.0-182.0,"""","<img src='jspsych/CFDfaces/CFD-WF-018-017-N.jpg' height=""250px"">,</br><b>Samantha</b>","""",256,ConfidenceQuery,Test,"""","""","""","""",CFD-BF-039-031-N.jpg,Erin,0,"""",0,49,1,4/20/2021 2:17,108.31.110.153,Mozilla/5.0 (Windows NT 10.0; Win64; x64; rv:88.0) Gecko/20100101 Firefox/88.0,,Firefox,88,Windows,10
51,1,null,"""",html-keyboard-response,183,1889874,0.0-183.0,"""","<div style=""font-size:60px;"">+</div>","""",256,ITI,Test,null,1000,"""","""","""","""","""","""","""","""",1,4/20/2021 2:17,108.31.110.153,Mozilla/5.0 (Windows NT 10.0; Win64; x64; rv:88.0) Gecko/20100101 Firefox/88.0,,Firefox,88,Windows,10
51,1,null,"""",image-keyboard-response,184,1890129,0.0-184.0,"""",jspsych/scrambledNeutralFaces/scrambledAM04NES.JPG,"""",256,forwardMask,Test,null,250,"""",n,"""","""","""","""","""","""",1,4/20/2021 2:17,108.31.110.153,Mozilla/5.0 (Windows NT 10.0; Win64; x64; rv:88.0) Gecko/20100101 Firefox/88.0,,Firefox,88,Windows,10
51,1,null,"""",image-keyboard-response,185,1890158,0.0-185.0,"""",jspsych/neutralFaces/AM04NES.JPG,"""",256,Cue,Test,null,16,"""","""","""","""","""","""","""","""",1,4/20/2021 2:17,108.31.110.153,Mozilla/5.0 (Windows NT 10.0; Win64; x64; rv:88.0) Gecko/20100101 Firefox/88.0,,Firefox,88,Windows,10
51,1,null,"""",image-keyboard-response,186,1890264,0.0-186.0,"""",jspsych/neutralFaces/BM08NES.JPG,"""",256,backwardMask,Test,null,100,"""","""","""","""","""","""","""","""",1,4/20/2021 2:17,108.31.110.153,Mozilla/5.0 (Windows NT 10.0; Win64; x64; rv:88.0) Gecko/20100101 Firefox/88.0,,Firefox,88,Windows,10
51,1,null,"""",html-keyboard-response,187,1891271,0.0-187.0,"""","<div style=""font-size:60px;"">+</div>","""",256,fixationBtwnNeutralMaskAndPrompt,Test,null,1000,"""","""","""","""","""","""","""","""",1,4/20/2021 2:17,108.31.110.153,Mozilla/5.0 (Windows NT 10.0; Win64; x64; rv:88.0) Gecko/20100101 Firefox/88.0,,Firefox,88,Windows,10
51,1,766,"""",html-button-response,188,1892037,0.0-188.0,"""","<img src='jspsych/CFDfaces/CFD-LM-223-175-N.jpg' height=""250px"">,</br><b>James</b>",1,256,IntactOrRearranged,Test,"""","""","""","""",CFD-BM-032-024-N.jpg,Mark,1,1,"""","""",1,4/20/2021 2:17,108.31.110.153,Mozilla/5.0 (Windows NT 10.0; Win64; x64; rv:88.0) Gecko/20100101 Firefox/88.0,,Firefox,88,Windows,10
51,1,1402,"""",html-slider-response,189,1893442,0.0-189.0,"""","<img src='jspsych/CFDfaces/CFD-LM-223-175-N.jpg' height=""250px"">,</br><b>James</b>","""",256,ConfidenceQuery,Test,"""","""","""","""",CFD-BM-032-024-N.jpg,Mark,1,"""",0,48,1,4/20/2021 2:17,108.31.110.153,Mozilla/5.0 (Windows NT 10.0; Win64; x64; rv:88.0) Gecko/20100101 Firefox/88.0,,Firefox,88,Windows,10
51,1,null,"""",html-keyboard-response,190,1894453,0.0-190.0,"""","<div style=""font-size:60px;"">+</div>","""",256,ITI,Test,null,1000,"""","""","""","""","""","""","""","""",1,4/20/2021 2:17,108.31.110.153,Mozilla/5.0 (Windows NT 10.0; Win64; x64; rv:88.0) Gecko/20100101 Firefox/88.0,,Firefox,88,Windows,10
51,1,null,"""",image-keyboard-response,191,1894715,0.0-191.0,"""",jspsych/scrambledDisgustFaces/scrambledAM19DIS.JPG,"""",256,forwardMask,Test,null,250,"""",d,"""","""","""","""","""","""",1,4/20/2021 2:17,108.31.110.153,Mozilla/5.0 (Windows NT 10.0; Win64; x64; rv:88.0) Gecko/20100101 Firefox/88.0,,Firefox,88,Windows,10
51,1,null,"""",image-keyboard-response,192,1894745,0.0-192.0,"""",jspsych/disgustFaces/AM19DIS.JPG,"""",256,Cue,Test,null,16,"""","""","""","""","""","""","""","""",1,4/20/2021 2:17,108.31.110.153,Mozilla/5.0 (Windows NT 10.0; Win64; x64; rv:88.0) Gecko/20100101 Firefox/88.0,,Firefox,88,Windows,10
51,1,null,"""",image-keyboard-response,193,1894848,0.0-193.0,"""",jspsych/neutralFaces/AM21NES.JPG,"""",256,backwardMask,Test,null,100,"""","""","""","""","""","""","""","""",1,4/20/2021 2:17,108.31.110.153,Mozilla/5.0 (Windows NT 10.0; Win64; x64; rv:88.0) Gecko/20100101 Firefox/88.0,,Firefox,88,Windows,10
51,1,null,"""",html-keyboard-response,194,1895855,0.0-194.0,"""","<div style=""font-size:60px;"">+</div>","""",256,fixationBtwnNeutralMaskAndPrompt,Test,null,1000,"""","""","""","""","""","""","""","""",1,4/20/2021 2:17,108.31.110.153,Mozilla/5.0 (Windows NT 10.0; Win64; x64; rv:88.0) Gecko/20100101 Firefox/88.0,,Firefox,88,Windows,10
51,1,643,"""",html-button-response,195,1896498,0.0-195.0,"""","<img src='jspsych/CFDfaces/CFD-BM-039-029-N.jpg' height=""250px"">,</br><b>Brandon</b>",1,256,IntactOrRearranged,Test,"""","""","""","""",CFD-AF-208-003-N.jpg,Lindsey,0,1,"""","""",1,4/20/2021 2:17,108.31.110.153,Mozilla/5.0 (Windows NT 10.0; Win64; x64; rv:88.0) Gecko/20100101 Firefox/88.0,,Firefox,88,Windows,10
51,1,1944,"""",html-slider-response,196,1898444,0.0-196.0,"""","<img src='jspsych/CFDfaces/CFD-BM-039-029-N.jpg' height=""250px"">,</br><b>Brandon</b>","""",256,ConfidenceQuery,Test,"""","""","""","""",CFD-AF-208-003-N.jpg,Lindsey,0,"""",0,51,1,4/20/2021 2:17,108.31.110.153,Mozilla/5.0 (Windows NT 10.0; Win64; x64; rv:88.0) Gecko/20100101 Firefox/88.0,,Firefox,88,Windows,10
51,1,null,"""",html-keyboard-response,197,1899445,0.0-197.0,"""","<div style=""font-size:60px;"">+</div>","""",256,ITI,Test,null,1000,"""","""","""","""","""","""","""","""",1,4/20/2021 2:17,108.31.110.153,Mozilla/5.0 (Windows NT 10.0; Win64; x64; rv:88.0) Gecko/20100101 Firefox/88.0,,Firefox,88,Windows,10
51,1,null,"""",image-keyboard-response,198,1899702,0.0-198.0,"""",jspsych/scrambledDisgustFaces/scrambledBM09DIS.JPG,"""",256,forwardMask,Test,null,250,"""",d,"""","""","""","""","""","""",1,4/20/2021 2:17,108.31.110.153,Mozilla/5.0 (Windows NT 10.0; Win64; x64; rv:88.0) Gecko/20100101 Firefox/88.0,,Firefox,88,Windows,10
51,1,null,"""",image-keyboard-response,199,1899721,0.0-199.0,"""",jspsych/disgustFaces/BM10DIS.JPG,"""",256,Cue,Test,null,16,"""","""","""","""","""","""","""","""",1,4/20/2021 2:17,108.31.110.153,Mozilla/5.0 (Windows NT 10.0; Win64; x64; rv:88.0) Gecko/20100101 Firefox/88.0,,Firefox,88,Windows,10
51,1,null,"""",image-keyboard-response,200,1899829,0.0-200.0,"""",jspsych/neutralFaces/AM09NES.JPG,"""",256,backwardMask,Test,null,100,"""","""","""","""","""","""","""","""",1,4/20/2021 2:17,108.31.110.153,Mozilla/5.0 (Windows NT 10.0; Win64; x64; rv:88.0) Gecko/20100101 Firefox/88.0,,Firefox,88,Windows,10
51,1,null,"""",html-keyboard-response,201,1900834,0.0-201.0,"""","<div style=""font-size:60px;"">+</div>","""",256,fixationBtwnNeutralMaskAndPrompt,Test,null,1000,"""","""","""","""","""","""","""","""",1,4/20/2021 2:17,108.31.110.153,Mozilla/5.0 (Windows NT 10.0; Win64; x64; rv:88.0) Gecko/20100101 Firefox/88.0,,Firefox,88,Windows,10
51,1,890,"""",html-button-response,202,1901729,0.0-202.0,"""","<img src='jspsych/CFDfaces/CFD-AM-230-150-N.jpg' height=""250px"">,</br><b>Daniel</b>",0,256,IntactOrRearranged,Test,"""","""","""","""",CFD-LF-206-078-N.jpg,Heather,1,0,"""","""",1,4/20/2021 2:17,108.31.110.153,Mozilla/5.0 (Windows NT 10.0; Win64; x64; rv:88.0) Gecko/20100101 Firefox/88.0,,Firefox,88,Windows,10
51,1,1434,"""",html-slider-response,203,1903166,0.0-203.0,"""","<img src='jspsych/CFDfaces/CFD-AM-230-150-N.jpg' height=""250px"">,</br><b>Daniel</b>","""",256,ConfidenceQuery,Test,"""","""","""","""",CFD-LF-206-078-N.jpg,Heather,1,"""",0,48,1,4/20/2021 2:17,108.31.110.153,Mozilla/5.0 (Windows NT 10.0; Win64; x64; rv:88.0) Gecko/20100101 Firefox/88.0,,Firefox,88,Windows,10
51,1,null,"""",html-keyboard-response,204,1904168,0.0-204.0,"""","<div style=""font-size:60px;"">+</div>","""",256,ITI,Test,null,1000,"""","""","""","""","""","""","""","""",1,4/20/2021 2:17,108.31.110.153,Mozilla/5.0 (Windows NT 10.0; Win64; x64; rv:88.0) Gecko/20100101 Firefox/88.0,,Firefox,88,Windows,10
51,1,null,"""",image-keyboard-response,205,1904425,0.0-205.0,"""",jspsych/scrambledNeutralFaces/scrambledBM01NES.JPG,"""",256,forwardMask,Test,null,250,"""",n,"""","""","""","""","""","""",1,4/20/2021 2:17,108.31.110.153,Mozilla/5.0 (Windows NT 10.0; Win64; x64; rv:88.0) Gecko/20100101 Firefox/88.0,,Firefox,88,Windows,10
51,1,null,"""",image-keyboard-response,206,1904445,0.0-206.0,"""",jspsych/neutralFaces/BM01NES.JPG,"""",256,Cue,Test,null,16,"""","""","""","""","""","""","""","""",1,4/20/2021 2:17,108.31.110.153,Mozilla/5.0 (Windows NT 10.0; Win64; x64; rv:88.0) Gecko/20100101 Firefox/88.0,,Firefox,88,Windows,10
51,1,null,"""",image-keyboard-response,207,1904551,0.0-207.0,"""",jspsych/neutralFaces/BM31NES.JPG,"""",256,backwardMask,Test,null,100,"""","""","""","""","""","""","""","""",1,4/20/2021 2:17,108.31.110.153,Mozilla/5.0 (Windows NT 10.0; Win64; x64; rv:88.0) Gecko/20100101 Firefox/88.0,,Firefox,88,Windows,10
51,1,null,"""",html-keyboard-response,208,1905564,0.0-208.0,"""","<div style=""font-size:60px;"">+</div>","""",256,fixationBtwnNeutralMaskAndPrompt,Test,null,1000,"""","""","""","""","""","""","""","""",1,4/20/2021 2:17,108.31.110.153,Mozilla/5.0 (Windows NT 10.0; Win64; x64; rv:88.0) Gecko/20100101 Firefox/88.0,,Firefox,88,Windows,10
51,1,768,"""",html-button-response,209,1906333,0.0-209.0,"""","<img src='jspsych/CFDfaces/CFD-AF-228-173-N.jpg' height=""250px"">,</br><b>Christina</b>",0,256,IntactOrRearranged,Test,"""","""","""","""",CFD-LF-231-260-N.jpg,Jasmine,1,0,"""","""",1,4/20/2021 2:17,108.31.110.153,Mozilla/5.0 (Windows NT 10.0; Win64; x64; rv:88.0) Gecko/20100101 Firefox/88.0,,Firefox,88,Windows,10
51,1,2102,"""",html-slider-response,210,1908439,0.0-210.0,"""","<img src='jspsych/CFDfaces/CFD-AF-228-173-N.jpg' height=""250px"">,</br><b>Christina</b>","""",256,ConfidenceQuery,Test,"""","""","""","""",CFD-LF-231-260-N.jpg,Jasmine,1,"""",0,49,1,4/20/2021 2:17,108.31.110.153,Mozilla/5.0 (Windows NT 10.0; Win64; x64; rv:88.0) Gecko/20100101 Firefox/88.0,,Firefox,88,Windows,10
51,1,null,"""",html-keyboard-response,211,1909452,0.0-211.0,"""","<div style=""font-size:60px;"">+</div>","""",256,ITI,Test,null,1000,"""","""","""","""","""","""","""","""",1,4/20/2021 2:17,108.31.110.153,Mozilla/5.0 (Windows NT 10.0; Win64; x64; rv:88.0) Gecko/20100101 Firefox/88.0,,Firefox,88,Windows,10
51,1,null,"""",image-keyboard-response,212,1909710,0.0-212.0,"""",jspsych/scrambledNeutralFaces/scrambledAF06NES.JPG,"""",256,forwardMask,Test,null,250,"""",n,"""","""","""","""","""","""",1,4/20/2021 2:17,108.31.110.153,Mozilla/5.0 (Windows NT 10.0; Win64; x64; rv:88.0) Gecko/20100101 Firefox/88.0,,Firefox,88,Windows,10
51,1,null,"""",image-keyboard-response,213,1909730,0.0-213.0,"""",jspsych/neutralFaces/AF06NES.JPG,"""",256,Cue,Test,null,16,"""","""","""","""","""","""","""","""",1,4/20/2021 2:17,108.31.110.153,Mozilla/5.0 (Windows NT 10.0; Win64; x64; rv:88.0) Gecko/20100101 Firefox/88.0,,Firefox,88,Windows,10
51,1,null,"""",image-keyboard-response,214,1909838,0.0-214.0,"""",jspsych/neutralFaces/AF07NES.JPG,"""",256,backwardMask,Test,null,100,"""","""","""","""","""","""","""","""",1,4/20/2021 2:17,108.31.110.153,Mozilla/5.0 (Windows NT 10.0; Win64; x64; rv:88.0) Gecko/20100101 Firefox/88.0,,Firefox,88,Windows,10
51,1,null,"""",html-keyboard-response,215,1910849,0.0-215.0,"""","<div style=""font-size:60px;"">+</div>","""",256,fixationBtwnNeutralMaskAndPrompt,Test,null,1000,"""","""","""","""","""","""","""","""",1,4/20/2021 2:17,108.31.110.153,Mozilla/5.0 (Windows NT 10.0; Win64; x64; rv:88.0) Gecko/20100101 Firefox/88.0,,Firefox,88,Windows,10
51,1,940,"""",html-button-response,216,1911790,0.0-216.0,"""","<img src='jspsych/CFDfaces/CFD-WM-232-070-N.jpg' height=""250px"">,</br><b>Juan</b>",1,256,IntactOrRearranged,Test,"""","""","""","""",CFD-LM-248-089-N.jpg,Steven,0,1,"""","""",1,4/20/2021 2:17,108.31.110.153,Mozilla/5.0 (Windows NT 10.0; Win64; x64; rv:88.0) Gecko/20100101 Firefox/88.0,,Firefox,88,Windows,10
51,1,1225,"""",html-slider-response,217,1913021,0.0-217.0,"""","<img src='jspsych/CFDfaces/CFD-WM-232-070-N.jpg' height=""250px"">,</br><b>Juan</b>","""",256,ConfidenceQuery,Test,"""","""","""","""",CFD-LM-248-089-N.jpg,Steven,0,"""",0,49,1,4/20/2021 2:17,108.31.110.153,Mozilla/5.0 (Windows NT 10.0; Win64; x64; rv:88.0) Gecko/20100101 Firefox/88.0,,Firefox,88,Windows,10
51,1,null,"""",html-keyboard-response,218,1914023,0.0-218.0,"""","<div style=""font-size:60px;"">+</div>","""",256,ITI,Test,null,1000,"""","""","""","""","""","""","""","""",1,4/20/2021 2:17,108.31.110.153,Mozilla/5.0 (Windows NT 10.0; Win64; x64; rv:88.0) Gecko/20100101 Firefox/88.0,,Firefox,88,Windows,10
51,1,null,"""",image-keyboard-response,219,1914287,0.0-219.0,"""",jspsych/scrambledDisgustFaces/scrambledBM13DIS.JPG,"""",256,forwardMask,Test,null,250,"""",d,"""","""","""","""","""","""",1,4/20/2021 2:17,108.31.110.153,Mozilla/5.0 (Windows NT 10.0; Win64; x64; rv:88.0) Gecko/20100101 Firefox/88.0,,Firefox,88,Windows,10
51,1,null,"""",image-keyboard-response,220,1914319,0.0-220.0,"""",jspsych/disgustFaces/BM14DIS.JPG,"""",256,Cue,Test,null,16,"""","""","""","""","""","""","""","""",1,4/20/2021 2:17,108.31.110.153,Mozilla/5.0 (Windows NT 10.0; Win64; x64; rv:88.0) Gecko/20100101 Firefox/88.0,,Firefox,88,Windows,10
51,1,null,"""",image-keyboard-response,221,1914426,0.0-221.0,"""",jspsych/neutralFaces/BM26NES.JPG,"""",256,backwardMask,Test,null,100,"""","""","""","""","""","""","""","""",1,4/20/2021 2:17,108.31.110.153,Mozilla/5.0 (Windows NT 10.0; Win64; x64; rv:88.0) Gecko/20100101 Firefox/88.0,,Firefox,88,Windows,10
51,1,null,"""",html-keyboard-response,222,1915434,0.0-222.0,"""","<div style=""font-size:60px;"">+</div>","""",256,fixationBtwnNeutralMaskAndPrompt,Test,null,1000,"""","""","""","""","""","""","""","""",1,4/20/2021 2:17,108.31.110.153,Mozilla/5.0 (Windows NT 10.0; Win64; x64; rv:88.0) Gecko/20100101 Firefox/88.0,,Firefox,88,Windows,10
51,1,848,"""",html-button-response,223,1916283,0.0-223.0,"""","<img src='jspsych/CFDfaces/CFD-WM-207-048-N.jpg' height=""250px"">,</br><b>Jeffrey</b>",0,256,IntactOrRearranged,Test,"""","""","""","""",CFD-WM-006-002-N.jpg,Justin,1,0,"""","""",1,4/20/2021 2:17,108.31.110.153,Mozilla/5.0 (Windows NT 10.0; Win64; x64; rv:88.0) Gecko/20100101 Firefox/88.0,,Firefox,88,Windows,10
51,1,1274,"""",html-slider-response,224,1917559,0.0-224.0,"""","<img src='jspsych/CFDfaces/CFD-WM-207-048-N.jpg' height=""250px"">,</br><b>Jeffrey</b>","""",256,ConfidenceQuery,Test,"""","""","""","""",CFD-WM-006-002-N.jpg,Justin,1,"""",0,50,1,4/20/2021 2:17,108.31.110.153,Mozilla/5.0 (Windows NT 10.0; Win64; x64; rv:88.0) Gecko/20100101 Firefox/88.0,,Firefox,88,Windows,10
51,1,null,"""",html-keyboard-response,225,1918564,0.0-225.0,"""","<div style=""font-size:60px;"">+</div>","""",256,ITI,Test,null,1000,"""","""","""","""","""","""","""","""",1,4/20/2021 2:17,108.31.110.153,Mozilla/5.0 (Windows NT 10.0; Win64; x64; rv:88.0) Gecko/20100101 Firefox/88.0,,Firefox,88,Windows,10
51,1,null,"""",image-keyboard-response,226,1918821,0.0-226.0,"""",jspsych/scrambledNeutralFaces/scrambledBF34NES.JPG,"""",256,forwardMask,Test,null,250,"""",n,"""","""","""","""","""","""",1,4/20/2021 2:17,108.31.110.153,Mozilla/5.0 (Windows NT 10.0; Win64; x64; rv:88.0) Gecko/20100101 Firefox/88.0,,Firefox,88,Windows,10
51,1,null,"""",image-keyboard-response,227,1918842,0.0-227.0,"""",jspsych/neutralFaces/BF34NES.JPG,"""",256,Cue,Test,null,16,"""","""","""","""","""","""","""","""",1,4/20/2021 2:17,108.31.110.153,Mozilla/5.0 (Windows NT 10.0; Win64; x64; rv:88.0) Gecko/20100101 Firefox/88.0,,Firefox,88,Windows,10
51,1,null,"""",image-keyboard-response,228,1918956,0.0-228.0,"""",jspsych/neutralFaces/BF12NES.JPG,"""",256,backwardMask,Test,null,100,"""","""","""","""","""","""","""","""",1,4/20/2021 2:17,108.31.110.153,Mozilla/5.0 (Windows NT 10.0; Win64; x64; rv:88.0) Gecko/20100101 Firefox/88.0,,Firefox,88,Windows,10
51,1,null,"""",html-keyboard-response,229,1919957,0.0-229.0,"""","<div style=""font-size:60px;"">+</div>","""",256,fixationBtwnNeutralMaskAndPrompt,Test,null,1000,"""","""","""","""","""","""","""","""",1,4/20/2021 2:17,108.31.110.153,Mozilla/5.0 (Windows NT 10.0; Win64; x64; rv:88.0) Gecko/20100101 Firefox/88.0,,Firefox,88,Windows,10
51,1,623,"""",html-button-response,230,1920580,0.0-230.0,"""","<img src='jspsych/CFDfaces/CFD-BF-005-001-N.jpg' height=""250px"">,</br><b>Stephanie</b>",0,256,IntactOrRearranged,Test,"""","""","""","""",CFD-AF-237-223-N.jpg,Lauren,0,0,"""","""",1,4/20/2021 2:17,108.31.110.153,Mozilla/5.0 (Windows NT 10.0; Win64; x64; rv:88.0) Gecko/20100101 Firefox/88.0,,Firefox,88,Windows,10
51,1,1865,"""",html-slider-response,231,1922447,0.0-231.0,"""","<img src='jspsych/CFDfaces/CFD-BF-005-001-N.jpg' height=""250px"">,</br><b>Stephanie</b>","""",256,ConfidenceQuery,Test,"""","""","""","""",CFD-AF-237-223-N.jpg,Lauren,0,"""",0,49,1,4/20/2021 2:17,108.31.110.153,Mozilla/5.0 (Windows NT 10.0; Win64; x64; rv:88.0) Gecko/20100101 Firefox/88.0,,Firefox,88,Windows,10
51,1,null,"""",html-keyboard-response,232,1923450,0.0-232.0,"""","<div style=""font-size:60px;"">+</div>","""",256,ITI,Test,null,1000,"""","""","""","""","""","""","""","""",1,4/20/2021 2:17,108.31.110.153,Mozilla/5.0 (Windows NT 10.0; Win64; x64; rv:88.0) Gecko/20100101 Firefox/88.0,,Firefox,88,Windows,10
51,1,null,"""",image-keyboard-response,233,1923712,0.0-233.0,"""",jspsych/scrambledDisgustFaces/scrambledAM28DIS.JPG,"""",256,forwardMask,Test,null,250,"""",d,"""","""","""","""","""","""",1,4/20/2021 2:17,108.31.110.153,Mozilla/5.0 (Windows NT 10.0; Win64; x64; rv:88.0) Gecko/20100101 Firefox/88.0,,Firefox,88,Windows,10
51,1,null,"""",image-keyboard-response,234,1923732,0.0-234.0,"""",jspsych/disgustFaces/AM28DIS.JPG,"""",256,Cue,Test,null,16,"""","""","""","""","""","""","""","""",1,4/20/2021 2:17,108.31.110.153,Mozilla/5.0 (Windows NT 10.0; Win64; x64; rv:88.0) Gecko/20100101 Firefox/88.0,,Firefox,88,Windows,10
51,1,null,"""",image-keyboard-response,235,1923835,0.0-235.0,"""",jspsych/neutralFaces/BM11NES.JPG,"""",256,backwardMask,Test,null,100,"""","""","""","""","""","""","""","""",1,4/20/2021 2:17,108.31.110.153,Mozilla/5.0 (Windows NT 10.0; Win64; x64; rv:88.0) Gecko/20100101 Firefox/88.0,,Firefox,88,Windows,10
51,1,null,"""",html-keyboard-response,236,1924843,0.0-236.0,"""","<div style=""font-size:60px;"">+</div>","""",256,fixationBtwnNeutralMaskAndPrompt,Test,null,1000,"""","""","""","""","""","""","""","""",1,4/20/2021 2:17,108.31.110.153,Mozilla/5.0 (Windows NT 10.0; Win64; x64; rv:88.0) Gecko/20100101 Firefox/88.0,,Firefox,88,Windows,10
51,1,727,"""",html-button-response,237,1925572,0.0-237.0,"""","<img src='jspsych/CFDfaces/CFD-AF-200-228-N.jpg' height=""250px"">,</br><b>Emily</b>",0,256,IntactOrRearranged,Test,"""","""","""","""",CFD-WF-223-133-N.jpg,Laura,1,0,"""","""",1,4/20/2021 2:17,108.31.110.153,Mozilla/5.0 (Windows NT 10.0; Win64; x64; rv:88.0) Gecko/20100101 Firefox/88.0,,Firefox,88,Windows,10
51,1,2083,"""",html-slider-response,238,1927656,0.0-238.0,"""","<img src='jspsych/CFDfaces/CFD-AF-200-228-N.jpg' height=""250px"">,</br><b>Emily</b>","""",256,ConfidenceQuery,Test,"""","""","""","""",CFD-WF-223-133-N.jpg,Laura,1,"""",0,50,1,4/20/2021 2:17,108.31.110.153,Mozilla/5.0 (Windows NT 10.0; Win64; x64; rv:88.0) Gecko/20100101 Firefox/88.0,,Firefox,88,Windows,10
51,1,null,"""",html-keyboard-response,239,1928662,0.0-239.0,"""","<div style=""font-size:60px;"">+</div>","""",256,ITI,Test,null,1000,"""","""","""","""","""","""","""","""",1,4/20/2021 2:17,108.31.110.153,Mozilla/5.0 (Windows NT 10.0; Win64; x64; rv:88.0) Gecko/20100101 Firefox/88.0,,Firefox,88,Windows,10
51,1,null,"""",image-keyboard-response,240,1928922,0.0-240.0,"""",jspsych/scrambledNeutralFaces/scrambledBM12NES.JPG,"""",256,forwardMask,Test,null,250,"""",n,"""","""","""","""","""","""",1,4/20/2021 2:17,108.31.110.153,Mozilla/5.0 (Windows NT 10.0; Win64; x64; rv:88.0) Gecko/20100101 Firefox/88.0,,Firefox,88,Windows,10
51,1,null,"""",image-keyboard-response,241,1928947,0.0-241.0,"""",jspsych/neutralFaces/BM12NES.JPG,"""",256,Cue,Test,null,16,"""","""","""","""","""","""","""","""",1,4/20/2021 2:17,108.31.110.153,Mozilla/5.0 (Windows NT 10.0; Win64; x64; rv:88.0) Gecko/20100101 Firefox/88.0,,Firefox,88,Windows,10
51,1,null,"""",image-keyboard-response,242,1929049,0.0-242.0,"""",jspsych/neutralFaces/AM29NES.JPG,"""",256,backwardMask,Test,null,100,"""","""","""","""","""","""","""","""",1,4/20/2021 2:17,108.31.110.153,Mozilla/5.0 (Windows NT 10.0; Win64; x64; rv:88.0) Gecko/20100101 Firefox/88.0,,Firefox,88,Windows,10
51,1,null,"""",html-keyboard-response,243,1930063,0.0-243.0,"""","<div style=""font-size:60px;"">+</div>","""",256,fixationBtwnNeutralMaskAndPrompt,Test,null,1000,"""","""","""","""","""","""","""","""",1,4/20/2021 2:17,108.31.110.153,Mozilla/5.0 (Windows NT 10.0; Win64; x64; rv:88.0) Gecko/20100101 Firefox/88.0,,Firefox,88,Windows,10
51,1,970,"""",html-button-response,244,1931035,0.0-244.0,"""","<img src='jspsych/CFDfaces/CFD-AM-229-224-N.jpg' height=""250px"">,</br><b>Peter</b>",1,256,IntactOrRearranged,Test,"""","""","""","""",CFD-BM-208-065-N.jpg,Jesse,0,1,"""","""",1,4/20/2021 2:17,108.31.110.153,Mozilla/5.0 (Windows NT 10.0; Win64; x64; rv:88.0) Gecko/20100101 Firefox/88.0,,Firefox,88,Windows,10
51,1,1337,"""",html-slider-response,245,1932372,0.0-245.0,"""","<img src='jspsych/CFDfaces/CFD-AM-229-224-N.jpg' height=""250px"">,</br><b>Peter</b>","""",256,ConfidenceQuery,Test,"""","""","""","""",CFD-BM-208-065-N.jpg,Jesse,0,"""",0,47,1,4/20/2021 2:17,108.31.110.153,Mozilla/5.0 (Windows NT 10.0; Win64; x64; rv:88.0) Gecko/20100101 Firefox/88.0,,Firefox,88,Windows,10
51,1,null,"""",html-keyboard-response,246,1933384,0.0-246.0,"""","<div style=""font-size:60px;"">+</div>","""",256,ITI,Test,null,1000,"""","""","""","""","""","""","""","""",1,4/20/2021 2:17,108.31.110.153,Mozilla/5.0 (Windows NT 10.0; Win64; x64; rv:88.0) Gecko/20100101 Firefox/88.0,,Firefox,88,Windows,10
51,1,null,"""",image-keyboard-response,247,1933647,0.0-247.0,"""",jspsych/scrambledDisgustFaces/scrambledBF14DIS.JPG,"""",256,forwardMask,Test,null,250,"""",d,"""","""","""","""","""","""",1,4/20/2021 2:17,108.31.110.153,Mozilla/5.0 (Windows NT 10.0; Win64; x64; rv:88.0) Gecko/20100101 Firefox/88.0,,Firefox,88,Windows,10
51,1,null,"""",image-keyboard-response,248,1933678,0.0-248.0,"""",jspsych/disgustFaces/BF14DIS.JPG,"""",256,Cue,Test,null,16,"""","""","""","""","""","""","""","""",1,4/20/2021 2:17,108.31.110.153,Mozilla/5.0 (Windows NT 10.0; Win64; x64; rv:88.0) Gecko/20100101 Firefox/88.0,,Firefox,88,Windows,10
51,1,null,"""",image-keyboard-response,249,1933786,0.0-249.0,"""",jspsych/neutralFaces/AF33NES.JPG,"""",256,backwardMask,Test,null,100,"""","""","""","""","""","""","""","""",1,4/20/2021 2:17,108.31.110.153,Mozilla/5.0 (Windows NT 10.0; Win64; x64; rv:88.0) Gecko/20100101 Firefox/88.0,,Firefox,88,Windows,10
51,1,null,"""",html-keyboard-response,250,1934802,0.0-250.0,"""","<div style=""font-size:60px;"">+</div>","""",256,fixationBtwnNeutralMaskAndPrompt,Test,null,1000,"""","""","""","""","""","""","""","""",1,4/20/2021 2:17,108.31.110.153,Mozilla/5.0 (Windows NT 10.0; Win64; x64; rv:88.0) Gecko/20100101 Firefox/88.0,,Firefox,88,Windows,10
51,1,1787,"""",html-button-response,251,1936593,0.0-251.0,"""","<img src='jspsych/CFDfaces/CFD-BF-010-001-N.jpg' height=""250px"">,</br><b>Amanda</b>",1,256,IntactOrRearranged,Test,"""","""","""","""",CFD-BM-043-071-N.jpg,Ryan,1,1,"""","""",1,4/20/2021 2:17,108.31.110.153,Mozilla/5.0 (Windows NT 10.0; Win64; x64; rv:88.0) Gecko/20100101 Firefox/88.0,,Firefox,88,Windows,10
51,1,1587,"""",html-slider-response,252,1938180,0.0-252.0,"""","<img src='jspsych/CFDfaces/CFD-BF-010-001-N.jpg' height=""250px"">,</br><b>Amanda</b>","""",256,ConfidenceQuery,Test,"""","""","""","""",CFD-BM-043-071-N.jpg,Ryan,1,"""",0,50,1,4/20/2021 2:17,108.31.110.153,Mozilla/5.0 (Windows NT 10.0; Win64; x64; rv:88.0) Gecko/20100101 Firefox/88.0,,Firefox,88,Windows,10
51,1,null,"""",html-keyboard-response,253,1939184,0.0-253.0,"""","<div style=""font-size:60px;"">+</div>","""",256,ITI,Test,null,1000,"""","""","""","""","""","""","""","""",1,4/20/2021 2:17,108.31.110.153,Mozilla/5.0 (Windows NT 10.0; Win64; x64; rv:88.0) Gecko/20100101 Firefox/88.0,,Firefox,88,Windows,10
51,1,null,"""",image-keyboard-response,254,1939442,0.0-254.0,"""",jspsych/scrambledNeutralFaces/scrambledBM31NES.JPG,"""",256,forwardMask,Test,null,250,"""",n,"""","""","""","""","""","""",1,4/20/2021 2:17,108.31.110.153,Mozilla/5.0 (Windows NT 10.0; Win64; x64; rv:88.0) Gecko/20100101 Firefox/88.0,,Firefox,88,Windows,10
51,1,null,"""",image-keyboard-response,255,1939462,0.0-255.0,"""",jspsych/neutralFaces/BM31NES.JPG,"""",256,Cue,Test,null,16,"""","""","""","""","""","""","""","""",1,4/20/2021 2:17,108.31.110.153,Mozilla/5.0 (Windows NT 10.0; Win64; x64; rv:88.0) Gecko/20100101 Firefox/88.0,,Firefox,88,Windows,10
51,1,null,"""",image-keyboard-response,256,1939565,0.0-256.0,"""",jspsych/neutralFaces/AM25NES.JPG,"""",256,backwardMask,Test,null,100,"""","""","""","""","""","""","""","""",1,4/20/2021 2:17,108.31.110.153,Mozilla/5.0 (Windows NT 10.0; Win64; x64; rv:88.0) Gecko/20100101 Firefox/88.0,,Firefox,88,Windows,10
51,1,null,"""",html-keyboard-response,257,1940570,0.0-257.0,"""","<div style=""font-size:60px;"">+</div>","""",256,fixationBtwnNeutralMaskAndPrompt,Test,null,1000,"""","""","""","""","""","""","""","""",1,4/20/2021 2:17,108.31.110.153,Mozilla/5.0 (Windows NT 10.0; Win64; x64; rv:88.0) Gecko/20100101 Firefox/88.0,,Firefox,88,Windows,10
51,1,2147,"""",html-button-response,258,1942722,0.0-258.0,"""","<img src='jspsych/CFDfaces/CFD-AF-243-170-N.jpg' height=""250px"">,</br><b>Kimberly</b>",1,256,IntactOrRearranged,Test,"""","""","""","""",CFD-LM-239-075-N.jpg,Cameron,1,1,"""","""",1,4/20/2021 2:17,108.31.110.153,Mozilla/5.0 (Windows NT 10.0; Win64; x64; rv:88.0) Gecko/20100101 Firefox/88.0,,Firefox,88,Windows,10
51,1,1661,"""",html-slider-response,259,1944383,0.0-259.0,"""","<img src='jspsych/CFDfaces/CFD-AF-243-170-N.jpg' height=""250px"">,</br><b>Kimberly</b>","""",256,ConfidenceQuery,Test,"""","""","""","""",CFD-LM-239-075-N.jpg,Cameron,1,"""",0,51,1,4/20/2021 2:17,108.31.110.153,Mozilla/5.0 (Windows NT 10.0; Win64; x64; rv:88.0) Gecko/20100101 Firefox/88.0,,Firefox,88,Windows,10
51,1,null,"""",html-keyboard-response,260,1945386,0.0-260.0,"""","<div style=""font-size:60px;"">+</div>","""",256,ITI,Test,null,1000,"""","""","""","""","""","""","""","""",1,4/20/2021 2:17,108.31.110.153,Mozilla/5.0 (Windows NT 10.0; Win64; x64; rv:88.0) Gecko/20100101 Firefox/88.0,,Firefox,88,Windows,10
51,1,null,"""",image-keyboard-response,261,1945646,0.0-261.0,"""",jspsych/scrambledNeutralFaces/scrambledBF06NES.JPG,"""",256,forwardMask,Test,null,250,"""",n,"""","""","""","""","""","""",1,4/20/2021 2:17,108.31.110.153,Mozilla/5.0 (Windows NT 10.0; Win64; x64; rv:88.0) Gecko/20100101 Firefox/88.0,,Firefox,88,Windows,10
51,1,null,"""",image-keyboard-response,262,1945678,0.0-262.0,"""",jspsych/neutralFaces/BF06NES.JPG,"""",256,Cue,Test,null,16,"""","""","""","""","""","""","""","""",1,4/20/2021 2:17,108.31.110.153,Mozilla/5.0 (Windows NT 10.0; Win64; x64; rv:88.0) Gecko/20100101 Firefox/88.0,,Firefox,88,Windows,10
51,1,null,"""",image-keyboard-response,263,1945786,0.0-263.0,"""",jspsych/neutralFaces/BF34NES.JPG,"""",256,backwardMask,Test,null,100,"""","""","""","""","""","""","""","""",1,4/20/2021 2:17,108.31.110.153,Mozilla/5.0 (Windows NT 10.0; Win64; x64; rv:88.0) Gecko/20100101 Firefox/88.0,,Firefox,88,Windows,10
51,1,null,"""",html-keyboard-response,264,1946795,0.0-264.0,"""","<div style=""font-size:60px;"">+</div>","""",256,fixationBtwnNeutralMaskAndPrompt,Test,null,1000,"""","""","""","""","""","""","""","""",1,4/20/2021 2:17,108.31.110.153,Mozilla/5.0 (Windows NT 10.0; Win64; x64; rv:88.0) Gecko/20100101 Firefox/88.0,,Firefox,88,Windows,10
51,1,1750,"""",html-button-response,265,1948549,0.0-265.0,"""","<img src='jspsych/CFDfaces/CFD-BF-047-003-N.jpg' height=""250px"">,</br><b>Kayla</b>",0,256,IntactOrRearranged,Test,"""","""","""","""",CFD-BM-026-002-N.jpg,Austin,0,0,"""","""",1,4/20/2021 2:17,108.31.110.153,Mozilla/5.0 (Windows NT 10.0; Win64; x64; rv:88.0) Gecko/20100101 Firefox/88.0,,Firefox,88,Windows,10
51,1,2178,"""",html-slider-response,266,1950728,0.0-266.0,"""","<img src='jspsych/CFDfaces/CFD-BF-047-003-N.jpg' height=""250px"">,</br><b>Kayla</b>","""",256,ConfidenceQuery,Test,"""","""","""","""",CFD-BM-026-002-N.jpg,Austin,0,"""",0,49,1,4/20/2021 2:17,108.31.110.153,Mozilla/5.0 (Windows NT 10.0; Win64; x64; rv:88.0) Gecko/20100101 Firefox/88.0,,Firefox,88,Windows,10
51,1,null,"""",html-keyboard-response,267,1951736,0.0-267.0,"""","<div style=""font-size:60px;"">+</div>","""",256,ITI,Test,null,1000,"""","""","""","""","""","""","""","""",1,4/20/2021 2:17,108.31.110.153,Mozilla/5.0 (Windows NT 10.0; Win64; x64; rv:88.0) Gecko/20100101 Firefox/88.0,,Firefox,88,Windows,10
51,1,null,"""",image-keyboard-response,268,1952000,0.0-268.0,"""",jspsych/scrambledDisgustFaces/scrambledAF03DIS.JPG,"""",256,forwardMask,Test,null,250,"""",d,"""","""","""","""","""","""",1,4/20/2021 2:17,108.31.110.153,Mozilla/5.0 (Windows NT 10.0; Win64; x64; rv:88.0) Gecko/20100101 Firefox/88.0,,Firefox,88,Windows,10
51,1,null,"""",image-keyboard-response,269,1952030,0.0-269.0,"""",jspsych/disgustFaces/AF03DIS.JPG,"""",256,Cue,Test,null,16,"""","""","""","""","""","""","""","""",1,4/20/2021 2:17,108.31.110.153,Mozilla/5.0 (Windows NT 10.0; Win64; x64; rv:88.0) Gecko/20100101 Firefox/88.0,,Firefox,88,Windows,10
51,1,null,"""",image-keyboard-response,270,1952136,0.0-270.0,"""",jspsych/neutralFaces/BF05NES.JPG,"""",256,backwardMask,Test,null,100,"""","""","""","""","""","""","""","""",1,4/20/2021 2:17,108.31.110.153,Mozilla/5.0 (Windows NT 10.0; Win64; x64; rv:88.0) Gecko/20100101 Firefox/88.0,,Firefox,88,Windows,10
51,1,null,"""",html-keyboard-response,271,1953137,0.0-271.0,"""","<div style=""font-size:60px;"">+</div>","""",256,fixationBtwnNeutralMaskAndPrompt,Test,null,1000,"""","""","""","""","""","""","""","""",1,4/20/2021 2:17,108.31.110.153,Mozilla/5.0 (Windows NT 10.0; Win64; x64; rv:88.0) Gecko/20100101 Firefox/88.0,,Firefox,88,Windows,10
51,1,678,"""",html-button-response,272,1953818,0.0-272.0,"""","<img src='jspsych/CFDfaces/CFD-BM-017-021-N.jpg' height=""250px"">,</br><b>Robert</b>",0,256,IntactOrRearranged,Test,"""","""","""","""",CFD-BF-004-014-N.jpg,Jordan,0,0,"""","""",1,4/20/2021 2:17,108.31.110.153,Mozilla/5.0 (Windows NT 10.0; Win64; x64; rv:88.0) Gecko/20100101 Firefox/88.0,,Firefox,88,Windows,10
51,1,2083,"""",html-slider-response,273,1955903,0.0-273.0,"""","<img src='jspsych/CFDfaces/CFD-BM-017-021-N.jpg' height=""250px"">,</br><b>Robert</b>","""",256,ConfidenceQuery,Test,"""","""","""","""",CFD-BF-004-014-N.jpg,Jordan,0,"""",0,48,1,4/20/2021 2:17,108.31.110.153,Mozilla/5.0 (Windows NT 10.0; Win64; x64; rv:88.0) Gecko/20100101 Firefox/88.0,,Firefox,88,Windows,10
51,1,null,"""",html-keyboard-response,274,1956916,0.0-274.0,"""","<div style=""font-size:60px;"">+</div>","""",256,ITI,Test,null,1000,"""","""","""","""","""","""","""","""",1,4/20/2021 2:17,108.31.110.153,Mozilla/5.0 (Windows NT 10.0; Win64; x64; rv:88.0) Gecko/20100101 Firefox/88.0,,Firefox,88,Windows,10
51,1,null,"""",image-keyboard-response,275,1957174,0.0-275.0,"""",jspsych/scrambledDisgustFaces/scrambledAM04DIS.JPG,"""",256,forwardMask,Test,null,250,"""",d,"""","""","""","""","""","""",1,4/20/2021 2:17,108.31.110.153,Mozilla/5.0 (Windows NT 10.0; Win64; x64; rv:88.0) Gecko/20100101 Firefox/88.0,,Firefox,88,Windows,10
51,1,null,"""",image-keyboard-response,276,1957204,0.0-276.0,"""",jspsych/disgustFaces/AM04DIS.JPG,"""",256,Cue,Test,null,16,"""","""","""","""","""","""","""","""",1,4/20/2021 2:17,108.31.110.153,Mozilla/5.0 (Windows NT 10.0; Win64; x64; rv:88.0) Gecko/20100101 Firefox/88.0,,Firefox,88,Windows,10
51,1,null,"""",image-keyboard-response,277,1957311,0.0-277.0,"""",jspsych/neutralFaces/AM05NES.JPG,"""",256,backwardMask,Test,null,100,"""","""","""","""","""","""","""","""",1,4/20/2021 2:17,108.31.110.153,Mozilla/5.0 (Windows NT 10.0; Win64; x64; rv:88.0) Gecko/20100101 Firefox/88.0,,Firefox,88,Windows,10
51,1,null,"""",html-keyboard-response,278,1958314,0.0-278.0,"""","<div style=""font-size:60px;"">+</div>","""",256,fixationBtwnNeutralMaskAndPrompt,Test,null,1000,"""","""","""","""","""","""","""","""",1,4/20/2021 2:17,108.31.110.153,Mozilla/5.0 (Windows NT 10.0; Win64; x64; rv:88.0) Gecko/20100101 Firefox/88.0,,Firefox,88,Windows,10
51,1,757,"""",html-button-response,279,1959072,0.0-279.0,"""","<img src='jspsych/CFDfaces/CFD-WM-011-002-N.jpg' height=""250px"">,</br><b>Ian</b>",0,256,IntactOrRearranged,Test,"""","""","""","""",CFD-LM-219-295-N.jpg,Kenneth,0,0,"""","""",1,4/20/2021 2:17,108.31.110.153,Mozilla/5.0 (Windows NT 10.0; Win64; x64; rv:88.0) Gecko/20100101 Firefox/88.0,,Firefox,88,Windows,10
51,1,1774,"""",html-slider-response,280,1960851,0.0-280.0,"""","<img src='jspsych/CFDfaces/CFD-WM-011-002-N.jpg' height=""250px"">,</br><b>Ian</b>","""",256,ConfidenceQuery,Test,"""","""","""","""",CFD-LM-219-295-N.jpg,Kenneth,0,"""",0,48,1,4/20/2021 2:17,108.31.110.153,Mozilla/5.0 (Windows NT 10.0; Win64; x64; rv:88.0) Gecko/20100101 Firefox/88.0,,Firefox,88,Windows,10
51,1,null,"""",html-keyboard-response,281,1961853,0.0-281.0,"""","<div style=""font-size:60px;"">+</div>","""",256,ITI,Test,null,1000,"""","""","""","""","""","""","""","""",1,4/20/2021 2:17,108.31.110.153,Mozilla/5.0 (Windows NT 10.0; Win64; x64; rv:88.0) Gecko/20100101 Firefox/88.0,,Firefox,88,Windows,10
51,1,null,"""",image-keyboard-response,282,1962117,0.0-282.0,"""",jspsych/scrambledNeutralFaces/scrambledBM16NES.JPG,"""",256,forwardMask,Test,null,250,"""",n,"""","""","""","""","""","""",1,4/20/2021 2:17,108.31.110.153,Mozilla/5.0 (Windows NT 10.0; Win64; x64; rv:88.0) Gecko/20100101 Firefox/88.0,,Firefox,88,Windows,10
51,1,null,"""",image-keyboard-response,283,1962148,0.0-283.0,"""",jspsych/neutralFaces/BM16NES.JPG,"""",256,Cue,Test,null,16,"""","""","""","""","""","""","""","""",1,4/20/2021 2:17,108.31.110.153,Mozilla/5.0 (Windows NT 10.0; Win64; x64; rv:88.0) Gecko/20100101 Firefox/88.0,,Firefox,88,Windows,10
51,1,null,"""",image-keyboard-response,284,1962254,0.0-284.0,"""",jspsych/neutralFaces/AM06NES.JPG,"""",256,backwardMask,Test,null,100,"""","""","""","""","""","""","""","""",1,4/20/2021 2:17,108.31.110.153,Mozilla/5.0 (Windows NT 10.0; Win64; x64; rv:88.0) Gecko/20100101 Firefox/88.0,,Firefox,88,Windows,10
51,1,null,"""",html-keyboard-response,285,1963267,0.0-285.0,"""","<div style=""font-size:60px;"">+</div>","""",256,fixationBtwnNeutralMaskAndPrompt,Test,null,1000,"""","""","""","""","""","""","""","""",1,4/20/2021 2:17,108.31.110.153,Mozilla/5.0 (Windows NT 10.0; Win64; x64; rv:88.0) Gecko/20100101 Firefox/88.0,,Firefox,88,Windows,10
51,1,2759,"""",html-button-response,286,1966027,0.0-286.0,"""","<img src='jspsych/CFDfaces/CFD-BM-018-001-N.jpg' height=""250px"">,</br><b>Brian</b>",0,256,IntactOrRearranged,Test,"""","""","""","""",CFD-LF-205-100-N.jpg,Angela,0,0,"""","""",1,4/20/2021 2:17,108.31.110.153,Mozilla/5.0 (Windows NT 10.0; Win64; x64; rv:88.0) Gecko/20100101 Firefox/88.0,,Firefox,88,Windows,10
51,1,2936,"""",html-slider-response,287,1968969,0.0-287.0,"""","<img src='jspsych/CFDfaces/CFD-BM-018-001-N.jpg' height=""250px"">,</br><b>Brian</b>","""",256,ConfidenceQuery,Test,"""","""","""","""",CFD-LF-205-100-N.jpg,Angela,0,"""",0,49,1,4/20/2021 2:17,108.31.110.153,Mozilla/5.0 (Windows NT 10.0; Win64; x64; rv:88.0) Gecko/20100101 Firefox/88.0,,Firefox,88,Windows,10
51,1,null,"""",html-keyboard-response,288,1969979,0.0-288.0,"""","<div style=""font-size:60px;"">+</div>","""",256,ITI,Test,null,1000,"""","""","""","""","""","""","""","""",1,4/20/2021 2:17,108.31.110.153,Mozilla/5.0 (Windows NT 10.0; Win64; x64; rv:88.0) Gecko/20100101 Firefox/88.0,,Firefox,88,Windows,10
51,1,null,"""",image-keyboard-response,289,1970243,0.0-289.0,"""",jspsych/scrambledDisgustFaces/scrambledBF26DIS.JPG,"""",256,forwardMask,Test,null,250,"""",d,"""","""","""","""","""","""",1,4/20/2021 2:17,108.31.110.153,Mozilla/5.0 (Windows NT 10.0; Win64; x64; rv:88.0) Gecko/20100101 Firefox/88.0,,Firefox,88,Windows,10
51,1,null,"""",image-keyboard-response,290,1970274,0.0-290.0,"""",jspsych/disgustFaces/BF26DIS.JPG,"""",256,Cue,Test,null,16,"""","""","""","""","""","""","""","""",1,4/20/2021 2:17,108.31.110.153,Mozilla/5.0 (Windows NT 10.0; Win64; x64; rv:88.0) Gecko/20100101 Firefox/88.0,,Firefox,88,Windows,10
51,1,null,"""",image-keyboard-response,291,1970384,0.0-291.0,"""",jspsych/neutralFaces/BF35NES.JPG,"""",256,backwardMask,Test,null,100,"""","""","""","""","""","""","""","""",1,4/20/2021 2:17,108.31.110.153,Mozilla/5.0 (Windows NT 10.0; Win64; x64; rv:88.0) Gecko/20100101 Firefox/88.0,,Firefox,88,Windows,10
51,1,null,"""",html-keyboard-response,292,1971387,0.0-292.0,"""","<div style=""font-size:60px;"">+</div>","""",256,fixationBtwnNeutralMaskAndPrompt,Test,null,1000,"""","""","""","""","""","""","""","""",1,4/20/2021 2:17,108.31.110.153,Mozilla/5.0 (Windows NT 10.0; Win64; x64; rv:88.0) Gecko/20100101 Firefox/88.0,,Firefox,88,Windows,10
51,1,2643,"""",html-button-response,293,1974030,0.0-293.0,"""","<img src='jspsych/CFDfaces/CFD-LM-213-061-N.jpg' height=""250px"">,</br><b>Richard</b>",0,256,IntactOrRearranged,Test,"""","""","""","""",CFD-BM-002-013-N.jpg,Dustin,1,0,"""","""",1,4/20/2021 2:17,108.31.110.153,Mozilla/5.0 (Windows NT 10.0; Win64; x64; rv:88.0) Gecko/20100101 Firefox/88.0,,Firefox,88,Windows,10
51,1,1196,"""",html-slider-response,294,1975230,0.0-294.0,"""","<img src='jspsych/CFDfaces/CFD-LM-213-061-N.jpg' height=""250px"">,</br><b>Richard</b>","""",256,ConfidenceQuery,Test,"""","""","""","""",CFD-BM-002-013-N.jpg,Dustin,1,"""",0,53,1,4/20/2021 2:17,108.31.110.153,Mozilla/5.0 (Windows NT 10.0; Win64; x64; rv:88.0) Gecko/20100101 Firefox/88.0,,Firefox,88,Windows,10
51,1,null,"""",html-keyboard-response,295,1976236,0.0-295.0,"""","<div style=""font-size:60px;"">+</div>","""",256,ITI,Test,null,1000,"""","""","""","""","""","""","""","""",1,4/20/2021 2:17,108.31.110.153,Mozilla/5.0 (Windows NT 10.0; Win64; x64; rv:88.0) Gecko/20100101 Firefox/88.0,,Firefox,88,Windows,10
