run_id,condition,rt,responses,trial_type,trial_index,time_elapsed,internal_node_id,question_order,stimulus,button_pressed,iTrial,Phase,ExperimentPhase,key_press,StimulusDurationSetting,CharacterResponse,correctResponse,Face,Name,rearranged,slider_start,response,didSubjectEnterRearranged,Block,recorded_at,ip,user_agent,device,browser,browser_version,platform,platform_version
192,1,102482,"{""Q0"":""A269TVCCFVKJYN""}",survey-text,0,102483,0.0-0.0,"""","""","""","""","""","""","""","""","""","""","""","""","""","""","""","""","""",4/29/2021 19:54,201.92.156.74,Mozilla/5.0 (Windows NT 10.0; Win64; x64; rv:88.0) Gecko/20100101 Firefox/88.0,,Firefox,88,Windows,10
192,1,9092,"{""Q0"":""31""}",survey-text,1,111580,0.0-1.0,"""","""","""","""","""","""","""","""","""","""","""","""","""","""","""","""","""",4/29/2021 19:54,201.92.156.74,Mozilla/5.0 (Windows NT 10.0; Win64; x64; rv:88.0) Gecko/20100101 Firefox/88.0,,Firefox,88,Windows,10
192,1,49365,"{""Q0"":""male"",""Q1"":""Not Hispanic/Latino"",""Q2"":""White or Caucasian""}",survey-multi-choice,2,160947,0.0-2.0,"[0,1,2]","""","""","""","""","""","""","""","""","""","""","""","""","""","""","""","""",4/29/2021 19:54,201.92.156.74,Mozilla/5.0 (Windows NT 10.0; Win64; x64; rv:88.0) Gecko/20100101 Firefox/88.0,,Firefox,88,Windows,10
192,1,18811,"""",image-button-response,3,179764,0.0-3.0,"""",directionsMemoryAssociation1.JPG,0,1,IntroDirections1,break,"""","""","""","""","""","""","""","""","""","""","""",4/29/2021 19:54,201.92.156.74,Mozilla/5.0 (Windows NT 10.0; Win64; x64; rv:88.0) Gecko/20100101 Firefox/88.0,,Firefox,88,Windows,10
192,1,12827,"""",image-button-response,4,192595,0.0-4.0,"""",directionsMemoryAssociation2.JPG,0,1,IntroDirections2,break,"""","""","""","""","""","""","""","""","""","""","""",4/29/2021 19:54,201.92.156.74,Mozilla/5.0 (Windows NT 10.0; Win64; x64; rv:88.0) Gecko/20100101 Firefox/88.0,,Firefox,88,Windows,10
192,1,null,"""",html-keyboard-response,5,197603,0.0-5.0,"""","<img src='jspsych/CFDfaces/CFD-WM-009-002-N.jpg' height=""250px"">,</br><b>Marcus</b>","""",1,IntactFace,Practice,null,5000,"""","""","""","""","""","""","""","""","""",4/29/2021 19:54,201.92.156.74,Mozilla/5.0 (Windows NT 10.0; Win64; x64; rv:88.0) Gecko/20100101 Firefox/88.0,,Firefox,88,Windows,10
192,1,null,"""",html-keyboard-response,6,198120,0.0-6.0,"""","<div style=""font-size:60px;"">+</div>","""",1,ITI,Practice,null,1000,"""","""","""","""","""","""","""","""","""",4/29/2021 19:54,201.92.156.74,Mozilla/5.0 (Windows NT 10.0; Win64; x64; rv:88.0) Gecko/20100101 Firefox/88.0,,Firefox,88,Windows,10
192,1,null,"""",html-keyboard-response,7,203127,0.0-7.0,"""","<img src='jspsych/CFDfaces/CFD-BF-209-172-N.jpg' height=""250px"">,</br><b>Tara</b>","""",2,IntactFace,Practice,null,5000,"""","""","""","""","""","""","""","""","""",4/29/2021 19:54,201.92.156.74,Mozilla/5.0 (Windows NT 10.0; Win64; x64; rv:88.0) Gecko/20100101 Firefox/88.0,,Firefox,88,Windows,10
192,1,null,"""",html-keyboard-response,8,203641,0.0-8.0,"""","<div style=""font-size:60px;"">+</div>","""",2,ITI,Practice,null,1000,"""","""","""","""","""","""","""","""","""",4/29/2021 19:54,201.92.156.74,Mozilla/5.0 (Windows NT 10.0; Win64; x64; rv:88.0) Gecko/20100101 Firefox/88.0,,Firefox,88,Windows,10
192,1,null,"""",html-keyboard-response,9,208658,0.0-9.0,"""","<img src='jspsych/CFDfaces/CFD-AM-229-224-N.jpg' height=""250px"">,</br><b>Samuel</b>","""",3,IntactFace,Practice,null,5000,"""","""","""","""","""","""","""","""","""",4/29/2021 19:54,201.92.156.74,Mozilla/5.0 (Windows NT 10.0; Win64; x64; rv:88.0) Gecko/20100101 Firefox/88.0,,Firefox,88,Windows,10
192,1,null,"""",html-keyboard-response,10,209170,0.0-10.0,"""","<div style=""font-size:60px;"">+</div>","""",3,ITI,Practice,null,1000,"""","""","""","""","""","""","""","""","""",4/29/2021 19:54,201.92.156.74,Mozilla/5.0 (Windows NT 10.0; Win64; x64; rv:88.0) Gecko/20100101 Firefox/88.0,,Firefox,88,Windows,10
192,1,2421,"""",html-keyboard-response,11,214186,0.0-11.0,"""","<img src='jspsych/CFDfaces/CFD-LF-244-096-N.jpg' height=""250px"">,</br><b>Shannon</b>","""",4,IntactFace,Practice,70,5000,f,"""","""","""","""","""","""","""","""",4/29/2021 19:54,201.92.156.74,Mozilla/5.0 (Windows NT 10.0; Win64; x64; rv:88.0) Gecko/20100101 Firefox/88.0,,Firefox,88,Windows,10
192,1,null,"""",html-keyboard-response,12,214699,0.0-12.0,"""","<div style=""font-size:60px;"">+</div>","""",4,ITI,Practice,null,1000,"""","""","""","""","""","""","""","""","""",4/29/2021 19:54,201.92.156.74,Mozilla/5.0 (Windows NT 10.0; Win64; x64; rv:88.0) Gecko/20100101 Firefox/88.0,,Firefox,88,Windows,10
192,1,1390,"""",html-keyboard-response,13,219711,0.0-13.0,"""","<img src='jspsych/CFDfaces/CFD-AF-201-060-N.jpg' height=""250px"">,</br><b>Katelyn</b>","""",5,IntactFace,Practice,78,5000,n,"""","""","""","""","""","""","""","""",4/29/2021 19:54,201.92.156.74,Mozilla/5.0 (Windows NT 10.0; Win64; x64; rv:88.0) Gecko/20100101 Firefox/88.0,,Firefox,88,Windows,10
192,1,null,"""",html-keyboard-response,14,220221,0.0-14.0,"""","<div style=""font-size:60px;"">+</div>","""",5,ITI,Practice,null,1000,"""","""","""","""","""","""","""","""","""",4/29/2021 19:54,201.92.156.74,Mozilla/5.0 (Windows NT 10.0; Win64; x64; rv:88.0) Gecko/20100101 Firefox/88.0,,Firefox,88,Windows,10
192,1,1165,"""",html-keyboard-response,15,225230,0.0-15.0,"""","<img src='jspsych/CFDfaces/CFD-LF-232-199-N.jpg' height=""250px"">,</br><b>Cassandra</b>","""",6,IntactFace,Practice,78,5000,n,"""","""","""","""","""","""","""","""",4/29/2021 19:54,201.92.156.74,Mozilla/5.0 (Windows NT 10.0; Win64; x64; rv:88.0) Gecko/20100101 Firefox/88.0,,Firefox,88,Windows,10
192,1,null,"""",html-keyboard-response,16,225742,0.0-16.0,"""","<div style=""font-size:60px;"">+</div>","""",6,ITI,Practice,null,1000,"""","""","""","""","""","""","""","""","""",4/29/2021 19:54,201.92.156.74,Mozilla/5.0 (Windows NT 10.0; Win64; x64; rv:88.0) Gecko/20100101 Firefox/88.0,,Firefox,88,Windows,10
192,1,1323,"""",html-keyboard-response,17,230760,0.0-17.0,"""","<img src='jspsych/CFDfaces/CFD-BM-010-003-N.jpg' height=""250px"">,</br><b>Carlos</b>","""",7,IntactFace,Practice,70,5000,f,"""","""","""","""","""","""","""","""",4/29/2021 19:54,201.92.156.74,Mozilla/5.0 (Windows NT 10.0; Win64; x64; rv:88.0) Gecko/20100101 Firefox/88.0,,Firefox,88,Windows,10
192,1,null,"""",html-keyboard-response,18,231263,0.0-18.0,"""","<div style=""font-size:60px;"">+</div>","""",7,ITI,Practice,null,1000,"""","""","""","""","""","""","""","""","""",4/29/2021 19:54,201.92.156.74,Mozilla/5.0 (Windows NT 10.0; Win64; x64; rv:88.0) Gecko/20100101 Firefox/88.0,,Firefox,88,Windows,10
192,1,1401,"""",html-keyboard-response,19,236281,0.0-19.0,"""","<img src='jspsych/CFDfaces/CFD-WM-032-001-N.jpg' height=""250px"">,</br><b>Patrick</b>","""",8,IntactFace,Practice,78,5000,n,"""","""","""","""","""","""","""","""",4/29/2021 19:54,201.92.156.74,Mozilla/5.0 (Windows NT 10.0; Win64; x64; rv:88.0) Gecko/20100101 Firefox/88.0,,Firefox,88,Windows,10
192,1,null,"""",html-keyboard-response,20,236797,0.0-20.0,"""","<div style=""font-size:60px;"">+</div>","""",8,ITI,Practice,null,1000,"""","""","""","""","""","""","""","""","""",4/29/2021 19:54,201.92.156.74,Mozilla/5.0 (Windows NT 10.0; Win64; x64; rv:88.0) Gecko/20100101 Firefox/88.0,,Firefox,88,Windows,10
192,1,8961,"""",image-button-response,21,245763,0.0-21.0,"""",directionsForTest.JPG,0,1,directionsForTest,break,"""","""","""","""","""","""","""","""","""","""","""",4/29/2021 19:54,201.92.156.74,Mozilla/5.0 (Windows NT 10.0; Win64; x64; rv:88.0) Gecko/20100101 Firefox/88.0,,Firefox,88,Windows,10
192,1,20724,"""",image-button-response,22,266492,0.0-22.0,"""",directionsForTest2.JPG,0,1,directionsForTest2,break,"""","""","""","""","""","""","""","""","""","""","""",4/29/2021 19:54,201.92.156.74,Mozilla/5.0 (Windows NT 10.0; Win64; x64; rv:88.0) Gecko/20100101 Firefox/88.0,,Firefox,88,Windows,10
192,1,null,"""",html-keyboard-response,23,267502,0.0-23.0,"""","<div style=""font-size:60px;"">+</div>","""",1,ITI,Practice,null,1000,"""","""","""","""","""","""","""","""","""",4/29/2021 19:54,201.92.156.74,Mozilla/5.0 (Windows NT 10.0; Win64; x64; rv:88.0) Gecko/20100101 Firefox/88.0,,Firefox,88,Windows,10
192,1,null,"""",image-keyboard-response,24,267772,0.0-24.0,"""",jspsych/scrambledNeutralFaces/scrambledAF21NES.JPG,"""",1,forwardMask,Practice,null,250,"""",n,"""","""","""","""","""","""","""",4/29/2021 19:54,201.92.156.74,Mozilla/5.0 (Windows NT 10.0; Win64; x64; rv:88.0) Gecko/20100101 Firefox/88.0,,Firefox,88,Windows,10
192,1,null,"""",image-keyboard-response,25,267803,0.0-25.0,"""",jspsych/neutralFaces/AF21NES.JPG,"""",1,Cue,Practice,null,16,"""","""","""","""","""","""","""","""","""",4/29/2021 19:54,201.92.156.74,Mozilla/5.0 (Windows NT 10.0; Win64; x64; rv:88.0) Gecko/20100101 Firefox/88.0,,Firefox,88,Windows,10
192,1,null,"""",image-keyboard-response,26,267913,0.0-26.0,"""",jspsych/neutralFaces/BF09NES.JPG,"""",1,backwardMask,Practice,null,100,"""","""","""","""","""","""","""","""","""",4/29/2021 19:54,201.92.156.74,Mozilla/5.0 (Windows NT 10.0; Win64; x64; rv:88.0) Gecko/20100101 Firefox/88.0,,Firefox,88,Windows,10
192,1,null,"""",html-keyboard-response,27,268921,0.0-27.0,"""","<div style=""font-size:60px;"">+</div>","""",1,fixationBtwnNeutralMaskAndPrompt,Practice,null,1000,"""","""","""","""","""","""","""","""","""",4/29/2021 19:54,201.92.156.74,Mozilla/5.0 (Windows NT 10.0; Win64; x64; rv:88.0) Gecko/20100101 Firefox/88.0,,Firefox,88,Windows,10
192,1,null,"""",html-button-response,28,273930,0.0-28.0,"""","<img src='jspsych/CFDfaces/CFD-WM-009-002-N.jpg'height=""250px""></br><b>Carlos</b>",null,1,IntactOrRearranged,Practice,"""","""","""","""",CFD-WM-009-002-N.jpg,Carlos,1,"""","""","""","""",4/29/2021 19:54,201.92.156.74,Mozilla/5.0 (Windows NT 10.0; Win64; x64; rv:88.0) Gecko/20100101 Firefox/88.0,,Firefox,88,Windows,10
192,1,null,"""",html-slider-response,29,278937,0.0-29.0,"""","<img src='jspsych/CFDfaces/CFD-WM-009-002-N.jpg'height=""250px""></br><b>Carlos</b>","""",1,ConfidenceQuery,Practice,"""","""","""","""",CFD-BF-009-002-N.jpg,Jordan,1,0,null,"""","""",4/29/2021 19:54,201.92.156.74,Mozilla/5.0 (Windows NT 10.0; Win64; x64; rv:88.0) Gecko/20100101 Firefox/88.0,,Firefox,88,Windows,10
192,1,4265,"""",html-button-response,30,283204,0.0-30.0,"""",<p>Please click either button: REARRANGED or INTACT before the 5-second time limit.</p>,0,1,feedback,Practice,"""","""","""","""","""","""","""","""","""","""","""",4/29/2021 19:54,201.92.156.74,Mozilla/5.0 (Windows NT 10.0; Win64; x64; rv:88.0) Gecko/20100101 Firefox/88.0,,Firefox,88,Windows,10
192,1,null,"""",html-keyboard-response,31,284210,0.0-31.0,"""","<div style=""font-size:60px;"">+</div>","""",2,ITI,Practice,null,1000,"""","""","""","""","""","""","""","""","""",4/29/2021 19:54,201.92.156.74,Mozilla/5.0 (Windows NT 10.0; Win64; x64; rv:88.0) Gecko/20100101 Firefox/88.0,,Firefox,88,Windows,10
192,1,null,"""",image-keyboard-response,32,284474,0.0-32.0,"""",jspsych/scrambledNeutralFaces/scrambledAM11NES.JPG,"""",2,forwardMask,Practice,null,250,"""",n,"""","""","""","""","""","""","""",4/29/2021 19:54,201.92.156.74,Mozilla/5.0 (Windows NT 10.0; Win64; x64; rv:88.0) Gecko/20100101 Firefox/88.0,,Firefox,88,Windows,10
192,1,null,"""",image-keyboard-response,33,284504,0.0-33.0,"""",jspsych/neutralFaces/AM11NES.JPG,"""",2,Cue,Practice,null,16,"""","""","""","""","""","""","""","""","""",4/29/2021 19:54,201.92.156.74,Mozilla/5.0 (Windows NT 10.0; Win64; x64; rv:88.0) Gecko/20100101 Firefox/88.0,,Firefox,88,Windows,10
192,1,null,"""",image-keyboard-response,34,284612,0.0-34.0,"""",jspsych/neutralFaces/AM17NES.JPG,"""",2,backwardMask,Practice,null,100,"""","""","""","""","""","""","""","""","""",4/29/2021 19:54,201.92.156.74,Mozilla/5.0 (Windows NT 10.0; Win64; x64; rv:88.0) Gecko/20100101 Firefox/88.0,,Firefox,88,Windows,10
192,1,null,"""",html-keyboard-response,35,285627,0.0-35.0,"""","<div style=""font-size:60px;"">+</div>","""",2,fixationBtwnNeutralMaskAndPrompt,Practice,null,1000,"""","""","""","""","""","""","""","""","""",4/29/2021 19:54,201.92.156.74,Mozilla/5.0 (Windows NT 10.0; Win64; x64; rv:88.0) Gecko/20100101 Firefox/88.0,,Firefox,88,Windows,10
192,1,1399,"""",html-button-response,36,287027,0.0-36.0,"""","<img src='jspsych/CFDfaces/CFD-LF-244-096-N.jpg'height=""250px""></br><b>Shannon</b>",0,2,IntactOrRearranged,Practice,"""","""","""","""",CFD-LF-244-096-N.jpg,Shannon,0,"""","""",0,"""",4/29/2021 19:54,201.92.156.74,Mozilla/5.0 (Windows NT 10.0; Win64; x64; rv:88.0) Gecko/20100101 Firefox/88.0,,Firefox,88,Windows,10
192,1,3022,"""",html-slider-response,37,290052,0.0-37.0,"""","<img src='jspsych/CFDfaces/CFD-LF-244-096-N.jpg'height=""250px""></br><b>Shannon</b>","""",2,ConfidenceQuery,Practice,"""","""","""","""",CFD-BF-009-002-N.jpg,Jordan,0,0,34,"""","""",4/29/2021 19:54,201.92.156.74,Mozilla/5.0 (Windows NT 10.0; Win64; x64; rv:88.0) Gecko/20100101 Firefox/88.0,,Firefox,88,Windows,10
192,1,2606,"""",html-button-response,38,292659,0.0-38.0,"""",You are Correct. You called an Intact Pair Intact,0,2,feedback,Practice,"""","""","""","""","""","""","""","""","""","""","""",4/29/2021 19:54,201.92.156.74,Mozilla/5.0 (Windows NT 10.0; Win64; x64; rv:88.0) Gecko/20100101 Firefox/88.0,,Firefox,88,Windows,10
192,1,null,"""",html-keyboard-response,39,293671,0.0-39.0,"""","<div style=""font-size:60px;"">+</div>","""",3,ITI,Practice,null,1000,"""","""","""","""","""","""","""","""","""",4/29/2021 19:54,201.92.156.74,Mozilla/5.0 (Windows NT 10.0; Win64; x64; rv:88.0) Gecko/20100101 Firefox/88.0,,Firefox,88,Windows,10
192,1,null,"""",image-keyboard-response,40,293935,0.0-40.0,"""",jspsych/scrambledNeutralFaces/scrambledAM14NES.JPG,"""",3,forwardMask,Practice,null,250,"""",n,"""","""","""","""","""","""","""",4/29/2021 19:54,201.92.156.74,Mozilla/5.0 (Windows NT 10.0; Win64; x64; rv:88.0) Gecko/20100101 Firefox/88.0,,Firefox,88,Windows,10
192,1,null,"""",image-keyboard-response,41,293965,0.0-41.0,"""",jspsych/neutralFaces/AM14NES.JPG,"""",3,Cue,Practice,null,16,"""","""","""","""","""","""","""","""","""",4/29/2021 19:54,201.92.156.74,Mozilla/5.0 (Windows NT 10.0; Win64; x64; rv:88.0) Gecko/20100101 Firefox/88.0,,Firefox,88,Windows,10
192,1,null,"""",image-keyboard-response,42,294072,0.0-42.0,"""",jspsych/neutralFaces/AM25NES.JPG,"""",3,backwardMask,Practice,null,100,"""","""","""","""","""","""","""","""","""",4/29/2021 19:54,201.92.156.74,Mozilla/5.0 (Windows NT 10.0; Win64; x64; rv:88.0) Gecko/20100101 Firefox/88.0,,Firefox,88,Windows,10
192,1,null,"""",html-keyboard-response,43,295087,0.0-43.0,"""","<div style=""font-size:60px;"">+</div>","""",3,fixationBtwnNeutralMaskAndPrompt,Practice,null,1000,"""","""","""","""","""","""","""","""","""",4/29/2021 19:54,201.92.156.74,Mozilla/5.0 (Windows NT 10.0; Win64; x64; rv:88.0) Gecko/20100101 Firefox/88.0,,Firefox,88,Windows,10
192,1,852,"""",html-button-response,44,295939,0.0-44.0,"""","<img src='jspsych/CFDfaces/CFD-AM-229-224-N.jpg'height=""250px""></br><b>Samuel</b>",1,3,IntactOrRearranged,Practice,"""","""","""","""",CFD-AM-229-224-N.jpg,Samuel,0,"""","""",1,"""",4/29/2021 19:54,201.92.156.74,Mozilla/5.0 (Windows NT 10.0; Win64; x64; rv:88.0) Gecko/20100101 Firefox/88.0,,Firefox,88,Windows,10
192,1,3053,"""",html-slider-response,45,298996,0.0-45.0,"""","<img src='jspsych/CFDfaces/CFD-AM-229-224-N.jpg'height=""250px""></br><b>Samuel</b>","""",3,ConfidenceQuery,Practice,"""","""","""","""",CFD-BF-009-002-N.jpg,Jordan,0,0,59,"""","""",4/29/2021 19:54,201.92.156.74,Mozilla/5.0 (Windows NT 10.0; Win64; x64; rv:88.0) Gecko/20100101 Firefox/88.0,,Firefox,88,Windows,10
192,1,2094,"""",html-button-response,46,301091,0.0-46.0,"""",You are Incorrect. You Called an Intact Pair Rearranged,0,3,feedback,Practice,"""","""","""","""","""","""","""","""","""","""","""",4/29/2021 19:54,201.92.156.74,Mozilla/5.0 (Windows NT 10.0; Win64; x64; rv:88.0) Gecko/20100101 Firefox/88.0,,Firefox,88,Windows,10
192,1,null,"""",html-keyboard-response,47,302099,0.0-47.0,"""","<div style=""font-size:60px;"">+</div>","""",4,ITI,Practice,null,1000,"""","""","""","""","""","""","""","""","""",4/29/2021 19:54,201.92.156.74,Mozilla/5.0 (Windows NT 10.0; Win64; x64; rv:88.0) Gecko/20100101 Firefox/88.0,,Firefox,88,Windows,10
192,1,null,"""",image-keyboard-response,48,302365,0.0-48.0,"""",jspsych/scrambledNeutralFaces/scrambledAM04NES.JPG,"""",4,forwardMask,Practice,null,250,"""",n,"""","""","""","""","""","""","""",4/29/2021 19:54,201.92.156.74,Mozilla/5.0 (Windows NT 10.0; Win64; x64; rv:88.0) Gecko/20100101 Firefox/88.0,,Firefox,88,Windows,10
192,1,null,"""",image-keyboard-response,49,302396,0.0-49.0,"""",jspsych/neutralFaces/AM04NES.JPG,"""",4,Cue,Practice,null,16,"""","""","""","""","""","""","""","""","""",4/29/2021 19:54,201.92.156.74,Mozilla/5.0 (Windows NT 10.0; Win64; x64; rv:88.0) Gecko/20100101 Firefox/88.0,,Firefox,88,Windows,10
192,1,null,"""",image-keyboard-response,50,302503,0.0-50.0,"""",jspsych/neutralFaces/BM25NES.JPG,"""",4,backwardMask,Practice,null,100,"""","""","""","""","""","""","""","""","""",4/29/2021 19:54,201.92.156.74,Mozilla/5.0 (Windows NT 10.0; Win64; x64; rv:88.0) Gecko/20100101 Firefox/88.0,,Firefox,88,Windows,10
192,1,null,"""",html-keyboard-response,51,303504,0.0-51.0,"""","<div style=""font-size:60px;"">+</div>","""",4,fixationBtwnNeutralMaskAndPrompt,Practice,null,1000,"""","""","""","""","""","""","""","""","""",4/29/2021 19:54,201.92.156.74,Mozilla/5.0 (Windows NT 10.0; Win64; x64; rv:88.0) Gecko/20100101 Firefox/88.0,,Firefox,88,Windows,10
192,1,1113,"""",html-button-response,52,304620,0.0-52.0,"""","<img src='jspsych/CFDfaces/CFD-BF-209-172-N.jpg'height=""250px""></br><b>Tara</b>",1,4,IntactOrRearranged,Practice,"""","""","""","""",CFD-BF-209-172-N.jpg,Tara,0,"""","""",1,"""",4/29/2021 19:54,201.92.156.74,Mozilla/5.0 (Windows NT 10.0; Win64; x64; rv:88.0) Gecko/20100101 Firefox/88.0,,Firefox,88,Windows,10
192,1,3031,"""",html-slider-response,53,307652,0.0-53.0,"""","<img src='jspsych/CFDfaces/CFD-BF-209-172-N.jpg'height=""250px""></br><b>Tara</b>","""",4,ConfidenceQuery,Practice,"""","""","""","""",CFD-BF-009-002-N.jpg,Jordan,0,0,22,"""","""",4/29/2021 19:54,201.92.156.74,Mozilla/5.0 (Windows NT 10.0; Win64; x64; rv:88.0) Gecko/20100101 Firefox/88.0,,Firefox,88,Windows,10
192,1,1525,"""",html-button-response,54,309180,0.0-54.0,"""",You are Incorrect. You Called an Intact Pair Rearranged,0,4,feedback,Practice,"""","""","""","""","""","""","""","""","""","""","""",4/29/2021 19:54,201.92.156.74,Mozilla/5.0 (Windows NT 10.0; Win64; x64; rv:88.0) Gecko/20100101 Firefox/88.0,,Firefox,88,Windows,10
192,1,null,"""",html-keyboard-response,55,310195,0.0-55.0,"""","<div style=""font-size:60px;"">+</div>","""",5,ITI,Practice,null,1000,"""","""","""","""","""","""","""","""","""",4/29/2021 19:54,201.92.156.74,Mozilla/5.0 (Windows NT 10.0; Win64; x64; rv:88.0) Gecko/20100101 Firefox/88.0,,Firefox,88,Windows,10
192,1,null,"""",image-keyboard-response,56,310459,0.0-56.0,"""",jspsych/scrambledNeutralFaces/scrambledAM30NES.JPG,"""",5,forwardMask,Practice,null,250,"""",n,"""","""","""","""","""","""","""",4/29/2021 19:54,201.92.156.74,Mozilla/5.0 (Windows NT 10.0; Win64; x64; rv:88.0) Gecko/20100101 Firefox/88.0,,Firefox,88,Windows,10
192,1,null,"""",image-keyboard-response,57,310490,0.0-57.0,"""",jspsych/neutralFaces/AM30NES.JPG,"""",5,Cue,Practice,null,16,"""","""","""","""","""","""","""","""","""",4/29/2021 19:54,201.92.156.74,Mozilla/5.0 (Windows NT 10.0; Win64; x64; rv:88.0) Gecko/20100101 Firefox/88.0,,Firefox,88,Windows,10
192,1,null,"""",image-keyboard-response,58,310601,0.0-58.0,"""",jspsych/neutralFaces/AM28NES.JPG,"""",5,backwardMask,Practice,null,100,"""","""","""","""","""","""","""","""","""",4/29/2021 19:54,201.92.156.74,Mozilla/5.0 (Windows NT 10.0; Win64; x64; rv:88.0) Gecko/20100101 Firefox/88.0,,Firefox,88,Windows,10
192,1,null,"""",html-keyboard-response,59,311610,0.0-59.0,"""","<div style=""font-size:60px;"">+</div>","""",5,fixationBtwnNeutralMaskAndPrompt,Practice,null,1000,"""","""","""","""","""","""","""","""","""",4/29/2021 19:54,201.92.156.74,Mozilla/5.0 (Windows NT 10.0; Win64; x64; rv:88.0) Gecko/20100101 Firefox/88.0,,Firefox,88,Windows,10
192,1,1209,"""",html-button-response,60,312819,0.0-60.0,"""","<img src='jspsych/CFDfaces/CFD-WM-032-001-N.jpg'height=""250px""></br><b>Patrick</b>",1,5,IntactOrRearranged,Practice,"""","""","""","""",CFD-WM-032-001-N.jpg,Patrick,0,"""","""",1,"""",4/29/2021 19:54,201.92.156.74,Mozilla/5.0 (Windows NT 10.0; Win64; x64; rv:88.0) Gecko/20100101 Firefox/88.0,,Firefox,88,Windows,10
192,1,2375,"""",html-slider-response,61,315196,0.0-61.0,"""","<img src='jspsych/CFDfaces/CFD-WM-032-001-N.jpg'height=""250px""></br><b>Patrick</b>","""",5,ConfidenceQuery,Practice,"""","""","""","""",CFD-BF-009-002-N.jpg,Jordan,0,0,52,"""","""",4/29/2021 19:54,201.92.156.74,Mozilla/5.0 (Windows NT 10.0; Win64; x64; rv:88.0) Gecko/20100101 Firefox/88.0,,Firefox,88,Windows,10
192,1,8078,"""",html-button-response,62,323275,0.0-62.0,"""",You are Incorrect. You Called an Intact Pair Rearranged,0,5,feedback,Practice,"""","""","""","""","""","""","""","""","""","""","""",4/29/2021 19:54,201.92.156.74,Mozilla/5.0 (Windows NT 10.0; Win64; x64; rv:88.0) Gecko/20100101 Firefox/88.0,,Firefox,88,Windows,10
192,1,null,"""",html-keyboard-response,63,324279,0.0-63.0,"""","<div style=""font-size:60px;"">+</div>","""",6,ITI,Practice,null,1000,"""","""","""","""","""","""","""","""","""",4/29/2021 19:54,201.92.156.74,Mozilla/5.0 (Windows NT 10.0; Win64; x64; rv:88.0) Gecko/20100101 Firefox/88.0,,Firefox,88,Windows,10
192,1,null,"""",image-keyboard-response,64,324543,0.0-64.0,"""",jspsych/scrambledNeutralFaces/scrambledAF16NES.JPG,"""",6,forwardMask,Practice,null,250,"""",n,"""","""","""","""","""","""","""",4/29/2021 19:54,201.92.156.74,Mozilla/5.0 (Windows NT 10.0; Win64; x64; rv:88.0) Gecko/20100101 Firefox/88.0,,Firefox,88,Windows,10
192,1,null,"""",image-keyboard-response,65,324573,0.0-65.0,"""",jspsych/neutralFaces/AF16NES.JPG,"""",6,Cue,Practice,null,16,"""","""","""","""","""","""","""","""","""",4/29/2021 19:54,201.92.156.74,Mozilla/5.0 (Windows NT 10.0; Win64; x64; rv:88.0) Gecko/20100101 Firefox/88.0,,Firefox,88,Windows,10
192,1,null,"""",image-keyboard-response,66,324684,0.0-66.0,"""",jspsych/neutralFaces/BF13NES.JPG,"""",6,backwardMask,Practice,null,100,"""","""","""","""","""","""","""","""","""",4/29/2021 19:54,201.92.156.74,Mozilla/5.0 (Windows NT 10.0; Win64; x64; rv:88.0) Gecko/20100101 Firefox/88.0,,Firefox,88,Windows,10
192,1,null,"""",html-keyboard-response,67,325694,0.0-67.0,"""","<div style=""font-size:60px;"">+</div>","""",6,fixationBtwnNeutralMaskAndPrompt,Practice,null,1000,"""","""","""","""","""","""","""","""","""",4/29/2021 19:54,201.92.156.74,Mozilla/5.0 (Windows NT 10.0; Win64; x64; rv:88.0) Gecko/20100101 Firefox/88.0,,Firefox,88,Windows,10
192,1,1132,"""",html-button-response,68,326828,0.0-68.0,"""","<img src='jspsych/CFDfaces/CFD-LF-232-199-N.jpg'height=""250px""></br><b>Katelyn</b>",0,6,IntactOrRearranged,Practice,"""","""","""","""",CFD-LF-232-199-N.jpg,Katelyn,1,"""","""",0,"""",4/29/2021 19:54,201.92.156.74,Mozilla/5.0 (Windows NT 10.0; Win64; x64; rv:88.0) Gecko/20100101 Firefox/88.0,,Firefox,88,Windows,10
192,1,3862,"""",html-slider-response,69,330691,0.0-69.0,"""","<img src='jspsych/CFDfaces/CFD-LF-232-199-N.jpg'height=""250px""></br><b>Katelyn</b>","""",6,ConfidenceQuery,Practice,"""","""","""","""",CFD-BF-009-002-N.jpg,Jordan,1,0,39,"""","""",4/29/2021 19:54,201.92.156.74,Mozilla/5.0 (Windows NT 10.0; Win64; x64; rv:88.0) Gecko/20100101 Firefox/88.0,,Firefox,88,Windows,10
192,1,7053,"""",html-button-response,70,337747,0.0-70.0,"""",You are Incorrect. You called a Rearranged Pair Intact,0,6,feedback,Practice,"""","""","""","""","""","""","""","""","""","""","""",4/29/2021 19:54,201.92.156.74,Mozilla/5.0 (Windows NT 10.0; Win64; x64; rv:88.0) Gecko/20100101 Firefox/88.0,,Firefox,88,Windows,10
192,1,null,"""",html-keyboard-response,71,338752,0.0-71.0,"""","<div style=""font-size:60px;"">+</div>","""",7,ITI,Practice,null,1000,"""","""","""","""","""","""","""","""","""",4/29/2021 19:54,201.92.156.74,Mozilla/5.0 (Windows NT 10.0; Win64; x64; rv:88.0) Gecko/20100101 Firefox/88.0,,Firefox,88,Windows,10
192,1,null,"""",image-keyboard-response,72,339016,0.0-72.0,"""",jspsych/scrambledNeutralFaces/scrambledBF09NES.JPG,"""",7,forwardMask,Practice,null,250,"""",n,"""","""","""","""","""","""","""",4/29/2021 19:54,201.92.156.74,Mozilla/5.0 (Windows NT 10.0; Win64; x64; rv:88.0) Gecko/20100101 Firefox/88.0,,Firefox,88,Windows,10
192,1,null,"""",image-keyboard-response,73,339046,0.0-73.0,"""",jspsych/neutralFaces/BF09NES.JPG,"""",7,Cue,Practice,null,16,"""","""","""","""","""","""","""","""","""",4/29/2021 19:54,201.92.156.74,Mozilla/5.0 (Windows NT 10.0; Win64; x64; rv:88.0) Gecko/20100101 Firefox/88.0,,Firefox,88,Windows,10
192,1,null,"""",image-keyboard-response,74,339155,0.0-74.0,"""",jspsych/neutralFaces/AF03NES.JPG,"""",7,backwardMask,Practice,null,100,"""","""","""","""","""","""","""","""","""",4/29/2021 19:54,201.92.156.74,Mozilla/5.0 (Windows NT 10.0; Win64; x64; rv:88.0) Gecko/20100101 Firefox/88.0,,Firefox,88,Windows,10
192,1,null,"""",html-keyboard-response,75,340168,0.0-75.0,"""","<div style=""font-size:60px;"">+</div>","""",7,fixationBtwnNeutralMaskAndPrompt,Practice,null,1000,"""","""","""","""","""","""","""","""","""",4/29/2021 19:54,201.92.156.74,Mozilla/5.0 (Windows NT 10.0; Win64; x64; rv:88.0) Gecko/20100101 Firefox/88.0,,Firefox,88,Windows,10
192,1,1019,"""",html-button-response,76,341188,0.0-76.0,"""","<img src='jspsych/CFDfaces/CFD-AF-201-060-N.jpg'height=""250px""></br><b>Cassandra</b>",1,7,IntactOrRearranged,Practice,"""","""","""","""",CFD-AF-201-060-N.jpg,Cassandra,1,"""","""",1,"""",4/29/2021 19:54,201.92.156.74,Mozilla/5.0 (Windows NT 10.0; Win64; x64; rv:88.0) Gecko/20100101 Firefox/88.0,,Firefox,88,Windows,10
192,1,2718,"""",html-slider-response,77,343908,0.0-77.0,"""","<img src='jspsych/CFDfaces/CFD-AF-201-060-N.jpg'height=""250px""></br><b>Cassandra</b>","""",7,ConfidenceQuery,Practice,"""","""","""","""",CFD-BF-009-002-N.jpg,Jordan,1,0,77,"""","""",4/29/2021 19:54,201.92.156.74,Mozilla/5.0 (Windows NT 10.0; Win64; x64; rv:88.0) Gecko/20100101 Firefox/88.0,,Firefox,88,Windows,10
192,1,4423,"""",html-button-response,78,348332,0.0-78.0,"""",You are Correct. You Called A Rearranged Pair Rearranged,0,7,feedback,Practice,"""","""","""","""","""","""","""","""","""","""","""",4/29/2021 19:54,201.92.156.74,Mozilla/5.0 (Windows NT 10.0; Win64; x64; rv:88.0) Gecko/20100101 Firefox/88.0,,Firefox,88,Windows,10
192,1,null,"""",html-keyboard-response,79,349349,0.0-79.0,"""","<div style=""font-size:60px;"">+</div>","""",8,ITI,Practice,null,1000,"""","""","""","""","""","""","""","""","""",4/29/2021 19:54,201.92.156.74,Mozilla/5.0 (Windows NT 10.0; Win64; x64; rv:88.0) Gecko/20100101 Firefox/88.0,,Firefox,88,Windows,10
192,1,null,"""",image-keyboard-response,80,349615,0.0-80.0,"""",jspsych/scrambledNeutralFaces/scrambledBM35NES.JPG,"""",8,forwardMask,Practice,null,250,"""",n,"""","""","""","""","""","""","""",4/29/2021 19:54,201.92.156.74,Mozilla/5.0 (Windows NT 10.0; Win64; x64; rv:88.0) Gecko/20100101 Firefox/88.0,,Firefox,88,Windows,10
192,1,null,"""",image-keyboard-response,81,349646,0.0-81.0,"""",jspsych/neutralFaces/BM35NES.JPG,"""",8,Cue,Practice,null,16,"""","""","""","""","""","""","""","""","""",4/29/2021 19:54,201.92.156.74,Mozilla/5.0 (Windows NT 10.0; Win64; x64; rv:88.0) Gecko/20100101 Firefox/88.0,,Firefox,88,Windows,10
192,1,null,"""",image-keyboard-response,82,349754,0.0-82.0,"""",jspsych/neutralFaces/BM33NES.JPG,"""",8,backwardMask,Practice,null,100,"""","""","""","""","""","""","""","""","""",4/29/2021 19:54,201.92.156.74,Mozilla/5.0 (Windows NT 10.0; Win64; x64; rv:88.0) Gecko/20100101 Firefox/88.0,,Firefox,88,Windows,10
192,1,null,"""",html-keyboard-response,83,350765,0.0-83.0,"""","<div style=""font-size:60px;"">+</div>","""",8,fixationBtwnNeutralMaskAndPrompt,Practice,null,1000,"""","""","""","""","""","""","""","""","""",4/29/2021 19:54,201.92.156.74,Mozilla/5.0 (Windows NT 10.0; Win64; x64; rv:88.0) Gecko/20100101 Firefox/88.0,,Firefox,88,Windows,10
192,1,1404,"""",html-button-response,84,352172,0.0-84.0,"""","<img src='jspsych/CFDfaces/CFD-BM-010-003-N.jpg'height=""250px""></br><b>Marcus</b>",0,8,IntactOrRearranged,Practice,"""","""","""","""",CFD-BM-010-003-N.jpg,Marcus,1,"""","""",0,"""",4/29/2021 19:54,201.92.156.74,Mozilla/5.0 (Windows NT 10.0; Win64; x64; rv:88.0) Gecko/20100101 Firefox/88.0,,Firefox,88,Windows,10
192,1,2342,"""",html-slider-response,85,354515,0.0-85.0,"""","<img src='jspsych/CFDfaces/CFD-BM-010-003-N.jpg'height=""250px""></br><b>Marcus</b>","""",8,ConfidenceQuery,Practice,"""","""","""","""",CFD-BF-009-002-N.jpg,Jordan,1,0,19,"""","""",4/29/2021 19:54,201.92.156.74,Mozilla/5.0 (Windows NT 10.0; Win64; x64; rv:88.0) Gecko/20100101 Firefox/88.0,,Firefox,88,Windows,10
192,1,2711,"""",html-button-response,86,357228,0.0-86.0,"""",You are Incorrect. You called a Rearranged Pair Intact,0,8,feedback,Practice,"""","""","""","""","""","""","""","""","""","""","""",4/29/2021 19:54,201.92.156.74,Mozilla/5.0 (Windows NT 10.0; Win64; x64; rv:88.0) Gecko/20100101 Firefox/88.0,,Firefox,88,Windows,10
192,1,3795,"""",image-button-response,87,361028,0.0-87.0,"""",directionsMemoryAssociation3.JPG,0,128,DirectionsBeforeActualTEst,Break,"""","""","""","""","""","""","""","""","""","""","""",4/29/2021 19:54,201.92.156.74,Mozilla/5.0 (Windows NT 10.0; Win64; x64; rv:88.0) Gecko/20100101 Firefox/88.0,,Firefox,88,Windows,10
192,1,116082,"""",image-button-response,88,477115,0.0-88.0,"""",directionsForTest2.JPG,0,1,directionsForTest2,break,"""","""","""","""","""","""","""","""","""","""","""",4/29/2021 19:54,201.92.156.74,Mozilla/5.0 (Windows NT 10.0; Win64; x64; rv:88.0) Gecko/20100101 Firefox/88.0,,Firefox,88,Windows,10
192,1,15470,"""",html-button-response,89,492587,0.0-89.0,"""","<p>You will be asked to memorize and then recall four sets of face-name pairs. </p> <p> Each set will have 32 pairs. </p> <p>After the fourth set, there will be a brief follow-up experiment (<40 min alltogether)</p>",0,"""","""","""","""","""","""","""","""","""","""","""","""","""","""",4/29/2021 19:54,201.92.156.74,Mozilla/5.0 (Windows NT 10.0; Win64; x64; rv:88.0) Gecko/20100101 Firefox/88.0,,Firefox,88,Windows,10
192,1,null,"""",html-keyboard-response,90,497597,0.0-90.0,"""","<img src='jspsych/CFDfaces/CFD-WM-019-003-N.jpg' height=""250px""></br><b>Eric</b>","""",256,IntactFace,Memorization,null,5000,"""","""",CFD-WM-022-001-N.jpg,Ryan,0,"""","""","""",1,4/29/2021 19:54,201.92.156.74,Mozilla/5.0 (Windows NT 10.0; Win64; x64; rv:88.0) Gecko/20100101 Firefox/88.0,,Firefox,88,Windows,10
192,1,null,"""",html-keyboard-response,91,498117,0.0-91.0,"""","<div style=""font-size:60px;"">+</div>","""",256,fixation,Memorization,null,500,"""","""","""","""","""","""","""","""",1,4/29/2021 19:54,201.92.156.74,Mozilla/5.0 (Windows NT 10.0; Win64; x64; rv:88.0) Gecko/20100101 Firefox/88.0,,Firefox,88,Windows,10
192,1,null,"""",html-keyboard-response,92,503127,0.0-92.0,"""","<img src='jspsych/CFDfaces/CFD-AF-233-190-N.jpg' height=""250px""></br><b>Vanessa</b>","""",256,IntactFace,Memorization,null,5000,"""","""",CFD-WF-202-056-N.jpg,Rebecca,0,"""","""","""",1,4/29/2021 19:54,201.92.156.74,Mozilla/5.0 (Windows NT 10.0; Win64; x64; rv:88.0) Gecko/20100101 Firefox/88.0,,Firefox,88,Windows,10
192,1,null,"""",html-keyboard-response,93,503647,0.0-93.0,"""","<div style=""font-size:60px;"">+</div>","""",256,fixation,Memorization,null,500,"""","""","""","""","""","""","""","""",1,4/29/2021 19:54,201.92.156.74,Mozilla/5.0 (Windows NT 10.0; Win64; x64; rv:88.0) Gecko/20100101 Firefox/88.0,,Firefox,88,Windows,10
192,1,1687,"""",html-keyboard-response,94,508668,0.0-94.0,"""","<img src='jspsych/CFDfaces/CFD-AF-242-158-N.jpg' height=""250px""></br><b>Christina</b>","""",256,IntactFace,Memorization,78,5000,n,"""",CFD-WM-212-097-N.jpg,Vincent,0,"""","""","""",1,4/29/2021 19:54,201.92.156.74,Mozilla/5.0 (Windows NT 10.0; Win64; x64; rv:88.0) Gecko/20100101 Firefox/88.0,,Firefox,88,Windows,10
192,1,null,"""",html-keyboard-response,95,509187,0.0-95.0,"""","<div style=""font-size:60px;"">+</div>","""",256,fixation,Memorization,null,500,"""","""","""","""","""","""","""","""",1,4/29/2021 19:54,201.92.156.74,Mozilla/5.0 (Windows NT 10.0; Win64; x64; rv:88.0) Gecko/20100101 Firefox/88.0,,Firefox,88,Windows,10
192,1,1895,"""",html-keyboard-response,96,514208,0.0-96.0,"""","<img src='jspsych/CFDfaces/CFD-BF-008-001-N.jpg' height=""250px""></br><b>Elizabeth</b>","""",256,IntactFace,Memorization,78,5000,n,"""",CFD-BM-039-029-N.jpg,Cameron,0,"""","""","""",1,4/29/2021 19:54,201.92.156.74,Mozilla/5.0 (Windows NT 10.0; Win64; x64; rv:88.0) Gecko/20100101 Firefox/88.0,,Firefox,88,Windows,10
192,1,null,"""",html-keyboard-response,97,514728,0.0-97.0,"""","<div style=""font-size:60px;"">+</div>","""",256,fixation,Memorization,null,500,"""","""","""","""","""","""","""","""",1,4/29/2021 19:54,201.92.156.74,Mozilla/5.0 (Windows NT 10.0; Win64; x64; rv:88.0) Gecko/20100101 Firefox/88.0,,Firefox,88,Windows,10
192,1,1268,"""",html-keyboard-response,98,519747,0.0-98.0,"""","<img src='jspsych/CFDfaces/CFD-LM-223-175-N.jpg' height=""250px""></br><b>Ian</b>","""",256,IntactFace,Memorization,70,5000,f,"""",CFD-LM-239-075-N.jpg,Justin,0,"""","""","""",1,4/29/2021 19:54,201.92.156.74,Mozilla/5.0 (Windows NT 10.0; Win64; x64; rv:88.0) Gecko/20100101 Firefox/88.0,,Firefox,88,Windows,10
192,1,null,"""",html-keyboard-response,99,520267,0.0-99.0,"""","<div style=""font-size:60px;"">+</div>","""",256,fixation,Memorization,null,500,"""","""","""","""","""","""","""","""",1,4/29/2021 19:54,201.92.156.74,Mozilla/5.0 (Windows NT 10.0; Win64; x64; rv:88.0) Gecko/20100101 Firefox/88.0,,Firefox,88,Windows,10
192,1,1742,"""",html-keyboard-response,100,525287,0.0-100.0,"""","<img src='jspsych/CFDfaces/CFD-BM-029-024-N.jpg' height=""250px""></br><b>Jeffrey</b>","""",256,IntactFace,Memorization,70,5000,f,"""",CFD-LF-231-260-N.jpg,Heather,0,"""","""","""",1,4/29/2021 19:54,201.92.156.74,Mozilla/5.0 (Windows NT 10.0; Win64; x64; rv:88.0) Gecko/20100101 Firefox/88.0,,Firefox,88,Windows,10
192,1,null,"""",html-keyboard-response,101,525807,0.0-101.0,"""","<div style=""font-size:60px;"">+</div>","""",256,fixation,Memorization,null,500,"""","""","""","""","""","""","""","""",1,4/29/2021 19:54,201.92.156.74,Mozilla/5.0 (Windows NT 10.0; Win64; x64; rv:88.0) Gecko/20100101 Firefox/88.0,,Firefox,88,Windows,10
192,1,1500,"""",html-keyboard-response,102,530827,0.0-102.0,"""","<img src='jspsych/CFDfaces/CFD-AM-230-150-N.jpg' height=""250px""></br><b>James</b>","""",256,IntactFace,Memorization,78,5000,n,"""",CFD-BF-047-003-N.jpg,Jordan,0,"""","""","""",1,4/29/2021 19:54,201.92.156.74,Mozilla/5.0 (Windows NT 10.0; Win64; x64; rv:88.0) Gecko/20100101 Firefox/88.0,,Firefox,88,Windows,10
192,1,null,"""",html-keyboard-response,103,531347,0.0-103.0,"""","<div style=""font-size:60px;"">+</div>","""",256,fixation,Memorization,null,500,"""","""","""","""","""","""","""","""",1,4/29/2021 19:54,201.92.156.74,Mozilla/5.0 (Windows NT 10.0; Win64; x64; rv:88.0) Gecko/20100101 Firefox/88.0,,Firefox,88,Windows,10
192,1,1367,"""",html-keyboard-response,104,536368,0.0-104.0,"""","<img src='jspsych/CFDfaces/CFD-WM-222-057-N.jpg' height=""250px""></br><b>Daniel</b>","""",256,IntactFace,Memorization,70,5000,f,"""",CFD-LF-215-157-N.jpg,Lindsey,0,"""","""","""",1,4/29/2021 19:54,201.92.156.74,Mozilla/5.0 (Windows NT 10.0; Win64; x64; rv:88.0) Gecko/20100101 Firefox/88.0,,Firefox,88,Windows,10
192,1,null,"""",html-keyboard-response,105,536888,0.0-105.0,"""","<div style=""font-size:60px;"">+</div>","""",256,fixation,Memorization,null,500,"""","""","""","""","""","""","""","""",1,4/29/2021 19:54,201.92.156.74,Mozilla/5.0 (Windows NT 10.0; Win64; x64; rv:88.0) Gecko/20100101 Firefox/88.0,,Firefox,88,Windows,10
192,1,1584,"""",html-keyboard-response,106,541898,0.0-106.0,"""","<img src='jspsych/CFDfaces/CFD-AM-213-056-N.jpg' height=""250px""></br><b>Peter</b>","""",256,IntactFace,Memorization,70,5000,f,"""",CFD-LF-203-066-N.jpg,Melissa,0,"""","""","""",1,4/29/2021 19:54,201.92.156.74,Mozilla/5.0 (Windows NT 10.0; Win64; x64; rv:88.0) Gecko/20100101 Firefox/88.0,,Firefox,88,Windows,10
192,1,null,"""",html-keyboard-response,107,542416,0.0-107.0,"""","<div style=""font-size:60px;"">+</div>","""",256,fixation,Memorization,null,500,"""","""","""","""","""","""","""","""",1,4/29/2021 19:54,201.92.156.74,Mozilla/5.0 (Windows NT 10.0; Win64; x64; rv:88.0) Gecko/20100101 Firefox/88.0,,Firefox,88,Windows,10
192,1,1500,"""",html-keyboard-response,108,547438,0.0-108.0,"""","<img src='jspsych/CFDfaces/CFD-LM-201-057-N.jpg' height=""250px""></br><b>Gregory</b>","""",256,IntactFace,Memorization,78,5000,n,"""",CFD-AM-211-052-N.jpg,Travis,0,"""","""","""",1,4/29/2021 19:54,201.92.156.74,Mozilla/5.0 (Windows NT 10.0; Win64; x64; rv:88.0) Gecko/20100101 Firefox/88.0,,Firefox,88,Windows,10
192,1,null,"""",html-keyboard-response,109,547958,0.0-109.0,"""","<div style=""font-size:60px;"">+</div>","""",256,fixation,Memorization,null,500,"""","""","""","""","""","""","""","""",1,4/29/2021 19:54,201.92.156.74,Mozilla/5.0 (Windows NT 10.0; Win64; x64; rv:88.0) Gecko/20100101 Firefox/88.0,,Firefox,88,Windows,10
192,1,1173,"""",html-keyboard-response,110,552967,0.0-110.0,"""","<img src='jspsych/CFDfaces/CFD-WF-017-003-N.jpg' height=""250px""></br><b>Stephanie</b>","""",256,IntactFace,Memorization,70,5000,f,"""",CFD-LF-239-148-N.jpg,Jasmine,0,"""","""","""",1,4/29/2021 19:54,201.92.156.74,Mozilla/5.0 (Windows NT 10.0; Win64; x64; rv:88.0) Gecko/20100101 Firefox/88.0,,Firefox,88,Windows,10
192,1,null,"""",html-keyboard-response,111,553487,0.0-111.0,"""","<div style=""font-size:60px;"">+</div>","""",256,fixation,Memorization,null,500,"""","""","""","""","""","""","""","""",1,4/29/2021 19:54,201.92.156.74,Mozilla/5.0 (Windows NT 10.0; Win64; x64; rv:88.0) Gecko/20100101 Firefox/88.0,,Firefox,88,Windows,10
192,1,2244,"""",html-keyboard-response,112,558498,0.0-112.0,"""","<img src='jspsych/CFDfaces/CFD-BM-026-002-N.jpg' height=""250px""></br><b>Brandon</b>","""",256,IntactFace,Memorization,70,5000,f,"""",CFD-LF-200-058-N.jpg,Whitney,0,"""","""","""",1,4/29/2021 19:54,201.92.156.74,Mozilla/5.0 (Windows NT 10.0; Win64; x64; rv:88.0) Gecko/20100101 Firefox/88.0,,Firefox,88,Windows,10
192,1,null,"""",html-keyboard-response,113,559018,0.0-113.0,"""","<div style=""font-size:60px;"">+</div>","""",256,fixation,Memorization,null,500,"""","""","""","""","""","""","""","""",1,4/29/2021 19:54,201.92.156.74,Mozilla/5.0 (Windows NT 10.0; Win64; x64; rv:88.0) Gecko/20100101 Firefox/88.0,,Firefox,88,Windows,10
192,1,1458,"""",html-keyboard-response,114,564028,0.0-114.0,"""","<img src='jspsych/CFDfaces/CFD-AF-230-193-N.jpg' height=""250px""></br><b>Emily</b>","""",256,IntactFace,Memorization,70,5000,f,"""",CFD-BM-032-024-N.jpg,Timothy,0,"""","""","""",1,4/29/2021 19:54,201.92.156.74,Mozilla/5.0 (Windows NT 10.0; Win64; x64; rv:88.0) Gecko/20100101 Firefox/88.0,,Firefox,88,Windows,10
192,1,null,"""",html-keyboard-response,115,564537,0.0-115.0,"""","<div style=""font-size:60px;"">+</div>","""",256,fixation,Memorization,null,500,"""","""","""","""","""","""","""","""",1,4/29/2021 19:54,201.92.156.74,Mozilla/5.0 (Windows NT 10.0; Win64; x64; rv:88.0) Gecko/20100101 Firefox/88.0,,Firefox,88,Windows,10
192,1,1330,"""",html-keyboard-response,116,569547,0.0-116.0,"""","<img src='jspsych/CFDfaces/CFD-BF-039-031-N.jpg' height=""250px""></br><b>Brittany</b>","""",256,IntactFace,Memorization,78,5000,n,"""",CFD-LM-219-295-N.jpg,Jesse,0,"""","""","""",1,4/29/2021 19:54,201.92.156.74,Mozilla/5.0 (Windows NT 10.0; Win64; x64; rv:88.0) Gecko/20100101 Firefox/88.0,,Firefox,88,Windows,10
192,1,null,"""",html-keyboard-response,117,570068,0.0-117.0,"""","<div style=""font-size:60px;"">+</div>","""",256,fixation,Memorization,null,500,"""","""","""","""","""","""","""","""",1,4/29/2021 19:54,201.92.156.74,Mozilla/5.0 (Windows NT 10.0; Win64; x64; rv:88.0) Gecko/20100101 Firefox/88.0,,Firefox,88,Windows,10
192,1,978,"""",html-keyboard-response,118,575078,0.0-118.0,"""","<img src='jspsych/CFDfaces/CFD-AF-237-223-N.jpg' height=""250px""></br><b>Kimberly</b>","""",256,IntactFace,Memorization,70,5000,f,"""",CFD-BF-221-223-N.jpg,Jenna,0,"""","""","""",1,4/29/2021 19:54,201.92.156.74,Mozilla/5.0 (Windows NT 10.0; Win64; x64; rv:88.0) Gecko/20100101 Firefox/88.0,,Firefox,88,Windows,10
192,1,null,"""",html-keyboard-response,119,575598,0.0-119.0,"""","<div style=""font-size:60px;"">+</div>","""",256,fixation,Memorization,null,500,"""","""","""","""","""","""","""","""",1,4/29/2021 19:54,201.92.156.74,Mozilla/5.0 (Windows NT 10.0; Win64; x64; rv:88.0) Gecko/20100101 Firefox/88.0,,Firefox,88,Windows,10
192,1,1640,"""",html-keyboard-response,120,580618,0.0-120.0,"""","<img src='jspsych/CFDfaces/CFD-LF-210-220-N.jpg' height=""250px""></br><b>Meghan</b>","""",256,IntactFace,Memorization,70,5000,f,"""",CFD-BF-201-080-N.jpg,Erin,0,"""","""","""",1,4/29/2021 19:54,201.92.156.74,Mozilla/5.0 (Windows NT 10.0; Win64; x64; rv:88.0) Gecko/20100101 Firefox/88.0,,Firefox,88,Windows,10
192,1,null,"""",html-keyboard-response,121,581137,0.0-121.0,"""","<div style=""font-size:60px;"">+</div>","""",256,fixation,Memorization,null,500,"""","""","""","""","""","""","""","""",1,4/29/2021 19:54,201.92.156.74,Mozilla/5.0 (Windows NT 10.0; Win64; x64; rv:88.0) Gecko/20100101 Firefox/88.0,,Firefox,88,Windows,10
192,1,1385,"""",html-keyboard-response,122,586148,0.0-122.0,"""","<img src='jspsych/CFDfaces/CFD-LF-213-079-N.jpg' height=""250px""></br><b>Andrea</b>","""",256,IntactFace,Memorization,70,5000,f,"""",CFD-BF-021-013-N.jpg,Taylor,0,"""","""","""",1,4/29/2021 19:54,201.92.156.74,Mozilla/5.0 (Windows NT 10.0; Win64; x64; rv:88.0) Gecko/20100101 Firefox/88.0,,Firefox,88,Windows,10
192,1,null,"""",html-keyboard-response,123,586667,0.0-123.0,"""","<div style=""font-size:60px;"">+</div>","""",256,fixation,Memorization,null,500,"""","""","""","""","""","""","""","""",1,4/29/2021 19:54,201.92.156.74,Mozilla/5.0 (Windows NT 10.0; Win64; x64; rv:88.0) Gecko/20100101 Firefox/88.0,,Firefox,88,Windows,10
192,1,975,"""",html-keyboard-response,124,591678,0.0-124.0,"""","<img src='jspsych/CFDfaces/CFD-AM-248-104-N.jpg' height=""250px""></br><b>Robert</b>","""",256,IntactFace,Memorization,70,5000,f,"""",CFD-AF-208-003-N.jpg,Amy,0,"""","""","""",1,4/29/2021 19:54,201.92.156.74,Mozilla/5.0 (Windows NT 10.0; Win64; x64; rv:88.0) Gecko/20100101 Firefox/88.0,,Firefox,88,Windows,10
192,1,null,"""",html-keyboard-response,125,592197,0.0-125.0,"""","<div style=""font-size:60px;"">+</div>","""",256,fixation,Memorization,null,500,"""","""","""","""","""","""","""","""",1,4/29/2021 19:54,201.92.156.74,Mozilla/5.0 (Windows NT 10.0; Win64; x64; rv:88.0) Gecko/20100101 Firefox/88.0,,Firefox,88,Windows,10
192,1,936,"""",html-keyboard-response,126,597212,0.0-126.0,"""","<img src='jspsych/CFDfaces/CFD-BF-010-001-N.jpg' height=""250px""></br><b>Michelle</b>","""",256,IntactFace,Memorization,78,5000,n,"""",CFD-LM-224-162-N.jpg,Luis,0,"""","""","""",1,4/29/2021 19:54,201.92.156.74,Mozilla/5.0 (Windows NT 10.0; Win64; x64; rv:88.0) Gecko/20100101 Firefox/88.0,,Firefox,88,Windows,10
192,1,null,"""",html-keyboard-response,127,597727,0.0-127.0,"""","<div style=""font-size:60px;"">+</div>","""",256,fixation,Memorization,null,500,"""","""","""","""","""","""","""","""",1,4/29/2021 19:54,201.92.156.74,Mozilla/5.0 (Windows NT 10.0; Win64; x64; rv:88.0) Gecko/20100101 Firefox/88.0,,Firefox,88,Windows,10
192,1,1722,"""",html-keyboard-response,128,602748,0.0-128.0,"""","<img src='jspsych/CFDfaces/CFD-BM-208-065-N.jpg' height=""250px""></br><b>Christian</b>","""",256,IntactFace,Memorization,70,5000,f,"""",CFD-AF-215-70-N.jpg,Angela,0,"""","""","""",1,4/29/2021 19:54,201.92.156.74,Mozilla/5.0 (Windows NT 10.0; Win64; x64; rv:88.0) Gecko/20100101 Firefox/88.0,,Firefox,88,Windows,10
192,1,null,"""",html-keyboard-response,129,603267,0.0-129.0,"""","<div style=""font-size:60px;"">+</div>","""",256,fixation,Memorization,null,500,"""","""","""","""","""","""","""","""",1,4/29/2021 19:54,201.92.156.74,Mozilla/5.0 (Windows NT 10.0; Win64; x64; rv:88.0) Gecko/20100101 Firefox/88.0,,Firefox,88,Windows,10
192,1,1641,"""",html-keyboard-response,130,608287,0.0-130.0,"""","<img src='jspsych/CFDfaces/CFD-AF-235-170-N.jpg' height=""250px""></br><b>Ashley</b>","""",256,IntactFace,Memorization,78,5000,n,"""",CFD-BF-009-002-N.jpg,Lauren,0,"""","""","""",1,4/29/2021 19:54,201.92.156.74,Mozilla/5.0 (Windows NT 10.0; Win64; x64; rv:88.0) Gecko/20100101 Firefox/88.0,,Firefox,88,Windows,10
192,1,null,"""",html-keyboard-response,131,608808,0.0-131.0,"""","<div style=""font-size:60px;"">+</div>","""",256,fixation,Memorization,null,500,"""","""","""","""","""","""","""","""",1,4/29/2021 19:54,201.92.156.74,Mozilla/5.0 (Windows NT 10.0; Win64; x64; rv:88.0) Gecko/20100101 Firefox/88.0,,Firefox,88,Windows,10
192,1,992,"""",html-keyboard-response,132,613827,0.0-132.0,"""","<img src='jspsych/CFDfaces/CFD-AM-238-269-N.jpg' height=""250px""></br><b>Juan</b>","""",256,IntactFace,Memorization,70,5000,f,"""",CFD-LM-246-087-N.jpg,Kenneth,0,"""","""","""",1,4/29/2021 19:54,201.92.156.74,Mozilla/5.0 (Windows NT 10.0; Win64; x64; rv:88.0) Gecko/20100101 Firefox/88.0,,Firefox,88,Windows,10
192,1,null,"""",html-keyboard-response,133,614348,0.0-133.0,"""","<div style=""font-size:60px;"">+</div>","""",256,fixation,Memorization,null,500,"""","""","""","""","""","""","""","""",1,4/29/2021 19:54,201.92.156.74,Mozilla/5.0 (Windows NT 10.0; Win64; x64; rv:88.0) Gecko/20100101 Firefox/88.0,,Firefox,88,Windows,10
192,1,798,"""",html-keyboard-response,134,619358,0.0-134.0,"""","<img src='jspsych/CFDfaces/CFD-BF-212-315-N.jpg' height=""250px""></br><b>Julie</b>","""",256,IntactFace,Memorization,70,5000,f,"""",CFD-AF-228-173-N.jpg,Sara,0,"""","""","""",1,4/29/2021 19:54,201.92.156.74,Mozilla/5.0 (Windows NT 10.0; Win64; x64; rv:88.0) Gecko/20100101 Firefox/88.0,,Firefox,88,Windows,10
192,1,null,"""",html-keyboard-response,135,619875,0.0-135.0,"""","<div style=""font-size:60px;"">+</div>","""",256,fixation,Memorization,null,500,"""","""","""","""","""","""","""","""",1,4/29/2021 19:54,201.92.156.74,Mozilla/5.0 (Windows NT 10.0; Win64; x64; rv:88.0) Gecko/20100101 Firefox/88.0,,Firefox,88,Windows,10
192,1,1224,"""",html-keyboard-response,136,624877,0.0-136.0,"""","<img src='jspsych/CFDfaces/CFD-BF-004-014-N.jpg' height=""250px""></br><b>Samantha</b>","""",256,IntactFace,Memorization,78,5000,n,"""",CFD-AM-228-214-N.jpg,Austin,0,"""","""","""",1,4/29/2021 19:54,201.92.156.74,Mozilla/5.0 (Windows NT 10.0; Win64; x64; rv:88.0) Gecko/20100101 Firefox/88.0,,Firefox,88,Windows,10
192,1,null,"""",html-keyboard-response,137,625398,0.0-137.0,"""","<div style=""font-size:60px;"">+</div>","""",256,fixation,Memorization,null,500,"""","""","""","""","""","""","""","""",1,4/29/2021 19:54,201.92.156.74,Mozilla/5.0 (Windows NT 10.0; Win64; x64; rv:88.0) Gecko/20100101 Firefox/88.0,,Firefox,88,Windows,10
192,1,1154,"""",html-keyboard-response,138,630418,0.0-138.0,"""","<img src='jspsych/CFDfaces/CFD-WF-220-101-N.jpg' height=""250px""></br><b>Amanda</b>","""",256,IntactFace,Memorization,70,5000,f,"""",CFD-AM-237-154-N.jpg,Steven,0,"""","""","""",1,4/29/2021 19:54,201.92.156.74,Mozilla/5.0 (Windows NT 10.0; Win64; x64; rv:88.0) Gecko/20100101 Firefox/88.0,,Firefox,88,Windows,10
192,1,null,"""",html-keyboard-response,139,630938,0.0-139.0,"""","<div style=""font-size:60px;"">+</div>","""",256,fixation,Memorization,null,500,"""","""","""","""","""","""","""","""",1,4/29/2021 19:54,201.92.156.74,Mozilla/5.0 (Windows NT 10.0; Win64; x64; rv:88.0) Gecko/20100101 Firefox/88.0,,Firefox,88,Windows,10
192,1,1089,"""",html-keyboard-response,140,635948,0.0-140.0,"""","<img src='jspsych/CFDfaces/CFD-BM-211-174-N.jpg' height=""250px""></br><b>Jason</b>","""",256,IntactFace,Memorization,78,5000,n,"""",CFD-BM-210-148-N.jpg,Jacob,0,"""","""","""",1,4/29/2021 19:54,201.92.156.74,Mozilla/5.0 (Windows NT 10.0; Win64; x64; rv:88.0) Gecko/20100101 Firefox/88.0,,Firefox,88,Windows,10
192,1,null,"""",html-keyboard-response,141,636467,0.0-141.0,"""","<div style=""font-size:60px;"">+</div>","""",256,fixation,Memorization,null,500,"""","""","""","""","""","""","""","""",1,4/29/2021 19:54,201.92.156.74,Mozilla/5.0 (Windows NT 10.0; Win64; x64; rv:88.0) Gecko/20100101 Firefox/88.0,,Firefox,88,Windows,10
192,1,1017,"""",html-keyboard-response,142,641477,0.0-142.0,"""","<img src='jspsych/CFDfaces/CFD-BM-002-013-N.jpg' height=""250px""></br><b>Brian</b>","""",256,IntactFace,Memorization,70,5000,f,"""",CFD-WM-011-002-N.jpg,Mark,0,"""","""","""",1,4/29/2021 19:54,201.92.156.74,Mozilla/5.0 (Windows NT 10.0; Win64; x64; rv:88.0) Gecko/20100101 Firefox/88.0,,Firefox,88,Windows,10
192,1,null,"""",html-keyboard-response,143,641988,0.0-143.0,"""","<div style=""font-size:60px;"">+</div>","""",256,fixation,Memorization,null,500,"""","""","""","""","""","""","""","""",1,4/29/2021 19:54,201.92.156.74,Mozilla/5.0 (Windows NT 10.0; Win64; x64; rv:88.0) Gecko/20100101 Firefox/88.0,,Firefox,88,Windows,10
192,1,1080,"""",html-keyboard-response,144,647007,0.0-144.0,"""","<img src='jspsych/CFDfaces/CFD-BM-018-001-N.jpg' height=""250px""></br><b>Richard</b>","""",256,IntactFace,Memorization,70,5000,f,"""",CFD-AF-241-141-N.jpg,Laura,0,"""","""","""",1,4/29/2021 19:54,201.92.156.74,Mozilla/5.0 (Windows NT 10.0; Win64; x64; rv:88.0) Gecko/20100101 Firefox/88.0,,Firefox,88,Windows,10
192,1,null,"""",html-keyboard-response,145,647528,0.0-145.0,"""","<div style=""font-size:60px;"">+</div>","""",256,fixation,Memorization,null,500,"""","""","""","""","""","""","""","""",1,4/29/2021 19:54,201.92.156.74,Mozilla/5.0 (Windows NT 10.0; Win64; x64; rv:88.0) Gecko/20100101 Firefox/88.0,,Firefox,88,Windows,10
192,1,1188,"""",html-keyboard-response,146,652546,0.0-146.0,"""","<img src='jspsych/CFDfaces/CFD-LM-209-111-N.jpg' height=""250px""></br><b>Joshua</b>","""",256,IntactFace,Memorization,78,5000,n,"""",CFD-LM-233-171-N.jpg,Dustin,0,"""","""","""",1,4/29/2021 19:54,201.92.156.74,Mozilla/5.0 (Windows NT 10.0; Win64; x64; rv:88.0) Gecko/20100101 Firefox/88.0,,Firefox,88,Windows,10
192,1,null,"""",html-keyboard-response,147,653068,0.0-147.0,"""","<div style=""font-size:60px;"">+</div>","""",256,fixation,Memorization,null,500,"""","""","""","""","""","""","""","""",1,4/29/2021 19:54,201.92.156.74,Mozilla/5.0 (Windows NT 10.0; Win64; x64; rv:88.0) Gecko/20100101 Firefox/88.0,,Firefox,88,Windows,10
192,1,988,"""",html-keyboard-response,148,658078,0.0-148.0,"""","<img src='jspsych/CFDfaces/CFD-AF-200-228-N.jpg' height=""250px""></br><b>Kayla</b>","""",256,IntactFace,Memorization,70,5000,f,"""",CFD-WM-003-002-N.jpg,Sean,0,"""","""","""",1,4/29/2021 19:54,201.92.156.74,Mozilla/5.0 (Windows NT 10.0; Win64; x64; rv:88.0) Gecko/20100101 Firefox/88.0,,Firefox,88,Windows,10
192,1,null,"""",html-keyboard-response,149,658597,0.0-149.0,"""","<div style=""font-size:60px;"">+</div>","""",256,fixation,Memorization,null,500,"""","""","""","""","""","""","""","""",1,4/29/2021 19:54,201.92.156.74,Mozilla/5.0 (Windows NT 10.0; Win64; x64; rv:88.0) Gecko/20100101 Firefox/88.0,,Firefox,88,Windows,10
192,1,1318,"""",html-keyboard-response,150,663607,0.0-150.0,"""","<img src='jspsych/CFDfaces/CFD-AM-243-212-N.jpg' height=""250px""></br><b>Nicholas</b>","""",256,IntactFace,Memorization,70,5000,f,"""",CFD-WF-217-085-N.jpg,Tiffany,0,"""","""","""",1,4/29/2021 19:54,201.92.156.74,Mozilla/5.0 (Windows NT 10.0; Win64; x64; rv:88.0) Gecko/20100101 Firefox/88.0,,Firefox,88,Windows,10
192,1,null,"""",html-keyboard-response,151,664118,0.0-151.0,"""","<div style=""font-size:60px;"">+</div>","""",256,fixation,Memorization,null,500,"""","""","""","""","""","""","""","""",1,4/29/2021 19:54,201.92.156.74,Mozilla/5.0 (Windows NT 10.0; Win64; x64; rv:88.0) Gecko/20100101 Firefox/88.0,,Firefox,88,Windows,10
192,1,1456,"""",html-keyboard-response,152,669127,0.0-152.0,"""","<img src='jspsych/CFDfaces/CFD-WF-218-087-N.jpg' height=""250px""></br><b>Victoria</b>","""",256,IntactFace,Memorization,70,5000,f,"""",CFD-BM-022-022-N.jpg,Jeremy,0,"""","""","""",1,4/29/2021 19:54,201.92.156.74,Mozilla/5.0 (Windows NT 10.0; Win64; x64; rv:88.0) Gecko/20100101 Firefox/88.0,,Firefox,88,Windows,10
192,1,null,"""",html-keyboard-response,153,669648,0.0-153.0,"""","<div style=""font-size:60px;"">+</div>","""",256,fixation,Memorization,null,500,"""","""","""","""","""","""","""","""",1,4/29/2021 19:54,201.92.156.74,Mozilla/5.0 (Windows NT 10.0; Win64; x64; rv:88.0) Gecko/20100101 Firefox/88.0,,Firefox,88,Windows,10
192,1,4760,"""",html-keyboard-response,154,674413,0.0-154.0,"""",Press Any Key to Begin Memory Test,"""",1,welcomeScreen,Break,32,"""","""","""","""","""","""","""","""","""",1,4/29/2021 19:54,201.92.156.74,Mozilla/5.0 (Windows NT 10.0; Win64; x64; rv:88.0) Gecko/20100101 Firefox/88.0,,Firefox,88,Windows,10
192,1,null,"""",html-keyboard-response,155,675427,0.0-155.0,"""","<div style=""font-size:60px;"">+</div>","""",256,ITI,Test,null,1000,"""","""","""","""","""","""","""","""",1,4/29/2021 19:54,201.92.156.74,Mozilla/5.0 (Windows NT 10.0; Win64; x64; rv:88.0) Gecko/20100101 Firefox/88.0,,Firefox,88,Windows,10
192,1,null,"""",image-keyboard-response,156,675707,0.0-156.0,"""",jspsych/scrambledNeutralFaces/scrambledAF21NES.JPG,"""",256,forwardMask,Test,null,250,"""",n,"""","""","""","""","""","""",1,4/29/2021 19:54,201.92.156.74,Mozilla/5.0 (Windows NT 10.0; Win64; x64; rv:88.0) Gecko/20100101 Firefox/88.0,,Firefox,88,Windows,10
192,1,null,"""",image-keyboard-response,157,675727,0.0-157.0,"""",jspsych/neutralFaces/AF21NES.JPG,"""",256,Cue,Test,null,16,"""","""","""","""","""","""","""","""",1,4/29/2021 19:54,201.92.156.74,Mozilla/5.0 (Windows NT 10.0; Win64; x64; rv:88.0) Gecko/20100101 Firefox/88.0,,Firefox,88,Windows,10
192,1,null,"""",image-keyboard-response,158,675847,0.0-158.0,"""",jspsych/neutralFaces/BF09NES.JPG,"""",256,backwardMask,Test,null,100,"""","""","""","""","""","""","""","""",1,4/29/2021 19:54,201.92.156.74,Mozilla/5.0 (Windows NT 10.0; Win64; x64; rv:88.0) Gecko/20100101 Firefox/88.0,,Firefox,88,Windows,10
192,1,null,"""",html-keyboard-response,159,676867,0.0-159.0,"""","<div style=""font-size:60px;"">+</div>","""",256,fixationBtwnNeutralMaskAndPrompt,Test,null,1000,"""","""","""","""","""","""","""","""",1,4/29/2021 19:54,201.92.156.74,Mozilla/5.0 (Windows NT 10.0; Win64; x64; rv:88.0) Gecko/20100101 Firefox/88.0,,Firefox,88,Windows,10
192,1,1639,"""",html-button-response,160,678507,0.0-160.0,"""","<img src='jspsych/CFDfaces/CFD-AM-213-056-N.jpg' height=""250px"">,</br><b>Peter</b>",0,256,IntactOrRearranged,Test,"""","""","""","""",CFD-BF-047-003-N.jpg,Jenna,0,"""","""",0,1,4/29/2021 19:54,201.92.156.74,Mozilla/5.0 (Windows NT 10.0; Win64; x64; rv:88.0) Gecko/20100101 Firefox/88.0,,Firefox,88,Windows,10
192,1,null,"""",html-slider-response,161,683528,0.0-161.0,"""","<img src='jspsych/CFDfaces/CFD-AM-213-056-N.jpg' height=""250px"">,</br><b>Peter</b>","""",256,ConfidenceQuery,Test,"""","""","""","""",CFD-BF-047-003-N.jpg,Jenna,0,0,null,"""",1,4/29/2021 19:54,201.92.156.74,Mozilla/5.0 (Windows NT 10.0; Win64; x64; rv:88.0) Gecko/20100101 Firefox/88.0,,Firefox,88,Windows,10
192,1,null,"""",html-keyboard-response,162,684537,0.0-162.0,"""","<div style=""font-size:60px;"">+</div>","""",256,ITI,Test,null,1000,"""","""","""","""","""","""","""","""",1,4/29/2021 19:54,201.92.156.74,Mozilla/5.0 (Windows NT 10.0; Win64; x64; rv:88.0) Gecko/20100101 Firefox/88.0,,Firefox,88,Windows,10
192,1,null,"""",image-keyboard-response,163,684798,0.0-163.0,"""",jspsych/scrambledNeutralFaces/scrambledAM11NES.JPG,"""",256,forwardMask,Test,null,250,"""",n,"""","""","""","""","""","""",1,4/29/2021 19:54,201.92.156.74,Mozilla/5.0 (Windows NT 10.0; Win64; x64; rv:88.0) Gecko/20100101 Firefox/88.0,,Firefox,88,Windows,10
192,1,null,"""",image-keyboard-response,164,684837,0.0-164.0,"""",jspsych/neutralFaces/AM11NES.JPG,"""",256,Cue,Test,null,16,"""","""","""","""","""","""","""","""",1,4/29/2021 19:54,201.92.156.74,Mozilla/5.0 (Windows NT 10.0; Win64; x64; rv:88.0) Gecko/20100101 Firefox/88.0,,Firefox,88,Windows,10
192,1,null,"""",image-keyboard-response,165,684957,0.0-165.0,"""",jspsych/neutralFaces/AM17NES.JPG,"""",256,backwardMask,Test,null,100,"""","""","""","""","""","""","""","""",1,4/29/2021 19:54,201.92.156.74,Mozilla/5.0 (Windows NT 10.0; Win64; x64; rv:88.0) Gecko/20100101 Firefox/88.0,,Firefox,88,Windows,10
192,1,null,"""",html-keyboard-response,166,685977,0.0-166.0,"""","<div style=""font-size:60px;"">+</div>","""",256,fixationBtwnNeutralMaskAndPrompt,Test,null,1000,"""","""","""","""","""","""","""","""",1,4/29/2021 19:54,201.92.156.74,Mozilla/5.0 (Windows NT 10.0; Win64; x64; rv:88.0) Gecko/20100101 Firefox/88.0,,Firefox,88,Windows,10
192,1,1514,"""",html-button-response,167,687492,0.0-167.0,"""","<img src='jspsych/CFDfaces/CFD-AF-200-228-N.jpg' height=""250px"">,</br><b>Kayla</b>",1,256,IntactOrRearranged,Test,"""","""","""","""",CFD-WF-217-085-N.jpg,Tiffany,0,"""","""",1,1,4/29/2021 19:54,201.92.156.74,Mozilla/5.0 (Windows NT 10.0; Win64; x64; rv:88.0) Gecko/20100101 Firefox/88.0,,Firefox,88,Windows,10
192,1,2807,"""",html-slider-response,168,690300,0.0-168.0,"""","<img src='jspsych/CFDfaces/CFD-AF-200-228-N.jpg' height=""250px"">,</br><b>Kayla</b>","""",256,ConfidenceQuery,Test,"""","""","""","""",CFD-WF-217-085-N.jpg,Tiffany,0,0,61,"""",1,4/29/2021 19:54,201.92.156.74,Mozilla/5.0 (Windows NT 10.0; Win64; x64; rv:88.0) Gecko/20100101 Firefox/88.0,,Firefox,88,Windows,10
192,1,null,"""",html-keyboard-response,169,691322,0.0-169.0,"""","<div style=""font-size:60px;"">+</div>","""",256,ITI,Test,null,1000,"""","""","""","""","""","""","""","""",1,4/29/2021 19:54,201.92.156.74,Mozilla/5.0 (Windows NT 10.0; Win64; x64; rv:88.0) Gecko/20100101 Firefox/88.0,,Firefox,88,Windows,10
192,1,null,"""",image-keyboard-response,170,691588,0.0-170.0,"""",jspsych/scrambledNeutralFaces/scrambledAM14NES.JPG,"""",256,forwardMask,Test,null,250,"""",n,"""","""","""","""","""","""",1,4/29/2021 19:54,201.92.156.74,Mozilla/5.0 (Windows NT 10.0; Win64; x64; rv:88.0) Gecko/20100101 Firefox/88.0,,Firefox,88,Windows,10
192,1,null,"""",image-keyboard-response,171,691607,0.0-171.0,"""",jspsych/neutralFaces/AM14NES.JPG,"""",256,Cue,Test,null,16,"""","""","""","""","""","""","""","""",1,4/29/2021 19:54,201.92.156.74,Mozilla/5.0 (Windows NT 10.0; Win64; x64; rv:88.0) Gecko/20100101 Firefox/88.0,,Firefox,88,Windows,10
192,1,null,"""",image-keyboard-response,172,691727,0.0-172.0,"""",jspsych/neutralFaces/AM25NES.JPG,"""",256,backwardMask,Test,null,100,"""","""","""","""","""","""","""","""",1,4/29/2021 19:54,201.92.156.74,Mozilla/5.0 (Windows NT 10.0; Win64; x64; rv:88.0) Gecko/20100101 Firefox/88.0,,Firefox,88,Windows,10
192,1,null,"""",html-keyboard-response,173,692747,0.0-173.0,"""","<div style=""font-size:60px;"">+</div>","""",256,fixationBtwnNeutralMaskAndPrompt,Test,null,1000,"""","""","""","""","""","""","""","""",1,4/29/2021 19:54,201.92.156.74,Mozilla/5.0 (Windows NT 10.0; Win64; x64; rv:88.0) Gecko/20100101 Firefox/88.0,,Firefox,88,Windows,10
192,1,2009,"""",html-button-response,174,694756,0.0-174.0,"""","<img src='jspsych/CFDfaces/CFD-WM-019-003-N.jpg' height=""250px"">,</br><b>Gregory</b>",1,256,IntactOrRearranged,Test,"""","""","""","""",CFD-LM-219-295-N.jpg,Kenneth,1,"""","""",1,1,4/29/2021 19:54,201.92.156.74,Mozilla/5.0 (Windows NT 10.0; Win64; x64; rv:88.0) Gecko/20100101 Firefox/88.0,,Firefox,88,Windows,10
192,1,2719,"""",html-slider-response,175,697476,0.0-175.0,"""","<img src='jspsych/CFDfaces/CFD-WM-019-003-N.jpg' height=""250px"">,</br><b>Gregory</b>","""",256,ConfidenceQuery,Test,"""","""","""","""",CFD-LM-219-295-N.jpg,Kenneth,1,0,58,"""",1,4/29/2021 19:54,201.92.156.74,Mozilla/5.0 (Windows NT 10.0; Win64; x64; rv:88.0) Gecko/20100101 Firefox/88.0,,Firefox,88,Windows,10
192,1,null,"""",html-keyboard-response,176,698498,0.0-176.0,"""","<div style=""font-size:60px;"">+</div>","""",256,ITI,Test,null,1000,"""","""","""","""","""","""","""","""",1,4/29/2021 19:54,201.92.156.74,Mozilla/5.0 (Windows NT 10.0; Win64; x64; rv:88.0) Gecko/20100101 Firefox/88.0,,Firefox,88,Windows,10
192,1,null,"""",image-keyboard-response,177,698760,0.0-177.0,"""",jspsych/scrambledNeutralFaces/scrambledAM04NES.JPG,"""",256,forwardMask,Test,null,250,"""",n,"""","""","""","""","""","""",1,4/29/2021 19:54,201.92.156.74,Mozilla/5.0 (Windows NT 10.0; Win64; x64; rv:88.0) Gecko/20100101 Firefox/88.0,,Firefox,88,Windows,10
192,1,null,"""",image-keyboard-response,178,698791,0.0-178.0,"""",jspsych/neutralFaces/AM04NES.JPG,"""",256,Cue,Test,null,16,"""","""","""","""","""","""","""","""",1,4/29/2021 19:54,201.92.156.74,Mozilla/5.0 (Windows NT 10.0; Win64; x64; rv:88.0) Gecko/20100101 Firefox/88.0,,Firefox,88,Windows,10
192,1,null,"""",image-keyboard-response,179,698901,0.0-179.0,"""",jspsych/neutralFaces/BM25NES.JPG,"""",256,backwardMask,Test,null,100,"""","""","""","""","""","""","""","""",1,4/29/2021 19:54,201.92.156.74,Mozilla/5.0 (Windows NT 10.0; Win64; x64; rv:88.0) Gecko/20100101 Firefox/88.0,,Firefox,88,Windows,10
192,1,null,"""",html-keyboard-response,180,699917,0.0-180.0,"""","<div style=""font-size:60px;"">+</div>","""",256,fixationBtwnNeutralMaskAndPrompt,Test,null,1000,"""","""","""","""","""","""","""","""",1,4/29/2021 19:54,201.92.156.74,Mozilla/5.0 (Windows NT 10.0; Win64; x64; rv:88.0) Gecko/20100101 Firefox/88.0,,Firefox,88,Windows,10
192,1,1742,"""",html-button-response,181,701660,0.0-181.0,"""","<img src='jspsych/CFDfaces/CFD-AF-230-193-N.jpg' height=""250px"">,</br><b>Andrea</b>",1,256,IntactOrRearranged,Test,"""","""","""","""",CFD-LM-224-162-N.jpg,Luis,1,"""","""",1,1,4/29/2021 19:54,201.92.156.74,Mozilla/5.0 (Windows NT 10.0; Win64; x64; rv:88.0) Gecko/20100101 Firefox/88.0,,Firefox,88,Windows,10
192,1,2678,"""",html-slider-response,182,704339,0.0-182.0,"""","<img src='jspsych/CFDfaces/CFD-AF-230-193-N.jpg' height=""250px"">,</br><b>Andrea</b>","""",256,ConfidenceQuery,Test,"""","""","""","""",CFD-LM-224-162-N.jpg,Luis,1,0,100,"""",1,4/29/2021 19:54,201.92.156.74,Mozilla/5.0 (Windows NT 10.0; Win64; x64; rv:88.0) Gecko/20100101 Firefox/88.0,,Firefox,88,Windows,10
192,1,null,"""",html-keyboard-response,183,705357,0.0-183.0,"""","<div style=""font-size:60px;"">+</div>","""",256,ITI,Test,null,1000,"""","""","""","""","""","""","""","""",1,4/29/2021 19:54,201.92.156.74,Mozilla/5.0 (Windows NT 10.0; Win64; x64; rv:88.0) Gecko/20100101 Firefox/88.0,,Firefox,88,Windows,10
192,1,null,"""",image-keyboard-response,184,705617,0.0-184.0,"""",jspsych/scrambledNeutralFaces/scrambledAM30NES.JPG,"""",256,forwardMask,Test,null,250,"""",n,"""","""","""","""","""","""",1,4/29/2021 19:54,201.92.156.74,Mozilla/5.0 (Windows NT 10.0; Win64; x64; rv:88.0) Gecko/20100101 Firefox/88.0,,Firefox,88,Windows,10
192,1,null,"""",image-keyboard-response,185,705657,0.0-185.0,"""",jspsych/neutralFaces/AM30NES.JPG,"""",256,Cue,Test,null,16,"""","""","""","""","""","""","""","""",1,4/29/2021 19:54,201.92.156.74,Mozilla/5.0 (Windows NT 10.0; Win64; x64; rv:88.0) Gecko/20100101 Firefox/88.0,,Firefox,88,Windows,10
192,1,null,"""",image-keyboard-response,186,705776,0.0-186.0,"""",jspsych/neutralFaces/AM28NES.JPG,"""",256,backwardMask,Test,null,100,"""","""","""","""","""","""","""","""",1,4/29/2021 19:54,201.92.156.74,Mozilla/5.0 (Windows NT 10.0; Win64; x64; rv:88.0) Gecko/20100101 Firefox/88.0,,Firefox,88,Windows,10
192,1,null,"""",html-keyboard-response,187,706797,0.0-187.0,"""","<div style=""font-size:60px;"">+</div>","""",256,fixationBtwnNeutralMaskAndPrompt,Test,null,1000,"""","""","""","""","""","""","""","""",1,4/29/2021 19:54,201.92.156.74,Mozilla/5.0 (Windows NT 10.0; Win64; x64; rv:88.0) Gecko/20100101 Firefox/88.0,,Firefox,88,Windows,10
192,1,1285,"""",html-button-response,188,708083,0.0-188.0,"""","<img src='jspsych/CFDfaces/CFD-AM-230-150-N.jpg' height=""250px"">,</br><b>Jeffrey</b>",0,256,IntactOrRearranged,Test,"""","""","""","""",CFD-BM-022-022-N.jpg,Ryan,1,"""","""",0,1,4/29/2021 19:54,201.92.156.74,Mozilla/5.0 (Windows NT 10.0; Win64; x64; rv:88.0) Gecko/20100101 Firefox/88.0,,Firefox,88,Windows,10
192,1,2591,"""",html-slider-response,189,710676,0.0-189.0,"""","<img src='jspsych/CFDfaces/CFD-AM-230-150-N.jpg' height=""250px"">,</br><b>Jeffrey</b>","""",256,ConfidenceQuery,Test,"""","""","""","""",CFD-BM-022-022-N.jpg,Ryan,1,0,74,"""",1,4/29/2021 19:54,201.92.156.74,Mozilla/5.0 (Windows NT 10.0; Win64; x64; rv:88.0) Gecko/20100101 Firefox/88.0,,Firefox,88,Windows,10
192,1,null,"""",html-keyboard-response,190,711687,0.0-190.0,"""","<div style=""font-size:60px;"">+</div>","""",256,ITI,Test,null,1000,"""","""","""","""","""","""","""","""",1,4/29/2021 19:54,201.92.156.74,Mozilla/5.0 (Windows NT 10.0; Win64; x64; rv:88.0) Gecko/20100101 Firefox/88.0,,Firefox,88,Windows,10
192,1,null,"""",image-keyboard-response,191,711947,0.0-191.0,"""",jspsych/scrambledNeutralFaces/scrambledAF16NES.JPG,"""",256,forwardMask,Test,null,250,"""",n,"""","""","""","""","""","""",1,4/29/2021 19:54,201.92.156.74,Mozilla/5.0 (Windows NT 10.0; Win64; x64; rv:88.0) Gecko/20100101 Firefox/88.0,,Firefox,88,Windows,10
192,1,null,"""",image-keyboard-response,192,711987,0.0-192.0,"""",jspsych/neutralFaces/AF16NES.JPG,"""",256,Cue,Test,null,16,"""","""","""","""","""","""","""","""",1,4/29/2021 19:54,201.92.156.74,Mozilla/5.0 (Windows NT 10.0; Win64; x64; rv:88.0) Gecko/20100101 Firefox/88.0,,Firefox,88,Windows,10
192,1,null,"""",image-keyboard-response,193,712108,0.0-193.0,"""",jspsych/neutralFaces/BF13NES.JPG,"""",256,backwardMask,Test,null,100,"""","""","""","""","""","""","""","""",1,4/29/2021 19:54,201.92.156.74,Mozilla/5.0 (Windows NT 10.0; Win64; x64; rv:88.0) Gecko/20100101 Firefox/88.0,,Firefox,88,Windows,10
192,1,null,"""",html-keyboard-response,194,713128,0.0-194.0,"""","<div style=""font-size:60px;"">+</div>","""",256,fixationBtwnNeutralMaskAndPrompt,Test,null,1000,"""","""","""","""","""","""","""","""",1,4/29/2021 19:54,201.92.156.74,Mozilla/5.0 (Windows NT 10.0; Win64; x64; rv:88.0) Gecko/20100101 Firefox/88.0,,Firefox,88,Windows,10
192,1,1659,"""",html-button-response,195,714787,0.0-195.0,"""","<img src='jspsych/CFDfaces/CFD-BF-004-014-N.jpg' height=""250px"">,</br><b>Samantha</b>",1,256,IntactOrRearranged,Test,"""","""","""","""",CFD-BF-221-223-N.jpg,Jasmine,0,"""","""",1,1,4/29/2021 19:54,201.92.156.74,Mozilla/5.0 (Windows NT 10.0; Win64; x64; rv:88.0) Gecko/20100101 Firefox/88.0,,Firefox,88,Windows,10
192,1,2431,"""",html-slider-response,196,717219,0.0-196.0,"""","<img src='jspsych/CFDfaces/CFD-BF-004-014-N.jpg' height=""250px"">,</br><b>Samantha</b>","""",256,ConfidenceQuery,Test,"""","""","""","""",CFD-BF-221-223-N.jpg,Jasmine,0,0,59,"""",1,4/29/2021 19:54,201.92.156.74,Mozilla/5.0 (Windows NT 10.0; Win64; x64; rv:88.0) Gecko/20100101 Firefox/88.0,,Firefox,88,Windows,10
192,1,null,"""",html-keyboard-response,197,718227,0.0-197.0,"""","<div style=""font-size:60px;"">+</div>","""",256,ITI,Test,null,1000,"""","""","""","""","""","""","""","""",1,4/29/2021 19:54,201.92.156.74,Mozilla/5.0 (Windows NT 10.0; Win64; x64; rv:88.0) Gecko/20100101 Firefox/88.0,,Firefox,88,Windows,10
192,1,null,"""",image-keyboard-response,198,718497,0.0-198.0,"""",jspsych/scrambledNeutralFaces/scrambledBF09NES.JPG,"""",256,forwardMask,Test,null,250,"""",n,"""","""","""","""","""","""",1,4/29/2021 19:54,201.92.156.74,Mozilla/5.0 (Windows NT 10.0; Win64; x64; rv:88.0) Gecko/20100101 Firefox/88.0,,Firefox,88,Windows,10
192,1,null,"""",image-keyboard-response,199,718517,0.0-199.0,"""",jspsych/neutralFaces/BF09NES.JPG,"""",256,Cue,Test,null,16,"""","""","""","""","""","""","""","""",1,4/29/2021 19:54,201.92.156.74,Mozilla/5.0 (Windows NT 10.0; Win64; x64; rv:88.0) Gecko/20100101 Firefox/88.0,,Firefox,88,Windows,10
192,1,null,"""",image-keyboard-response,200,718637,0.0-200.0,"""",jspsych/neutralFaces/AF03NES.JPG,"""",256,backwardMask,Test,null,100,"""","""","""","""","""","""","""","""",1,4/29/2021 19:54,201.92.156.74,Mozilla/5.0 (Windows NT 10.0; Win64; x64; rv:88.0) Gecko/20100101 Firefox/88.0,,Firefox,88,Windows,10
192,1,null,"""",html-keyboard-response,201,719656,0.0-201.0,"""","<div style=""font-size:60px;"">+</div>","""",256,fixationBtwnNeutralMaskAndPrompt,Test,null,1000,"""","""","""","""","""","""","""","""",1,4/29/2021 19:54,201.92.156.74,Mozilla/5.0 (Windows NT 10.0; Win64; x64; rv:88.0) Gecko/20100101 Firefox/88.0,,Firefox,88,Windows,10
192,1,2978,"""",html-button-response,202,722636,0.0-202.0,"""","<img src='jspsych/CFDfaces/CFD-BF-212-315-N.jpg' height=""250px"">,</br><b>Julie</b>",1,256,IntactOrRearranged,Test,"""","""","""","""",CFD-WM-212-097-N.jpg,Vincent,0,"""","""",1,1,4/29/2021 19:54,201.92.156.74,Mozilla/5.0 (Windows NT 10.0; Win64; x64; rv:88.0) Gecko/20100101 Firefox/88.0,,Firefox,88,Windows,10
192,1,2222,"""",html-slider-response,203,724860,0.0-203.0,"""","<img src='jspsych/CFDfaces/CFD-BF-212-315-N.jpg' height=""250px"">,</br><b>Julie</b>","""",256,ConfidenceQuery,Test,"""","""","""","""",CFD-WM-212-097-N.jpg,Vincent,0,0,80,"""",1,4/29/2021 19:54,201.92.156.74,Mozilla/5.0 (Windows NT 10.0; Win64; x64; rv:88.0) Gecko/20100101 Firefox/88.0,,Firefox,88,Windows,10
192,1,null,"""",html-keyboard-response,204,725867,0.0-204.0,"""","<div style=""font-size:60px;"">+</div>","""",256,ITI,Test,null,1000,"""","""","""","""","""","""","""","""",1,4/29/2021 19:54,201.92.156.74,Mozilla/5.0 (Windows NT 10.0; Win64; x64; rv:88.0) Gecko/20100101 Firefox/88.0,,Firefox,88,Windows,10
192,1,null,"""",image-keyboard-response,205,726128,0.0-205.0,"""",jspsych/scrambledNeutralFaces/scrambledBM35NES.JPG,"""",256,forwardMask,Test,null,250,"""",n,"""","""","""","""","""","""",1,4/29/2021 19:54,201.92.156.74,Mozilla/5.0 (Windows NT 10.0; Win64; x64; rv:88.0) Gecko/20100101 Firefox/88.0,,Firefox,88,Windows,10
192,1,null,"""",image-keyboard-response,206,726167,0.0-206.0,"""",jspsych/neutralFaces/BM35NES.JPG,"""",256,Cue,Test,null,16,"""","""","""","""","""","""","""","""",1,4/29/2021 19:54,201.92.156.74,Mozilla/5.0 (Windows NT 10.0; Win64; x64; rv:88.0) Gecko/20100101 Firefox/88.0,,Firefox,88,Windows,10
192,1,null,"""",image-keyboard-response,207,726287,0.0-207.0,"""",jspsych/neutralFaces/BM33NES.JPG,"""",256,backwardMask,Test,null,100,"""","""","""","""","""","""","""","""",1,4/29/2021 19:54,201.92.156.74,Mozilla/5.0 (Windows NT 10.0; Win64; x64; rv:88.0) Gecko/20100101 Firefox/88.0,,Firefox,88,Windows,10
192,1,null,"""",html-keyboard-response,208,727307,0.0-208.0,"""","<div style=""font-size:60px;"">+</div>","""",256,fixationBtwnNeutralMaskAndPrompt,Test,null,1000,"""","""","""","""","""","""","""","""",1,4/29/2021 19:54,201.92.156.74,Mozilla/5.0 (Windows NT 10.0; Win64; x64; rv:88.0) Gecko/20100101 Firefox/88.0,,Firefox,88,Windows,10
192,1,1457,"""",html-button-response,209,728763,0.0-209.0,"""","<img src='jspsych/CFDfaces/CFD-BM-026-002-N.jpg' height=""250px"">,</br><b>Brandon</b>",1,256,IntactOrRearranged,Test,"""","""","""","""",CFD-LF-200-058-N.jpg,Whitney,0,"""","""",1,1,4/29/2021 19:54,201.92.156.74,Mozilla/5.0 (Windows NT 10.0; Win64; x64; rv:88.0) Gecko/20100101 Firefox/88.0,,Firefox,88,Windows,10
192,1,2327,"""",html-slider-response,210,731091,0.0-210.0,"""","<img src='jspsych/CFDfaces/CFD-BM-026-002-N.jpg' height=""250px"">,</br><b>Brandon</b>","""",256,ConfidenceQuery,Test,"""","""","""","""",CFD-LF-200-058-N.jpg,Whitney,0,0,57,"""",1,4/29/2021 19:54,201.92.156.74,Mozilla/5.0 (Windows NT 10.0; Win64; x64; rv:88.0) Gecko/20100101 Firefox/88.0,,Firefox,88,Windows,10
192,1,null,"""",html-keyboard-response,211,732097,0.0-211.0,"""","<div style=""font-size:60px;"">+</div>","""",256,ITI,Test,null,1000,"""","""","""","""","""","""","""","""",1,4/29/2021 19:54,201.92.156.74,Mozilla/5.0 (Windows NT 10.0; Win64; x64; rv:88.0) Gecko/20100101 Firefox/88.0,,Firefox,88,Windows,10
192,1,null,"""",image-keyboard-response,212,732357,0.0-212.0,"""",jspsych/scrambledNeutralFaces/scrambledAM09NES.JPG,"""",256,forwardMask,Test,null,250,"""",n,"""","""","""","""","""","""",1,4/29/2021 19:54,201.92.156.74,Mozilla/5.0 (Windows NT 10.0; Win64; x64; rv:88.0) Gecko/20100101 Firefox/88.0,,Firefox,88,Windows,10
192,1,null,"""",image-keyboard-response,213,732392,0.0-213.0,"""",jspsych/neutralFaces/AM09NES.JPG,"""",256,Cue,Test,null,16,"""","""","""","""","""","""","""","""",1,4/29/2021 19:54,201.92.156.74,Mozilla/5.0 (Windows NT 10.0; Win64; x64; rv:88.0) Gecko/20100101 Firefox/88.0,,Firefox,88,Windows,10
192,1,null,"""",image-keyboard-response,214,732511,0.0-214.0,"""",jspsych/neutralFaces/BM14NES.JPG,"""",256,backwardMask,Test,null,100,"""","""","""","""","""","""","""","""",1,4/29/2021 19:54,201.92.156.74,Mozilla/5.0 (Windows NT 10.0; Win64; x64; rv:88.0) Gecko/20100101 Firefox/88.0,,Firefox,88,Windows,10
192,1,null,"""",html-keyboard-response,215,733518,0.0-215.0,"""","<div style=""font-size:60px;"">+</div>","""",256,fixationBtwnNeutralMaskAndPrompt,Test,null,1000,"""","""","""","""","""","""","""","""",1,4/29/2021 19:54,201.92.156.74,Mozilla/5.0 (Windows NT 10.0; Win64; x64; rv:88.0) Gecko/20100101 Firefox/88.0,,Firefox,88,Windows,10
192,1,1444,"""",html-button-response,216,734963,0.0-216.0,"""","<img src='jspsych/CFDfaces/CFD-BM-208-065-N.jpg' height=""250px"">,</br><b>Joshua</b>",0,256,IntactOrRearranged,Test,"""","""","""","""",CFD-AF-228-173-N.jpg,Lauren,1,"""","""",0,1,4/29/2021 19:54,201.92.156.74,Mozilla/5.0 (Windows NT 10.0; Win64; x64; rv:88.0) Gecko/20100101 Firefox/88.0,,Firefox,88,Windows,10
192,1,2119,"""",html-slider-response,217,737084,0.0-217.0,"""","<img src='jspsych/CFDfaces/CFD-BM-208-065-N.jpg' height=""250px"">,</br><b>Joshua</b>","""",256,ConfidenceQuery,Test,"""","""","""","""",CFD-AF-228-173-N.jpg,Lauren,1,0,39,"""",1,4/29/2021 19:54,201.92.156.74,Mozilla/5.0 (Windows NT 10.0; Win64; x64; rv:88.0) Gecko/20100101 Firefox/88.0,,Firefox,88,Windows,10
192,1,null,"""",html-keyboard-response,218,738107,0.0-218.0,"""","<div style=""font-size:60px;"">+</div>","""",256,ITI,Test,null,1000,"""","""","""","""","""","""","""","""",1,4/29/2021 19:54,201.92.156.74,Mozilla/5.0 (Windows NT 10.0; Win64; x64; rv:88.0) Gecko/20100101 Firefox/88.0,,Firefox,88,Windows,10
192,1,null,"""",image-keyboard-response,219,738367,0.0-219.0,"""",jspsych/scrambledDisgustFaces/scrambledBM20DIS.JPG,"""",256,forwardMask,Test,null,250,"""",d,"""","""","""","""","""","""",1,4/29/2021 19:54,201.92.156.74,Mozilla/5.0 (Windows NT 10.0; Win64; x64; rv:88.0) Gecko/20100101 Firefox/88.0,,Firefox,88,Windows,10
192,1,null,"""",image-keyboard-response,220,738388,0.0-220.0,"""",jspsych/disgustFaces/BM21DIS.JPG,"""",256,Cue,Test,null,16,"""","""","""","""","""","""","""","""",1,4/29/2021 19:54,201.92.156.74,Mozilla/5.0 (Windows NT 10.0; Win64; x64; rv:88.0) Gecko/20100101 Firefox/88.0,,Firefox,88,Windows,10
192,1,null,"""",image-keyboard-response,221,738507,0.0-221.0,"""",jspsych/neutralFaces/BM16NES.JPG,"""",256,backwardMask,Test,null,100,"""","""","""","""","""","""","""","""",1,4/29/2021 19:54,201.92.156.74,Mozilla/5.0 (Windows NT 10.0; Win64; x64; rv:88.0) Gecko/20100101 Firefox/88.0,,Firefox,88,Windows,10
192,1,null,"""",html-keyboard-response,222,739526,0.0-222.0,"""","<div style=""font-size:60px;"">+</div>","""",256,fixationBtwnNeutralMaskAndPrompt,Test,null,1000,"""","""","""","""","""","""","""","""",1,4/29/2021 19:54,201.92.156.74,Mozilla/5.0 (Windows NT 10.0; Win64; x64; rv:88.0) Gecko/20100101 Firefox/88.0,,Firefox,88,Windows,10
192,1,1389,"""",html-button-response,223,740916,0.0-223.0,"""","<img src='jspsych/CFDfaces/CFD-AM-238-269-N.jpg' height=""250px"">,</br><b>Juan</b>",1,256,IntactOrRearranged,Test,"""","""","""","""",CFD-LF-239-148-N.jpg,Angela,0,"""","""",1,1,4/29/2021 19:54,201.92.156.74,Mozilla/5.0 (Windows NT 10.0; Win64; x64; rv:88.0) Gecko/20100101 Firefox/88.0,,Firefox,88,Windows,10
192,1,1958,"""",html-slider-response,224,742876,0.0-224.0,"""","<img src='jspsych/CFDfaces/CFD-AM-238-269-N.jpg' height=""250px"">,</br><b>Juan</b>","""",256,ConfidenceQuery,Test,"""","""","""","""",CFD-LF-239-148-N.jpg,Angela,0,0,58,"""",1,4/29/2021 19:54,201.92.156.74,Mozilla/5.0 (Windows NT 10.0; Win64; x64; rv:88.0) Gecko/20100101 Firefox/88.0,,Firefox,88,Windows,10
192,1,null,"""",html-keyboard-response,225,743887,0.0-225.0,"""","<div style=""font-size:60px;"">+</div>","""",256,ITI,Test,null,1000,"""","""","""","""","""","""","""","""",1,4/29/2021 19:54,201.92.156.74,Mozilla/5.0 (Windows NT 10.0; Win64; x64; rv:88.0) Gecko/20100101 Firefox/88.0,,Firefox,88,Windows,10
192,1,null,"""",image-keyboard-response,226,744157,0.0-226.0,"""",jspsych/scrambledDisgustFaces/scrambledBF09DIS.JPG,"""",256,forwardMask,Test,null,250,"""",d,"""","""","""","""","""","""",1,4/29/2021 19:54,201.92.156.74,Mozilla/5.0 (Windows NT 10.0; Win64; x64; rv:88.0) Gecko/20100101 Firefox/88.0,,Firefox,88,Windows,10
192,1,null,"""",image-keyboard-response,227,744177,0.0-227.0,"""",jspsych/disgustFaces/BF09DIS.JPG,"""",256,Cue,Test,null,16,"""","""","""","""","""","""","""","""",1,4/29/2021 19:54,201.92.156.74,Mozilla/5.0 (Windows NT 10.0; Win64; x64; rv:88.0) Gecko/20100101 Firefox/88.0,,Firefox,88,Windows,10
192,1,null,"""",image-keyboard-response,228,744296,0.0-228.0,"""",jspsych/neutralFaces/BF25NES.JPG,"""",256,backwardMask,Test,null,100,"""","""","""","""","""","""","""","""",1,4/29/2021 19:54,201.92.156.74,Mozilla/5.0 (Windows NT 10.0; Win64; x64; rv:88.0) Gecko/20100101 Firefox/88.0,,Firefox,88,Windows,10
192,1,null,"""",html-keyboard-response,229,745317,0.0-229.0,"""","<div style=""font-size:60px;"">+</div>","""",256,fixationBtwnNeutralMaskAndPrompt,Test,null,1000,"""","""","""","""","""","""","""","""",1,4/29/2021 19:54,201.92.156.74,Mozilla/5.0 (Windows NT 10.0; Win64; x64; rv:88.0) Gecko/20100101 Firefox/88.0,,Firefox,88,Windows,10
192,1,1269,"""",html-button-response,230,746588,0.0-230.0,"""","<img src='jspsych/CFDfaces/CFD-WF-220-101-N.jpg' height=""250px"">,</br><b>Christina</b>",0,256,IntactOrRearranged,Test,"""","""","""","""",CFD-BM-039-029-N.jpg,Timothy,1,"""","""",0,1,4/29/2021 19:54,201.92.156.74,Mozilla/5.0 (Windows NT 10.0; Win64; x64; rv:88.0) Gecko/20100101 Firefox/88.0,,Firefox,88,Windows,10
192,1,null,"""",html-slider-response,231,751598,0.0-231.0,"""","<img src='jspsych/CFDfaces/CFD-WF-220-101-N.jpg' height=""250px"">,</br><b>Christina</b>","""",256,ConfidenceQuery,Test,"""","""","""","""",CFD-BM-039-029-N.jpg,Timothy,1,0,null,"""",1,4/29/2021 19:54,201.92.156.74,Mozilla/5.0 (Windows NT 10.0; Win64; x64; rv:88.0) Gecko/20100101 Firefox/88.0,,Firefox,88,Windows,10
192,1,null,"""",html-keyboard-response,232,752618,0.0-232.0,"""","<div style=""font-size:60px;"">+</div>","""",256,ITI,Test,null,1000,"""","""","""","""","""","""","""","""",1,4/29/2021 19:54,201.92.156.74,Mozilla/5.0 (Windows NT 10.0; Win64; x64; rv:88.0) Gecko/20100101 Firefox/88.0,,Firefox,88,Windows,10
192,1,null,"""",image-keyboard-response,233,752878,0.0-233.0,"""",jspsych/scrambledDisgustFaces/scrambledBM14DIS.JPG,"""",256,forwardMask,Test,null,250,"""",d,"""","""","""","""","""","""",1,4/29/2021 19:54,201.92.156.74,Mozilla/5.0 (Windows NT 10.0; Win64; x64; rv:88.0) Gecko/20100101 Firefox/88.0,,Firefox,88,Windows,10
192,1,null,"""",image-keyboard-response,234,752897,0.0-234.0,"""",jspsych/disgustFaces/BM15DIS.JPG,"""",256,Cue,Test,null,16,"""","""","""","""","""","""","""","""",1,4/29/2021 19:54,201.92.156.74,Mozilla/5.0 (Windows NT 10.0; Win64; x64; rv:88.0) Gecko/20100101 Firefox/88.0,,Firefox,88,Windows,10
192,1,null,"""",image-keyboard-response,235,753017,0.0-235.0,"""",jspsych/neutralFaces/AM14NES.JPG,"""",256,backwardMask,Test,null,100,"""","""","""","""","""","""","""","""",1,4/29/2021 19:54,201.92.156.74,Mozilla/5.0 (Windows NT 10.0; Win64; x64; rv:88.0) Gecko/20100101 Firefox/88.0,,Firefox,88,Windows,10
192,1,null,"""",html-keyboard-response,236,754038,0.0-236.0,"""","<div style=""font-size:60px;"">+</div>","""",256,fixationBtwnNeutralMaskAndPrompt,Test,null,1000,"""","""","""","""","""","""","""","""",1,4/29/2021 19:54,201.92.156.74,Mozilla/5.0 (Windows NT 10.0; Win64; x64; rv:88.0) Gecko/20100101 Firefox/88.0,,Firefox,88,Windows,10
192,1,2149,"""",html-button-response,237,756187,0.0-237.0,"""","<img src='jspsych/CFDfaces/CFD-LF-213-079-N.jpg' height=""250px"">,</br><b>Amanda</b>",1,256,IntactOrRearranged,Test,"""","""","""","""",CFD-WF-202-056-N.jpg,Rebecca,1,"""","""",1,1,4/29/2021 19:54,201.92.156.74,Mozilla/5.0 (Windows NT 10.0; Win64; x64; rv:88.0) Gecko/20100101 Firefox/88.0,,Firefox,88,Windows,10
192,1,2638,"""",html-slider-response,238,758828,0.0-238.0,"""","<img src='jspsych/CFDfaces/CFD-LF-213-079-N.jpg' height=""250px"">,</br><b>Amanda</b>","""",256,ConfidenceQuery,Test,"""","""","""","""",CFD-WF-202-056-N.jpg,Rebecca,1,0,39,"""",1,4/29/2021 19:54,201.92.156.74,Mozilla/5.0 (Windows NT 10.0; Win64; x64; rv:88.0) Gecko/20100101 Firefox/88.0,,Firefox,88,Windows,10
192,1,null,"""",html-keyboard-response,239,759837,0.0-239.0,"""","<div style=""font-size:60px;"">+</div>","""",256,ITI,Test,null,1000,"""","""","""","""","""","""","""","""",1,4/29/2021 19:54,201.92.156.74,Mozilla/5.0 (Windows NT 10.0; Win64; x64; rv:88.0) Gecko/20100101 Firefox/88.0,,Firefox,88,Windows,10
192,1,null,"""",image-keyboard-response,240,760098,0.0-240.0,"""",jspsych/scrambledDisgustFaces/scrambledBM04DIS.JPG,"""",256,forwardMask,Test,null,250,"""",d,"""","""","""","""","""","""",1,4/29/2021 19:54,201.92.156.74,Mozilla/5.0 (Windows NT 10.0; Win64; x64; rv:88.0) Gecko/20100101 Firefox/88.0,,Firefox,88,Windows,10
192,1,null,"""",image-keyboard-response,241,760118,0.0-241.0,"""",jspsych/disgustFaces/BM05DIS.JPG,"""",256,Cue,Test,null,16,"""","""","""","""","""","""","""","""",1,4/29/2021 19:54,201.92.156.74,Mozilla/5.0 (Windows NT 10.0; Win64; x64; rv:88.0) Gecko/20100101 Firefox/88.0,,Firefox,88,Windows,10
192,1,null,"""",image-keyboard-response,242,760237,0.0-242.0,"""",jspsych/neutralFaces/BM13NES.JPG,"""",256,backwardMask,Test,null,100,"""","""","""","""","""","""","""","""",1,4/29/2021 19:54,201.92.156.74,Mozilla/5.0 (Windows NT 10.0; Win64; x64; rv:88.0) Gecko/20100101 Firefox/88.0,,Firefox,88,Windows,10
192,1,null,"""",html-keyboard-response,243,761257,0.0-243.0,"""","<div style=""font-size:60px;"">+</div>","""",256,fixationBtwnNeutralMaskAndPrompt,Test,null,1000,"""","""","""","""","""","""","""","""",1,4/29/2021 19:54,201.92.156.74,Mozilla/5.0 (Windows NT 10.0; Win64; x64; rv:88.0) Gecko/20100101 Firefox/88.0,,Firefox,88,Windows,10
192,1,1233,"""",html-button-response,244,762491,0.0-244.0,"""","<img src='jspsych/CFDfaces/CFD-LF-210-220-N.jpg' height=""250px"">,</br><b>Meghan</b>",1,256,IntactOrRearranged,Test,"""","""","""","""",CFD-LM-239-075-N.jpg,Justin,0,"""","""",1,1,4/29/2021 19:54,201.92.156.74,Mozilla/5.0 (Windows NT 10.0; Win64; x64; rv:88.0) Gecko/20100101 Firefox/88.0,,Firefox,88,Windows,10
192,1,2598,"""",html-slider-response,245,765091,0.0-245.0,"""","<img src='jspsych/CFDfaces/CFD-LF-210-220-N.jpg' height=""250px"">,</br><b>Meghan</b>","""",256,ConfidenceQuery,Test,"""","""","""","""",CFD-LM-239-075-N.jpg,Justin,0,0,78,"""",1,4/29/2021 19:54,201.92.156.74,Mozilla/5.0 (Windows NT 10.0; Win64; x64; rv:88.0) Gecko/20100101 Firefox/88.0,,Firefox,88,Windows,10
192,1,null,"""",html-keyboard-response,246,766107,0.0-246.0,"""","<div style=""font-size:60px;"">+</div>","""",256,ITI,Test,null,1000,"""","""","""","""","""","""","""","""",1,4/29/2021 19:54,201.92.156.74,Mozilla/5.0 (Windows NT 10.0; Win64; x64; rv:88.0) Gecko/20100101 Firefox/88.0,,Firefox,88,Windows,10
192,1,null,"""",image-keyboard-response,247,766367,0.0-247.0,"""",jspsych/scrambledNeutralFaces/scrambledAF07NES.JPG,"""",256,forwardMask,Test,null,250,"""",n,"""","""","""","""","""","""",1,4/29/2021 19:54,201.92.156.74,Mozilla/5.0 (Windows NT 10.0; Win64; x64; rv:88.0) Gecko/20100101 Firefox/88.0,,Firefox,88,Windows,10
192,1,null,"""",image-keyboard-response,248,766408,0.0-248.0,"""",jspsych/neutralFaces/AF07NES.JPG,"""",256,Cue,Test,null,16,"""","""","""","""","""","""","""","""",1,4/29/2021 19:54,201.92.156.74,Mozilla/5.0 (Windows NT 10.0; Win64; x64; rv:88.0) Gecko/20100101 Firefox/88.0,,Firefox,88,Windows,10
192,1,null,"""",image-keyboard-response,249,766527,0.0-249.0,"""",jspsych/neutralFaces/AF34NES.JPG,"""",256,backwardMask,Test,null,100,"""","""","""","""","""","""","""","""",1,4/29/2021 19:54,201.92.156.74,Mozilla/5.0 (Windows NT 10.0; Win64; x64; rv:88.0) Gecko/20100101 Firefox/88.0,,Firefox,88,Windows,10
192,1,null,"""",html-keyboard-response,250,767547,0.0-250.0,"""","<div style=""font-size:60px;"">+</div>","""",256,fixationBtwnNeutralMaskAndPrompt,Test,null,1000,"""","""","""","""","""","""","""","""",1,4/29/2021 19:54,201.92.156.74,Mozilla/5.0 (Windows NT 10.0; Win64; x64; rv:88.0) Gecko/20100101 Firefox/88.0,,Firefox,88,Windows,10
192,1,1527,"""",html-button-response,251,769076,0.0-251.0,"""","<img src='jspsych/CFDfaces/CFD-AM-243-212-N.jpg' height=""250px"">,</br><b>Nicholas</b>",1,256,IntactOrRearranged,Test,"""","""","""","""",CFD-LM-246-087-N.jpg,Jeremy,0,"""","""",1,1,4/29/2021 19:54,201.92.156.74,Mozilla/5.0 (Windows NT 10.0; Win64; x64; rv:88.0) Gecko/20100101 Firefox/88.0,,Firefox,88,Windows,10
192,1,2358,"""",html-slider-response,252,771436,0.0-252.0,"""","<img src='jspsych/CFDfaces/CFD-AM-243-212-N.jpg' height=""250px"">,</br><b>Nicholas</b>","""",256,ConfidenceQuery,Test,"""","""","""","""",CFD-LM-246-087-N.jpg,Jeremy,0,0,91,"""",1,4/29/2021 19:54,201.92.156.74,Mozilla/5.0 (Windows NT 10.0; Win64; x64; rv:88.0) Gecko/20100101 Firefox/88.0,,Firefox,88,Windows,10
192,1,null,"""",html-keyboard-response,253,772441,0.0-253.0,"""","<div style=""font-size:60px;"">+</div>","""",256,ITI,Test,null,1000,"""","""","""","""","""","""","""","""",1,4/29/2021 19:54,201.92.156.74,Mozilla/5.0 (Windows NT 10.0; Win64; x64; rv:88.0) Gecko/20100101 Firefox/88.0,,Firefox,88,Windows,10
192,1,null,"""",image-keyboard-response,254,772698,0.0-254.0,"""",jspsych/scrambledNeutralFaces/scrambledBF16NES.JPG,"""",256,forwardMask,Test,null,250,"""",n,"""","""","""","""","""","""",1,4/29/2021 19:54,201.92.156.74,Mozilla/5.0 (Windows NT 10.0; Win64; x64; rv:88.0) Gecko/20100101 Firefox/88.0,,Firefox,88,Windows,10
192,1,null,"""",image-keyboard-response,255,772738,0.0-255.0,"""",jspsych/neutralFaces/BF16NES.JPG,"""",256,Cue,Test,null,16,"""","""","""","""","""","""","""","""",1,4/29/2021 19:54,201.92.156.74,Mozilla/5.0 (Windows NT 10.0; Win64; x64; rv:88.0) Gecko/20100101 Firefox/88.0,,Firefox,88,Windows,10
192,1,null,"""",image-keyboard-response,256,772858,0.0-256.0,"""",jspsych/neutralFaces/BF08NES.JPG,"""",256,backwardMask,Test,null,100,"""","""","""","""","""","""","""","""",1,4/29/2021 19:54,201.92.156.74,Mozilla/5.0 (Windows NT 10.0; Win64; x64; rv:88.0) Gecko/20100101 Firefox/88.0,,Firefox,88,Windows,10
192,1,null,"""",html-keyboard-response,257,773868,0.0-257.0,"""","<div style=""font-size:60px;"">+</div>","""",256,fixationBtwnNeutralMaskAndPrompt,Test,null,1000,"""","""","""","""","""","""","""","""",1,4/29/2021 19:54,201.92.156.74,Mozilla/5.0 (Windows NT 10.0; Win64; x64; rv:88.0) Gecko/20100101 Firefox/88.0,,Firefox,88,Windows,10
192,1,2166,"""",html-button-response,258,776036,0.0-258.0,"""","<img src='jspsych/CFDfaces/CFD-AF-235-170-N.jpg' height=""250px"">,</br><b>Elizabeth</b>",0,256,IntactOrRearranged,Test,"""","""","""","""",CFD-BM-210-148-N.jpg,Jacob,1,"""","""",0,1,4/29/2021 19:54,201.92.156.74,Mozilla/5.0 (Windows NT 10.0; Win64; x64; rv:88.0) Gecko/20100101 Firefox/88.0,,Firefox,88,Windows,10
192,1,2312,"""",html-slider-response,259,778348,0.0-259.0,"""","<img src='jspsych/CFDfaces/CFD-AF-235-170-N.jpg' height=""250px"">,</br><b>Elizabeth</b>","""",256,ConfidenceQuery,Test,"""","""","""","""",CFD-BM-210-148-N.jpg,Jacob,1,0,48,"""",1,4/29/2021 19:54,201.92.156.74,Mozilla/5.0 (Windows NT 10.0; Win64; x64; rv:88.0) Gecko/20100101 Firefox/88.0,,Firefox,88,Windows,10
192,1,null,"""",html-keyboard-response,260,779367,0.0-260.0,"""","<div style=""font-size:60px;"">+</div>","""",256,ITI,Test,null,1000,"""","""","""","""","""","""","""","""",1,4/29/2021 19:54,201.92.156.74,Mozilla/5.0 (Windows NT 10.0; Win64; x64; rv:88.0) Gecko/20100101 Firefox/88.0,,Firefox,88,Windows,10
192,1,null,"""",image-keyboard-response,261,779627,0.0-261.0,"""",jspsych/scrambledNeutralFaces/scrambledAF10NES.JPG,"""",256,forwardMask,Test,null,250,"""",n,"""","""","""","""","""","""",1,4/29/2021 19:54,201.92.156.74,Mozilla/5.0 (Windows NT 10.0; Win64; x64; rv:88.0) Gecko/20100101 Firefox/88.0,,Firefox,88,Windows,10
192,1,null,"""",image-keyboard-response,262,779647,0.0-262.0,"""",jspsych/neutralFaces/AF10NES.JPG,"""",256,Cue,Test,null,16,"""","""","""","""","""","""","""","""",1,4/29/2021 19:54,201.92.156.74,Mozilla/5.0 (Windows NT 10.0; Win64; x64; rv:88.0) Gecko/20100101 Firefox/88.0,,Firefox,88,Windows,10
192,1,null,"""",image-keyboard-response,263,779767,0.0-263.0,"""",jspsych/neutralFaces/AF20NES.JPG,"""",256,backwardMask,Test,null,100,"""","""","""","""","""","""","""","""",1,4/29/2021 19:54,201.92.156.74,Mozilla/5.0 (Windows NT 10.0; Win64; x64; rv:88.0) Gecko/20100101 Firefox/88.0,,Firefox,88,Windows,10
192,1,null,"""",html-keyboard-response,264,780788,0.0-264.0,"""","<div style=""font-size:60px;"">+</div>","""",256,fixationBtwnNeutralMaskAndPrompt,Test,null,1000,"""","""","""","""","""","""","""","""",1,4/29/2021 19:54,201.92.156.74,Mozilla/5.0 (Windows NT 10.0; Win64; x64; rv:88.0) Gecko/20100101 Firefox/88.0,,Firefox,88,Windows,10
192,1,1256,"""",html-button-response,265,782044,0.0-265.0,"""","<img src='jspsych/CFDfaces/CFD-BM-018-001-N.jpg' height=""250px"">,</br><b>Christian</b>",1,256,IntactOrRearranged,Test,"""","""","""","""",CFD-WM-003-002-N.jpg,Sean,1,"""","""",1,1,4/29/2021 19:54,201.92.156.74,Mozilla/5.0 (Windows NT 10.0; Win64; x64; rv:88.0) Gecko/20100101 Firefox/88.0,,Firefox,88,Windows,10
192,1,2102,"""",html-slider-response,266,784147,0.0-266.0,"""","<img src='jspsych/CFDfaces/CFD-BM-018-001-N.jpg' height=""250px"">,</br><b>Christian</b>","""",256,ConfidenceQuery,Test,"""","""","""","""",CFD-WM-003-002-N.jpg,Sean,1,0,84,"""",1,4/29/2021 19:54,201.92.156.74,Mozilla/5.0 (Windows NT 10.0; Win64; x64; rv:88.0) Gecko/20100101 Firefox/88.0,,Firefox,88,Windows,10
192,1,null,"""",html-keyboard-response,267,785157,0.0-267.0,"""","<div style=""font-size:60px;"">+</div>","""",256,ITI,Test,null,1000,"""","""","""","""","""","""","""","""",1,4/29/2021 19:54,201.92.156.74,Mozilla/5.0 (Windows NT 10.0; Win64; x64; rv:88.0) Gecko/20100101 Firefox/88.0,,Firefox,88,Windows,10
192,1,null,"""",image-keyboard-response,268,785417,0.0-268.0,"""",jspsych/scrambledNeutralFaces/scrambledAM29NES.JPG,"""",256,forwardMask,Test,null,250,"""",n,"""","""","""","""","""","""",1,4/29/2021 19:54,201.92.156.74,Mozilla/5.0 (Windows NT 10.0; Win64; x64; rv:88.0) Gecko/20100101 Firefox/88.0,,Firefox,88,Windows,10
192,1,null,"""",image-keyboard-response,269,785436,0.0-269.0,"""",jspsych/neutralFaces/AM29NES.JPG,"""",256,Cue,Test,null,16,"""","""","""","""","""","""","""","""",1,4/29/2021 19:54,201.92.156.74,Mozilla/5.0 (Windows NT 10.0; Win64; x64; rv:88.0) Gecko/20100101 Firefox/88.0,,Firefox,88,Windows,10
192,1,null,"""",image-keyboard-response,270,785557,0.0-270.0,"""",jspsych/neutralFaces/AM22NES.JPG,"""",256,backwardMask,Test,null,100,"""","""","""","""","""","""","""","""",1,4/29/2021 19:54,201.92.156.74,Mozilla/5.0 (Windows NT 10.0; Win64; x64; rv:88.0) Gecko/20100101 Firefox/88.0,,Firefox,88,Windows,10
192,1,null,"""",html-keyboard-response,271,786577,0.0-271.0,"""","<div style=""font-size:60px;"">+</div>","""",256,fixationBtwnNeutralMaskAndPrompt,Test,null,1000,"""","""","""","""","""","""","""","""",1,4/29/2021 19:54,201.92.156.74,Mozilla/5.0 (Windows NT 10.0; Win64; x64; rv:88.0) Gecko/20100101 Firefox/88.0,,Firefox,88,Windows,10
192,1,2089,"""",html-button-response,272,788668,0.0-272.0,"""","<img src='jspsych/CFDfaces/CFD-WM-222-057-N.jpg' height=""250px"">,</br><b>James</b>",1,256,IntactOrRearranged,Test,"""","""","""","""",CFD-AM-228-214-N.jpg,Mark,1,"""","""",1,1,4/29/2021 19:54,201.92.156.74,Mozilla/5.0 (Windows NT 10.0; Win64; x64; rv:88.0) Gecko/20100101 Firefox/88.0,,Firefox,88,Windows,10
192,1,3390,"""",html-slider-response,273,792060,0.0-273.0,"""","<img src='jspsych/CFDfaces/CFD-WM-222-057-N.jpg' height=""250px"">,</br><b>James</b>","""",256,ConfidenceQuery,Test,"""","""","""","""",CFD-AM-228-214-N.jpg,Mark,1,0,60,"""",1,4/29/2021 19:54,201.92.156.74,Mozilla/5.0 (Windows NT 10.0; Win64; x64; rv:88.0) Gecko/20100101 Firefox/88.0,,Firefox,88,Windows,10
192,1,null,"""",html-keyboard-response,274,793078,0.0-274.0,"""","<div style=""font-size:60px;"">+</div>","""",256,ITI,Test,null,1000,"""","""","""","""","""","""","""","""",1,4/29/2021 19:54,201.92.156.74,Mozilla/5.0 (Windows NT 10.0; Win64; x64; rv:88.0) Gecko/20100101 Firefox/88.0,,Firefox,88,Windows,10
192,1,null,"""",image-keyboard-response,275,793339,0.0-275.0,"""",jspsych/scrambledNeutralFaces/scrambledAF14NES.JPG,"""",256,forwardMask,Test,null,250,"""",n,"""","""","""","""","""","""",1,4/29/2021 19:54,201.92.156.74,Mozilla/5.0 (Windows NT 10.0; Win64; x64; rv:88.0) Gecko/20100101 Firefox/88.0,,Firefox,88,Windows,10
192,1,null,"""",image-keyboard-response,276,793379,0.0-276.0,"""",jspsych/neutralFaces/AF14NES.JPG,"""",256,Cue,Test,null,16,"""","""","""","""","""","""","""","""",1,4/29/2021 19:54,201.92.156.74,Mozilla/5.0 (Windows NT 10.0; Win64; x64; rv:88.0) Gecko/20100101 Firefox/88.0,,Firefox,88,Windows,10
192,1,null,"""",image-keyboard-response,277,793499,0.0-277.0,"""",jspsych/neutralFaces/BF21NES.JPG,"""",256,backwardMask,Test,null,100,"""","""","""","""","""","""","""","""",1,4/29/2021 19:54,201.92.156.74,Mozilla/5.0 (Windows NT 10.0; Win64; x64; rv:88.0) Gecko/20100101 Firefox/88.0,,Firefox,88,Windows,10
192,1,null,"""",html-keyboard-response,278,794513,0.0-278.0,"""","<div style=""font-size:60px;"">+</div>","""",256,fixationBtwnNeutralMaskAndPrompt,Test,null,1000,"""","""","""","""","""","""","""","""",1,4/29/2021 19:54,201.92.156.74,Mozilla/5.0 (Windows NT 10.0; Win64; x64; rv:88.0) Gecko/20100101 Firefox/88.0,,Firefox,88,Windows,10
192,1,1624,"""",html-button-response,279,796139,0.0-279.0,"""","<img src='jspsych/CFDfaces/CFD-WF-017-003-N.jpg' height=""250px"">,</br><b>Stephanie</b>",1,256,IntactOrRearranged,Test,"""","""","""","""",CFD-AM-237-154-N.jpg,Steven,0,"""","""",1,1,4/29/2021 19:54,201.92.156.74,Mozilla/5.0 (Windows NT 10.0; Win64; x64; rv:88.0) Gecko/20100101 Firefox/88.0,,Firefox,88,Windows,10
192,1,2357,"""",html-slider-response,280,798499,0.0-280.0,"""","<img src='jspsych/CFDfaces/CFD-WF-017-003-N.jpg' height=""250px"">,</br><b>Stephanie</b>","""",256,ConfidenceQuery,Test,"""","""","""","""",CFD-AM-237-154-N.jpg,Steven,0,0,81,"""",1,4/29/2021 19:54,201.92.156.74,Mozilla/5.0 (Windows NT 10.0; Win64; x64; rv:88.0) Gecko/20100101 Firefox/88.0,,Firefox,88,Windows,10
192,1,null,"""",html-keyboard-response,281,799507,0.0-281.0,"""","<div style=""font-size:60px;"">+</div>","""",256,ITI,Test,null,1000,"""","""","""","""","""","""","""","""",1,4/29/2021 19:54,201.92.156.74,Mozilla/5.0 (Windows NT 10.0; Win64; x64; rv:88.0) Gecko/20100101 Firefox/88.0,,Firefox,88,Windows,10
192,1,null,"""",image-keyboard-response,282,799768,0.0-282.0,"""",jspsych/scrambledDisgustFaces/scrambledAM09DIS.JPG,"""",256,forwardMask,Test,null,250,"""",d,"""","""","""","""","""","""",1,4/29/2021 19:54,201.92.156.74,Mozilla/5.0 (Windows NT 10.0; Win64; x64; rv:88.0) Gecko/20100101 Firefox/88.0,,Firefox,88,Windows,10
192,1,null,"""",image-keyboard-response,283,799808,0.0-283.0,"""",jspsych/disgustFaces/AM09DIS.JPG,"""",256,Cue,Test,null,16,"""","""","""","""","""","""","""","""",1,4/29/2021 19:54,201.92.156.74,Mozilla/5.0 (Windows NT 10.0; Win64; x64; rv:88.0) Gecko/20100101 Firefox/88.0,,Firefox,88,Windows,10
192,1,null,"""",image-keyboard-response,284,799927,0.0-284.0,"""",jspsych/neutralFaces/AM22NES.JPG,"""",256,backwardMask,Test,null,100,"""","""","""","""","""","""","""","""",1,4/29/2021 19:54,201.92.156.74,Mozilla/5.0 (Windows NT 10.0; Win64; x64; rv:88.0) Gecko/20100101 Firefox/88.0,,Firefox,88,Windows,10
192,1,null,"""",html-keyboard-response,285,800947,0.0-285.0,"""","<div style=""font-size:60px;"">+</div>","""",256,fixationBtwnNeutralMaskAndPrompt,Test,null,1000,"""","""","""","""","""","""","""","""",1,4/29/2021 19:54,201.92.156.74,Mozilla/5.0 (Windows NT 10.0; Win64; x64; rv:88.0) Gecko/20100101 Firefox/88.0,,Firefox,88,Windows,10
192,1,2489,"""",html-button-response,286,803436,0.0-286.0,"""","<img src='jspsych/CFDfaces/CFD-BM-029-024-N.jpg' height=""250px"">,</br><b>Richard</b>",0,256,IntactOrRearranged,Test,"""","""","""","""",CFD-LM-233-171-N.jpg,Dustin,1,"""","""",0,1,4/29/2021 19:54,201.92.156.74,Mozilla/5.0 (Windows NT 10.0; Win64; x64; rv:88.0) Gecko/20100101 Firefox/88.0,,Firefox,88,Windows,10
192,1,2214,"""",html-slider-response,287,805652,0.0-287.0,"""","<img src='jspsych/CFDfaces/CFD-BM-029-024-N.jpg' height=""250px"">,</br><b>Richard</b>","""",256,ConfidenceQuery,Test,"""","""","""","""",CFD-LM-233-171-N.jpg,Dustin,1,0,60,"""",1,4/29/2021 19:54,201.92.156.74,Mozilla/5.0 (Windows NT 10.0; Win64; x64; rv:88.0) Gecko/20100101 Firefox/88.0,,Firefox,88,Windows,10
192,1,null,"""",html-keyboard-response,288,806658,0.0-288.0,"""","<div style=""font-size:60px;"">+</div>","""",256,ITI,Test,null,1000,"""","""","""","""","""","""","""","""",1,4/29/2021 19:54,201.92.156.74,Mozilla/5.0 (Windows NT 10.0; Win64; x64; rv:88.0) Gecko/20100101 Firefox/88.0,,Firefox,88,Windows,10
192,1,null,"""",image-keyboard-response,289,806918,0.0-289.0,"""",jspsych/scrambledNeutralFaces/scrambledBM32NES.JPG,"""",256,forwardMask,Test,null,250,"""",n,"""","""","""","""","""","""",1,4/29/2021 19:54,201.92.156.74,Mozilla/5.0 (Windows NT 10.0; Win64; x64; rv:88.0) Gecko/20100101 Firefox/88.0,,Firefox,88,Windows,10
192,1,null,"""",image-keyboard-response,290,806957,0.0-290.0,"""",jspsych/neutralFaces/BM32NES.JPG,"""",256,Cue,Test,null,16,"""","""","""","""","""","""","""","""",1,4/29/2021 19:54,201.92.156.74,Mozilla/5.0 (Windows NT 10.0; Win64; x64; rv:88.0) Gecko/20100101 Firefox/88.0,,Firefox,88,Windows,10
192,1,null,"""",image-keyboard-response,291,807076,0.0-291.0,"""",jspsych/neutralFaces/AM10NES.JPG,"""",256,backwardMask,Test,null,100,"""","""","""","""","""","""","""","""",1,4/29/2021 19:54,201.92.156.74,Mozilla/5.0 (Windows NT 10.0; Win64; x64; rv:88.0) Gecko/20100101 Firefox/88.0,,Firefox,88,Windows,10
192,1,null,"""",html-keyboard-response,292,808087,0.0-292.0,"""","<div style=""font-size:60px;"">+</div>","""",256,fixationBtwnNeutralMaskAndPrompt,Test,null,1000,"""","""","""","""","""","""","""","""",1,4/29/2021 19:54,201.92.156.74,Mozilla/5.0 (Windows NT 10.0; Win64; x64; rv:88.0) Gecko/20100101 Firefox/88.0,,Firefox,88,Windows,10
192,1,1395,"""",html-button-response,293,809483,0.0-293.0,"""","<img src='jspsych/CFDfaces/CFD-AF-233-190-N.jpg' height=""250px"">,</br><b>Vanessa</b>",1,256,IntactOrRearranged,Test,"""","""","""","""",CFD-BF-201-080-N.jpg,Laura,0,"""","""",1,1,4/29/2021 19:54,201.92.156.74,Mozilla/5.0 (Windows NT 10.0; Win64; x64; rv:88.0) Gecko/20100101 Firefox/88.0,,Firefox,88,Windows,10
192,1,1952,"""",html-slider-response,294,811436,0.0-294.0,"""","<img src='jspsych/CFDfaces/CFD-AF-233-190-N.jpg' height=""250px"">,</br><b>Vanessa</b>","""",256,ConfidenceQuery,Test,"""","""","""","""",CFD-BF-201-080-N.jpg,Laura,0,0,78,"""",1,4/29/2021 19:54,201.92.156.74,Mozilla/5.0 (Windows NT 10.0; Win64; x64; rv:88.0) Gecko/20100101 Firefox/88.0,,Firefox,88,Windows,10
192,1,null,"""",html-keyboard-response,295,812456,0.0-295.0,"""","<div style=""font-size:60px;"">+</div>","""",256,ITI,Test,null,1000,"""","""","""","""","""","""","""","""",1,4/29/2021 19:54,201.92.156.74,Mozilla/5.0 (Windows NT 10.0; Win64; x64; rv:88.0) Gecko/20100101 Firefox/88.0,,Firefox,88,Windows,10
