run_id,condition,rt,responses,trial_type,trial_index,time_elapsed,internal_node_id,question_order,stimulus,button_pressed,iTrial,Phase,ExperimentPhase,key_press,StimulusDurationSetting,CharacterResponse,correctResponse,Face,Name,rearranged,didSubjectEnterRearranged,slider_start,response,Block,recorded_at,ip,user_agent,device,browser,browser_version,platform,platform_version
230,1,17471,"{""Q0"":""A1ZG2V2YO558WL""}",survey-text,0,17486,0.0-0.0,"""","""","""","""","""","""","""","""","""","""","""","""","""","""","""","""","""",5/2/2021 15:16,208.221.46.224,Mozilla/5.0 (Windows NT 6.3; Win64; x64; rv:88.0) Gecko/20100101 Firefox/88.0,,Firefox,88,Windows,6.3
230,1,18255,"{""Q0"":""40""}",survey-text,1,35796,0.0-1.0,"""","""","""","""","""","""","""","""","""","""","""","""","""","""","""","""","""",5/2/2021 15:16,208.221.46.224,Mozilla/5.0 (Windows NT 6.3; Win64; x64; rv:88.0) Gecko/20100101 Firefox/88.0,,Firefox,88,Windows,6.3
230,1,106025,"{""Q0"":""male"",""Q1"":""Not Hispanic/Latino"",""Q2"":""White or Caucasian""}",survey-multi-choice,2,141838,0.0-2.0,"[0,1,2]","""","""","""","""","""","""","""","""","""","""","""","""","""","""","""","""",5/2/2021 15:16,208.221.46.224,Mozilla/5.0 (Windows NT 6.3; Win64; x64; rv:88.0) Gecko/20100101 Firefox/88.0,,Firefox,88,Windows,6.3
230,1,4468,"""",image-button-response,3,146355,0.0-3.0,"""",directionsMemoryAssociation1.JPG,0,1,IntroDirections1,break,"""","""","""","""","""","""","""","""","""","""","""",5/2/2021 15:16,208.221.46.224,Mozilla/5.0 (Windows NT 6.3; Win64; x64; rv:88.0) Gecko/20100101 Firefox/88.0,,Firefox,88,Windows,6.3
230,1,5418,"""",image-button-response,4,151804,0.0-4.0,"""",directionsMemoryAssociation2.JPG,0,1,IntroDirections2,break,"""","""","""","""","""","""","""","""","""","""","""",5/2/2021 15:16,208.221.46.224,Mozilla/5.0 (Windows NT 6.3; Win64; x64; rv:88.0) Gecko/20100101 Firefox/88.0,,Firefox,88,Windows,6.3
230,1,3072,"""",html-keyboard-response,5,156835,0.0-5.0,"""","<img src='jspsych/CFDfaces/CFD-WM-216-061-N.jpg' height=""250px"">,</br><b>Samuel</b>","""",1,IntactFace,Practice,70,5000,f,"""","""","""","""","""","""","""","""",5/2/2021 15:16,208.221.46.224,Mozilla/5.0 (Windows NT 6.3; Win64; x64; rv:88.0) Gecko/20100101 Firefox/88.0,,Firefox,88,Windows,6.3
230,1,null,"""",html-keyboard-response,6,157344,0.0-6.0,"""","<div style=""font-size:60px;"">+</div>","""",1,ITI,Practice,null,1000,"""","""","""","""","""","""","""","""","""",5/2/2021 15:16,208.221.46.224,Mozilla/5.0 (Windows NT 6.3; Win64; x64; rv:88.0) Gecko/20100101 Firefox/88.0,,Firefox,88,Windows,6.3
230,1,2094,"""",html-keyboard-response,7,162371,0.0-7.0,"""","<img src='jspsych/CFDfaces/CFD-BM-043-071-N.jpg' height=""250px"">,</br><b>Patrick</b>","""",2,IntactFace,Practice,70,5000,f,"""","""","""","""","""","""","""","""",5/2/2021 15:16,208.221.46.224,Mozilla/5.0 (Windows NT 6.3; Win64; x64; rv:88.0) Gecko/20100101 Firefox/88.0,,Firefox,88,Windows,6.3
230,1,null,"""",html-keyboard-response,8,162875,0.0-8.0,"""","<div style=""font-size:60px;"">+</div>","""",2,ITI,Practice,null,1000,"""","""","""","""","""","""","""","""","""",5/2/2021 15:16,208.221.46.224,Mozilla/5.0 (Windows NT 6.3; Win64; x64; rv:88.0) Gecko/20100101 Firefox/88.0,,Firefox,88,Windows,6.3
230,1,1336,"""",html-keyboard-response,9,167893,0.0-9.0,"""","<img src='jspsych/CFDfaces/CFD-BM-207-024-N.jpg' height=""250px"">,</br><b>Carlos</b>","""",3,IntactFace,Practice,70,5000,f,"""","""","""","""","""","""","""","""",5/2/2021 15:16,208.221.46.224,Mozilla/5.0 (Windows NT 6.3; Win64; x64; rv:88.0) Gecko/20100101 Firefox/88.0,,Firefox,88,Windows,6.3
230,1,null,"""",html-keyboard-response,10,168399,0.0-10.0,"""","<div style=""font-size:60px;"">+</div>","""",3,ITI,Practice,null,1000,"""","""","""","""","""","""","""","""","""",5/2/2021 15:16,208.221.46.224,Mozilla/5.0 (Windows NT 6.3; Win64; x64; rv:88.0) Gecko/20100101 Firefox/88.0,,Firefox,88,Windows,6.3
230,1,4038,"""",html-keyboard-response,11,173412,0.0-11.0,"""","<img src='jspsych/CFDfaces/CFD-LF-230-203-N.jpg' height=""250px"">,</br><b>Tara</b>","""",4,IntactFace,Practice,70,5000,f,"""","""","""","""","""","""","""","""",5/2/2021 15:16,208.221.46.224,Mozilla/5.0 (Windows NT 6.3; Win64; x64; rv:88.0) Gecko/20100101 Firefox/88.0,,Firefox,88,Windows,6.3
230,1,null,"""",html-keyboard-response,12,173915,0.0-12.0,"""","<div style=""font-size:60px;"">+</div>","""",4,ITI,Practice,null,1000,"""","""","""","""","""","""","""","""","""",5/2/2021 15:16,208.221.46.224,Mozilla/5.0 (Windows NT 6.3; Win64; x64; rv:88.0) Gecko/20100101 Firefox/88.0,,Firefox,88,Windows,6.3
230,1,1692,"""",html-keyboard-response,13,178924,0.0-13.0,"""","<img src='jspsych/CFDfaces/CFD-WF-003-003-N.jpg' height=""250px"">,</br><b>Cassandra</b>","""",5,IntactFace,Practice,70,5000,f,"""","""","""","""","""","""","""","""",5/2/2021 15:16,208.221.46.224,Mozilla/5.0 (Windows NT 6.3; Win64; x64; rv:88.0) Gecko/20100101 Firefox/88.0,,Firefox,88,Windows,6.3
230,1,null,"""",html-keyboard-response,14,179431,0.0-14.0,"""","<div style=""font-size:60px;"">+</div>","""",5,ITI,Practice,null,1000,"""","""","""","""","""","""","""","""","""",5/2/2021 15:16,208.221.46.224,Mozilla/5.0 (Windows NT 6.3; Win64; x64; rv:88.0) Gecko/20100101 Firefox/88.0,,Firefox,88,Windows,6.3
230,1,1460,"""",html-keyboard-response,15,184444,0.0-15.0,"""","<img src='jspsych/CFDfaces/CFD-WM-207-048-N.jpg' height=""250px"">,</br><b>Marcus</b>","""",6,IntactFace,Practice,70,5000,f,"""","""","""","""","""","""","""","""",5/2/2021 15:16,208.221.46.224,Mozilla/5.0 (Windows NT 6.3; Win64; x64; rv:88.0) Gecko/20100101 Firefox/88.0,,Firefox,88,Windows,6.3
230,1,null,"""",html-keyboard-response,16,184949,0.0-16.0,"""","<div style=""font-size:60px;"">+</div>","""",6,ITI,Practice,null,1000,"""","""","""","""","""","""","""","""","""",5/2/2021 15:16,208.221.46.224,Mozilla/5.0 (Windows NT 6.3; Win64; x64; rv:88.0) Gecko/20100101 Firefox/88.0,,Firefox,88,Windows,6.3
230,1,2736,"""",html-keyboard-response,17,189959,0.0-17.0,"""","<img src='jspsych/CFDfaces/CFD-LF-244-096-N.jpg' height=""250px"">,</br><b>Katelyn</b>","""",7,IntactFace,Practice,70,5000,f,"""","""","""","""","""","""","""","""",5/2/2021 15:16,208.221.46.224,Mozilla/5.0 (Windows NT 6.3; Win64; x64; rv:88.0) Gecko/20100101 Firefox/88.0,,Firefox,88,Windows,6.3
230,1,null,"""",html-keyboard-response,18,190463,0.0-18.0,"""","<div style=""font-size:60px;"">+</div>","""",7,ITI,Practice,null,1000,"""","""","""","""","""","""","""","""","""",5/2/2021 15:16,208.221.46.224,Mozilla/5.0 (Windows NT 6.3; Win64; x64; rv:88.0) Gecko/20100101 Firefox/88.0,,Firefox,88,Windows,6.3
230,1,4165,"""",html-keyboard-response,19,195476,0.0-19.0,"""","<img src='jspsych/CFDfaces/CFD-AF-220-107-N.jpg' height=""250px"">,</br><b>Shannon</b>","""",8,IntactFace,Practice,70,5000,f,"""","""","""","""","""","""","""","""",5/2/2021 15:16,208.221.46.224,Mozilla/5.0 (Windows NT 6.3; Win64; x64; rv:88.0) Gecko/20100101 Firefox/88.0,,Firefox,88,Windows,6.3
230,1,null,"""",html-keyboard-response,20,195981,0.0-20.0,"""","<div style=""font-size:60px;"">+</div>","""",8,ITI,Practice,null,1000,"""","""","""","""","""","""","""","""","""",5/2/2021 15:16,208.221.46.224,Mozilla/5.0 (Windows NT 6.3; Win64; x64; rv:88.0) Gecko/20100101 Firefox/88.0,,Firefox,88,Windows,6.3
230,1,13884,"""",image-button-response,21,209894,0.0-21.0,"""",directionsForTest.JPG,0,1,directionsForTest,break,"""","""","""","""","""","""","""","""","""","""","""",5/2/2021 15:16,208.221.46.224,Mozilla/5.0 (Windows NT 6.3; Win64; x64; rv:88.0) Gecko/20100101 Firefox/88.0,,Firefox,88,Windows,6.3
230,1,6617,"""",image-button-response,22,216558,0.0-22.0,"""",directionsForTest2.JPG,0,1,directionsForTest2,break,"""","""","""","""","""","""","""","""","""","""","""",5/2/2021 15:16,208.221.46.224,Mozilla/5.0 (Windows NT 6.3; Win64; x64; rv:88.0) Gecko/20100101 Firefox/88.0,,Firefox,88,Windows,6.3
230,1,null,"""",html-keyboard-response,23,217567,0.0-23.0,"""","<div style=""font-size:60px;"">+</div>","""",1,ITI,Practice,null,1000,"""","""","""","""","""","""","""","""","""",5/2/2021 15:16,208.221.46.224,Mozilla/5.0 (Windows NT 6.3; Win64; x64; rv:88.0) Gecko/20100101 Firefox/88.0,,Firefox,88,Windows,6.3
230,1,null,"""",image-keyboard-response,24,217845,0.0-24.0,"""",jspsych/scrambledDisgustFaces/scrambledBF23DIS.JPG,"""",1,forwardMask,Practice,null,250,"""",d,"""","""","""","""","""","""","""",5/2/2021 15:16,208.221.46.224,Mozilla/5.0 (Windows NT 6.3; Win64; x64; rv:88.0) Gecko/20100101 Firefox/88.0,,Firefox,88,Windows,6.3
230,1,null,"""",image-keyboard-response,25,217868,0.0-25.0,"""",jspsych/disgustFaces/BF23DIS.JPG,"""",1,Cue,Practice,null,16,"""","""","""","""","""","""","""","""","""",5/2/2021 15:16,208.221.46.224,Mozilla/5.0 (Windows NT 6.3; Win64; x64; rv:88.0) Gecko/20100101 Firefox/88.0,,Firefox,88,Windows,6.3
230,1,null,"""",image-keyboard-response,26,217975,0.0-26.0,"""",jspsych/neutralFaces/AF02NES.JPG,"""",1,backwardMask,Practice,null,100,"""","""","""","""","""","""","""","""","""",5/2/2021 15:16,208.221.46.224,Mozilla/5.0 (Windows NT 6.3; Win64; x64; rv:88.0) Gecko/20100101 Firefox/88.0,,Firefox,88,Windows,6.3
230,1,null,"""",html-keyboard-response,27,218978,0.0-27.0,"""","<div style=""font-size:60px;"">+</div>","""",1,fixationBtwnNeutralMaskAndPrompt,Practice,null,1000,"""","""","""","""","""","""","""","""","""",5/2/2021 15:16,208.221.46.224,Mozilla/5.0 (Windows NT 6.3; Win64; x64; rv:88.0) Gecko/20100101 Firefox/88.0,,Firefox,88,Windows,6.3
230,1,1635,"""",html-button-response,28,220620,0.0-28.0,"""","<img src='jspsych/CFDfaces/CFD-WM-216-061-N.jpg'height=""250px""></br><b>Samuel</b>",0,1,IntactOrRearranged,Practice,"""","""","""","""",CFD-WM-216-061-N.jpg,Samuel,0,0,"""","""","""",5/2/2021 15:16,208.221.46.224,Mozilla/5.0 (Windows NT 6.3; Win64; x64; rv:88.0) Gecko/20100101 Firefox/88.0,,Firefox,88,Windows,6.3
230,1,3232,"""",html-slider-response,29,223868,0.0-29.0,"""","<img src='jspsych/CFDfaces/CFD-WM-216-061-N.jpg'height=""250px""></br><b>Samuel</b>","""",1,ConfidenceQuery,Practice,"""","""","""","""",CFD-AM-248-104-N.jpg,Steven,0,"""",0,65,"""",5/2/2021 15:16,208.221.46.224,Mozilla/5.0 (Windows NT 6.3; Win64; x64; rv:88.0) Gecko/20100101 Firefox/88.0,,Firefox,88,Windows,6.3
230,1,1804,"""",html-button-response,30,225681,0.0-30.0,"""",You are Correct. You called an Intact Pair Intact,0,1,feedback,Practice,"""","""","""","""","""","""","""","""","""","""","""",5/2/2021 15:16,208.221.46.224,Mozilla/5.0 (Windows NT 6.3; Win64; x64; rv:88.0) Gecko/20100101 Firefox/88.0,,Firefox,88,Windows,6.3
230,1,null,"""",html-keyboard-response,31,226688,0.0-31.0,"""","<div style=""font-size:60px;"">+</div>","""",2,ITI,Practice,null,1000,"""","""","""","""","""","""","""","""","""",5/2/2021 15:16,208.221.46.224,Mozilla/5.0 (Windows NT 6.3; Win64; x64; rv:88.0) Gecko/20100101 Firefox/88.0,,Firefox,88,Windows,6.3
230,1,null,"""",image-keyboard-response,32,226946,0.0-32.0,"""",jspsych/scrambledNeutralFaces/scrambledBF26NES.JPG,"""",2,forwardMask,Practice,null,250,"""",n,"""","""","""","""","""","""","""",5/2/2021 15:16,208.221.46.224,Mozilla/5.0 (Windows NT 6.3; Win64; x64; rv:88.0) Gecko/20100101 Firefox/88.0,,Firefox,88,Windows,6.3
230,1,null,"""",image-keyboard-response,33,226968,0.0-33.0,"""",jspsych/neutralFaces/BF26NES.JPG,"""",2,Cue,Practice,null,16,"""","""","""","""","""","""","""","""","""",5/2/2021 15:16,208.221.46.224,Mozilla/5.0 (Windows NT 6.3; Win64; x64; rv:88.0) Gecko/20100101 Firefox/88.0,,Firefox,88,Windows,6.3
230,1,null,"""",image-keyboard-response,34,227075,0.0-34.0,"""",jspsych/neutralFaces/BF24NES.JPG,"""",2,backwardMask,Practice,null,100,"""","""","""","""","""","""","""","""","""",5/2/2021 15:16,208.221.46.224,Mozilla/5.0 (Windows NT 6.3; Win64; x64; rv:88.0) Gecko/20100101 Firefox/88.0,,Firefox,88,Windows,6.3
230,1,null,"""",html-keyboard-response,35,228077,0.0-35.0,"""","<div style=""font-size:60px;"">+</div>","""",2,fixationBtwnNeutralMaskAndPrompt,Practice,null,1000,"""","""","""","""","""","""","""","""","""",5/2/2021 15:16,208.221.46.224,Mozilla/5.0 (Windows NT 6.3; Win64; x64; rv:88.0) Gecko/20100101 Firefox/88.0,,Firefox,88,Windows,6.3
230,1,1570,"""",html-button-response,36,229652,0.0-36.0,"""","<img src='jspsych/CFDfaces/CFD-WF-003-003-N.jpg'height=""250px""></br><b>Katelyn</b>",0,2,IntactOrRearranged,Practice,"""","""","""","""",CFD-WF-003-003-N.jpg,Katelyn,1,0,"""","""","""",5/2/2021 15:16,208.221.46.224,Mozilla/5.0 (Windows NT 6.3; Win64; x64; rv:88.0) Gecko/20100101 Firefox/88.0,,Firefox,88,Windows,6.3
230,1,2367,"""",html-slider-response,37,232045,0.0-37.0,"""","<img src='jspsych/CFDfaces/CFD-WF-003-003-N.jpg'height=""250px""></br><b>Katelyn</b>","""",2,ConfidenceQuery,Practice,"""","""","""","""",CFD-AM-248-104-N.jpg,Steven,1,"""",0,43,"""",5/2/2021 15:16,208.221.46.224,Mozilla/5.0 (Windows NT 6.3; Win64; x64; rv:88.0) Gecko/20100101 Firefox/88.0,,Firefox,88,Windows,6.3
230,1,2270,"""",html-button-response,38,234320,0.0-38.0,"""",You are Incorrect. You called a Rearranged Pair Intact,0,2,feedback,Practice,"""","""","""","""","""","""","""","""","""","""","""",5/2/2021 15:16,208.221.46.224,Mozilla/5.0 (Windows NT 6.3; Win64; x64; rv:88.0) Gecko/20100101 Firefox/88.0,,Firefox,88,Windows,6.3
230,1,null,"""",html-keyboard-response,39,235325,0.0-39.0,"""","<div style=""font-size:60px;"">+</div>","""",3,ITI,Practice,null,1000,"""","""","""","""","""","""","""","""","""",5/2/2021 15:16,208.221.46.224,Mozilla/5.0 (Windows NT 6.3; Win64; x64; rv:88.0) Gecko/20100101 Firefox/88.0,,Firefox,88,Windows,6.3
230,1,null,"""",image-keyboard-response,40,235597,0.0-40.0,"""",jspsych/scrambledDisgustFaces/scrambledAF10DIS.JPG,"""",3,forwardMask,Practice,null,250,"""",d,"""","""","""","""","""","""","""",5/2/2021 15:16,208.221.46.224,Mozilla/5.0 (Windows NT 6.3; Win64; x64; rv:88.0) Gecko/20100101 Firefox/88.0,,Firefox,88,Windows,6.3
230,1,null,"""",image-keyboard-response,41,235621,0.0-41.0,"""",jspsych/disgustFaces/AF10DIS.JPG,"""",3,Cue,Practice,null,16,"""","""","""","""","""","""","""","""","""",5/2/2021 15:16,208.221.46.224,Mozilla/5.0 (Windows NT 6.3; Win64; x64; rv:88.0) Gecko/20100101 Firefox/88.0,,Firefox,88,Windows,6.3
230,1,null,"""",image-keyboard-response,42,235729,0.0-42.0,"""",jspsych/neutralFaces/BF16NES.JPG,"""",3,backwardMask,Practice,null,100,"""","""","""","""","""","""","""","""","""",5/2/2021 15:16,208.221.46.224,Mozilla/5.0 (Windows NT 6.3; Win64; x64; rv:88.0) Gecko/20100101 Firefox/88.0,,Firefox,88,Windows,6.3
230,1,null,"""",html-keyboard-response,43,236731,0.0-43.0,"""","<div style=""font-size:60px;"">+</div>","""",3,fixationBtwnNeutralMaskAndPrompt,Practice,null,1000,"""","""","""","""","""","""","""","""","""",5/2/2021 15:16,208.221.46.224,Mozilla/5.0 (Windows NT 6.3; Win64; x64; rv:88.0) Gecko/20100101 Firefox/88.0,,Firefox,88,Windows,6.3
230,1,2384,"""",html-button-response,44,239123,0.0-44.0,"""","<img src='jspsych/CFDfaces/CFD-WM-207-048-N.jpg'height=""250px""></br><b>Carlos</b>",1,3,IntactOrRearranged,Practice,"""","""","""","""",CFD-WM-207-048-N.jpg,Carlos,1,1,"""","""","""",5/2/2021 15:16,208.221.46.224,Mozilla/5.0 (Windows NT 6.3; Win64; x64; rv:88.0) Gecko/20100101 Firefox/88.0,,Firefox,88,Windows,6.3
230,1,2605,"""",html-slider-response,45,241742,0.0-45.0,"""","<img src='jspsych/CFDfaces/CFD-WM-207-048-N.jpg'height=""250px""></br><b>Carlos</b>","""",3,ConfidenceQuery,Practice,"""","""","""","""",CFD-AM-248-104-N.jpg,Steven,1,"""",0,56,"""",5/2/2021 15:16,208.221.46.224,Mozilla/5.0 (Windows NT 6.3; Win64; x64; rv:88.0) Gecko/20100101 Firefox/88.0,,Firefox,88,Windows,6.3
230,1,43174,"""",html-button-response,46,284931,0.0-46.0,"""",You are Correct. You Called A Rearranged Pair Rearranged,0,3,feedback,Practice,"""","""","""","""","""","""","""","""","""","""","""",5/2/2021 15:16,208.221.46.224,Mozilla/5.0 (Windows NT 6.3; Win64; x64; rv:88.0) Gecko/20100101 Firefox/88.0,,Firefox,88,Windows,6.3
230,1,null,"""",html-keyboard-response,47,285941,0.0-47.0,"""","<div style=""font-size:60px;"">+</div>","""",4,ITI,Practice,null,1000,"""","""","""","""","""","""","""","""","""",5/2/2021 15:16,208.221.46.224,Mozilla/5.0 (Windows NT 6.3; Win64; x64; rv:88.0) Gecko/20100101 Firefox/88.0,,Firefox,88,Windows,6.3
230,1,null,"""",image-keyboard-response,48,286217,0.0-48.0,"""",jspsych/scrambledDisgustFaces/scrambledAM29DIS.JPG,"""",4,forwardMask,Practice,null,250,"""",d,"""","""","""","""","""","""","""",5/2/2021 15:16,208.221.46.224,Mozilla/5.0 (Windows NT 6.3; Win64; x64; rv:88.0) Gecko/20100101 Firefox/88.0,,Firefox,88,Windows,6.3
230,1,null,"""",image-keyboard-response,49,286242,0.0-49.0,"""",jspsych/disgustFaces/AM29DIS.JPG,"""",4,Cue,Practice,null,16,"""","""","""","""","""","""","""","""","""",5/2/2021 15:16,208.221.46.224,Mozilla/5.0 (Windows NT 6.3; Win64; x64; rv:88.0) Gecko/20100101 Firefox/88.0,,Firefox,88,Windows,6.3
230,1,null,"""",image-keyboard-response,50,286353,0.0-50.0,"""",jspsych/neutralFaces/AM26NES.JPG,"""",4,backwardMask,Practice,null,100,"""","""","""","""","""","""","""","""","""",5/2/2021 15:16,208.221.46.224,Mozilla/5.0 (Windows NT 6.3; Win64; x64; rv:88.0) Gecko/20100101 Firefox/88.0,,Firefox,88,Windows,6.3
230,1,null,"""",html-keyboard-response,51,287356,0.0-51.0,"""","<div style=""font-size:60px;"">+</div>","""",4,fixationBtwnNeutralMaskAndPrompt,Practice,null,1000,"""","""","""","""","""","""","""","""","""",5/2/2021 15:16,208.221.46.224,Mozilla/5.0 (Windows NT 6.3; Win64; x64; rv:88.0) Gecko/20100101 Firefox/88.0,,Firefox,88,Windows,6.3
230,1,2102,"""",html-button-response,52,289463,0.0-52.0,"""","<img src='jspsych/CFDfaces/CFD-BM-207-024-N.jpg'height=""250px""></br><b>Marcus</b>",1,4,IntactOrRearranged,Practice,"""","""","""","""",CFD-BM-207-024-N.jpg,Marcus,1,1,"""","""","""",5/2/2021 15:16,208.221.46.224,Mozilla/5.0 (Windows NT 6.3; Win64; x64; rv:88.0) Gecko/20100101 Firefox/88.0,,Firefox,88,Windows,6.3
230,1,2519,"""",html-slider-response,53,291993,0.0-53.0,"""","<img src='jspsych/CFDfaces/CFD-BM-207-024-N.jpg'height=""250px""></br><b>Marcus</b>","""",4,ConfidenceQuery,Practice,"""","""","""","""",CFD-AM-248-104-N.jpg,Steven,1,"""",0,66,"""",5/2/2021 15:16,208.221.46.224,Mozilla/5.0 (Windows NT 6.3; Win64; x64; rv:88.0) Gecko/20100101 Firefox/88.0,,Firefox,88,Windows,6.3
230,1,1473,"""",html-button-response,54,293478,0.0-54.0,"""",You are Correct. You Called A Rearranged Pair Rearranged,0,4,feedback,Practice,"""","""","""","""","""","""","""","""","""","""","""",5/2/2021 15:16,208.221.46.224,Mozilla/5.0 (Windows NT 6.3; Win64; x64; rv:88.0) Gecko/20100101 Firefox/88.0,,Firefox,88,Windows,6.3
230,1,null,"""",html-keyboard-response,55,294486,0.0-55.0,"""","<div style=""font-size:60px;"">+</div>","""",5,ITI,Practice,null,1000,"""","""","""","""","""","""","""","""","""",5/2/2021 15:16,208.221.46.224,Mozilla/5.0 (Windows NT 6.3; Win64; x64; rv:88.0) Gecko/20100101 Firefox/88.0,,Firefox,88,Windows,6.3
230,1,null,"""",image-keyboard-response,56,294746,0.0-56.0,"""",jspsych/scrambledNeutralFaces/scrambledAF10NES.JPG,"""",5,forwardMask,Practice,null,250,"""",n,"""","""","""","""","""","""","""",5/2/2021 15:16,208.221.46.224,Mozilla/5.0 (Windows NT 6.3; Win64; x64; rv:88.0) Gecko/20100101 Firefox/88.0,,Firefox,88,Windows,6.3
230,1,null,"""",image-keyboard-response,57,294769,0.0-57.0,"""",jspsych/neutralFaces/AF10NES.JPG,"""",5,Cue,Practice,null,16,"""","""","""","""","""","""","""","""","""",5/2/2021 15:16,208.221.46.224,Mozilla/5.0 (Windows NT 6.3; Win64; x64; rv:88.0) Gecko/20100101 Firefox/88.0,,Firefox,88,Windows,6.3
230,1,null,"""",image-keyboard-response,58,294878,0.0-58.0,"""",jspsych/neutralFaces/BF05NES.JPG,"""",5,backwardMask,Practice,null,100,"""","""","""","""","""","""","""","""","""",5/2/2021 15:16,208.221.46.224,Mozilla/5.0 (Windows NT 6.3; Win64; x64; rv:88.0) Gecko/20100101 Firefox/88.0,,Firefox,88,Windows,6.3
230,1,null,"""",html-keyboard-response,59,295884,0.0-59.0,"""","<div style=""font-size:60px;"">+</div>","""",5,fixationBtwnNeutralMaskAndPrompt,Practice,null,1000,"""","""","""","""","""","""","""","""","""",5/2/2021 15:16,208.221.46.224,Mozilla/5.0 (Windows NT 6.3; Win64; x64; rv:88.0) Gecko/20100101 Firefox/88.0,,Firefox,88,Windows,6.3
230,1,1892,"""",html-button-response,60,297781,0.0-60.0,"""","<img src='jspsych/CFDfaces/CFD-BM-043-071-N.jpg'height=""250px""></br><b>Patrick</b>",0,5,IntactOrRearranged,Practice,"""","""","""","""",CFD-BM-043-071-N.jpg,Patrick,0,0,"""","""","""",5/2/2021 15:16,208.221.46.224,Mozilla/5.0 (Windows NT 6.3; Win64; x64; rv:88.0) Gecko/20100101 Firefox/88.0,,Firefox,88,Windows,6.3
230,1,2314,"""",html-slider-response,61,300115,0.0-61.0,"""","<img src='jspsych/CFDfaces/CFD-BM-043-071-N.jpg'height=""250px""></br><b>Patrick</b>","""",5,ConfidenceQuery,Practice,"""","""","""","""",CFD-AM-248-104-N.jpg,Steven,0,"""",0,54,"""",5/2/2021 15:16,208.221.46.224,Mozilla/5.0 (Windows NT 6.3; Win64; x64; rv:88.0) Gecko/20100101 Firefox/88.0,,Firefox,88,Windows,6.3
230,1,1281,"""",html-button-response,62,301403,0.0-62.0,"""",You are Correct. You called an Intact Pair Intact,0,5,feedback,Practice,"""","""","""","""","""","""","""","""","""","""","""",5/2/2021 15:16,208.221.46.224,Mozilla/5.0 (Windows NT 6.3; Win64; x64; rv:88.0) Gecko/20100101 Firefox/88.0,,Firefox,88,Windows,6.3
230,1,null,"""",html-keyboard-response,63,302409,0.0-63.0,"""","<div style=""font-size:60px;"">+</div>","""",6,ITI,Practice,null,1000,"""","""","""","""","""","""","""","""","""",5/2/2021 15:16,208.221.46.224,Mozilla/5.0 (Windows NT 6.3; Win64; x64; rv:88.0) Gecko/20100101 Firefox/88.0,,Firefox,88,Windows,6.3
230,1,null,"""",image-keyboard-response,64,302666,0.0-64.0,"""",jspsych/scrambledNeutralFaces/scrambledAF06NES.JPG,"""",6,forwardMask,Practice,null,250,"""",n,"""","""","""","""","""","""","""",5/2/2021 15:16,208.221.46.224,Mozilla/5.0 (Windows NT 6.3; Win64; x64; rv:88.0) Gecko/20100101 Firefox/88.0,,Firefox,88,Windows,6.3
230,1,null,"""",image-keyboard-response,65,302690,0.0-65.0,"""",jspsych/neutralFaces/AF06NES.JPG,"""",6,Cue,Practice,null,16,"""","""","""","""","""","""","""","""","""",5/2/2021 15:16,208.221.46.224,Mozilla/5.0 (Windows NT 6.3; Win64; x64; rv:88.0) Gecko/20100101 Firefox/88.0,,Firefox,88,Windows,6.3
230,1,null,"""",image-keyboard-response,66,302798,0.0-66.0,"""",jspsych/neutralFaces/BF12NES.JPG,"""",6,backwardMask,Practice,null,100,"""","""","""","""","""","""","""","""","""",5/2/2021 15:16,208.221.46.224,Mozilla/5.0 (Windows NT 6.3; Win64; x64; rv:88.0) Gecko/20100101 Firefox/88.0,,Firefox,88,Windows,6.3
230,1,null,"""",html-keyboard-response,67,303801,0.0-67.0,"""","<div style=""font-size:60px;"">+</div>","""",6,fixationBtwnNeutralMaskAndPrompt,Practice,null,1000,"""","""","""","""","""","""","""","""","""",5/2/2021 15:16,208.221.46.224,Mozilla/5.0 (Windows NT 6.3; Win64; x64; rv:88.0) Gecko/20100101 Firefox/88.0,,Firefox,88,Windows,6.3
230,1,1981,"""",html-button-response,68,305795,0.0-68.0,"""","<img src='jspsych/CFDfaces/CFD-LF-230-203-N.jpg'height=""250px""></br><b>Tara</b>",1,6,IntactOrRearranged,Practice,"""","""","""","""",CFD-LF-230-203-N.jpg,Tara,0,1,"""","""","""",5/2/2021 15:16,208.221.46.224,Mozilla/5.0 (Windows NT 6.3; Win64; x64; rv:88.0) Gecko/20100101 Firefox/88.0,,Firefox,88,Windows,6.3
230,1,2201,"""",html-slider-response,69,308004,0.0-69.0,"""","<img src='jspsych/CFDfaces/CFD-LF-230-203-N.jpg'height=""250px""></br><b>Tara</b>","""",6,ConfidenceQuery,Practice,"""","""","""","""",CFD-AM-248-104-N.jpg,Steven,0,"""",0,51,"""",5/2/2021 15:16,208.221.46.224,Mozilla/5.0 (Windows NT 6.3; Win64; x64; rv:88.0) Gecko/20100101 Firefox/88.0,,Firefox,88,Windows,6.3
230,1,1391,"""",html-button-response,70,309400,0.0-70.0,"""",You are Incorrect. You Called an Intact Pair Rearranged,0,6,feedback,Practice,"""","""","""","""","""","""","""","""","""","""","""",5/2/2021 15:16,208.221.46.224,Mozilla/5.0 (Windows NT 6.3; Win64; x64; rv:88.0) Gecko/20100101 Firefox/88.0,,Firefox,88,Windows,6.3
230,1,null,"""",html-keyboard-response,71,310418,0.0-71.0,"""","<div style=""font-size:60px;"">+</div>","""",7,ITI,Practice,null,1000,"""","""","""","""","""","""","""","""","""",5/2/2021 15:16,208.221.46.224,Mozilla/5.0 (Windows NT 6.3; Win64; x64; rv:88.0) Gecko/20100101 Firefox/88.0,,Firefox,88,Windows,6.3
230,1,null,"""",image-keyboard-response,72,310677,0.0-72.0,"""",jspsych/scrambledDisgustFaces/scrambledAM15DIS.JPG,"""",7,forwardMask,Practice,null,250,"""",d,"""","""","""","""","""","""","""",5/2/2021 15:16,208.221.46.224,Mozilla/5.0 (Windows NT 6.3; Win64; x64; rv:88.0) Gecko/20100101 Firefox/88.0,,Firefox,88,Windows,6.3
230,1,null,"""",image-keyboard-response,73,310702,0.0-73.0,"""",jspsych/disgustFaces/AM15DIS.JPG,"""",7,Cue,Practice,null,16,"""","""","""","""","""","""","""","""","""",5/2/2021 15:16,208.221.46.224,Mozilla/5.0 (Windows NT 6.3; Win64; x64; rv:88.0) Gecko/20100101 Firefox/88.0,,Firefox,88,Windows,6.3
230,1,null,"""",image-keyboard-response,74,310809,0.0-74.0,"""",jspsych/neutralFaces/AM34NES.JPG,"""",7,backwardMask,Practice,null,100,"""","""","""","""","""","""","""","""","""",5/2/2021 15:16,208.221.46.224,Mozilla/5.0 (Windows NT 6.3; Win64; x64; rv:88.0) Gecko/20100101 Firefox/88.0,,Firefox,88,Windows,6.3
230,1,null,"""",html-keyboard-response,75,311812,0.0-75.0,"""","<div style=""font-size:60px;"">+</div>","""",7,fixationBtwnNeutralMaskAndPrompt,Practice,null,1000,"""","""","""","""","""","""","""","""","""",5/2/2021 15:16,208.221.46.224,Mozilla/5.0 (Windows NT 6.3; Win64; x64; rv:88.0) Gecko/20100101 Firefox/88.0,,Firefox,88,Windows,6.3
230,1,1938,"""",html-button-response,76,313756,0.0-76.0,"""","<img src='jspsych/CFDfaces/CFD-LF-244-096-N.jpg'height=""250px""></br><b>Cassandra</b>",1,7,IntactOrRearranged,Practice,"""","""","""","""",CFD-LF-244-096-N.jpg,Cassandra,1,1,"""","""","""",5/2/2021 15:16,208.221.46.224,Mozilla/5.0 (Windows NT 6.3; Win64; x64; rv:88.0) Gecko/20100101 Firefox/88.0,,Firefox,88,Windows,6.3
230,1,2230,"""",html-slider-response,77,315997,0.0-77.0,"""","<img src='jspsych/CFDfaces/CFD-LF-244-096-N.jpg'height=""250px""></br><b>Cassandra</b>","""",7,ConfidenceQuery,Practice,"""","""","""","""",CFD-AM-248-104-N.jpg,Steven,1,"""",0,49,"""",5/2/2021 15:16,208.221.46.224,Mozilla/5.0 (Windows NT 6.3; Win64; x64; rv:88.0) Gecko/20100101 Firefox/88.0,,Firefox,88,Windows,6.3
230,1,1586,"""",html-button-response,78,317599,0.0-78.0,"""",You are Correct. You Called A Rearranged Pair Rearranged,0,7,feedback,Practice,"""","""","""","""","""","""","""","""","""","""","""",5/2/2021 15:16,208.221.46.224,Mozilla/5.0 (Windows NT 6.3; Win64; x64; rv:88.0) Gecko/20100101 Firefox/88.0,,Firefox,88,Windows,6.3
230,1,null,"""",html-keyboard-response,79,318606,0.0-79.0,"""","<div style=""font-size:60px;"">+</div>","""",8,ITI,Practice,null,1000,"""","""","""","""","""","""","""","""","""",5/2/2021 15:16,208.221.46.224,Mozilla/5.0 (Windows NT 6.3; Win64; x64; rv:88.0) Gecko/20100101 Firefox/88.0,,Firefox,88,Windows,6.3
230,1,null,"""",image-keyboard-response,80,318862,0.0-80.0,"""",jspsych/scrambledDisgustFaces/scrambledAF25DIS.JPG,"""",8,forwardMask,Practice,null,250,"""",d,"""","""","""","""","""","""","""",5/2/2021 15:16,208.221.46.224,Mozilla/5.0 (Windows NT 6.3; Win64; x64; rv:88.0) Gecko/20100101 Firefox/88.0,,Firefox,88,Windows,6.3
230,1,null,"""",image-keyboard-response,81,318883,0.0-81.0,"""",jspsych/disgustFaces/AF25DIS.JPG,"""",8,Cue,Practice,null,16,"""","""","""","""","""","""","""","""","""",5/2/2021 15:16,208.221.46.224,Mozilla/5.0 (Windows NT 6.3; Win64; x64; rv:88.0) Gecko/20100101 Firefox/88.0,,Firefox,88,Windows,6.3
230,1,null,"""",image-keyboard-response,82,318991,0.0-82.0,"""",jspsych/neutralFaces/BF11NES.JPG,"""",8,backwardMask,Practice,null,100,"""","""","""","""","""","""","""","""","""",5/2/2021 15:16,208.221.46.224,Mozilla/5.0 (Windows NT 6.3; Win64; x64; rv:88.0) Gecko/20100101 Firefox/88.0,,Firefox,88,Windows,6.3
230,1,null,"""",html-keyboard-response,83,319994,0.0-83.0,"""","<div style=""font-size:60px;"">+</div>","""",8,fixationBtwnNeutralMaskAndPrompt,Practice,null,1000,"""","""","""","""","""","""","""","""","""",5/2/2021 15:16,208.221.46.224,Mozilla/5.0 (Windows NT 6.3; Win64; x64; rv:88.0) Gecko/20100101 Firefox/88.0,,Firefox,88,Windows,6.3
230,1,2172,"""",html-button-response,84,322170,0.0-84.0,"""","<img src='jspsych/CFDfaces/CFD-AF-220-107-N.jpg'height=""250px""></br><b>Shannon</b>",1,8,IntactOrRearranged,Practice,"""","""","""","""",CFD-AF-220-107-N.jpg,Shannon,0,1,"""","""","""",5/2/2021 15:16,208.221.46.224,Mozilla/5.0 (Windows NT 6.3; Win64; x64; rv:88.0) Gecko/20100101 Firefox/88.0,,Firefox,88,Windows,6.3
230,1,null,"""",html-slider-response,85,327189,0.0-85.0,"""","<img src='jspsych/CFDfaces/CFD-AF-220-107-N.jpg'height=""250px""></br><b>Shannon</b>","""",8,ConfidenceQuery,Practice,"""","""","""","""",CFD-AM-248-104-N.jpg,Steven,0,"""",0,null,"""",5/2/2021 15:16,208.221.46.224,Mozilla/5.0 (Windows NT 6.3; Win64; x64; rv:88.0) Gecko/20100101 Firefox/88.0,,Firefox,88,Windows,6.3
230,1,18520,"""",html-button-response,86,345716,0.0-86.0,"""",You are Incorrect. You Called an Intact Pair Rearranged,0,8,feedback,Practice,"""","""","""","""","""","""","""","""","""","""","""",5/2/2021 15:16,208.221.46.224,Mozilla/5.0 (Windows NT 6.3; Win64; x64; rv:88.0) Gecko/20100101 Firefox/88.0,,Firefox,88,Windows,6.3
230,1,2558,"""",image-button-response,87,348315,0.0-87.0,"""",directionsMemoryAssociation3.JPG,0,128,DirectionsBeforeActualTEst,Break,"""","""","""","""","""","""","""","""","""","""","""",5/2/2021 15:16,208.221.46.224,Mozilla/5.0 (Windows NT 6.3; Win64; x64; rv:88.0) Gecko/20100101 Firefox/88.0,,Firefox,88,Windows,6.3
230,1,2600,"""",image-button-response,88,350947,0.0-88.0,"""",directionsForTest2.JPG,0,1,directionsForTest2,break,"""","""","""","""","""","""","""","""","""","""","""",5/2/2021 15:16,208.221.46.224,Mozilla/5.0 (Windows NT 6.3; Win64; x64; rv:88.0) Gecko/20100101 Firefox/88.0,,Firefox,88,Windows,6.3
230,1,85243,"""",html-button-response,89,436201,0.0-89.0,"""","<p>You will be asked to memorize and then recall four sets of face-name pairs. </p> <p> Each set will have 32 pairs. </p> <p>After the fourth set, there will be a brief follow-up experiment (<40 min alltogether)</p>",0,"""","""","""","""","""","""","""","""","""","""","""","""","""","""",5/2/2021 15:16,208.221.46.224,Mozilla/5.0 (Windows NT 6.3; Win64; x64; rv:88.0) Gecko/20100101 Firefox/88.0,,Firefox,88,Windows,6.3
230,1,null,"""",html-keyboard-response,90,441229,0.0-90.0,"""","<img src='jspsych/CFDfaces/CFD-LF-210-220-N.jpg' height=""250px""></br><b>Kimberly</b>","""",256,IntactFace,Memorization,null,5000,"""","""",CFD-LF-206-078-N.jpg,Laura,0,"""","""","""",1,5/2/2021 15:16,208.221.46.224,Mozilla/5.0 (Windows NT 6.3; Win64; x64; rv:88.0) Gecko/20100101 Firefox/88.0,,Firefox,88,Windows,6.3
230,1,null,"""",html-keyboard-response,91,441734,0.0-91.0,"""","<div style=""font-size:60px;"">+</div>","""",256,fixation,Memorization,null,500,"""","""","""","""","""","""","""","""",1,5/2/2021 15:16,208.221.46.224,Mozilla/5.0 (Windows NT 6.3; Win64; x64; rv:88.0) Gecko/20100101 Firefox/88.0,,Firefox,88,Windows,6.3
230,1,3039,"""",html-keyboard-response,92,446758,0.0-92.0,"""","<img src='jspsych/CFDfaces/CFD-LM-246-087-N.jpg' height=""250px""></br><b>James</b>","""",256,IntactFace,Memorization,70,5000,f,"""",CFD-AM-221-184-N.jpg,Mark,0,"""","""","""",1,5/2/2021 15:16,208.221.46.224,Mozilla/5.0 (Windows NT 6.3; Win64; x64; rv:88.0) Gecko/20100101 Firefox/88.0,,Firefox,88,Windows,6.3
230,1,null,"""",html-keyboard-response,93,447261,0.0-93.0,"""","<div style=""font-size:60px;"">+</div>","""",256,fixation,Memorization,null,500,"""","""","""","""","""","""","""","""",1,5/2/2021 15:16,208.221.46.224,Mozilla/5.0 (Windows NT 6.3; Win64; x64; rv:88.0) Gecko/20100101 Firefox/88.0,,Firefox,88,Windows,6.3
230,1,1781,"""",html-keyboard-response,94,452279,0.0-94.0,"""","<img src='jspsych/CFDfaces/CFD-BF-201-080-N.jpg' height=""250px""></br><b>Stephanie</b>","""",256,IntactFace,Memorization,70,5000,f,"""",CFD-AM-205-153-N.jpg,Jacob,0,"""","""","""",1,5/2/2021 15:16,208.221.46.224,Mozilla/5.0 (Windows NT 6.3; Win64; x64; rv:88.0) Gecko/20100101 Firefox/88.0,,Firefox,88,Windows,6.3
230,1,null,"""",html-keyboard-response,95,452783,0.0-95.0,"""","<div style=""font-size:60px;"">+</div>","""",256,fixation,Memorization,null,500,"""","""","""","""","""","""","""","""",1,5/2/2021 15:16,208.221.46.224,Mozilla/5.0 (Windows NT 6.3; Win64; x64; rv:88.0) Gecko/20100101 Firefox/88.0,,Firefox,88,Windows,6.3
230,1,1179,"""",html-keyboard-response,96,457797,0.0-96.0,"""","<img src='jspsych/CFDfaces/CFD-BM-041-035-N.jpg' height=""250px""></br><b>Jason</b>","""",256,IntactFace,Memorization,70,5000,f,"""",CFD-WF-202-056-N.jpg,Amy,0,"""","""","""",1,5/2/2021 15:16,208.221.46.224,Mozilla/5.0 (Windows NT 6.3; Win64; x64; rv:88.0) Gecko/20100101 Firefox/88.0,,Firefox,88,Windows,6.3
230,1,null,"""",html-keyboard-response,97,458301,0.0-97.0,"""","<div style=""font-size:60px;"">+</div>","""",256,fixation,Memorization,null,500,"""","""","""","""","""","""","""","""",1,5/2/2021 15:16,208.221.46.224,Mozilla/5.0 (Windows NT 6.3; Win64; x64; rv:88.0) Gecko/20100101 Firefox/88.0,,Firefox,88,Windows,6.3
230,1,3435,"""",html-keyboard-response,98,463326,0.0-98.0,"""","<img src='jspsych/CFDfaces/CFD-LM-217-162-N.jpg' height=""250px""></br><b>Richard</b>","""",256,IntactFace,Memorization,70,5000,f,"""",CFD-AM-248-104-N.jpg,Steven,0,"""","""","""",1,5/2/2021 15:16,208.221.46.224,Mozilla/5.0 (Windows NT 6.3; Win64; x64; rv:88.0) Gecko/20100101 Firefox/88.0,,Firefox,88,Windows,6.3
230,1,null,"""",html-keyboard-response,99,463831,0.0-99.0,"""","<div style=""font-size:60px;"">+</div>","""",256,fixation,Memorization,null,500,"""","""","""","""","""","""","""","""",1,5/2/2021 15:16,208.221.46.224,Mozilla/5.0 (Windows NT 6.3; Win64; x64; rv:88.0) Gecko/20100101 Firefox/88.0,,Firefox,88,Windows,6.3
230,1,null,"""",html-keyboard-response,100,468845,0.0-100.0,"""","<img src='jspsych/CFDfaces/CFD-LM-233-171-N.jpg' height=""250px""></br><b>Jeffrey</b>","""",256,IntactFace,Memorization,null,5000,"""","""",CFD-BM-027-001-N.jpg,Sean,0,"""","""","""",1,5/2/2021 15:16,208.221.46.224,Mozilla/5.0 (Windows NT 6.3; Win64; x64; rv:88.0) Gecko/20100101 Firefox/88.0,,Firefox,88,Windows,6.3
230,1,null,"""",html-keyboard-response,101,469350,0.0-101.0,"""","<div style=""font-size:60px;"">+</div>","""",256,fixation,Memorization,null,500,"""","""","""","""","""","""","""","""",1,5/2/2021 15:16,208.221.46.224,Mozilla/5.0 (Windows NT 6.3; Win64; x64; rv:88.0) Gecko/20100101 Firefox/88.0,,Firefox,88,Windows,6.3
230,1,376,"""",html-keyboard-response,102,474365,0.0-102.0,"""","<img src='jspsych/CFDfaces/CFD-LM-252-076-N.jpg' height=""250px""></br><b>Robert</b>","""",256,IntactFace,Memorization,78,5000,n,"""",CFD-AF-243-170-N.jpg,Whitney,0,"""","""","""",1,5/2/2021 15:16,208.221.46.224,Mozilla/5.0 (Windows NT 6.3; Win64; x64; rv:88.0) Gecko/20100101 Firefox/88.0,,Firefox,88,Windows,6.3
230,1,null,"""",html-keyboard-response,103,474871,0.0-103.0,"""","<div style=""font-size:60px;"">+</div>","""",256,fixation,Memorization,null,500,"""","""","""","""","""","""","""","""",1,5/2/2021 15:16,208.221.46.224,Mozilla/5.0 (Windows NT 6.3; Win64; x64; rv:88.0) Gecko/20100101 Firefox/88.0,,Firefox,88,Windows,6.3
230,1,2388,"""",html-keyboard-response,104,479884,0.0-104.0,"""","<img src='jspsych/CFDfaces/CFD-LM-223-175-N.jpg' height=""250px""></br><b>Christian</b>","""",256,IntactFace,Memorization,78,5000,n,"""",CFD-LF-243-175-N.jpg,Erin,0,"""","""","""",1,5/2/2021 15:16,208.221.46.224,Mozilla/5.0 (Windows NT 6.3; Win64; x64; rv:88.0) Gecko/20100101 Firefox/88.0,,Firefox,88,Windows,6.3
230,1,null,"""",html-keyboard-response,105,480388,0.0-105.0,"""","<div style=""font-size:60px;"">+</div>","""",256,fixation,Memorization,null,500,"""","""","""","""","""","""","""","""",1,5/2/2021 15:16,208.221.46.224,Mozilla/5.0 (Windows NT 6.3; Win64; x64; rv:88.0) Gecko/20100101 Firefox/88.0,,Firefox,88,Windows,6.3
230,1,3206,"""",html-keyboard-response,106,485401,0.0-106.0,"""","<img src='jspsych/CFDfaces/CFD-LF-201-035-N.jpg' height=""250px""></br><b>Samantha</b>","""",256,IntactFace,Memorization,78,5000,n,"""",CFD-LF-204-133-N.jpg,Tiffany,0,"""","""","""",1,5/2/2021 15:16,208.221.46.224,Mozilla/5.0 (Windows NT 6.3; Win64; x64; rv:88.0) Gecko/20100101 Firefox/88.0,,Firefox,88,Windows,6.3
230,1,null,"""",html-keyboard-response,107,485917,0.0-107.0,"""","<div style=""font-size:60px;"">+</div>","""",256,fixation,Memorization,null,500,"""","""","""","""","""","""","""","""",1,5/2/2021 15:16,208.221.46.224,Mozilla/5.0 (Windows NT 6.3; Win64; x64; rv:88.0) Gecko/20100101 Firefox/88.0,,Firefox,88,Windows,6.3
230,1,2891,"""",html-keyboard-response,108,490922,0.0-108.0,"""","<img src='jspsych/CFDfaces/CFD-WM-041-021-N.jpg' height=""250px""></br><b>Brandon</b>","""",256,IntactFace,Memorization,78,5000,n,"""",CFD-AF-226-251-N.jpg,Taylor,0,"""","""","""",1,5/2/2021 15:16,208.221.46.224,Mozilla/5.0 (Windows NT 6.3; Win64; x64; rv:88.0) Gecko/20100101 Firefox/88.0,,Firefox,88,Windows,6.3
230,1,null,"""",html-keyboard-response,109,491436,0.0-109.0,"""","<div style=""font-size:60px;"">+</div>","""",256,fixation,Memorization,null,500,"""","""","""","""","""","""","""","""",1,5/2/2021 15:16,208.221.46.224,Mozilla/5.0 (Windows NT 6.3; Win64; x64; rv:88.0) Gecko/20100101 Firefox/88.0,,Firefox,88,Windows,6.3
230,1,null,"""",html-keyboard-response,110,496446,0.0-110.0,"""","<img src='jspsych/CFDfaces/CFD-AF-215-70-N.jpg' height=""250px""></br><b>Andrea</b>","""",256,IntactFace,Memorization,null,5000,"""","""",CFD-WF-023-003-N.jpg,Lauren,0,"""","""","""",1,5/2/2021 15:16,208.221.46.224,Mozilla/5.0 (Windows NT 6.3; Win64; x64; rv:88.0) Gecko/20100101 Firefox/88.0,,Firefox,88,Windows,6.3
230,1,null,"""",html-keyboard-response,111,496951,0.0-111.0,"""","<div style=""font-size:60px;"">+</div>","""",256,fixation,Memorization,null,500,"""","""","""","""","""","""","""","""",1,5/2/2021 15:16,208.221.46.224,Mozilla/5.0 (Windows NT 6.3; Win64; x64; rv:88.0) Gecko/20100101 Firefox/88.0,,Firefox,88,Windows,6.3
230,1,1998,"""",html-keyboard-response,112,501972,0.0-112.0,"""","<img src='jspsych/CFDfaces/CFD-LF-239-148-N.jpg' height=""250px""></br><b>Emily</b>","""",256,IntactFace,Memorization,78,5000,n,"""",CFD-WM-006-002-N.jpg,Travis,0,"""","""","""",1,5/2/2021 15:16,208.221.46.224,Mozilla/5.0 (Windows NT 6.3; Win64; x64; rv:88.0) Gecko/20100101 Firefox/88.0,,Firefox,88,Windows,6.3
230,1,null,"""",html-keyboard-response,113,502475,0.0-113.0,"""","<div style=""font-size:60px;"">+</div>","""",256,fixation,Memorization,null,500,"""","""","""","""","""","""","""","""",1,5/2/2021 15:16,208.221.46.224,Mozilla/5.0 (Windows NT 6.3; Win64; x64; rv:88.0) Gecko/20100101 Firefox/88.0,,Firefox,88,Windows,6.3
230,1,null,"""",html-keyboard-response,114,507500,0.0-114.0,"""","<img src='jspsych/CFDfaces/CFD-WF-204-038-N.jpg' height=""250px""></br><b>Christina</b>","""",256,IntactFace,Memorization,null,5000,"""","""",CFD-AM-238-269-N.jpg,Vincent,0,"""","""","""",1,5/2/2021 15:16,208.221.46.224,Mozilla/5.0 (Windows NT 6.3; Win64; x64; rv:88.0) Gecko/20100101 Firefox/88.0,,Firefox,88,Windows,6.3
230,1,null,"""",html-keyboard-response,115,508007,0.0-115.0,"""","<div style=""font-size:60px;"">+</div>","""",256,fixation,Memorization,null,500,"""","""","""","""","""","""","""","""",1,5/2/2021 15:16,208.221.46.224,Mozilla/5.0 (Windows NT 6.3; Win64; x64; rv:88.0) Gecko/20100101 Firefox/88.0,,Firefox,88,Windows,6.3
230,1,null,"""",html-keyboard-response,116,513021,0.0-116.0,"""","<img src='jspsych/CFDfaces/CFD-WM-237-052-N.jpg' height=""250px""></br><b>Brian</b>","""",256,IntactFace,Memorization,null,5000,"""","""",CFD-AM-228-214-N.jpg,Timothy,0,"""","""","""",1,5/2/2021 15:16,208.221.46.224,Mozilla/5.0 (Windows NT 6.3; Win64; x64; rv:88.0) Gecko/20100101 Firefox/88.0,,Firefox,88,Windows,6.3
230,1,null,"""",html-keyboard-response,117,513525,0.0-117.0,"""","<div style=""font-size:60px;"">+</div>","""",256,fixation,Memorization,null,500,"""","""","""","""","""","""","""","""",1,5/2/2021 15:16,208.221.46.224,Mozilla/5.0 (Windows NT 6.3; Win64; x64; rv:88.0) Gecko/20100101 Firefox/88.0,,Firefox,88,Windows,6.3
230,1,2004,"""",html-keyboard-response,118,518545,0.0-118.0,"""","<img src='jspsych/CFDfaces/CFD-BF-023-010-N.jpg' height=""250px""></br><b>Kayla</b>","""",256,IntactFace,Memorization,78,5000,n,"""",CFD-WF-016-015-N.jpg,Jordan,0,"""","""","""",1,5/2/2021 15:16,208.221.46.224,Mozilla/5.0 (Windows NT 6.3; Win64; x64; rv:88.0) Gecko/20100101 Firefox/88.0,,Firefox,88,Windows,6.3
230,1,null,"""",html-keyboard-response,119,519050,0.0-119.0,"""","<div style=""font-size:60px;"">+</div>","""",256,fixation,Memorization,null,500,"""","""","""","""","""","""","""","""",1,5/2/2021 15:16,208.221.46.224,Mozilla/5.0 (Windows NT 6.3; Win64; x64; rv:88.0) Gecko/20100101 Firefox/88.0,,Firefox,88,Windows,6.3
230,1,null,"""",html-keyboard-response,120,524070,0.0-120.0,"""","<img src='jspsych/CFDfaces/CFD-AM-229-224-N.jpg' height=""250px""></br><b>Gregory</b>","""",256,IntactFace,Memorization,null,5000,"""","""",CFD-WF-200-099-N.jpg,Jasmine,0,"""","""","""",1,5/2/2021 15:16,208.221.46.224,Mozilla/5.0 (Windows NT 6.3; Win64; x64; rv:88.0) Gecko/20100101 Firefox/88.0,,Firefox,88,Windows,6.3
230,1,null,"""",html-keyboard-response,121,524578,0.0-121.0,"""","<div style=""font-size:60px;"">+</div>","""",256,fixation,Memorization,null,500,"""","""","""","""","""","""","""","""",1,5/2/2021 15:16,208.221.46.224,Mozilla/5.0 (Windows NT 6.3; Win64; x64; rv:88.0) Gecko/20100101 Firefox/88.0,,Firefox,88,Windows,6.3
230,1,null,"""",html-keyboard-response,122,529586,0.0-122.0,"""","<img src='jspsych/CFDfaces/CFD-LM-239-075-N.jpg' height=""250px""></br><b>Ian</b>","""",256,IntactFace,Memorization,null,5000,"""","""",CFD-AM-246-184-N.jpg,Dustin,0,"""","""","""",1,5/2/2021 15:16,208.221.46.224,Mozilla/5.0 (Windows NT 6.3; Win64; x64; rv:88.0) Gecko/20100101 Firefox/88.0,,Firefox,88,Windows,6.3
230,1,null,"""",html-keyboard-response,123,530098,0.0-123.0,"""","<div style=""font-size:60px;"">+</div>","""",256,fixation,Memorization,null,500,"""","""","""","""","""","""","""","""",1,5/2/2021 15:16,208.221.46.224,Mozilla/5.0 (Windows NT 6.3; Win64; x64; rv:88.0) Gecko/20100101 Firefox/88.0,,Firefox,88,Windows,6.3
230,1,1363,"""",html-keyboard-response,124,535106,0.0-124.0,"""","<img src='jspsych/CFDfaces/CFD-LM-219-295-N.jpg' height=""250px""></br><b>Nicholas</b>","""",256,IntactFace,Memorization,78,5000,n,"""",CFD-LM-209-111-N.jpg,Jeremy,0,"""","""","""",1,5/2/2021 15:16,208.221.46.224,Mozilla/5.0 (Windows NT 6.3; Win64; x64; rv:88.0) Gecko/20100101 Firefox/88.0,,Firefox,88,Windows,6.3
230,1,null,"""",html-keyboard-response,125,535612,0.0-125.0,"""","<div style=""font-size:60px;"">+</div>","""",256,fixation,Memorization,null,500,"""","""","""","""","""","""","""","""",1,5/2/2021 15:16,208.221.46.224,Mozilla/5.0 (Windows NT 6.3; Win64; x64; rv:88.0) Gecko/20100101 Firefox/88.0,,Firefox,88,Windows,6.3
230,1,3747,"""",html-keyboard-response,126,540623,0.0-126.0,"""","<img src='jspsych/CFDfaces/CFD-WM-212-097-N.jpg' height=""250px""></br><b>Juan</b>","""",256,IntactFace,Memorization,70,5000,f,"""",CFD-LF-213-079-N.jpg,Melissa,0,"""","""","""",1,5/2/2021 15:16,208.221.46.224,Mozilla/5.0 (Windows NT 6.3; Win64; x64; rv:88.0) Gecko/20100101 Firefox/88.0,,Firefox,88,Windows,6.3
230,1,null,"""",html-keyboard-response,127,541135,0.0-127.0,"""","<div style=""font-size:60px;"">+</div>","""",256,fixation,Memorization,null,500,"""","""","""","""","""","""","""","""",1,5/2/2021 15:16,208.221.46.224,Mozilla/5.0 (Windows NT 6.3; Win64; x64; rv:88.0) Gecko/20100101 Firefox/88.0,,Firefox,88,Windows,6.3
230,1,null,"""",html-keyboard-response,128,546143,0.0-128.0,"""","<img src='jspsych/CFDfaces/CFD-AF-242-158-N.jpg' height=""250px""></br><b>Elizabeth</b>","""",256,IntactFace,Memorization,null,5000,"""","""",CFD-AF-214-139-N.jpg,Rebecca,0,"""","""","""",1,5/2/2021 15:16,208.221.46.224,Mozilla/5.0 (Windows NT 6.3; Win64; x64; rv:88.0) Gecko/20100101 Firefox/88.0,,Firefox,88,Windows,6.3
230,1,null,"""",html-keyboard-response,129,546648,0.0-129.0,"""","<div style=""font-size:60px;"">+</div>","""",256,fixation,Memorization,null,500,"""","""","""","""","""","""","""","""",1,5/2/2021 15:16,208.221.46.224,Mozilla/5.0 (Windows NT 6.3; Win64; x64; rv:88.0) Gecko/20100101 Firefox/88.0,,Firefox,88,Windows,6.3
230,1,2494,"""",html-keyboard-response,130,551664,0.0-130.0,"""","<img src='jspsych/CFDfaces/CFD-AM-213-056-N.jpg' height=""250px""></br><b>Joshua</b>","""",256,IntactFace,Memorization,78,5000,n,"""",CFD-BM-022-022-N.jpg,Austin,0,"""","""","""",1,5/2/2021 15:16,208.221.46.224,Mozilla/5.0 (Windows NT 6.3; Win64; x64; rv:88.0) Gecko/20100101 Firefox/88.0,,Firefox,88,Windows,6.3
230,1,null,"""",html-keyboard-response,131,552167,0.0-131.0,"""","<div style=""font-size:60px;"">+</div>","""",256,fixation,Memorization,null,500,"""","""","""","""","""","""","""","""",1,5/2/2021 15:16,208.221.46.224,Mozilla/5.0 (Windows NT 6.3; Win64; x64; rv:88.0) Gecko/20100101 Firefox/88.0,,Firefox,88,Windows,6.3
230,1,2363,"""",html-keyboard-response,132,557180,0.0-132.0,"""","<img src='jspsych/CFDfaces/CFD-BF-047-003-N.jpg' height=""250px""></br><b>Ashley</b>","""",256,IntactFace,Memorization,78,5000,n,"""",CFD-AM-211-052-N.jpg,Jesse,0,"""","""","""",1,5/2/2021 15:16,208.221.46.224,Mozilla/5.0 (Windows NT 6.3; Win64; x64; rv:88.0) Gecko/20100101 Firefox/88.0,,Firefox,88,Windows,6.3
230,1,null,"""",html-keyboard-response,133,557685,0.0-133.0,"""","<div style=""font-size:60px;"">+</div>","""",256,fixation,Memorization,null,500,"""","""","""","""","""","""","""","""",1,5/2/2021 15:16,208.221.46.224,Mozilla/5.0 (Windows NT 6.3; Win64; x64; rv:88.0) Gecko/20100101 Firefox/88.0,,Firefox,88,Windows,6.3
230,1,null,"""",html-keyboard-response,134,562694,0.0-134.0,"""","<img src='jspsych/CFDfaces/CFD-AM-220-134-N.jpg' height=""250px""></br><b>Eric</b>","""",256,IntactFace,Memorization,null,5000,"""","""",CFD-WM-011-002-N.jpg,Ryan,0,"""","""","""",1,5/2/2021 15:16,208.221.46.224,Mozilla/5.0 (Windows NT 6.3; Win64; x64; rv:88.0) Gecko/20100101 Firefox/88.0,,Firefox,88,Windows,6.3
230,1,null,"""",html-keyboard-response,135,563208,0.0-135.0,"""","<div style=""font-size:60px;"">+</div>","""",256,fixation,Memorization,null,500,"""","""","""","""","""","""","""","""",1,5/2/2021 15:16,208.221.46.224,Mozilla/5.0 (Windows NT 6.3; Win64; x64; rv:88.0) Gecko/20100101 Firefox/88.0,,Firefox,88,Windows,6.3
230,1,null,"""",html-keyboard-response,136,568227,0.0-136.0,"""","<img src='jspsych/CFDfaces/CFD-AF-228-173-N.jpg' height=""250px""></br><b>Amanda</b>","""",256,IntactFace,Memorization,null,5000,"""","""",CFD-BF-021-013-N.jpg,Heather,0,"""","""","""",1,5/2/2021 15:16,208.221.46.224,Mozilla/5.0 (Windows NT 6.3; Win64; x64; rv:88.0) Gecko/20100101 Firefox/88.0,,Firefox,88,Windows,6.3
230,1,null,"""",html-keyboard-response,137,568749,0.0-137.0,"""","<div style=""font-size:60px;"">+</div>","""",256,fixation,Memorization,null,500,"""","""","""","""","""","""","""","""",1,5/2/2021 15:16,208.221.46.224,Mozilla/5.0 (Windows NT 6.3; Win64; x64; rv:88.0) Gecko/20100101 Firefox/88.0,,Firefox,88,Windows,6.3
230,1,null,"""",html-keyboard-response,138,573754,0.0-138.0,"""","<img src='jspsych/CFDfaces/CFD-WF-019-005-N.jpg' height=""250px""></br><b>Meghan</b>","""",256,IntactFace,Memorization,null,5000,"""","""",CFD-BF-008-001-N.jpg,Jenna,0,"""","""","""",1,5/2/2021 15:16,208.221.46.224,Mozilla/5.0 (Windows NT 6.3; Win64; x64; rv:88.0) Gecko/20100101 Firefox/88.0,,Firefox,88,Windows,6.3
230,1,null,"""",html-keyboard-response,139,574268,0.0-139.0,"""","<div style=""font-size:60px;"">+</div>","""",256,fixation,Memorization,null,500,"""","""","""","""","""","""","""","""",1,5/2/2021 15:16,208.221.46.224,Mozilla/5.0 (Windows NT 6.3; Win64; x64; rv:88.0) Gecko/20100101 Firefox/88.0,,Firefox,88,Windows,6.3
230,1,600,"""",html-keyboard-response,140,579277,0.0-140.0,"""","<img src='jspsych/CFDfaces/CFD-BF-209-172-N.jpg' height=""250px""></br><b>Julie</b>","""",256,IntactFace,Memorization,78,5000,n,"""",CFD-LM-213-061-N.jpg,Kenneth,0,"""","""","""",1,5/2/2021 15:16,208.221.46.224,Mozilla/5.0 (Windows NT 6.3; Win64; x64; rv:88.0) Gecko/20100101 Firefox/88.0,,Firefox,88,Windows,6.3
230,1,null,"""",html-keyboard-response,141,579791,0.0-141.0,"""","<div style=""font-size:60px;"">+</div>","""",256,fixation,Memorization,null,500,"""","""","""","""","""","""","""","""",1,5/2/2021 15:16,208.221.46.224,Mozilla/5.0 (Windows NT 6.3; Win64; x64; rv:88.0) Gecko/20100101 Firefox/88.0,,Firefox,88,Windows,6.3
230,1,2980,"""",html-keyboard-response,142,584797,0.0-142.0,"""","<img src='jspsych/CFDfaces/CFD-BF-222-240-N.jpg' height=""250px""></br><b>Vanessa</b>","""",256,IntactFace,Memorization,78,5000,n,"""",CFD-BF-004-014-N.jpg,Sara,0,"""","""","""",1,5/2/2021 15:16,208.221.46.224,Mozilla/5.0 (Windows NT 6.3; Win64; x64; rv:88.0) Gecko/20100101 Firefox/88.0,,Firefox,88,Windows,6.3
230,1,null,"""",html-keyboard-response,143,585309,0.0-143.0,"""","<div style=""font-size:60px;"">+</div>","""",256,fixation,Memorization,null,500,"""","""","""","""","""","""","""","""",1,5/2/2021 15:16,208.221.46.224,Mozilla/5.0 (Windows NT 6.3; Win64; x64; rv:88.0) Gecko/20100101 Firefox/88.0,,Firefox,88,Windows,6.3
230,1,2208,"""",html-keyboard-response,144,590320,0.0-144.0,"""","<img src='jspsych/CFDfaces/CFD-BF-221-223-N.jpg' height=""250px""></br><b>Brittany</b>","""",256,IntactFace,Memorization,78,5000,n,"""",CFD-BM-029-024-N.jpg,Cameron,0,"""","""","""",1,5/2/2021 15:16,208.221.46.224,Mozilla/5.0 (Windows NT 6.3; Win64; x64; rv:88.0) Gecko/20100101 Firefox/88.0,,Firefox,88,Windows,6.3
230,1,null,"""",html-keyboard-response,145,590847,0.0-145.0,"""","<div style=""font-size:60px;"">+</div>","""",256,fixation,Memorization,null,500,"""","""","""","""","""","""","""","""",1,5/2/2021 15:16,208.221.46.224,Mozilla/5.0 (Windows NT 6.3; Win64; x64; rv:88.0) Gecko/20100101 Firefox/88.0,,Firefox,88,Windows,6.3
230,1,2372,"""",html-keyboard-response,146,595852,0.0-146.0,"""","<img src='jspsych/CFDfaces/CFD-BM-210-148-N.jpg' height=""250px""></br><b>Peter</b>","""",256,IntactFace,Memorization,78,5000,n,"""",CFD-BM-039-029-N.jpg,Luis,0,"""","""","""",1,5/2/2021 15:16,208.221.46.224,Mozilla/5.0 (Windows NT 6.3; Win64; x64; rv:88.0) Gecko/20100101 Firefox/88.0,,Firefox,88,Windows,6.3
230,1,null,"""",html-keyboard-response,147,596367,0.0-147.0,"""","<div style=""font-size:60px;"">+</div>","""",256,fixation,Memorization,null,500,"""","""","""","""","""","""","""","""",1,5/2/2021 15:16,208.221.46.224,Mozilla/5.0 (Windows NT 6.3; Win64; x64; rv:88.0) Gecko/20100101 Firefox/88.0,,Firefox,88,Windows,6.3
230,1,2102,"""",html-keyboard-response,148,601377,0.0-148.0,"""","<img src='jspsych/CFDfaces/CFD-LM-225-130-N.jpg' height=""250px""></br><b>Daniel</b>","""",256,IntactFace,Memorization,78,5000,n,"""",CFD-WM-034-030-N.jpg,Justin,0,"""","""","""",1,5/2/2021 15:16,208.221.46.224,Mozilla/5.0 (Windows NT 6.3; Win64; x64; rv:88.0) Gecko/20100101 Firefox/88.0,,Firefox,88,Windows,6.3
230,1,null,"""",html-keyboard-response,149,601893,0.0-149.0,"""","<div style=""font-size:60px;"">+</div>","""",256,fixation,Memorization,null,500,"""","""","""","""","""","""","""","""",1,5/2/2021 15:16,208.221.46.224,Mozilla/5.0 (Windows NT 6.3; Win64; x64; rv:88.0) Gecko/20100101 Firefox/88.0,,Firefox,88,Windows,6.3
230,1,1807,"""",html-keyboard-response,150,606899,0.0-150.0,"""","<img src='jspsych/CFDfaces/CFD-AF-209-006-N.jpg' height=""250px""></br><b>Michelle</b>","""",256,IntactFace,Memorization,78,5000,n,"""",CFD-WF-018-017-N.jpg,Angela,0,"""","""","""",1,5/2/2021 15:16,208.221.46.224,Mozilla/5.0 (Windows NT 6.3; Win64; x64; rv:88.0) Gecko/20100101 Firefox/88.0,,Firefox,88,Windows,6.3
230,1,null,"""",html-keyboard-response,151,607405,0.0-151.0,"""","<div style=""font-size:60px;"">+</div>","""",256,fixation,Memorization,null,500,"""","""","""","""","""","""","""","""",1,5/2/2021 15:16,208.221.46.224,Mozilla/5.0 (Windows NT 6.3; Win64; x64; rv:88.0) Gecko/20100101 Firefox/88.0,,Firefox,88,Windows,6.3
230,1,2223,"""",html-keyboard-response,152,612426,0.0-152.0,"""","<img src='jspsych/CFDfaces/CFD-BF-039-031-N.jpg' height=""250px""></br><b>Victoria</b>","""",256,IntactFace,Memorization,78,5000,n,"""",CFD-AF-203-077-N.jpg,Lindsey,0,"""","""","""",1,5/2/2021 15:16,208.221.46.224,Mozilla/5.0 (Windows NT 6.3; Win64; x64; rv:88.0) Gecko/20100101 Firefox/88.0,,Firefox,88,Windows,6.3
230,1,null,"""",html-keyboard-response,153,612932,0.0-153.0,"""","<div style=""font-size:60px;"">+</div>","""",256,fixation,Memorization,null,500,"""","""","""","""","""","""","""","""",1,5/2/2021 15:16,208.221.46.224,Mozilla/5.0 (Windows NT 6.3; Win64; x64; rv:88.0) Gecko/20100101 Firefox/88.0,,Firefox,88,Windows,6.3
230,1,2571,"""",html-keyboard-response,154,615517,0.0-154.0,"""",Press Any Key to Begin Memory Test,"""",1,welcomeScreen,Break,65,"""","""","""","""","""","""","""","""","""",1,5/2/2021 15:16,208.221.46.224,Mozilla/5.0 (Windows NT 6.3; Win64; x64; rv:88.0) Gecko/20100101 Firefox/88.0,,Firefox,88,Windows,6.3
230,1,null,"""",html-keyboard-response,155,616520,0.0-155.0,"""","<div style=""font-size:60px;"">+</div>","""",256,ITI,Test,null,1000,"""","""","""","""","""","""","""","""",1,5/2/2021 15:16,208.221.46.224,Mozilla/5.0 (Windows NT 6.3; Win64; x64; rv:88.0) Gecko/20100101 Firefox/88.0,,Firefox,88,Windows,6.3
230,1,null,"""",image-keyboard-response,156,616781,0.0-156.0,"""",jspsych/scrambledDisgustFaces/scrambledBF23DIS.JPG,"""",256,forwardMask,Test,null,250,"""",d,"""","""","""","""","""","""",1,5/2/2021 15:16,208.221.46.224,Mozilla/5.0 (Windows NT 6.3; Win64; x64; rv:88.0) Gecko/20100101 Firefox/88.0,,Firefox,88,Windows,6.3
230,1,null,"""",image-keyboard-response,157,616804,0.0-157.0,"""",jspsych/disgustFaces/BF23DIS.JPG,"""",256,Cue,Test,null,16,"""","""","""","""","""","""","""","""",1,5/2/2021 15:16,208.221.46.224,Mozilla/5.0 (Windows NT 6.3; Win64; x64; rv:88.0) Gecko/20100101 Firefox/88.0,,Firefox,88,Windows,6.3
230,1,null,"""",image-keyboard-response,158,616910,0.0-158.0,"""",jspsych/neutralFaces/AF02NES.JPG,"""",256,backwardMask,Test,null,100,"""","""","""","""","""","""","""","""",1,5/2/2021 15:16,208.221.46.224,Mozilla/5.0 (Windows NT 6.3; Win64; x64; rv:88.0) Gecko/20100101 Firefox/88.0,,Firefox,88,Windows,6.3
230,1,null,"""",html-keyboard-response,159,617916,0.0-159.0,"""","<div style=""font-size:60px;"">+</div>","""",256,fixationBtwnNeutralMaskAndPrompt,Test,null,1000,"""","""","""","""","""","""","""","""",1,5/2/2021 15:16,208.221.46.224,Mozilla/5.0 (Windows NT 6.3; Win64; x64; rv:88.0) Gecko/20100101 Firefox/88.0,,Firefox,88,Windows,6.3
230,1,2347,"""",html-button-response,160,620273,0.0-160.0,"""","<img src='jspsych/CFDfaces/CFD-LF-239-148-N.jpg' height=""250px"">,</br><b>Andrea</b>",0,256,IntactOrRearranged,Test,"""","""","""","""",CFD-BF-008-001-N.jpg,Jasmine,1,0,"""","""",1,5/2/2021 15:16,208.221.46.224,Mozilla/5.0 (Windows NT 6.3; Win64; x64; rv:88.0) Gecko/20100101 Firefox/88.0,,Firefox,88,Windows,6.3
230,1,2505,"""",html-slider-response,161,622813,0.0-161.0,"""","<img src='jspsych/CFDfaces/CFD-LF-239-148-N.jpg' height=""250px"">,</br><b>Andrea</b>","""",256,ConfidenceQuery,Test,"""","""","""","""",CFD-BF-008-001-N.jpg,Jasmine,1,"""",0,34,1,5/2/2021 15:16,208.221.46.224,Mozilla/5.0 (Windows NT 6.3; Win64; x64; rv:88.0) Gecko/20100101 Firefox/88.0,,Firefox,88,Windows,6.3
230,1,null,"""",html-keyboard-response,162,623818,0.0-162.0,"""","<div style=""font-size:60px;"">+</div>","""",256,ITI,Test,null,1000,"""","""","""","""","""","""","""","""",1,5/2/2021 15:16,208.221.46.224,Mozilla/5.0 (Windows NT 6.3; Win64; x64; rv:88.0) Gecko/20100101 Firefox/88.0,,Firefox,88,Windows,6.3
230,1,null,"""",image-keyboard-response,163,624074,0.0-163.0,"""",jspsych/scrambledNeutralFaces/scrambledBF26NES.JPG,"""",256,forwardMask,Test,null,250,"""",n,"""","""","""","""","""","""",1,5/2/2021 15:16,208.221.46.224,Mozilla/5.0 (Windows NT 6.3; Win64; x64; rv:88.0) Gecko/20100101 Firefox/88.0,,Firefox,88,Windows,6.3
230,1,null,"""",image-keyboard-response,164,624096,0.0-164.0,"""",jspsych/neutralFaces/BF26NES.JPG,"""",256,Cue,Test,null,16,"""","""","""","""","""","""","""","""",1,5/2/2021 15:16,208.221.46.224,Mozilla/5.0 (Windows NT 6.3; Win64; x64; rv:88.0) Gecko/20100101 Firefox/88.0,,Firefox,88,Windows,6.3
230,1,null,"""",image-keyboard-response,165,624205,0.0-165.0,"""",jspsych/neutralFaces/BF24NES.JPG,"""",256,backwardMask,Test,null,100,"""","""","""","""","""","""","""","""",1,5/2/2021 15:16,208.221.46.224,Mozilla/5.0 (Windows NT 6.3; Win64; x64; rv:88.0) Gecko/20100101 Firefox/88.0,,Firefox,88,Windows,6.3
230,1,null,"""",html-keyboard-response,166,625209,0.0-166.0,"""","<div style=""font-size:60px;"">+</div>","""",256,fixationBtwnNeutralMaskAndPrompt,Test,null,1000,"""","""","""","""","""","""","""","""",1,5/2/2021 15:16,208.221.46.224,Mozilla/5.0 (Windows NT 6.3; Win64; x64; rv:88.0) Gecko/20100101 Firefox/88.0,,Firefox,88,Windows,6.3
230,1,1239,"""",html-button-response,167,626454,0.0-167.0,"""","<img src='jspsych/CFDfaces/CFD-BF-221-223-N.jpg' height=""250px"">,</br><b>Brittany</b>",0,256,IntactOrRearranged,Test,"""","""","""","""",CFD-WF-202-056-N.jpg,Amy,0,0,"""","""",1,5/2/2021 15:16,208.221.46.224,Mozilla/5.0 (Windows NT 6.3; Win64; x64; rv:88.0) Gecko/20100101 Firefox/88.0,,Firefox,88,Windows,6.3
230,1,1894,"""",html-slider-response,168,628371,0.0-168.0,"""","<img src='jspsych/CFDfaces/CFD-BF-221-223-N.jpg' height=""250px"">,</br><b>Brittany</b>","""",256,ConfidenceQuery,Test,"""","""","""","""",CFD-WF-202-056-N.jpg,Amy,0,"""",0,40,1,5/2/2021 15:16,208.221.46.224,Mozilla/5.0 (Windows NT 6.3; Win64; x64; rv:88.0) Gecko/20100101 Firefox/88.0,,Firefox,88,Windows,6.3
230,1,null,"""",html-keyboard-response,169,629377,0.0-169.0,"""","<div style=""font-size:60px;"">+</div>","""",256,ITI,Test,null,1000,"""","""","""","""","""","""","""","""",1,5/2/2021 15:16,208.221.46.224,Mozilla/5.0 (Windows NT 6.3; Win64; x64; rv:88.0) Gecko/20100101 Firefox/88.0,,Firefox,88,Windows,6.3
230,1,null,"""",image-keyboard-response,170,629633,0.0-170.0,"""",jspsych/scrambledDisgustFaces/scrambledAF10DIS.JPG,"""",256,forwardMask,Test,null,250,"""",d,"""","""","""","""","""","""",1,5/2/2021 15:16,208.221.46.224,Mozilla/5.0 (Windows NT 6.3; Win64; x64; rv:88.0) Gecko/20100101 Firefox/88.0,,Firefox,88,Windows,6.3
230,1,null,"""",image-keyboard-response,171,629658,0.0-171.0,"""",jspsych/disgustFaces/AF10DIS.JPG,"""",256,Cue,Test,null,16,"""","""","""","""","""","""","""","""",1,5/2/2021 15:16,208.221.46.224,Mozilla/5.0 (Windows NT 6.3; Win64; x64; rv:88.0) Gecko/20100101 Firefox/88.0,,Firefox,88,Windows,6.3
230,1,null,"""",image-keyboard-response,172,629764,0.0-172.0,"""",jspsych/neutralFaces/BF16NES.JPG,"""",256,backwardMask,Test,null,100,"""","""","""","""","""","""","""","""",1,5/2/2021 15:16,208.221.46.224,Mozilla/5.0 (Windows NT 6.3; Win64; x64; rv:88.0) Gecko/20100101 Firefox/88.0,,Firefox,88,Windows,6.3
230,1,null,"""",html-keyboard-response,173,630766,0.0-173.0,"""","<div style=""font-size:60px;"">+</div>","""",256,fixationBtwnNeutralMaskAndPrompt,Test,null,1000,"""","""","""","""","""","""","""","""",1,5/2/2021 15:16,208.221.46.224,Mozilla/5.0 (Windows NT 6.3; Win64; x64; rv:88.0) Gecko/20100101 Firefox/88.0,,Firefox,88,Windows,6.3
230,1,1499,"""",html-button-response,174,632268,0.0-174.0,"""","<img src='jspsych/CFDfaces/CFD-LM-233-171-N.jpg' height=""250px"">,</br><b>Richard</b>",0,256,IntactOrRearranged,Test,"""","""","""","""",CFD-AM-238-269-N.jpg,Vincent,1,0,"""","""",1,5/2/2021 15:16,208.221.46.224,Mozilla/5.0 (Windows NT 6.3; Win64; x64; rv:88.0) Gecko/20100101 Firefox/88.0,,Firefox,88,Windows,6.3
230,1,1962,"""",html-slider-response,175,634259,0.0-175.0,"""","<img src='jspsych/CFDfaces/CFD-LM-233-171-N.jpg' height=""250px"">,</br><b>Richard</b>","""",256,ConfidenceQuery,Test,"""","""","""","""",CFD-AM-238-269-N.jpg,Vincent,1,"""",0,35,1,5/2/2021 15:16,208.221.46.224,Mozilla/5.0 (Windows NT 6.3; Win64; x64; rv:88.0) Gecko/20100101 Firefox/88.0,,Firefox,88,Windows,6.3
230,1,null,"""",html-keyboard-response,176,635266,0.0-176.0,"""","<div style=""font-size:60px;"">+</div>","""",256,ITI,Test,null,1000,"""","""","""","""","""","""","""","""",1,5/2/2021 15:16,208.221.46.224,Mozilla/5.0 (Windows NT 6.3; Win64; x64; rv:88.0) Gecko/20100101 Firefox/88.0,,Firefox,88,Windows,6.3
230,1,null,"""",image-keyboard-response,177,635521,0.0-177.0,"""",jspsych/scrambledDisgustFaces/scrambledAM29DIS.JPG,"""",256,forwardMask,Test,null,250,"""",d,"""","""","""","""","""","""",1,5/2/2021 15:16,208.221.46.224,Mozilla/5.0 (Windows NT 6.3; Win64; x64; rv:88.0) Gecko/20100101 Firefox/88.0,,Firefox,88,Windows,6.3
230,1,null,"""",image-keyboard-response,178,635542,0.0-178.0,"""",jspsych/disgustFaces/AM29DIS.JPG,"""",256,Cue,Test,null,16,"""","""","""","""","""","""","""","""",1,5/2/2021 15:16,208.221.46.224,Mozilla/5.0 (Windows NT 6.3; Win64; x64; rv:88.0) Gecko/20100101 Firefox/88.0,,Firefox,88,Windows,6.3
230,1,null,"""",image-keyboard-response,179,635650,0.0-179.0,"""",jspsych/neutralFaces/AM26NES.JPG,"""",256,backwardMask,Test,null,100,"""","""","""","""","""","""","""","""",1,5/2/2021 15:16,208.221.46.224,Mozilla/5.0 (Windows NT 6.3; Win64; x64; rv:88.0) Gecko/20100101 Firefox/88.0,,Firefox,88,Windows,6.3
230,1,null,"""",html-keyboard-response,180,636652,0.0-180.0,"""","<div style=""font-size:60px;"">+</div>","""",256,fixationBtwnNeutralMaskAndPrompt,Test,null,1000,"""","""","""","""","""","""","""","""",1,5/2/2021 15:16,208.221.46.224,Mozilla/5.0 (Windows NT 6.3; Win64; x64; rv:88.0) Gecko/20100101 Firefox/88.0,,Firefox,88,Windows,6.3
230,1,1290,"""",html-button-response,181,637946,0.0-181.0,"""","<img src='jspsych/CFDfaces/CFD-LM-217-162-N.jpg' height=""250px"">,</br><b>Christian</b>",1,256,IntactOrRearranged,Test,"""","""","""","""",CFD-WM-011-002-N.jpg,Cameron,1,1,"""","""",1,5/2/2021 15:16,208.221.46.224,Mozilla/5.0 (Windows NT 6.3; Win64; x64; rv:88.0) Gecko/20100101 Firefox/88.0,,Firefox,88,Windows,6.3
230,1,2306,"""",html-slider-response,182,640273,0.0-182.0,"""","<img src='jspsych/CFDfaces/CFD-LM-217-162-N.jpg' height=""250px"">,</br><b>Christian</b>","""",256,ConfidenceQuery,Test,"""","""","""","""",CFD-WM-011-002-N.jpg,Cameron,1,"""",0,44,1,5/2/2021 15:16,208.221.46.224,Mozilla/5.0 (Windows NT 6.3; Win64; x64; rv:88.0) Gecko/20100101 Firefox/88.0,,Firefox,88,Windows,6.3
230,1,null,"""",html-keyboard-response,183,641281,0.0-183.0,"""","<div style=""font-size:60px;"">+</div>","""",256,ITI,Test,null,1000,"""","""","""","""","""","""","""","""",1,5/2/2021 15:16,208.221.46.224,Mozilla/5.0 (Windows NT 6.3; Win64; x64; rv:88.0) Gecko/20100101 Firefox/88.0,,Firefox,88,Windows,6.3
230,1,null,"""",image-keyboard-response,184,641538,0.0-184.0,"""",jspsych/scrambledNeutralFaces/scrambledAF10NES.JPG,"""",256,forwardMask,Test,null,250,"""",n,"""","""","""","""","""","""",1,5/2/2021 15:16,208.221.46.224,Mozilla/5.0 (Windows NT 6.3; Win64; x64; rv:88.0) Gecko/20100101 Firefox/88.0,,Firefox,88,Windows,6.3
230,1,null,"""",image-keyboard-response,185,641562,0.0-185.0,"""",jspsych/neutralFaces/AF10NES.JPG,"""",256,Cue,Test,null,16,"""","""","""","""","""","""","""","""",1,5/2/2021 15:16,208.221.46.224,Mozilla/5.0 (Windows NT 6.3; Win64; x64; rv:88.0) Gecko/20100101 Firefox/88.0,,Firefox,88,Windows,6.3
230,1,null,"""",image-keyboard-response,186,641668,0.0-186.0,"""",jspsych/neutralFaces/BF05NES.JPG,"""",256,backwardMask,Test,null,100,"""","""","""","""","""","""","""","""",1,5/2/2021 15:16,208.221.46.224,Mozilla/5.0 (Windows NT 6.3; Win64; x64; rv:88.0) Gecko/20100101 Firefox/88.0,,Firefox,88,Windows,6.3
230,1,null,"""",html-keyboard-response,187,642671,0.0-187.0,"""","<div style=""font-size:60px;"">+</div>","""",256,fixationBtwnNeutralMaskAndPrompt,Test,null,1000,"""","""","""","""","""","""","""","""",1,5/2/2021 15:16,208.221.46.224,Mozilla/5.0 (Windows NT 6.3; Win64; x64; rv:88.0) Gecko/20100101 Firefox/88.0,,Firefox,88,Windows,6.3
230,1,1252,"""",html-button-response,188,643929,0.0-188.0,"""","<img src='jspsych/CFDfaces/CFD-AF-215-70-N.jpg' height=""250px"">,</br><b>Amanda</b>",0,256,IntactOrRearranged,Test,"""","""","""","""",CFD-AM-228-214-N.jpg,Austin,1,0,"""","""",1,5/2/2021 15:16,208.221.46.224,Mozilla/5.0 (Windows NT 6.3; Win64; x64; rv:88.0) Gecko/20100101 Firefox/88.0,,Firefox,88,Windows,6.3
230,1,1015,"""",html-slider-response,189,644969,0.0-189.0,"""","<img src='jspsych/CFDfaces/CFD-AF-215-70-N.jpg' height=""250px"">,</br><b>Amanda</b>","""",256,ConfidenceQuery,Test,"""","""","""","""",CFD-AM-228-214-N.jpg,Austin,1,"""",0,0,1,5/2/2021 15:16,208.221.46.224,Mozilla/5.0 (Windows NT 6.3; Win64; x64; rv:88.0) Gecko/20100101 Firefox/88.0,,Firefox,88,Windows,6.3
230,1,null,"""",html-keyboard-response,190,645976,0.0-190.0,"""","<div style=""font-size:60px;"">+</div>","""",256,ITI,Test,null,1000,"""","""","""","""","""","""","""","""",1,5/2/2021 15:16,208.221.46.224,Mozilla/5.0 (Windows NT 6.3; Win64; x64; rv:88.0) Gecko/20100101 Firefox/88.0,,Firefox,88,Windows,6.3
230,1,null,"""",image-keyboard-response,191,646235,0.0-191.0,"""",jspsych/scrambledNeutralFaces/scrambledAF06NES.JPG,"""",256,forwardMask,Test,null,250,"""",n,"""","""","""","""","""","""",1,5/2/2021 15:16,208.221.46.224,Mozilla/5.0 (Windows NT 6.3; Win64; x64; rv:88.0) Gecko/20100101 Firefox/88.0,,Firefox,88,Windows,6.3
230,1,null,"""",image-keyboard-response,192,646256,0.0-192.0,"""",jspsych/neutralFaces/AF06NES.JPG,"""",256,Cue,Test,null,16,"""","""","""","""","""","""","""","""",1,5/2/2021 15:16,208.221.46.224,Mozilla/5.0 (Windows NT 6.3; Win64; x64; rv:88.0) Gecko/20100101 Firefox/88.0,,Firefox,88,Windows,6.3
230,1,null,"""",image-keyboard-response,193,646363,0.0-193.0,"""",jspsych/neutralFaces/BF12NES.JPG,"""",256,backwardMask,Test,null,100,"""","""","""","""","""","""","""","""",1,5/2/2021 15:16,208.221.46.224,Mozilla/5.0 (Windows NT 6.3; Win64; x64; rv:88.0) Gecko/20100101 Firefox/88.0,,Firefox,88,Windows,6.3
230,1,null,"""",html-keyboard-response,194,647378,0.0-194.0,"""","<div style=""font-size:60px;"">+</div>","""",256,fixationBtwnNeutralMaskAndPrompt,Test,null,1000,"""","""","""","""","""","""","""","""",1,5/2/2021 15:16,208.221.46.224,Mozilla/5.0 (Windows NT 6.3; Win64; x64; rv:88.0) Gecko/20100101 Firefox/88.0,,Firefox,88,Windows,6.3
230,1,3322,"""",html-button-response,195,650708,0.0-195.0,"""","<img src='jspsych/CFDfaces/CFD-BF-039-031-N.jpg' height=""250px"">,</br><b>Ashley</b>",1,256,IntactOrRearranged,Test,"""","""","""","""",CFD-BM-022-022-N.jpg,Mark,1,1,"""","""",1,5/2/2021 15:16,208.221.46.224,Mozilla/5.0 (Windows NT 6.3; Win64; x64; rv:88.0) Gecko/20100101 Firefox/88.0,,Firefox,88,Windows,6.3
230,1,2768,"""",html-slider-response,196,653497,0.0-196.0,"""","<img src='jspsych/CFDfaces/CFD-BF-039-031-N.jpg' height=""250px"">,</br><b>Ashley</b>","""",256,ConfidenceQuery,Test,"""","""","""","""",CFD-BM-022-022-N.jpg,Mark,1,"""",0,49,1,5/2/2021 15:16,208.221.46.224,Mozilla/5.0 (Windows NT 6.3; Win64; x64; rv:88.0) Gecko/20100101 Firefox/88.0,,Firefox,88,Windows,6.3
230,1,null,"""",html-keyboard-response,197,654505,0.0-197.0,"""","<div style=""font-size:60px;"">+</div>","""",256,ITI,Test,null,1000,"""","""","""","""","""","""","""","""",1,5/2/2021 15:16,208.221.46.224,Mozilla/5.0 (Windows NT 6.3; Win64; x64; rv:88.0) Gecko/20100101 Firefox/88.0,,Firefox,88,Windows,6.3
230,1,null,"""",image-keyboard-response,198,654764,0.0-198.0,"""",jspsych/scrambledDisgustFaces/scrambledAM15DIS.JPG,"""",256,forwardMask,Test,null,250,"""",d,"""","""","""","""","""","""",1,5/2/2021 15:16,208.221.46.224,Mozilla/5.0 (Windows NT 6.3; Win64; x64; rv:88.0) Gecko/20100101 Firefox/88.0,,Firefox,88,Windows,6.3
230,1,null,"""",image-keyboard-response,199,654786,0.0-199.0,"""",jspsych/disgustFaces/AM15DIS.JPG,"""",256,Cue,Test,null,16,"""","""","""","""","""","""","""","""",1,5/2/2021 15:16,208.221.46.224,Mozilla/5.0 (Windows NT 6.3; Win64; x64; rv:88.0) Gecko/20100101 Firefox/88.0,,Firefox,88,Windows,6.3
230,1,null,"""",image-keyboard-response,200,654892,0.0-200.0,"""",jspsych/neutralFaces/AM34NES.JPG,"""",256,backwardMask,Test,null,100,"""","""","""","""","""","""","""","""",1,5/2/2021 15:16,208.221.46.224,Mozilla/5.0 (Windows NT 6.3; Win64; x64; rv:88.0) Gecko/20100101 Firefox/88.0,,Firefox,88,Windows,6.3
230,1,null,"""",html-keyboard-response,201,655896,0.0-201.0,"""","<div style=""font-size:60px;"">+</div>","""",256,fixationBtwnNeutralMaskAndPrompt,Test,null,1000,"""","""","""","""","""","""","""","""",1,5/2/2021 15:16,208.221.46.224,Mozilla/5.0 (Windows NT 6.3; Win64; x64; rv:88.0) Gecko/20100101 Firefox/88.0,,Firefox,88,Windows,6.3
230,1,4070,"""",html-button-response,202,659974,0.0-202.0,"""","<img src='jspsych/CFDfaces/CFD-AM-220-134-N.jpg' height=""250px"">,</br><b>Gregory</b>",1,256,IntactOrRearranged,Test,"""","""","""","""",CFD-WF-200-099-N.jpg,Angela,1,1,"""","""",1,5/2/2021 15:16,208.221.46.224,Mozilla/5.0 (Windows NT 6.3; Win64; x64; rv:88.0) Gecko/20100101 Firefox/88.0,,Firefox,88,Windows,6.3
230,1,1069,"""",html-slider-response,203,661063,0.0-203.0,"""","<img src='jspsych/CFDfaces/CFD-AM-220-134-N.jpg' height=""250px"">,</br><b>Gregory</b>","""",256,ConfidenceQuery,Test,"""","""","""","""",CFD-WF-200-099-N.jpg,Angela,1,"""",0,0,1,5/2/2021 15:16,208.221.46.224,Mozilla/5.0 (Windows NT 6.3; Win64; x64; rv:88.0) Gecko/20100101 Firefox/88.0,,Firefox,88,Windows,6.3
230,1,null,"""",html-keyboard-response,204,662069,0.0-204.0,"""","<div style=""font-size:60px;"">+</div>","""",256,ITI,Test,null,1000,"""","""","""","""","""","""","""","""",1,5/2/2021 15:16,208.221.46.224,Mozilla/5.0 (Windows NT 6.3; Win64; x64; rv:88.0) Gecko/20100101 Firefox/88.0,,Firefox,88,Windows,6.3
230,1,null,"""",image-keyboard-response,205,662326,0.0-205.0,"""",jspsych/scrambledDisgustFaces/scrambledAF25DIS.JPG,"""",256,forwardMask,Test,null,250,"""",d,"""","""","""","""","""","""",1,5/2/2021 15:16,208.221.46.224,Mozilla/5.0 (Windows NT 6.3; Win64; x64; rv:88.0) Gecko/20100101 Firefox/88.0,,Firefox,88,Windows,6.3
230,1,null,"""",image-keyboard-response,206,662358,0.0-206.0,"""",jspsych/disgustFaces/AF25DIS.JPG,"""",256,Cue,Test,null,16,"""","""","""","""","""","""","""","""",1,5/2/2021 15:16,208.221.46.224,Mozilla/5.0 (Windows NT 6.3; Win64; x64; rv:88.0) Gecko/20100101 Firefox/88.0,,Firefox,88,Windows,6.3
230,1,null,"""",image-keyboard-response,207,662466,0.0-207.0,"""",jspsych/neutralFaces/BF11NES.JPG,"""",256,backwardMask,Test,null,100,"""","""","""","""","""","""","""","""",1,5/2/2021 15:16,208.221.46.224,Mozilla/5.0 (Windows NT 6.3; Win64; x64; rv:88.0) Gecko/20100101 Firefox/88.0,,Firefox,88,Windows,6.3
230,1,null,"""",html-keyboard-response,208,663469,0.0-208.0,"""","<div style=""font-size:60px;"">+</div>","""",256,fixationBtwnNeutralMaskAndPrompt,Test,null,1000,"""","""","""","""","""","""","""","""",1,5/2/2021 15:16,208.221.46.224,Mozilla/5.0 (Windows NT 6.3; Win64; x64; rv:88.0) Gecko/20100101 Firefox/88.0,,Firefox,88,Windows,6.3
230,1,1187,"""",html-button-response,209,664661,0.0-209.0,"""","<img src='jspsych/CFDfaces/CFD-AF-242-158-N.jpg' height=""250px"">,</br><b>Kimberly</b>",1,256,IntactOrRearranged,Test,"""","""","""","""",CFD-AF-226-251-N.jpg,Taylor,1,1,"""","""",1,5/2/2021 15:16,208.221.46.224,Mozilla/5.0 (Windows NT 6.3; Win64; x64; rv:88.0) Gecko/20100101 Firefox/88.0,,Firefox,88,Windows,6.3
230,1,2316,"""",html-slider-response,210,666990,0.0-210.0,"""","<img src='jspsych/CFDfaces/CFD-AF-242-158-N.jpg' height=""250px"">,</br><b>Kimberly</b>","""",256,ConfidenceQuery,Test,"""","""","""","""",CFD-AF-226-251-N.jpg,Taylor,1,"""",0,40,1,5/2/2021 15:16,208.221.46.224,Mozilla/5.0 (Windows NT 6.3; Win64; x64; rv:88.0) Gecko/20100101 Firefox/88.0,,Firefox,88,Windows,6.3
230,1,null,"""",html-keyboard-response,211,668022,0.0-211.0,"""","<div style=""font-size:60px;"">+</div>","""",256,ITI,Test,null,1000,"""","""","""","""","""","""","""","""",1,5/2/2021 15:16,208.221.46.224,Mozilla/5.0 (Windows NT 6.3; Win64; x64; rv:88.0) Gecko/20100101 Firefox/88.0,,Firefox,88,Windows,6.3
230,1,null,"""",image-keyboard-response,212,668279,0.0-212.0,"""",jspsych/scrambledDisgustFaces/scrambledAM10DIS.JPG,"""",256,forwardMask,Test,null,250,"""",d,"""","""","""","""","""","""",1,5/2/2021 15:16,208.221.46.224,Mozilla/5.0 (Windows NT 6.3; Win64; x64; rv:88.0) Gecko/20100101 Firefox/88.0,,Firefox,88,Windows,6.3
230,1,null,"""",image-keyboard-response,213,668300,0.0-213.0,"""",jspsych/disgustFaces/AM10DIS.JPG,"""",256,Cue,Test,null,16,"""","""","""","""","""","""","""","""",1,5/2/2021 15:16,208.221.46.224,Mozilla/5.0 (Windows NT 6.3; Win64; x64; rv:88.0) Gecko/20100101 Firefox/88.0,,Firefox,88,Windows,6.3
230,1,null,"""",image-keyboard-response,214,668407,0.0-214.0,"""",jspsych/neutralFaces/AM09NES.JPG,"""",256,backwardMask,Test,null,100,"""","""","""","""","""","""","""","""",1,5/2/2021 15:16,208.221.46.224,Mozilla/5.0 (Windows NT 6.3; Win64; x64; rv:88.0) Gecko/20100101 Firefox/88.0,,Firefox,88,Windows,6.3
230,1,null,"""",html-keyboard-response,215,669409,0.0-215.0,"""","<div style=""font-size:60px;"">+</div>","""",256,fixationBtwnNeutralMaskAndPrompt,Test,null,1000,"""","""","""","""","""","""","""","""",1,5/2/2021 15:16,208.221.46.224,Mozilla/5.0 (Windows NT 6.3; Win64; x64; rv:88.0) Gecko/20100101 Firefox/88.0,,Firefox,88,Windows,6.3
230,1,1375,"""",html-button-response,216,670789,0.0-216.0,"""","<img src='jspsych/CFDfaces/CFD-WF-204-038-N.jpg' height=""250px"">,</br><b>Victoria</b>",1,256,IntactOrRearranged,Test,"""","""","""","""",CFD-AF-203-077-N.jpg,Lindsey,1,1,"""","""",1,5/2/2021 15:16,208.221.46.224,Mozilla/5.0 (Windows NT 6.3; Win64; x64; rv:88.0) Gecko/20100101 Firefox/88.0,,Firefox,88,Windows,6.3
230,1,2214,"""",html-slider-response,217,673011,0.0-217.0,"""","<img src='jspsych/CFDfaces/CFD-WF-204-038-N.jpg' height=""250px"">,</br><b>Victoria</b>","""",256,ConfidenceQuery,Test,"""","""","""","""",CFD-AF-203-077-N.jpg,Lindsey,1,"""",0,49,1,5/2/2021 15:16,208.221.46.224,Mozilla/5.0 (Windows NT 6.3; Win64; x64; rv:88.0) Gecko/20100101 Firefox/88.0,,Firefox,88,Windows,6.3
230,1,null,"""",html-keyboard-response,218,674029,0.0-218.0,"""","<div style=""font-size:60px;"">+</div>","""",256,ITI,Test,null,1000,"""","""","""","""","""","""","""","""",1,5/2/2021 15:16,208.221.46.224,Mozilla/5.0 (Windows NT 6.3; Win64; x64; rv:88.0) Gecko/20100101 Firefox/88.0,,Firefox,88,Windows,6.3
230,1,null,"""",image-keyboard-response,219,674287,0.0-219.0,"""",jspsych/scrambledNeutralFaces/scrambledBM05NES.JPG,"""",256,forwardMask,Test,null,250,"""",n,"""","""","""","""","""","""",1,5/2/2021 15:16,208.221.46.224,Mozilla/5.0 (Windows NT 6.3; Win64; x64; rv:88.0) Gecko/20100101 Firefox/88.0,,Firefox,88,Windows,6.3
230,1,null,"""",image-keyboard-response,220,674310,0.0-220.0,"""",jspsych/neutralFaces/BM05NES.JPG,"""",256,Cue,Test,null,16,"""","""","""","""","""","""","""","""",1,5/2/2021 15:16,208.221.46.224,Mozilla/5.0 (Windows NT 6.3; Win64; x64; rv:88.0) Gecko/20100101 Firefox/88.0,,Firefox,88,Windows,6.3
230,1,null,"""",image-keyboard-response,221,674419,0.0-221.0,"""",jspsych/neutralFaces/AM28NES.JPG,"""",256,backwardMask,Test,null,100,"""","""","""","""","""","""","""","""",1,5/2/2021 15:16,208.221.46.224,Mozilla/5.0 (Windows NT 6.3; Win64; x64; rv:88.0) Gecko/20100101 Firefox/88.0,,Firefox,88,Windows,6.3
230,1,null,"""",html-keyboard-response,222,675423,0.0-222.0,"""","<div style=""font-size:60px;"">+</div>","""",256,fixationBtwnNeutralMaskAndPrompt,Test,null,1000,"""","""","""","""","""","""","""","""",1,5/2/2021 15:16,208.221.46.224,Mozilla/5.0 (Windows NT 6.3; Win64; x64; rv:88.0) Gecko/20100101 Firefox/88.0,,Firefox,88,Windows,6.3
230,1,1861,"""",html-button-response,223,677290,0.0-223.0,"""","<img src='jspsych/CFDfaces/CFD-AM-213-056-N.jpg' height=""250px"">,</br><b>Eric</b>",1,256,IntactOrRearranged,Test,"""","""","""","""",CFD-BM-029-024-N.jpg,Timothy,1,1,"""","""",1,5/2/2021 15:16,208.221.46.224,Mozilla/5.0 (Windows NT 6.3; Win64; x64; rv:88.0) Gecko/20100101 Firefox/88.0,,Firefox,88,Windows,6.3
230,1,2778,"""",html-slider-response,224,680078,0.0-224.0,"""","<img src='jspsych/CFDfaces/CFD-AM-213-056-N.jpg' height=""250px"">,</br><b>Eric</b>","""",256,ConfidenceQuery,Test,"""","""","""","""",CFD-BM-029-024-N.jpg,Timothy,1,"""",0,41,1,5/2/2021 15:16,208.221.46.224,Mozilla/5.0 (Windows NT 6.3; Win64; x64; rv:88.0) Gecko/20100101 Firefox/88.0,,Firefox,88,Windows,6.3
230,1,null,"""",html-keyboard-response,225,681101,0.0-225.0,"""","<div style=""font-size:60px;"">+</div>","""",256,ITI,Test,null,1000,"""","""","""","""","""","""","""","""",1,5/2/2021 15:16,208.221.46.224,Mozilla/5.0 (Windows NT 6.3; Win64; x64; rv:88.0) Gecko/20100101 Firefox/88.0,,Firefox,88,Windows,6.3
230,1,null,"""",image-keyboard-response,226,681374,0.0-226.0,"""",jspsych/scrambledNeutralFaces/scrambledAM26NES.JPG,"""",256,forwardMask,Test,null,250,"""",n,"""","""","""","""","""","""",1,5/2/2021 15:16,208.221.46.224,Mozilla/5.0 (Windows NT 6.3; Win64; x64; rv:88.0) Gecko/20100101 Firefox/88.0,,Firefox,88,Windows,6.3
230,1,null,"""",image-keyboard-response,227,681395,0.0-227.0,"""",jspsych/neutralFaces/AM26NES.JPG,"""",256,Cue,Test,null,16,"""","""","""","""","""","""","""","""",1,5/2/2021 15:16,208.221.46.224,Mozilla/5.0 (Windows NT 6.3; Win64; x64; rv:88.0) Gecko/20100101 Firefox/88.0,,Firefox,88,Windows,6.3
230,1,null,"""",image-keyboard-response,228,681503,0.0-228.0,"""",jspsych/neutralFaces/BM01NES.JPG,"""",256,backwardMask,Test,null,100,"""","""","""","""","""","""","""","""",1,5/2/2021 15:16,208.221.46.224,Mozilla/5.0 (Windows NT 6.3; Win64; x64; rv:88.0) Gecko/20100101 Firefox/88.0,,Firefox,88,Windows,6.3
230,1,null,"""",html-keyboard-response,229,682508,0.0-229.0,"""","<div style=""font-size:60px;"">+</div>","""",256,fixationBtwnNeutralMaskAndPrompt,Test,null,1000,"""","""","""","""","""","""","""","""",1,5/2/2021 15:16,208.221.46.224,Mozilla/5.0 (Windows NT 6.3; Win64; x64; rv:88.0) Gecko/20100101 Firefox/88.0,,Firefox,88,Windows,6.3
230,1,null,"""",html-button-response,230,687526,0.0-230.0,"""","<img src='jspsych/CFDfaces/CFD-AF-209-006-N.jpg' height=""250px"">,</br><b>Michelle</b>",null,256,IntactOrRearranged,Test,"""","""","""","""",CFD-LM-209-111-N.jpg,Ryan,0,"""","""","""",1,5/2/2021 15:16,208.221.46.224,Mozilla/5.0 (Windows NT 6.3; Win64; x64; rv:88.0) Gecko/20100101 Firefox/88.0,,Firefox,88,Windows,6.3
230,1,null,"""",html-slider-response,231,692552,0.0-231.0,"""","<img src='jspsych/CFDfaces/CFD-AF-209-006-N.jpg' height=""250px"">,</br><b>Michelle</b>","""",256,ConfidenceQuery,Test,"""","""","""","""",CFD-LM-209-111-N.jpg,Ryan,0,"""",0,null,1,5/2/2021 15:16,208.221.46.224,Mozilla/5.0 (Windows NT 6.3; Win64; x64; rv:88.0) Gecko/20100101 Firefox/88.0,,Firefox,88,Windows,6.3
230,1,null,"""",html-keyboard-response,232,693561,0.0-232.0,"""","<div style=""font-size:60px;"">+</div>","""",256,ITI,Test,null,1000,"""","""","""","""","""","""","""","""",1,5/2/2021 15:16,208.221.46.224,Mozilla/5.0 (Windows NT 6.3; Win64; x64; rv:88.0) Gecko/20100101 Firefox/88.0,,Firefox,88,Windows,6.3
230,1,null,"""",image-keyboard-response,233,693855,0.0-233.0,"""",jspsych/scrambledDisgustFaces/scrambledAM06DIS.JPG,"""",256,forwardMask,Test,null,250,"""",d,"""","""","""","""","""","""",1,5/2/2021 15:16,208.221.46.224,Mozilla/5.0 (Windows NT 6.3; Win64; x64; rv:88.0) Gecko/20100101 Firefox/88.0,,Firefox,88,Windows,6.3
230,1,null,"""",image-keyboard-response,234,693878,0.0-234.0,"""",jspsych/disgustFaces/AM06DIS.JPG,"""",256,Cue,Test,null,16,"""","""","""","""","""","""","""","""",1,5/2/2021 15:16,208.221.46.224,Mozilla/5.0 (Windows NT 6.3; Win64; x64; rv:88.0) Gecko/20100101 Firefox/88.0,,Firefox,88,Windows,6.3
230,1,null,"""",image-keyboard-response,235,693985,0.0-235.0,"""",jspsych/neutralFaces/BM21NES.JPG,"""",256,backwardMask,Test,null,100,"""","""","""","""","""","""","""","""",1,5/2/2021 15:16,208.221.46.224,Mozilla/5.0 (Windows NT 6.3; Win64; x64; rv:88.0) Gecko/20100101 Firefox/88.0,,Firefox,88,Windows,6.3
230,1,null,"""",html-keyboard-response,236,694988,0.0-236.0,"""","<div style=""font-size:60px;"">+</div>","""",256,fixationBtwnNeutralMaskAndPrompt,Test,null,1000,"""","""","""","""","""","""","""","""",1,5/2/2021 15:16,208.221.46.224,Mozilla/5.0 (Windows NT 6.3; Win64; x64; rv:88.0) Gecko/20100101 Firefox/88.0,,Firefox,88,Windows,6.3
230,1,null,"""",html-button-response,237,699994,0.0-237.0,"""","<img src='jspsych/CFDfaces/CFD-LM-246-087-N.jpg' height=""250px"">,</br><b>Jeffrey</b>",null,256,IntactOrRearranged,Test,"""","""","""","""",CFD-BM-027-001-N.jpg,Sean,1,"""","""","""",1,5/2/2021 15:16,208.221.46.224,Mozilla/5.0 (Windows NT 6.3; Win64; x64; rv:88.0) Gecko/20100101 Firefox/88.0,,Firefox,88,Windows,6.3
230,1,2206,"""",html-slider-response,238,702226,0.0-238.0,"""","<img src='jspsych/CFDfaces/CFD-LM-246-087-N.jpg' height=""250px"">,</br><b>Jeffrey</b>","""",256,ConfidenceQuery,Test,"""","""","""","""",CFD-BM-027-001-N.jpg,Sean,1,"""",0,47,1,5/2/2021 15:16,208.221.46.224,Mozilla/5.0 (Windows NT 6.3; Win64; x64; rv:88.0) Gecko/20100101 Firefox/88.0,,Firefox,88,Windows,6.3
230,1,null,"""",html-keyboard-response,239,703232,0.0-239.0,"""","<div style=""font-size:60px;"">+</div>","""",256,ITI,Test,null,1000,"""","""","""","""","""","""","""","""",1,5/2/2021 15:16,208.221.46.224,Mozilla/5.0 (Windows NT 6.3; Win64; x64; rv:88.0) Gecko/20100101 Firefox/88.0,,Firefox,88,Windows,6.3
230,1,null,"""",image-keyboard-response,240,703490,0.0-240.0,"""",jspsych/scrambledDisgustFaces/scrambledAM30DIS.JPG,"""",256,forwardMask,Test,null,250,"""",d,"""","""","""","""","""","""",1,5/2/2021 15:16,208.221.46.224,Mozilla/5.0 (Windows NT 6.3; Win64; x64; rv:88.0) Gecko/20100101 Firefox/88.0,,Firefox,88,Windows,6.3
230,1,null,"""",image-keyboard-response,241,703515,0.0-241.0,"""",jspsych/disgustFaces/AM30DIS.JPG,"""",256,Cue,Test,null,16,"""","""","""","""","""","""","""","""",1,5/2/2021 15:16,208.221.46.224,Mozilla/5.0 (Windows NT 6.3; Win64; x64; rv:88.0) Gecko/20100101 Firefox/88.0,,Firefox,88,Windows,6.3
230,1,null,"""",image-keyboard-response,242,703619,0.0-242.0,"""",jspsych/neutralFaces/AM14NES.JPG,"""",256,backwardMask,Test,null,100,"""","""","""","""","""","""","""","""",1,5/2/2021 15:16,208.221.46.224,Mozilla/5.0 (Windows NT 6.3; Win64; x64; rv:88.0) Gecko/20100101 Firefox/88.0,,Firefox,88,Windows,6.3
230,1,null,"""",html-keyboard-response,243,704621,0.0-243.0,"""","<div style=""font-size:60px;"">+</div>","""",256,fixationBtwnNeutralMaskAndPrompt,Test,null,1000,"""","""","""","""","""","""","""","""",1,5/2/2021 15:16,208.221.46.224,Mozilla/5.0 (Windows NT 6.3; Win64; x64; rv:88.0) Gecko/20100101 Firefox/88.0,,Firefox,88,Windows,6.3
230,1,4412,"""",html-button-response,244,709039,0.0-244.0,"""","<img src='jspsych/CFDfaces/CFD-WF-019-005-N.jpg' height=""250px"">,</br><b>Meghan</b>",1,256,IntactOrRearranged,Test,"""","""","""","""",CFD-LF-243-175-N.jpg,Laura,0,1,"""","""",1,5/2/2021 15:16,208.221.46.224,Mozilla/5.0 (Windows NT 6.3; Win64; x64; rv:88.0) Gecko/20100101 Firefox/88.0,,Firefox,88,Windows,6.3
230,1,2351,"""",html-slider-response,245,711419,0.0-245.0,"""","<img src='jspsych/CFDfaces/CFD-WF-019-005-N.jpg' height=""250px"">,</br><b>Meghan</b>","""",256,ConfidenceQuery,Test,"""","""","""","""",CFD-LF-243-175-N.jpg,Laura,0,"""",0,37,1,5/2/2021 15:16,208.221.46.224,Mozilla/5.0 (Windows NT 6.3; Win64; x64; rv:88.0) Gecko/20100101 Firefox/88.0,,Firefox,88,Windows,6.3
230,1,null,"""",html-keyboard-response,246,712425,0.0-246.0,"""","<div style=""font-size:60px;"">+</div>","""",256,ITI,Test,null,1000,"""","""","""","""","""","""","""","""",1,5/2/2021 15:16,208.221.46.224,Mozilla/5.0 (Windows NT 6.3; Win64; x64; rv:88.0) Gecko/20100101 Firefox/88.0,,Firefox,88,Windows,6.3
230,1,null,"""",image-keyboard-response,247,712685,0.0-247.0,"""",jspsych/scrambledDisgustFaces/scrambledBF20DIS.JPG,"""",256,forwardMask,Test,null,250,"""",d,"""","""","""","""","""","""",1,5/2/2021 15:16,208.221.46.224,Mozilla/5.0 (Windows NT 6.3; Win64; x64; rv:88.0) Gecko/20100101 Firefox/88.0,,Firefox,88,Windows,6.3
230,1,null,"""",image-keyboard-response,248,712707,0.0-248.0,"""",jspsych/disgustFaces/BF20DIS.JPG,"""",256,Cue,Test,null,16,"""","""","""","""","""","""","""","""",1,5/2/2021 15:16,208.221.46.224,Mozilla/5.0 (Windows NT 6.3; Win64; x64; rv:88.0) Gecko/20100101 Firefox/88.0,,Firefox,88,Windows,6.3
230,1,null,"""",image-keyboard-response,249,712810,0.0-249.0,"""",jspsych/neutralFaces/BF16NES.JPG,"""",256,backwardMask,Test,null,100,"""","""","""","""","""","""","""","""",1,5/2/2021 15:16,208.221.46.224,Mozilla/5.0 (Windows NT 6.3; Win64; x64; rv:88.0) Gecko/20100101 Firefox/88.0,,Firefox,88,Windows,6.3
230,1,null,"""",html-keyboard-response,250,713814,0.0-250.0,"""","<div style=""font-size:60px;"">+</div>","""",256,fixationBtwnNeutralMaskAndPrompt,Test,null,1000,"""","""","""","""","""","""","""","""",1,5/2/2021 15:16,208.221.46.224,Mozilla/5.0 (Windows NT 6.3; Win64; x64; rv:88.0) Gecko/20100101 Firefox/88.0,,Firefox,88,Windows,6.3
230,1,1698,"""",html-button-response,251,715517,0.0-251.0,"""","<img src='jspsych/CFDfaces/CFD-BF-222-240-N.jpg' height=""250px"">,</br><b>Vanessa</b>",1,256,IntactOrRearranged,Test,"""","""","""","""",CFD-AM-221-184-N.jpg,Jesse,0,1,"""","""",1,5/2/2021 15:16,208.221.46.224,Mozilla/5.0 (Windows NT 6.3; Win64; x64; rv:88.0) Gecko/20100101 Firefox/88.0,,Firefox,88,Windows,6.3
230,1,2385,"""",html-slider-response,252,717922,0.0-252.0,"""","<img src='jspsych/CFDfaces/CFD-BF-222-240-N.jpg' height=""250px"">,</br><b>Vanessa</b>","""",256,ConfidenceQuery,Test,"""","""","""","""",CFD-AM-221-184-N.jpg,Jesse,0,"""",0,56,1,5/2/2021 15:16,208.221.46.224,Mozilla/5.0 (Windows NT 6.3; Win64; x64; rv:88.0) Gecko/20100101 Firefox/88.0,,Firefox,88,Windows,6.3
230,1,null,"""",html-keyboard-response,253,718928,0.0-253.0,"""","<div style=""font-size:60px;"">+</div>","""",256,ITI,Test,null,1000,"""","""","""","""","""","""","""","""",1,5/2/2021 15:16,208.221.46.224,Mozilla/5.0 (Windows NT 6.3; Win64; x64; rv:88.0) Gecko/20100101 Firefox/88.0,,Firefox,88,Windows,6.3
230,1,null,"""",image-keyboard-response,254,719187,0.0-254.0,"""",jspsych/scrambledDisgustFaces/scrambledBM19DIS.JPG,"""",256,forwardMask,Test,null,250,"""",d,"""","""","""","""","""","""",1,5/2/2021 15:16,208.221.46.224,Mozilla/5.0 (Windows NT 6.3; Win64; x64; rv:88.0) Gecko/20100101 Firefox/88.0,,Firefox,88,Windows,6.3
230,1,null,"""",image-keyboard-response,255,719215,0.0-255.0,"""",jspsych/disgustFaces/BM20DIS.JPG,"""",256,Cue,Test,null,16,"""","""","""","""","""","""","""","""",1,5/2/2021 15:16,208.221.46.224,Mozilla/5.0 (Windows NT 6.3; Win64; x64; rv:88.0) Gecko/20100101 Firefox/88.0,,Firefox,88,Windows,6.3
230,1,null,"""",image-keyboard-response,256,719327,0.0-256.0,"""",jspsych/neutralFaces/BM31NES.JPG,"""",256,backwardMask,Test,null,100,"""","""","""","""","""","""","""","""",1,5/2/2021 15:16,208.221.46.224,Mozilla/5.0 (Windows NT 6.3; Win64; x64; rv:88.0) Gecko/20100101 Firefox/88.0,,Firefox,88,Windows,6.3
230,1,null,"""",html-keyboard-response,257,720330,0.0-257.0,"""","<div style=""font-size:60px;"">+</div>","""",256,fixationBtwnNeutralMaskAndPrompt,Test,null,1000,"""","""","""","""","""","""","""","""",1,5/2/2021 15:16,208.221.46.224,Mozilla/5.0 (Windows NT 6.3; Win64; x64; rv:88.0) Gecko/20100101 Firefox/88.0,,Firefox,88,Windows,6.3
230,1,1805,"""",html-button-response,258,722142,0.0-258.0,"""","<img src='jspsych/CFDfaces/CFD-BF-023-010-N.jpg' height=""250px"">,</br><b>Kayla</b>",1,256,IntactOrRearranged,Test,"""","""","""","""",CFD-BF-004-014-N.jpg,Lauren,0,1,"""","""",1,5/2/2021 15:16,208.221.46.224,Mozilla/5.0 (Windows NT 6.3; Win64; x64; rv:88.0) Gecko/20100101 Firefox/88.0,,Firefox,88,Windows,6.3
230,1,3579,"""",html-slider-response,259,725745,0.0-259.0,"""","<img src='jspsych/CFDfaces/CFD-BF-023-010-N.jpg' height=""250px"">,</br><b>Kayla</b>","""",256,ConfidenceQuery,Test,"""","""","""","""",CFD-BF-004-014-N.jpg,Lauren,0,"""",0,36,1,5/2/2021 15:16,208.221.46.224,Mozilla/5.0 (Windows NT 6.3; Win64; x64; rv:88.0) Gecko/20100101 Firefox/88.0,,Firefox,88,Windows,6.3
230,1,null,"""",html-keyboard-response,260,726750,0.0-260.0,"""","<div style=""font-size:60px;"">+</div>","""",256,ITI,Test,null,1000,"""","""","""","""","""","""","""","""",1,5/2/2021 15:16,208.221.46.224,Mozilla/5.0 (Windows NT 6.3; Win64; x64; rv:88.0) Gecko/20100101 Firefox/88.0,,Firefox,88,Windows,6.3
230,1,null,"""",image-keyboard-response,261,727007,0.0-261.0,"""",jspsych/scrambledNeutralFaces/scrambledBM11NES.JPG,"""",256,forwardMask,Test,null,250,"""",n,"""","""","""","""","""","""",1,5/2/2021 15:16,208.221.46.224,Mozilla/5.0 (Windows NT 6.3; Win64; x64; rv:88.0) Gecko/20100101 Firefox/88.0,,Firefox,88,Windows,6.3
230,1,null,"""",image-keyboard-response,262,727031,0.0-262.0,"""",jspsych/neutralFaces/BM11NES.JPG,"""",256,Cue,Test,null,16,"""","""","""","""","""","""","""","""",1,5/2/2021 15:16,208.221.46.224,Mozilla/5.0 (Windows NT 6.3; Win64; x64; rv:88.0) Gecko/20100101 Firefox/88.0,,Firefox,88,Windows,6.3
230,1,null,"""",image-keyboard-response,263,727137,0.0-263.0,"""",jspsych/neutralFaces/AM04NES.JPG,"""",256,backwardMask,Test,null,100,"""","""","""","""","""","""","""","""",1,5/2/2021 15:16,208.221.46.224,Mozilla/5.0 (Windows NT 6.3; Win64; x64; rv:88.0) Gecko/20100101 Firefox/88.0,,Firefox,88,Windows,6.3
230,1,null,"""",html-keyboard-response,264,728140,0.0-264.0,"""","<div style=""font-size:60px;"">+</div>","""",256,fixationBtwnNeutralMaskAndPrompt,Test,null,1000,"""","""","""","""","""","""","""","""",1,5/2/2021 15:16,208.221.46.224,Mozilla/5.0 (Windows NT 6.3; Win64; x64; rv:88.0) Gecko/20100101 Firefox/88.0,,Firefox,88,Windows,6.3
230,1,1254,"""",html-button-response,265,729412,0.0-265.0,"""","<img src='jspsych/CFDfaces/CFD-LM-239-075-N.jpg' height=""250px"">,</br><b>Ian</b>",1,256,IntactOrRearranged,Test,"""","""","""","""",CFD-AM-211-052-N.jpg,Kenneth,0,1,"""","""",1,5/2/2021 15:16,208.221.46.224,Mozilla/5.0 (Windows NT 6.3; Win64; x64; rv:88.0) Gecko/20100101 Firefox/88.0,,Firefox,88,Windows,6.3
230,1,2278,"""",html-slider-response,266,731697,0.0-266.0,"""","<img src='jspsych/CFDfaces/CFD-LM-239-075-N.jpg' height=""250px"">,</br><b>Ian</b>","""",256,ConfidenceQuery,Test,"""","""","""","""",CFD-AM-211-052-N.jpg,Kenneth,0,"""",0,42,1,5/2/2021 15:16,208.221.46.224,Mozilla/5.0 (Windows NT 6.3; Win64; x64; rv:88.0) Gecko/20100101 Firefox/88.0,,Firefox,88,Windows,6.3
230,1,null,"""",html-keyboard-response,267,732705,0.0-267.0,"""","<div style=""font-size:60px;"">+</div>","""",256,ITI,Test,null,1000,"""","""","""","""","""","""","""","""",1,5/2/2021 15:16,208.221.46.224,Mozilla/5.0 (Windows NT 6.3; Win64; x64; rv:88.0) Gecko/20100101 Firefox/88.0,,Firefox,88,Windows,6.3
230,1,null,"""",image-keyboard-response,268,732964,0.0-268.0,"""",jspsych/scrambledDisgustFaces/scrambledAF06DIS.JPG,"""",256,forwardMask,Test,null,250,"""",d,"""","""","""","""","""","""",1,5/2/2021 15:16,208.221.46.224,Mozilla/5.0 (Windows NT 6.3; Win64; x64; rv:88.0) Gecko/20100101 Firefox/88.0,,Firefox,88,Windows,6.3
230,1,null,"""",image-keyboard-response,269,732987,0.0-269.0,"""",jspsych/disgustFaces/AF06DIS.JPG,"""",256,Cue,Test,null,16,"""","""","""","""","""","""","""","""",1,5/2/2021 15:16,208.221.46.224,Mozilla/5.0 (Windows NT 6.3; Win64; x64; rv:88.0) Gecko/20100101 Firefox/88.0,,Firefox,88,Windows,6.3
230,1,null,"""",image-keyboard-response,270,733116,0.0-270.0,"""",jspsych/neutralFaces/BF30NES.JPG,"""",256,backwardMask,Test,null,100,"""","""","""","""","""","""","""","""",1,5/2/2021 15:16,208.221.46.224,Mozilla/5.0 (Windows NT 6.3; Win64; x64; rv:88.0) Gecko/20100101 Firefox/88.0,,Firefox,88,Windows,6.3
230,1,null,"""",html-keyboard-response,271,734120,0.0-271.0,"""","<div style=""font-size:60px;"">+</div>","""",256,fixationBtwnNeutralMaskAndPrompt,Test,null,1000,"""","""","""","""","""","""","""","""",1,5/2/2021 15:16,208.221.46.224,Mozilla/5.0 (Windows NT 6.3; Win64; x64; rv:88.0) Gecko/20100101 Firefox/88.0,,Firefox,88,Windows,6.3
230,1,null,"""",html-button-response,272,739139,0.0-272.0,"""","<img src='jspsych/CFDfaces/CFD-WM-237-052-N.jpg' height=""250px"">,</br><b>Brian</b>",null,256,IntactOrRearranged,Test,"""","""","""","""",CFD-LM-213-061-N.jpg,Jeremy,0,"""","""","""",1,5/2/2021 15:16,208.221.46.224,Mozilla/5.0 (Windows NT 6.3; Win64; x64; rv:88.0) Gecko/20100101 Firefox/88.0,,Firefox,88,Windows,6.3
230,1,null,"""",html-slider-response,273,744156,0.0-273.0,"""","<img src='jspsych/CFDfaces/CFD-WM-237-052-N.jpg' height=""250px"">,</br><b>Brian</b>","""",256,ConfidenceQuery,Test,"""","""","""","""",CFD-LM-213-061-N.jpg,Jeremy,0,"""",0,null,1,5/2/2021 15:16,208.221.46.224,Mozilla/5.0 (Windows NT 6.3; Win64; x64; rv:88.0) Gecko/20100101 Firefox/88.0,,Firefox,88,Windows,6.3
230,1,null,"""",html-keyboard-response,274,745188,0.0-274.0,"""","<div style=""font-size:60px;"">+</div>","""",256,ITI,Test,null,1000,"""","""","""","""","""","""","""","""",1,5/2/2021 15:16,208.221.46.224,Mozilla/5.0 (Windows NT 6.3; Win64; x64; rv:88.0) Gecko/20100101 Firefox/88.0,,Firefox,88,Windows,6.3
230,1,null,"""",image-keyboard-response,275,745450,0.0-275.0,"""",jspsych/scrambledDisgustFaces/scrambledBF06DIS.JPG,"""",256,forwardMask,Test,null,250,"""",d,"""","""","""","""","""","""",1,5/2/2021 15:16,208.221.46.224,Mozilla/5.0 (Windows NT 6.3; Win64; x64; rv:88.0) Gecko/20100101 Firefox/88.0,,Firefox,88,Windows,6.3
230,1,null,"""",image-keyboard-response,276,745475,0.0-276.0,"""",jspsych/disgustFaces/BF06DIS.JPG,"""",256,Cue,Test,null,16,"""","""","""","""","""","""","""","""",1,5/2/2021 15:16,208.221.46.224,Mozilla/5.0 (Windows NT 6.3; Win64; x64; rv:88.0) Gecko/20100101 Firefox/88.0,,Firefox,88,Windows,6.3
230,1,null,"""",image-keyboard-response,277,745580,0.0-277.0,"""",jspsych/neutralFaces/BF16NES.JPG,"""",256,backwardMask,Test,null,100,"""","""","""","""","""","""","""","""",1,5/2/2021 15:16,208.221.46.224,Mozilla/5.0 (Windows NT 6.3; Win64; x64; rv:88.0) Gecko/20100101 Firefox/88.0,,Firefox,88,Windows,6.3
230,1,null,"""",html-keyboard-response,278,746582,0.0-278.0,"""","<div style=""font-size:60px;"">+</div>","""",256,fixationBtwnNeutralMaskAndPrompt,Test,null,1000,"""","""","""","""","""","""","""","""",1,5/2/2021 15:16,208.221.46.224,Mozilla/5.0 (Windows NT 6.3; Win64; x64; rv:88.0) Gecko/20100101 Firefox/88.0,,Firefox,88,Windows,6.3
230,1,null,"""",html-button-response,279,751591,0.0-279.0,"""","<img src='jspsych/CFDfaces/CFD-LM-223-175-N.jpg' height=""250px"">,</br><b>Joshua</b>",null,256,IntactOrRearranged,Test,"""","""","""","""",CFD-AF-243-170-N.jpg,Whitney,1,"""","""","""",1,5/2/2021 15:16,208.221.46.224,Mozilla/5.0 (Windows NT 6.3; Win64; x64; rv:88.0) Gecko/20100101 Firefox/88.0,,Firefox,88,Windows,6.3
230,1,null,"""",html-slider-response,280,756621,0.0-280.0,"""","<img src='jspsych/CFDfaces/CFD-LM-223-175-N.jpg' height=""250px"">,</br><b>Joshua</b>","""",256,ConfidenceQuery,Test,"""","""","""","""",CFD-AF-243-170-N.jpg,Whitney,1,"""",0,null,1,5/2/2021 15:16,208.221.46.224,Mozilla/5.0 (Windows NT 6.3; Win64; x64; rv:88.0) Gecko/20100101 Firefox/88.0,,Firefox,88,Windows,6.3
230,1,null,"""",html-keyboard-response,281,757626,0.0-281.0,"""","<div style=""font-size:60px;"">+</div>","""",256,ITI,Test,null,1000,"""","""","""","""","""","""","""","""",1,5/2/2021 15:16,208.221.46.224,Mozilla/5.0 (Windows NT 6.3; Win64; x64; rv:88.0) Gecko/20100101 Firefox/88.0,,Firefox,88,Windows,6.3
230,1,null,"""",image-keyboard-response,282,757912,0.0-282.0,"""",jspsych/scrambledNeutralFaces/scrambledBF22NES.JPG,"""",256,forwardMask,Test,null,250,"""",n,"""","""","""","""","""","""",1,5/2/2021 15:16,208.221.46.224,Mozilla/5.0 (Windows NT 6.3; Win64; x64; rv:88.0) Gecko/20100101 Firefox/88.0,,Firefox,88,Windows,6.3
230,1,null,"""",image-keyboard-response,283,757935,0.0-283.0,"""",jspsych/neutralFaces/BF22NES.JPG,"""",256,Cue,Test,null,16,"""","""","""","""","""","""","""","""",1,5/2/2021 15:16,208.221.46.224,Mozilla/5.0 (Windows NT 6.3; Win64; x64; rv:88.0) Gecko/20100101 Firefox/88.0,,Firefox,88,Windows,6.3
230,1,null,"""",image-keyboard-response,284,758042,0.0-284.0,"""",jspsych/neutralFaces/BF21NES.JPG,"""",256,backwardMask,Test,null,100,"""","""","""","""","""","""","""","""",1,5/2/2021 15:16,208.221.46.224,Mozilla/5.0 (Windows NT 6.3; Win64; x64; rv:88.0) Gecko/20100101 Firefox/88.0,,Firefox,88,Windows,6.3
230,1,null,"""",html-keyboard-response,285,759046,0.0-285.0,"""","<div style=""font-size:60px;"">+</div>","""",256,fixationBtwnNeutralMaskAndPrompt,Test,null,1000,"""","""","""","""","""","""","""","""",1,5/2/2021 15:16,208.221.46.224,Mozilla/5.0 (Windows NT 6.3; Win64; x64; rv:88.0) Gecko/20100101 Firefox/88.0,,Firefox,88,Windows,6.3
230,1,null,"""",html-button-response,286,764054,0.0-286.0,"""","<img src='jspsych/CFDfaces/CFD-BM-041-035-N.jpg' height=""250px"">,</br><b>Jason</b>",null,256,IntactOrRearranged,Test,"""","""","""","""",CFD-LF-204-133-N.jpg,Tiffany,0,"""","""","""",1,5/2/2021 15:16,208.221.46.224,Mozilla/5.0 (Windows NT 6.3; Win64; x64; rv:88.0) Gecko/20100101 Firefox/88.0,,Firefox,88,Windows,6.3
230,1,null,"""",html-slider-response,287,769084,0.0-287.0,"""","<img src='jspsych/CFDfaces/CFD-BM-041-035-N.jpg' height=""250px"">,</br><b>Jason</b>","""",256,ConfidenceQuery,Test,"""","""","""","""",CFD-LF-204-133-N.jpg,Tiffany,0,"""",0,null,1,5/2/2021 15:16,208.221.46.224,Mozilla/5.0 (Windows NT 6.3; Win64; x64; rv:88.0) Gecko/20100101 Firefox/88.0,,Firefox,88,Windows,6.3
230,1,null,"""",html-keyboard-response,288,770091,0.0-288.0,"""","<div style=""font-size:60px;"">+</div>","""",256,ITI,Test,null,1000,"""","""","""","""","""","""","""","""",1,5/2/2021 15:16,208.221.46.224,Mozilla/5.0 (Windows NT 6.3; Win64; x64; rv:88.0) Gecko/20100101 Firefox/88.0,,Firefox,88,Windows,6.3
230,1,null,"""",image-keyboard-response,289,770361,0.0-289.0,"""",jspsych/scrambledDisgustFaces/scrambledBF06DIS.JPG,"""",256,forwardMask,Test,null,250,"""",d,"""","""","""","""","""","""",1,5/2/2021 15:16,208.221.46.224,Mozilla/5.0 (Windows NT 6.3; Win64; x64; rv:88.0) Gecko/20100101 Firefox/88.0,,Firefox,88,Windows,6.3
230,1,null,"""",image-keyboard-response,290,770380,0.0-290.0,"""",jspsych/disgustFaces/BF06DIS.JPG,"""",256,Cue,Test,null,16,"""","""","""","""","""","""","""","""",1,5/2/2021 15:16,208.221.46.224,Mozilla/5.0 (Windows NT 6.3; Win64; x64; rv:88.0) Gecko/20100101 Firefox/88.0,,Firefox,88,Windows,6.3
230,1,null,"""",image-keyboard-response,291,770486,0.0-291.0,"""",jspsych/neutralFaces/BF30NES.JPG,"""",256,backwardMask,Test,null,100,"""","""","""","""","""","""","""","""",1,5/2/2021 15:16,208.221.46.224,Mozilla/5.0 (Windows NT 6.3; Win64; x64; rv:88.0) Gecko/20100101 Firefox/88.0,,Firefox,88,Windows,6.3
230,1,null,"""",html-keyboard-response,292,771490,0.0-292.0,"""","<div style=""font-size:60px;"">+</div>","""",256,fixationBtwnNeutralMaskAndPrompt,Test,null,1000,"""","""","""","""","""","""","""","""",1,5/2/2021 15:16,208.221.46.224,Mozilla/5.0 (Windows NT 6.3; Win64; x64; rv:88.0) Gecko/20100101 Firefox/88.0,,Firefox,88,Windows,6.3
230,1,3508,"""",html-button-response,293,775007,0.0-293.0,"""","<img src='jspsych/CFDfaces/CFD-LM-252-076-N.jpg' height=""250px"">,</br><b>Robert</b>",1,256,IntactOrRearranged,Test,"""","""","""","""",CFD-WF-016-015-N.jpg,Jenna,0,1,"""","""",1,5/2/2021 15:16,208.221.46.224,Mozilla/5.0 (Windows NT 6.3; Win64; x64; rv:88.0) Gecko/20100101 Firefox/88.0,,Firefox,88,Windows,6.3
230,1,4368,"""",html-slider-response,294,779386,0.0-294.0,"""","<img src='jspsych/CFDfaces/CFD-LM-252-076-N.jpg' height=""250px"">,</br><b>Robert</b>","""",256,ConfidenceQuery,Test,"""","""","""","""",CFD-WF-016-015-N.jpg,Jenna,0,"""",0,54,1,5/2/2021 15:16,208.221.46.224,Mozilla/5.0 (Windows NT 6.3; Win64; x64; rv:88.0) Gecko/20100101 Firefox/88.0,,Firefox,88,Windows,6.3
230,1,null,"""",html-keyboard-response,295,780409,0.0-295.0,"""","<div style=""font-size:60px;"">+</div>","""",256,ITI,Test,null,1000,"""","""","""","""","""","""","""","""",1,5/2/2021 15:16,208.221.46.224,Mozilla/5.0 (Windows NT 6.3; Win64; x64; rv:88.0) Gecko/20100101 Firefox/88.0,,Firefox,88,Windows,6.3
