run_id,condition,rt,responses,trial_type,trial_index,time_elapsed,internal_node_id,question_order,stimulus,button_pressed,iTrial,Phase,ExperimentPhase,key_press,StimulusDurationSetting,CharacterResponse,correctResponse,Face,Name,rearranged,didSubjectEnterRearranged,slider_start,response,Block,recorded_at,ip,user_agent,device,browser,browser_version,platform,platform_version
58,1,12325,"{""Q0"":""A2V9JAJHIES5RB""}",survey-text,0,12328,0.0-0.0,"""","""","""","""","""","""","""","""","""","""","""","""","""","""","""","""","""",4/20/2021 15:22,31.205.112.174,Mozilla/5.0 (Windows NT 10.0; Win64; x64; rv:88.0) Gecko/20100101 Firefox/88.0,,Firefox,88,Windows,10
58,1,4015,"{""Q0"":""20""}",survey-text,1,16354,0.0-1.0,"""","""","""","""","""","""","""","""","""","""","""","""","""","""","""","""","""",4/20/2021 15:22,31.205.112.174,Mozilla/5.0 (Windows NT 10.0; Win64; x64; rv:88.0) Gecko/20100101 Firefox/88.0,,Firefox,88,Windows,10
58,1,12686,"{""Q0"":""male"",""Q1"":""Not Hispanic/Latino"",""Q2"":""Asian""}",survey-multi-choice,2,29042,0.0-2.0,"[0,1,2]","""","""","""","""","""","""","""","""","""","""","""","""","""","""","""","""",4/20/2021 15:22,31.205.112.174,Mozilla/5.0 (Windows NT 10.0; Win64; x64; rv:88.0) Gecko/20100101 Firefox/88.0,,Firefox,88,Windows,10
58,1,17510,"""",image-button-response,3,46565,0.0-3.0,"""",directionsMemoryAssociation1.JPG,0,1,IntroDirections1,break,"""","""","""","""","""","""","""","""","""","""","""",4/20/2021 15:22,31.205.112.174,Mozilla/5.0 (Windows NT 10.0; Win64; x64; rv:88.0) Gecko/20100101 Firefox/88.0,,Firefox,88,Windows,10
58,1,16891,"""",image-button-response,4,63463,0.0-4.0,"""",directionsMemoryAssociation2.JPG,0,1,IntroDirections2,break,"""","""","""","""","""","""","""","""","""","""","""",4/20/2021 15:22,31.205.112.174,Mozilla/5.0 (Windows NT 10.0; Win64; x64; rv:88.0) Gecko/20100101 Firefox/88.0,,Firefox,88,Windows,10
58,1,null,"""",html-keyboard-response,5,68482,0.0-5.0,"""","<img src='jspsych/CFDfaces/CFD-WF-205-006-N.jpg' height=""250px"">,</br><b>Katelyn</b>","""",1,IntactFace,Practice,null,5000,"""","""","""","""","""","""","""","""","""",4/20/2021 15:22,31.205.112.174,Mozilla/5.0 (Windows NT 10.0; Win64; x64; rv:88.0) Gecko/20100101 Firefox/88.0,,Firefox,88,Windows,10
58,1,null,"""",html-keyboard-response,6,68999,0.0-6.0,"""","<div style=""font-size:60px;"">+</div>","""",1,ITI,Practice,null,1000,"""","""","""","""","""","""","""","""","""",4/20/2021 15:22,31.205.112.174,Mozilla/5.0 (Windows NT 10.0; Win64; x64; rv:88.0) Gecko/20100101 Firefox/88.0,,Firefox,88,Windows,10
58,1,1330,"""",html-keyboard-response,7,74011,0.0-7.0,"""","<img src='jspsych/CFDfaces/CFD-AF-220-107-N.jpg' height=""250px"">,</br><b>Tara</b>","""",2,IntactFace,Practice,70,5000,f,"""","""","""","""","""","""","""","""",4/20/2021 15:22,31.205.112.174,Mozilla/5.0 (Windows NT 10.0; Win64; x64; rv:88.0) Gecko/20100101 Firefox/88.0,,Firefox,88,Windows,10
58,1,null,"""",html-keyboard-response,8,74521,0.0-8.0,"""","<div style=""font-size:60px;"">+</div>","""",2,ITI,Practice,null,1000,"""","""","""","""","""","""","""","""","""",4/20/2021 15:22,31.205.112.174,Mozilla/5.0 (Windows NT 10.0; Win64; x64; rv:88.0) Gecko/20100101 Firefox/88.0,,Firefox,88,Windows,10
58,1,3110,"""",html-keyboard-response,9,79532,0.0-9.0,"""","<img src='jspsych/CFDfaces/CFD-WM-011-002-N.jpg' height=""250px"">,</br><b>Marcus</b>","""",3,IntactFace,Practice,70,5000,f,"""","""","""","""","""","""","""","""",4/20/2021 15:22,31.205.112.174,Mozilla/5.0 (Windows NT 10.0; Win64; x64; rv:88.0) Gecko/20100101 Firefox/88.0,,Firefox,88,Windows,10
58,1,null,"""",html-keyboard-response,10,80051,0.0-10.0,"""","<div style=""font-size:60px;"">+</div>","""",3,ITI,Practice,null,1000,"""","""","""","""","""","""","""","""","""",4/20/2021 15:22,31.205.112.174,Mozilla/5.0 (Windows NT 10.0; Win64; x64; rv:88.0) Gecko/20100101 Firefox/88.0,,Firefox,88,Windows,10
58,1,3146,"""",html-keyboard-response,11,85054,0.0-11.0,"""","<img src='jspsych/CFDfaces/CFD-BM-210-148-N.jpg' height=""250px"">,</br><b>Samuel</b>","""",4,IntactFace,Practice,70,5000,f,"""","""","""","""","""","""","""","""",4/20/2021 15:22,31.205.112.174,Mozilla/5.0 (Windows NT 10.0; Win64; x64; rv:88.0) Gecko/20100101 Firefox/88.0,,Firefox,88,Windows,10
58,1,null,"""",html-keyboard-response,12,85571,0.0-12.0,"""","<div style=""font-size:60px;"">+</div>","""",4,ITI,Practice,null,1000,"""","""","""","""","""","""","""","""","""",4/20/2021 15:22,31.205.112.174,Mozilla/5.0 (Windows NT 10.0; Win64; x64; rv:88.0) Gecko/20100101 Firefox/88.0,,Firefox,88,Windows,10
58,1,2948,"""",html-keyboard-response,13,90592,0.0-13.0,"""","<img src='jspsych/CFDfaces/CFD-BM-011-016-N.jpg' height=""250px"">,</br><b>Patrick</b>","""",5,IntactFace,Practice,78,5000,n,"""","""","""","""","""","""","""","""",4/20/2021 15:22,31.205.112.174,Mozilla/5.0 (Windows NT 10.0; Win64; x64; rv:88.0) Gecko/20100101 Firefox/88.0,,Firefox,88,Windows,10
58,1,null,"""",html-keyboard-response,14,91111,0.0-14.0,"""","<div style=""font-size:60px;"">+</div>","""",5,ITI,Practice,null,1000,"""","""","""","""","""","""","""","""","""",4/20/2021 15:22,31.205.112.174,Mozilla/5.0 (Windows NT 10.0; Win64; x64; rv:88.0) Gecko/20100101 Firefox/88.0,,Firefox,88,Windows,10
58,1,3308,"""",html-keyboard-response,15,96131,0.0-15.0,"""","<img src='jspsych/CFDfaces/CFD-AF-214-139-N.jpg' height=""250px"">,</br><b>Cassandra</b>","""",6,IntactFace,Practice,70,5000,f,"""","""","""","""","""","""","""","""",4/20/2021 15:22,31.205.112.174,Mozilla/5.0 (Windows NT 10.0; Win64; x64; rv:88.0) Gecko/20100101 Firefox/88.0,,Firefox,88,Windows,10
58,1,null,"""",html-keyboard-response,16,96642,0.0-16.0,"""","<div style=""font-size:60px;"">+</div>","""",6,ITI,Practice,null,1000,"""","""","""","""","""","""","""","""","""",4/20/2021 15:22,31.205.112.174,Mozilla/5.0 (Windows NT 10.0; Win64; x64; rv:88.0) Gecko/20100101 Firefox/88.0,,Firefox,88,Windows,10
58,1,4134,"""",html-keyboard-response,17,101652,0.0-17.0,"""","<img src='jspsych/CFDfaces/CFD-WM-213-076-N.jpg' height=""250px"">,</br><b>Carlos</b>","""",7,IntactFace,Practice,78,5000,n,"""","""","""","""","""","""","""","""",4/20/2021 15:22,31.205.112.174,Mozilla/5.0 (Windows NT 10.0; Win64; x64; rv:88.0) Gecko/20100101 Firefox/88.0,,Firefox,88,Windows,10
58,1,null,"""",html-keyboard-response,18,102171,0.0-18.0,"""","<div style=""font-size:60px;"">+</div>","""",7,ITI,Practice,null,1000,"""","""","""","""","""","""","""","""","""",4/20/2021 15:22,31.205.112.174,Mozilla/5.0 (Windows NT 10.0; Win64; x64; rv:88.0) Gecko/20100101 Firefox/88.0,,Firefox,88,Windows,10
58,1,3278,"""",html-keyboard-response,19,107191,0.0-19.0,"""","<img src='jspsych/CFDfaces/CFD-AF-222-134-N.jpg' height=""250px"">,</br><b>Shannon</b>","""",8,IntactFace,Practice,78,5000,n,"""","""","""","""","""","""","""","""",4/20/2021 15:22,31.205.112.174,Mozilla/5.0 (Windows NT 10.0; Win64; x64; rv:88.0) Gecko/20100101 Firefox/88.0,,Firefox,88,Windows,10
58,1,null,"""",html-keyboard-response,20,107711,0.0-20.0,"""","<div style=""font-size:60px;"">+</div>","""",8,ITI,Practice,null,1000,"""","""","""","""","""","""","""","""","""",4/20/2021 15:22,31.205.112.174,Mozilla/5.0 (Windows NT 10.0; Win64; x64; rv:88.0) Gecko/20100101 Firefox/88.0,,Firefox,88,Windows,10
58,1,32122,"""",image-button-response,21,139842,0.0-21.0,"""",directionsForTest.JPG,0,1,directionsForTest,break,"""","""","""","""","""","""","""","""","""","""","""",4/20/2021 15:22,31.205.112.174,Mozilla/5.0 (Windows NT 10.0; Win64; x64; rv:88.0) Gecko/20100101 Firefox/88.0,,Firefox,88,Windows,10
58,1,12654,"""",image-button-response,22,152502,0.0-22.0,"""",directionsForTest2.JPG,0,1,directionsForTest2,break,"""","""","""","""","""","""","""","""","""","""","""",4/20/2021 15:22,31.205.112.174,Mozilla/5.0 (Windows NT 10.0; Win64; x64; rv:88.0) Gecko/20100101 Firefox/88.0,,Firefox,88,Windows,10
58,1,null,"""",html-keyboard-response,23,153521,0.0-23.0,"""","<div style=""font-size:60px;"">+</div>","""",1,ITI,Practice,null,1000,"""","""","""","""","""","""","""","""","""",4/20/2021 15:22,31.205.112.174,Mozilla/5.0 (Windows NT 10.0; Win64; x64; rv:88.0) Gecko/20100101 Firefox/88.0,,Firefox,88,Windows,10
58,1,null,"""",image-keyboard-response,24,153791,0.0-24.0,"""",jspsych/scrambledDisgustFaces/scrambledBF23DIS.JPG,"""",1,forwardMask,Practice,null,250,"""",d,"""","""","""","""","""","""","""",4/20/2021 15:22,31.205.112.174,Mozilla/5.0 (Windows NT 10.0; Win64; x64; rv:88.0) Gecko/20100101 Firefox/88.0,,Firefox,88,Windows,10
58,1,null,"""",image-keyboard-response,25,153821,0.0-25.0,"""",jspsych/disgustFaces/BF23DIS.JPG,"""",1,Cue,Practice,null,16,"""","""","""","""","""","""","""","""","""",4/20/2021 15:22,31.205.112.174,Mozilla/5.0 (Windows NT 10.0; Win64; x64; rv:88.0) Gecko/20100101 Firefox/88.0,,Firefox,88,Windows,10
58,1,null,"""",image-keyboard-response,26,153941,0.0-26.0,"""",jspsych/neutralFaces/BF20NES.JPG,"""",1,backwardMask,Practice,null,100,"""","""","""","""","""","""","""","""","""",4/20/2021 15:22,31.205.112.174,Mozilla/5.0 (Windows NT 10.0; Win64; x64; rv:88.0) Gecko/20100101 Firefox/88.0,,Firefox,88,Windows,10
58,1,null,"""",html-keyboard-response,27,154941,0.0-27.0,"""","<div style=""font-size:60px;"">+</div>","""",1,fixationBtwnNeutralMaskAndPrompt,Practice,null,1000,"""","""","""","""","""","""","""","""","""",4/20/2021 15:22,31.205.112.174,Mozilla/5.0 (Windows NT 10.0; Win64; x64; rv:88.0) Gecko/20100101 Firefox/88.0,,Firefox,88,Windows,10
58,1,2901,"""",html-button-response,28,157844,0.0-28.0,"""","<img src='jspsych/CFDfaces/CFD-BM-210-148-N.jpg'height=""250px""></br><b>Samuel</b>",0,1,IntactOrRearranged,Practice,"""","""","""","""",CFD-BM-210-148-N.jpg,Samuel,0,0,"""","""","""",4/20/2021 15:22,31.205.112.174,Mozilla/5.0 (Windows NT 10.0; Win64; x64; rv:88.0) Gecko/20100101 Firefox/88.0,,Firefox,88,Windows,10
58,1,null,"""",html-slider-response,29,162862,0.0-29.0,"""","<img src='jspsych/CFDfaces/CFD-BM-210-148-N.jpg'height=""250px""></br><b>Samuel</b>","""",1,ConfidenceQuery,Practice,"""","""","""","""",CFD-LM-217-162-N.jpg,Austin,0,"""",0,null,"""",4/20/2021 15:22,31.205.112.174,Mozilla/5.0 (Windows NT 10.0; Win64; x64; rv:88.0) Gecko/20100101 Firefox/88.0,,Firefox,88,Windows,10
58,1,3040,"""",html-button-response,30,165902,0.0-30.0,"""",You are Correct. You called an Intact Pair Intact,0,1,feedback,Practice,"""","""","""","""","""","""","""","""","""","""","""",4/20/2021 15:22,31.205.112.174,Mozilla/5.0 (Windows NT 10.0; Win64; x64; rv:88.0) Gecko/20100101 Firefox/88.0,,Firefox,88,Windows,10
58,1,null,"""",html-keyboard-response,31,166917,0.0-31.0,"""","<div style=""font-size:60px;"">+</div>","""",2,ITI,Practice,null,1000,"""","""","""","""","""","""","""","""","""",4/20/2021 15:22,31.205.112.174,Mozilla/5.0 (Windows NT 10.0; Win64; x64; rv:88.0) Gecko/20100101 Firefox/88.0,,Firefox,88,Windows,10
58,1,null,"""",image-keyboard-response,32,167181,0.0-32.0,"""",jspsych/scrambledNeutralFaces/scrambledBF32NES.JPG,"""",2,forwardMask,Practice,null,250,"""",n,"""","""","""","""","""","""","""",4/20/2021 15:22,31.205.112.174,Mozilla/5.0 (Windows NT 10.0; Win64; x64; rv:88.0) Gecko/20100101 Firefox/88.0,,Firefox,88,Windows,10
58,1,null,"""",image-keyboard-response,33,167212,0.0-33.0,"""",jspsych/neutralFaces/BF32NES.JPG,"""",2,Cue,Practice,null,16,"""","""","""","""","""","""","""","""","""",4/20/2021 15:22,31.205.112.174,Mozilla/5.0 (Windows NT 10.0; Win64; x64; rv:88.0) Gecko/20100101 Firefox/88.0,,Firefox,88,Windows,10
58,1,null,"""",image-keyboard-response,34,167331,0.0-34.0,"""",jspsych/neutralFaces/BF29NES.JPG,"""",2,backwardMask,Practice,null,100,"""","""","""","""","""","""","""","""","""",4/20/2021 15:22,31.205.112.174,Mozilla/5.0 (Windows NT 10.0; Win64; x64; rv:88.0) Gecko/20100101 Firefox/88.0,,Firefox,88,Windows,10
58,1,null,"""",html-keyboard-response,35,168342,0.0-35.0,"""","<div style=""font-size:60px;"">+</div>","""",2,fixationBtwnNeutralMaskAndPrompt,Practice,null,1000,"""","""","""","""","""","""","""","""","""",4/20/2021 15:22,31.205.112.174,Mozilla/5.0 (Windows NT 10.0; Win64; x64; rv:88.0) Gecko/20100101 Firefox/88.0,,Firefox,88,Windows,10
58,1,3196,"""",html-button-response,36,171539,0.0-36.0,"""","<img src='jspsych/CFDfaces/CFD-BM-011-016-N.jpg'height=""250px""></br><b>Patrick</b>",0,2,IntactOrRearranged,Practice,"""","""","""","""",CFD-BM-011-016-N.jpg,Patrick,0,0,"""","""","""",4/20/2021 15:22,31.205.112.174,Mozilla/5.0 (Windows NT 10.0; Win64; x64; rv:88.0) Gecko/20100101 Firefox/88.0,,Firefox,88,Windows,10
58,1,null,"""",html-slider-response,37,176552,0.0-37.0,"""","<img src='jspsych/CFDfaces/CFD-BM-011-016-N.jpg'height=""250px""></br><b>Patrick</b>","""",2,ConfidenceQuery,Practice,"""","""","""","""",CFD-LM-217-162-N.jpg,Austin,0,"""",0,null,"""",4/20/2021 15:22,31.205.112.174,Mozilla/5.0 (Windows NT 10.0; Win64; x64; rv:88.0) Gecko/20100101 Firefox/88.0,,Firefox,88,Windows,10
58,1,5060,"""",html-button-response,38,181613,0.0-38.0,"""",You are Correct. You called an Intact Pair Intact,0,2,feedback,Practice,"""","""","""","""","""","""","""","""","""","""","""",4/20/2021 15:22,31.205.112.174,Mozilla/5.0 (Windows NT 10.0; Win64; x64; rv:88.0) Gecko/20100101 Firefox/88.0,,Firefox,88,Windows,10
58,1,null,"""",html-keyboard-response,39,182622,0.0-39.0,"""","<div style=""font-size:60px;"">+</div>","""",3,ITI,Practice,null,1000,"""","""","""","""","""","""","""","""","""",4/20/2021 15:22,31.205.112.174,Mozilla/5.0 (Windows NT 10.0; Win64; x64; rv:88.0) Gecko/20100101 Firefox/88.0,,Firefox,88,Windows,10
58,1,null,"""",image-keyboard-response,40,182889,0.0-40.0,"""",jspsych/scrambledNeutralFaces/scrambledBM32NES.JPG,"""",3,forwardMask,Practice,null,250,"""",n,"""","""","""","""","""","""","""",4/20/2021 15:22,31.205.112.174,Mozilla/5.0 (Windows NT 10.0; Win64; x64; rv:88.0) Gecko/20100101 Firefox/88.0,,Firefox,88,Windows,10
58,1,null,"""",image-keyboard-response,41,182920,0.0-41.0,"""",jspsych/neutralFaces/BM32NES.JPG,"""",3,Cue,Practice,null,16,"""","""","""","""","""","""","""","""","""",4/20/2021 15:22,31.205.112.174,Mozilla/5.0 (Windows NT 10.0; Win64; x64; rv:88.0) Gecko/20100101 Firefox/88.0,,Firefox,88,Windows,10
58,1,null,"""",image-keyboard-response,42,183029,0.0-42.0,"""",jspsych/neutralFaces/BM11NES.JPG,"""",3,backwardMask,Practice,null,100,"""","""","""","""","""","""","""","""","""",4/20/2021 15:22,31.205.112.174,Mozilla/5.0 (Windows NT 10.0; Win64; x64; rv:88.0) Gecko/20100101 Firefox/88.0,,Firefox,88,Windows,10
58,1,null,"""",html-keyboard-response,43,184041,0.0-43.0,"""","<div style=""font-size:60px;"">+</div>","""",3,fixationBtwnNeutralMaskAndPrompt,Practice,null,1000,"""","""","""","""","""","""","""","""","""",4/20/2021 15:22,31.205.112.174,Mozilla/5.0 (Windows NT 10.0; Win64; x64; rv:88.0) Gecko/20100101 Firefox/88.0,,Firefox,88,Windows,10
58,1,3110,"""",html-button-response,44,187152,0.0-44.0,"""","<img src='jspsych/CFDfaces/CFD-WM-011-002-N.jpg'height=""250px""></br><b>Carlos</b>",0,3,IntactOrRearranged,Practice,"""","""","""","""",CFD-WM-011-002-N.jpg,Carlos,1,0,"""","""","""",4/20/2021 15:22,31.205.112.174,Mozilla/5.0 (Windows NT 10.0; Win64; x64; rv:88.0) Gecko/20100101 Firefox/88.0,,Firefox,88,Windows,10
58,1,null,"""",html-slider-response,45,192162,0.0-45.0,"""","<img src='jspsych/CFDfaces/CFD-WM-011-002-N.jpg'height=""250px""></br><b>Carlos</b>","""",3,ConfidenceQuery,Practice,"""","""","""","""",CFD-LM-217-162-N.jpg,Austin,1,"""",0,null,"""",4/20/2021 15:22,31.205.112.174,Mozilla/5.0 (Windows NT 10.0; Win64; x64; rv:88.0) Gecko/20100101 Firefox/88.0,,Firefox,88,Windows,10
58,1,2470,"""",html-button-response,46,194632,0.0-46.0,"""",You are Incorrect. You called a Rearranged Pair Intact,0,3,feedback,Practice,"""","""","""","""","""","""","""","""","""","""","""",4/20/2021 15:22,31.205.112.174,Mozilla/5.0 (Windows NT 10.0; Win64; x64; rv:88.0) Gecko/20100101 Firefox/88.0,,Firefox,88,Windows,10
58,1,null,"""",html-keyboard-response,47,195651,0.0-47.0,"""","<div style=""font-size:60px;"">+</div>","""",4,ITI,Practice,null,1000,"""","""","""","""","""","""","""","""","""",4/20/2021 15:22,31.205.112.174,Mozilla/5.0 (Windows NT 10.0; Win64; x64; rv:88.0) Gecko/20100101 Firefox/88.0,,Firefox,88,Windows,10
58,1,null,"""",image-keyboard-response,48,195911,0.0-48.0,"""",jspsych/scrambledDisgustFaces/scrambledBF07DIS.JPG,"""",4,forwardMask,Practice,null,250,"""",d,"""","""","""","""","""","""","""",4/20/2021 15:22,31.205.112.174,Mozilla/5.0 (Windows NT 10.0; Win64; x64; rv:88.0) Gecko/20100101 Firefox/88.0,,Firefox,88,Windows,10
58,1,null,"""",image-keyboard-response,49,195931,0.0-49.0,"""",jspsych/disgustFaces/BF07DIS.JPG,"""",4,Cue,Practice,null,16,"""","""","""","""","""","""","""","""","""",4/20/2021 15:22,31.205.112.174,Mozilla/5.0 (Windows NT 10.0; Win64; x64; rv:88.0) Gecko/20100101 Firefox/88.0,,Firefox,88,Windows,10
58,1,null,"""",image-keyboard-response,50,196051,0.0-50.0,"""",jspsych/neutralFaces/BF04NES.JPG,"""",4,backwardMask,Practice,null,100,"""","""","""","""","""","""","""","""","""",4/20/2021 15:22,31.205.112.174,Mozilla/5.0 (Windows NT 10.0; Win64; x64; rv:88.0) Gecko/20100101 Firefox/88.0,,Firefox,88,Windows,10
58,1,null,"""",html-keyboard-response,51,197065,0.0-51.0,"""","<div style=""font-size:60px;"">+</div>","""",4,fixationBtwnNeutralMaskAndPrompt,Practice,null,1000,"""","""","""","""","""","""","""","""","""",4/20/2021 15:22,31.205.112.174,Mozilla/5.0 (Windows NT 10.0; Win64; x64; rv:88.0) Gecko/20100101 Firefox/88.0,,Firefox,88,Windows,10
58,1,2008,"""",html-button-response,52,199072,0.0-52.0,"""","<img src='jspsych/CFDfaces/CFD-AF-220-107-N.jpg'height=""250px""></br><b>Tara</b>",0,4,IntactOrRearranged,Practice,"""","""","""","""",CFD-AF-220-107-N.jpg,Tara,0,0,"""","""","""",4/20/2021 15:22,31.205.112.174,Mozilla/5.0 (Windows NT 10.0; Win64; x64; rv:88.0) Gecko/20100101 Firefox/88.0,,Firefox,88,Windows,10
58,1,4177,"""",html-slider-response,53,203252,0.0-53.0,"""","<img src='jspsych/CFDfaces/CFD-AF-220-107-N.jpg'height=""250px""></br><b>Tara</b>","""",4,ConfidenceQuery,Practice,"""","""","""","""",CFD-LM-217-162-N.jpg,Austin,0,"""",0,98,"""",4/20/2021 15:22,31.205.112.174,Mozilla/5.0 (Windows NT 10.0; Win64; x64; rv:88.0) Gecko/20100101 Firefox/88.0,,Firefox,88,Windows,10
58,1,1537,"""",html-button-response,54,204792,0.0-54.0,"""",You are Correct. You called an Intact Pair Intact,0,4,feedback,Practice,"""","""","""","""","""","""","""","""","""","""","""",4/20/2021 15:22,31.205.112.174,Mozilla/5.0 (Windows NT 10.0; Win64; x64; rv:88.0) Gecko/20100101 Firefox/88.0,,Firefox,88,Windows,10
58,1,null,"""",html-keyboard-response,55,205799,0.0-55.0,"""","<div style=""font-size:60px;"">+</div>","""",5,ITI,Practice,null,1000,"""","""","""","""","""","""","""","""","""",4/20/2021 15:22,31.205.112.174,Mozilla/5.0 (Windows NT 10.0; Win64; x64; rv:88.0) Gecko/20100101 Firefox/88.0,,Firefox,88,Windows,10
58,1,null,"""",image-keyboard-response,56,206064,0.0-56.0,"""",jspsych/scrambledDisgustFaces/scrambledAM34DIS.JPG,"""",5,forwardMask,Practice,null,250,"""",d,"""","""","""","""","""","""","""",4/20/2021 15:22,31.205.112.174,Mozilla/5.0 (Windows NT 10.0; Win64; x64; rv:88.0) Gecko/20100101 Firefox/88.0,,Firefox,88,Windows,10
58,1,null,"""",image-keyboard-response,57,206096,0.0-57.0,"""",jspsych/disgustFaces/AM34DIS.JPG,"""",5,Cue,Practice,null,16,"""","""","""","""","""","""","""","""","""",4/20/2021 15:22,31.205.112.174,Mozilla/5.0 (Windows NT 10.0; Win64; x64; rv:88.0) Gecko/20100101 Firefox/88.0,,Firefox,88,Windows,10
58,1,null,"""",image-keyboard-response,58,206206,0.0-58.0,"""",jspsych/neutralFaces/AM13NES.JPG,"""",5,backwardMask,Practice,null,100,"""","""","""","""","""","""","""","""","""",4/20/2021 15:22,31.205.112.174,Mozilla/5.0 (Windows NT 10.0; Win64; x64; rv:88.0) Gecko/20100101 Firefox/88.0,,Firefox,88,Windows,10
58,1,null,"""",html-keyboard-response,59,207211,0.0-59.0,"""","<div style=""font-size:60px;"">+</div>","""",5,fixationBtwnNeutralMaskAndPrompt,Practice,null,1000,"""","""","""","""","""","""","""","""","""",4/20/2021 15:22,31.205.112.174,Mozilla/5.0 (Windows NT 10.0; Win64; x64; rv:88.0) Gecko/20100101 Firefox/88.0,,Firefox,88,Windows,10
58,1,null,"""",html-button-response,60,212221,0.0-60.0,"""","<img src='jspsych/CFDfaces/CFD-AF-214-139-N.jpg'height=""250px""></br><b>Katelyn</b>",null,5,IntactOrRearranged,Practice,"""","""","""","""",CFD-AF-214-139-N.jpg,Katelyn,1,"""","""","""","""",4/20/2021 15:22,31.205.112.174,Mozilla/5.0 (Windows NT 10.0; Win64; x64; rv:88.0) Gecko/20100101 Firefox/88.0,,Firefox,88,Windows,10
58,1,null,"""",html-slider-response,61,217241,0.0-61.0,"""","<img src='jspsych/CFDfaces/CFD-AF-214-139-N.jpg'height=""250px""></br><b>Katelyn</b>","""",5,ConfidenceQuery,Practice,"""","""","""","""",CFD-LM-217-162-N.jpg,Austin,1,"""",0,null,"""",4/20/2021 15:22,31.205.112.174,Mozilla/5.0 (Windows NT 10.0; Win64; x64; rv:88.0) Gecko/20100101 Firefox/88.0,,Firefox,88,Windows,10
58,1,2457,"""",html-button-response,62,219700,0.0-62.0,"""",<p>Please click either button: REARRANGED or INTACT before the 5-second time limit.</p>,0,5,feedback,Practice,"""","""","""","""","""","""","""","""","""","""","""",4/20/2021 15:22,31.205.112.174,Mozilla/5.0 (Windows NT 10.0; Win64; x64; rv:88.0) Gecko/20100101 Firefox/88.0,,Firefox,88,Windows,10
58,1,null,"""",html-keyboard-response,63,220712,0.0-63.0,"""","<div style=""font-size:60px;"">+</div>","""",6,ITI,Practice,null,1000,"""","""","""","""","""","""","""","""","""",4/20/2021 15:22,31.205.112.174,Mozilla/5.0 (Windows NT 10.0; Win64; x64; rv:88.0) Gecko/20100101 Firefox/88.0,,Firefox,88,Windows,10
58,1,null,"""",image-keyboard-response,64,220971,0.0-64.0,"""",jspsych/scrambledDisgustFaces/scrambledBM09DIS.JPG,"""",6,forwardMask,Practice,null,250,"""",d,"""","""","""","""","""","""","""",4/20/2021 15:22,31.205.112.174,Mozilla/5.0 (Windows NT 10.0; Win64; x64; rv:88.0) Gecko/20100101 Firefox/88.0,,Firefox,88,Windows,10
58,1,null,"""",image-keyboard-response,65,220992,0.0-65.0,"""",jspsych/disgustFaces/BM10DIS.JPG,"""",6,Cue,Practice,null,16,"""","""","""","""","""","""","""","""","""",4/20/2021 15:22,31.205.112.174,Mozilla/5.0 (Windows NT 10.0; Win64; x64; rv:88.0) Gecko/20100101 Firefox/88.0,,Firefox,88,Windows,10
58,1,null,"""",image-keyboard-response,66,221111,0.0-66.0,"""",jspsych/neutralFaces/BM08NES.JPG,"""",6,backwardMask,Practice,null,100,"""","""","""","""","""","""","""","""","""",4/20/2021 15:22,31.205.112.174,Mozilla/5.0 (Windows NT 10.0; Win64; x64; rv:88.0) Gecko/20100101 Firefox/88.0,,Firefox,88,Windows,10
58,1,null,"""",html-keyboard-response,67,222132,0.0-67.0,"""","<div style=""font-size:60px;"">+</div>","""",6,fixationBtwnNeutralMaskAndPrompt,Practice,null,1000,"""","""","""","""","""","""","""","""","""",4/20/2021 15:22,31.205.112.174,Mozilla/5.0 (Windows NT 10.0; Win64; x64; rv:88.0) Gecko/20100101 Firefox/88.0,,Firefox,88,Windows,10
58,1,2749,"""",html-button-response,68,224882,0.0-68.0,"""","<img src='jspsych/CFDfaces/CFD-WM-213-076-N.jpg'height=""250px""></br><b>Marcus</b>",1,6,IntactOrRearranged,Practice,"""","""","""","""",CFD-WM-213-076-N.jpg,Marcus,1,1,"""","""","""",4/20/2021 15:22,31.205.112.174,Mozilla/5.0 (Windows NT 10.0; Win64; x64; rv:88.0) Gecko/20100101 Firefox/88.0,,Firefox,88,Windows,10
58,1,null,"""",html-slider-response,69,229894,0.0-69.0,"""","<img src='jspsych/CFDfaces/CFD-WM-213-076-N.jpg'height=""250px""></br><b>Marcus</b>","""",6,ConfidenceQuery,Practice,"""","""","""","""",CFD-LM-217-162-N.jpg,Austin,1,"""",0,null,"""",4/20/2021 15:22,31.205.112.174,Mozilla/5.0 (Windows NT 10.0; Win64; x64; rv:88.0) Gecko/20100101 Firefox/88.0,,Firefox,88,Windows,10
58,1,1757,"""",html-button-response,70,231652,0.0-70.0,"""",You are Correct. You Called A Rearranged Pair Rearranged,0,6,feedback,Practice,"""","""","""","""","""","""","""","""","""","""","""",4/20/2021 15:22,31.205.112.174,Mozilla/5.0 (Windows NT 10.0; Win64; x64; rv:88.0) Gecko/20100101 Firefox/88.0,,Firefox,88,Windows,10
58,1,null,"""",html-keyboard-response,71,232661,0.0-71.0,"""","<div style=""font-size:60px;"">+</div>","""",7,ITI,Practice,null,1000,"""","""","""","""","""","""","""","""","""",4/20/2021 15:22,31.205.112.174,Mozilla/5.0 (Windows NT 10.0; Win64; x64; rv:88.0) Gecko/20100101 Firefox/88.0,,Firefox,88,Windows,10
58,1,null,"""",image-keyboard-response,72,232921,0.0-72.0,"""",jspsych/scrambledDisgustFaces/scrambledAF02DIS.JPG,"""",7,forwardMask,Practice,null,250,"""",d,"""","""","""","""","""","""","""",4/20/2021 15:22,31.205.112.174,Mozilla/5.0 (Windows NT 10.0; Win64; x64; rv:88.0) Gecko/20100101 Firefox/88.0,,Firefox,88,Windows,10
58,1,null,"""",image-keyboard-response,73,232941,0.0-73.0,"""",jspsych/disgustFaces/AF02DIS.JPG,"""",7,Cue,Practice,null,16,"""","""","""","""","""","""","""","""","""",4/20/2021 15:22,31.205.112.174,Mozilla/5.0 (Windows NT 10.0; Win64; x64; rv:88.0) Gecko/20100101 Firefox/88.0,,Firefox,88,Windows,10
58,1,null,"""",image-keyboard-response,74,233062,0.0-74.0,"""",jspsych/neutralFaces/AF28NES.JPG,"""",7,backwardMask,Practice,null,100,"""","""","""","""","""","""","""","""","""",4/20/2021 15:22,31.205.112.174,Mozilla/5.0 (Windows NT 10.0; Win64; x64; rv:88.0) Gecko/20100101 Firefox/88.0,,Firefox,88,Windows,10
58,1,null,"""",html-keyboard-response,75,234072,0.0-75.0,"""","<div style=""font-size:60px;"">+</div>","""",7,fixationBtwnNeutralMaskAndPrompt,Practice,null,1000,"""","""","""","""","""","""","""","""","""",4/20/2021 15:22,31.205.112.174,Mozilla/5.0 (Windows NT 10.0; Win64; x64; rv:88.0) Gecko/20100101 Firefox/88.0,,Firefox,88,Windows,10
58,1,3680,"""",html-button-response,76,237753,0.0-76.0,"""","<img src='jspsych/CFDfaces/CFD-AF-222-134-N.jpg'height=""250px""></br><b>Shannon</b>",0,7,IntactOrRearranged,Practice,"""","""","""","""",CFD-AF-222-134-N.jpg,Shannon,0,0,"""","""","""",4/20/2021 15:22,31.205.112.174,Mozilla/5.0 (Windows NT 10.0; Win64; x64; rv:88.0) Gecko/20100101 Firefox/88.0,,Firefox,88,Windows,10
58,1,null,"""",html-slider-response,77,242772,0.0-77.0,"""","<img src='jspsych/CFDfaces/CFD-AF-222-134-N.jpg'height=""250px""></br><b>Shannon</b>","""",7,ConfidenceQuery,Practice,"""","""","""","""",CFD-LM-217-162-N.jpg,Austin,0,"""",0,null,"""",4/20/2021 15:22,31.205.112.174,Mozilla/5.0 (Windows NT 10.0; Win64; x64; rv:88.0) Gecko/20100101 Firefox/88.0,,Firefox,88,Windows,10
58,1,1609,"""",html-button-response,78,244383,0.0-78.0,"""",You are Correct. You called an Intact Pair Intact,0,7,feedback,Practice,"""","""","""","""","""","""","""","""","""","""","""",4/20/2021 15:22,31.205.112.174,Mozilla/5.0 (Windows NT 10.0; Win64; x64; rv:88.0) Gecko/20100101 Firefox/88.0,,Firefox,88,Windows,10
58,1,null,"""",html-keyboard-response,79,245401,0.0-79.0,"""","<div style=""font-size:60px;"">+</div>","""",8,ITI,Practice,null,1000,"""","""","""","""","""","""","""","""","""",4/20/2021 15:22,31.205.112.174,Mozilla/5.0 (Windows NT 10.0; Win64; x64; rv:88.0) Gecko/20100101 Firefox/88.0,,Firefox,88,Windows,10
58,1,null,"""",image-keyboard-response,80,245661,0.0-80.0,"""",jspsych/scrambledNeutralFaces/scrambledAF04NES.JPG,"""",8,forwardMask,Practice,null,250,"""",n,"""","""","""","""","""","""","""",4/20/2021 15:22,31.205.112.174,Mozilla/5.0 (Windows NT 10.0; Win64; x64; rv:88.0) Gecko/20100101 Firefox/88.0,,Firefox,88,Windows,10
58,1,null,"""",image-keyboard-response,81,245681,0.0-81.0,"""",jspsych/neutralFaces/AF04NES.JPG,"""",8,Cue,Practice,null,16,"""","""","""","""","""","""","""","""","""",4/20/2021 15:22,31.205.112.174,Mozilla/5.0 (Windows NT 10.0; Win64; x64; rv:88.0) Gecko/20100101 Firefox/88.0,,Firefox,88,Windows,10
58,1,null,"""",image-keyboard-response,82,245791,0.0-82.0,"""",jspsych/neutralFaces/BF06NES.JPG,"""",8,backwardMask,Practice,null,100,"""","""","""","""","""","""","""","""","""",4/20/2021 15:22,31.205.112.174,Mozilla/5.0 (Windows NT 10.0; Win64; x64; rv:88.0) Gecko/20100101 Firefox/88.0,,Firefox,88,Windows,10
58,1,null,"""",html-keyboard-response,83,246802,0.0-83.0,"""","<div style=""font-size:60px;"">+</div>","""",8,fixationBtwnNeutralMaskAndPrompt,Practice,null,1000,"""","""","""","""","""","""","""","""","""",4/20/2021 15:22,31.205.112.174,Mozilla/5.0 (Windows NT 10.0; Win64; x64; rv:88.0) Gecko/20100101 Firefox/88.0,,Firefox,88,Windows,10
58,1,3420,"""",html-button-response,84,250222,0.0-84.0,"""","<img src='jspsych/CFDfaces/CFD-WF-205-006-N.jpg'height=""250px""></br><b>Cassandra</b>",1,8,IntactOrRearranged,Practice,"""","""","""","""",CFD-WF-205-006-N.jpg,Cassandra,1,1,"""","""","""",4/20/2021 15:22,31.205.112.174,Mozilla/5.0 (Windows NT 10.0; Win64; x64; rv:88.0) Gecko/20100101 Firefox/88.0,,Firefox,88,Windows,10
58,1,null,"""",html-slider-response,85,255232,0.0-85.0,"""","<img src='jspsych/CFDfaces/CFD-WF-205-006-N.jpg'height=""250px""></br><b>Cassandra</b>","""",8,ConfidenceQuery,Practice,"""","""","""","""",CFD-LM-217-162-N.jpg,Austin,1,"""",0,null,"""",4/20/2021 15:22,31.205.112.174,Mozilla/5.0 (Windows NT 10.0; Win64; x64; rv:88.0) Gecko/20100101 Firefox/88.0,,Firefox,88,Windows,10
58,1,2987,"""",html-button-response,86,258220,0.0-86.0,"""",You are Correct. You Called A Rearranged Pair Rearranged,0,8,feedback,Practice,"""","""","""","""","""","""","""","""","""","""","""",4/20/2021 15:22,31.205.112.174,Mozilla/5.0 (Windows NT 10.0; Win64; x64; rv:88.0) Gecko/20100101 Firefox/88.0,,Firefox,88,Windows,10
58,1,5422,"""",image-button-response,87,263652,0.0-87.0,"""",directionsMemoryAssociation3.JPG,0,128,DirectionsBeforeActualTEst,Break,"""","""","""","""","""","""","""","""","""","""","""",4/20/2021 15:22,31.205.112.174,Mozilla/5.0 (Windows NT 10.0; Win64; x64; rv:88.0) Gecko/20100101 Firefox/88.0,,Firefox,88,Windows,10
58,1,4493,"""",image-button-response,88,268153,0.0-88.0,"""",directionsForTest2.JPG,0,1,directionsForTest2,break,"""","""","""","""","""","""","""","""","""","""","""",4/20/2021 15:22,31.205.112.174,Mozilla/5.0 (Windows NT 10.0; Win64; x64; rv:88.0) Gecko/20100101 Firefox/88.0,,Firefox,88,Windows,10
58,1,13692,"""",html-button-response,89,281853,0.0-89.0,"""","<p>You will be asked to memorize and then recall four sets of face-name pairs. </p> <p> Each set will have 32 pairs. </p> <p>After the fourth set, there will be a brief follow-up experiment (<40 min alltogether)</p>",0,"""","""","""","""","""","""","""","""","""","""","""","""","""","""",4/20/2021 15:22,31.205.112.174,Mozilla/5.0 (Windows NT 10.0; Win64; x64; rv:88.0) Gecko/20100101 Firefox/88.0,,Firefox,88,Windows,10
58,1,3123,"""",html-keyboard-response,90,286872,0.0-90.0,"""","<img src='jspsych/CFDfaces/CFD-LM-224-162-N.jpg' height=""250px""></br><b>Brandon</b>","""",256,IntactFace,Memorization,78,5000,n,"""",CFD-WM-212-097-N.jpg,Jesse,0,"""","""","""",1,4/20/2021 15:22,31.205.112.174,Mozilla/5.0 (Windows NT 10.0; Win64; x64; rv:88.0) Gecko/20100101 Firefox/88.0,,Firefox,88,Windows,10
58,1,null,"""",html-keyboard-response,91,287392,0.0-91.0,"""","<div style=""font-size:60px;"">+</div>","""",256,fixation,Memorization,null,500,"""","""","""","""","""","""","""","""",1,4/20/2021 15:22,31.205.112.174,Mozilla/5.0 (Windows NT 10.0; Win64; x64; rv:88.0) Gecko/20100101 Firefox/88.0,,Firefox,88,Windows,10
58,1,2009,"""",html-keyboard-response,92,292402,0.0-92.0,"""","<img src='jspsych/CFDfaces/CFD-AM-246-184-N.jpg' height=""250px""></br><b>Jason</b>","""",256,IntactFace,Memorization,70,5000,f,"""",CFD-LF-244-096-N.jpg,Laura,0,"""","""","""",1,4/20/2021 15:22,31.205.112.174,Mozilla/5.0 (Windows NT 10.0; Win64; x64; rv:88.0) Gecko/20100101 Firefox/88.0,,Firefox,88,Windows,10
58,1,null,"""",html-keyboard-response,93,292922,0.0-93.0,"""","<div style=""font-size:60px;"">+</div>","""",256,fixation,Memorization,null,500,"""","""","""","""","""","""","""","""",1,4/20/2021 15:22,31.205.112.174,Mozilla/5.0 (Windows NT 10.0; Win64; x64; rv:88.0) Gecko/20100101 Firefox/88.0,,Firefox,88,Windows,10
58,1,4027,"""",html-keyboard-response,94,297933,0.0-94.0,"""","<img src='jspsych/CFDfaces/CFD-LF-232-199-N.jpg' height=""250px""></br><b>Elizabeth</b>","""",256,IntactFace,Memorization,78,5000,n,"""",CFD-AM-228-214-N.jpg,Dustin,0,"""","""","""",1,4/20/2021 15:22,31.205.112.174,Mozilla/5.0 (Windows NT 10.0; Win64; x64; rv:88.0) Gecko/20100101 Firefox/88.0,,Firefox,88,Windows,10
58,1,null,"""",html-keyboard-response,95,298452,0.0-95.0,"""","<div style=""font-size:60px;"">+</div>","""",256,fixation,Memorization,null,500,"""","""","""","""","""","""","""","""",1,4/20/2021 15:22,31.205.112.174,Mozilla/5.0 (Windows NT 10.0; Win64; x64; rv:88.0) Gecko/20100101 Firefox/88.0,,Firefox,88,Windows,10
58,1,1571,"""",html-keyboard-response,96,303472,0.0-96.0,"""","<img src='jspsych/CFDfaces/CFD-WF-029-002-N.jpg' height=""250px""></br><b>Stephanie</b>","""",256,IntactFace,Memorization,70,5000,f,"""",CFD-AF-230-193-N.jpg,Lauren,0,"""","""","""",1,4/20/2021 15:22,31.205.112.174,Mozilla/5.0 (Windows NT 10.0; Win64; x64; rv:88.0) Gecko/20100101 Firefox/88.0,,Firefox,88,Windows,10
58,1,null,"""",html-keyboard-response,97,303991,0.0-97.0,"""","<div style=""font-size:60px;"">+</div>","""",256,fixation,Memorization,null,500,"""","""","""","""","""","""","""","""",1,4/20/2021 15:22,31.205.112.174,Mozilla/5.0 (Windows NT 10.0; Win64; x64; rv:88.0) Gecko/20100101 Firefox/88.0,,Firefox,88,Windows,10
58,1,3475,"""",html-keyboard-response,98,309012,0.0-98.0,"""","<img src='jspsych/CFDfaces/CFD-BM-027-001-N.jpg' height=""250px""></br><b>Peter</b>","""",256,IntactFace,Memorization,70,5000,f,"""",CFD-LM-213-061-N.jpg,Jacob,0,"""","""","""",1,4/20/2021 15:22,31.205.112.174,Mozilla/5.0 (Windows NT 10.0; Win64; x64; rv:88.0) Gecko/20100101 Firefox/88.0,,Firefox,88,Windows,10
58,1,null,"""",html-keyboard-response,99,309532,0.0-99.0,"""","<div style=""font-size:60px;"">+</div>","""",256,fixation,Memorization,null,500,"""","""","""","""","""","""","""","""",1,4/20/2021 15:22,31.205.112.174,Mozilla/5.0 (Windows NT 10.0; Win64; x64; rv:88.0) Gecko/20100101 Firefox/88.0,,Firefox,88,Windows,10
58,1,1981,"""",html-keyboard-response,100,314544,0.0-100.0,"""","<img src='jspsych/CFDfaces/CFD-WF-220-101-N.jpg' height=""250px""></br><b>Amanda</b>","""",256,IntactFace,Memorization,70,5000,f,"""",CFD-WM-015-002-N.jpg,Jeremy,0,"""","""","""",1,4/20/2021 15:22,31.205.112.174,Mozilla/5.0 (Windows NT 10.0; Win64; x64; rv:88.0) Gecko/20100101 Firefox/88.0,,Firefox,88,Windows,10
58,1,null,"""",html-keyboard-response,101,315061,0.0-101.0,"""","<div style=""font-size:60px;"">+</div>","""",256,fixation,Memorization,null,500,"""","""","""","""","""","""","""","""",1,4/20/2021 15:22,31.205.112.174,Mozilla/5.0 (Windows NT 10.0; Win64; x64; rv:88.0) Gecko/20100101 Firefox/88.0,,Firefox,88,Windows,10
58,1,2178,"""",html-keyboard-response,102,320071,0.0-102.0,"""","<img src='jspsych/CFDfaces/CFD-LF-203-066-N.jpg' height=""250px""></br><b>Vanessa</b>","""",256,IntactFace,Memorization,70,5000,f,"""",CFD-BM-211-174-N.jpg,Vincent,0,"""","""","""",1,4/20/2021 15:22,31.205.112.174,Mozilla/5.0 (Windows NT 10.0; Win64; x64; rv:88.0) Gecko/20100101 Firefox/88.0,,Firefox,88,Windows,10
58,1,null,"""",html-keyboard-response,103,320588,0.0-103.0,"""","<div style=""font-size:60px;"">+</div>","""",256,fixation,Memorization,null,500,"""","""","""","""","""","""","""","""",1,4/20/2021 15:22,31.205.112.174,Mozilla/5.0 (Windows NT 10.0; Win64; x64; rv:88.0) Gecko/20100101 Firefox/88.0,,Firefox,88,Windows,10
58,1,1693,"""",html-keyboard-response,104,325592,0.0-104.0,"""","<img src='jspsych/CFDfaces/CFD-LF-231-260-N.jpg' height=""250px""></br><b>Christina</b>","""",256,IntactFace,Memorization,70,5000,f,"""",CFD-LM-209-111-N.jpg,Ryan,0,"""","""","""",1,4/20/2021 15:22,31.205.112.174,Mozilla/5.0 (Windows NT 10.0; Win64; x64; rv:88.0) Gecko/20100101 Firefox/88.0,,Firefox,88,Windows,10
58,1,null,"""",html-keyboard-response,105,326112,0.0-105.0,"""","<div style=""font-size:60px;"">+</div>","""",256,fixation,Memorization,null,500,"""","""","""","""","""","""","""","""",1,4/20/2021 15:22,31.205.112.174,Mozilla/5.0 (Windows NT 10.0; Win64; x64; rv:88.0) Gecko/20100101 Firefox/88.0,,Firefox,88,Windows,10
58,1,2983,"""",html-keyboard-response,106,331123,0.0-106.0,"""","<img src='jspsych/CFDfaces/CFD-WM-019-003-N.jpg' height=""250px""></br><b>Juan</b>","""",256,IntactFace,Memorization,78,5000,n,"""",CFD-AF-203-077-N.jpg,Lindsey,0,"""","""","""",1,4/20/2021 15:22,31.205.112.174,Mozilla/5.0 (Windows NT 10.0; Win64; x64; rv:88.0) Gecko/20100101 Firefox/88.0,,Firefox,88,Windows,10
58,1,null,"""",html-keyboard-response,107,331642,0.0-107.0,"""","<div style=""font-size:60px;"">+</div>","""",256,fixation,Memorization,null,500,"""","""","""","""","""","""","""","""",1,4/20/2021 15:22,31.205.112.174,Mozilla/5.0 (Windows NT 10.0; Win64; x64; rv:88.0) Gecko/20100101 Firefox/88.0,,Firefox,88,Windows,10
58,1,4052,"""",html-keyboard-response,108,336662,0.0-108.0,"""","<img src='jspsych/CFDfaces/CFD-AM-237-154-N.jpg' height=""250px""></br><b>Robert</b>","""",256,IntactFace,Memorization,78,5000,n,"""",CFD-BF-019-001-N.jpg,Sara,0,"""","""","""",1,4/20/2021 15:22,31.205.112.174,Mozilla/5.0 (Windows NT 10.0; Win64; x64; rv:88.0) Gecko/20100101 Firefox/88.0,,Firefox,88,Windows,10
58,1,null,"""",html-keyboard-response,109,337171,0.0-109.0,"""","<div style=""font-size:60px;"">+</div>","""",256,fixation,Memorization,null,500,"""","""","""","""","""","""","""","""",1,4/20/2021 15:22,31.205.112.174,Mozilla/5.0 (Windows NT 10.0; Win64; x64; rv:88.0) Gecko/20100101 Firefox/88.0,,Firefox,88,Windows,10
58,1,1361,"""",html-keyboard-response,110,342181,0.0-110.0,"""","<img src='jspsych/CFDfaces/CFD-WM-009-002-N.jpg' height=""250px""></br><b>Gregory</b>","""",256,IntactFace,Memorization,70,5000,f,"""",CFD-BM-205-001-N.jpg,Luis,0,"""","""","""",1,4/20/2021 15:22,31.205.112.174,Mozilla/5.0 (Windows NT 10.0; Win64; x64; rv:88.0) Gecko/20100101 Firefox/88.0,,Firefox,88,Windows,10
58,1,null,"""",html-keyboard-response,111,342701,0.0-111.0,"""","<div style=""font-size:60px;"">+</div>","""",256,fixation,Memorization,null,500,"""","""","""","""","""","""","""","""",1,4/20/2021 15:22,31.205.112.174,Mozilla/5.0 (Windows NT 10.0; Win64; x64; rv:88.0) Gecko/20100101 Firefox/88.0,,Firefox,88,Windows,10
58,1,3628,"""",html-keyboard-response,112,347705,0.0-112.0,"""","<img src='jspsych/CFDfaces/CFD-WF-017-003-N.jpg' height=""250px""></br><b>Emily</b>","""",256,IntactFace,Memorization,70,5000,f,"""",CFD-BM-203-001-N.jpg,Travis,0,"""","""","""",1,4/20/2021 15:22,31.205.112.174,Mozilla/5.0 (Windows NT 10.0; Win64; x64; rv:88.0) Gecko/20100101 Firefox/88.0,,Firefox,88,Windows,10
58,1,null,"""",html-keyboard-response,113,348222,0.0-113.0,"""","<div style=""font-size:60px;"">+</div>","""",256,fixation,Memorization,null,500,"""","""","""","""","""","""","""","""",1,4/20/2021 15:22,31.205.112.174,Mozilla/5.0 (Windows NT 10.0; Win64; x64; rv:88.0) Gecko/20100101 Firefox/88.0,,Firefox,88,Windows,10
58,1,3318,"""",html-keyboard-response,114,353242,0.0-114.0,"""","<img src='jspsych/CFDfaces/CFD-AF-208-003-N.jpg' height=""250px""></br><b>Kimberly</b>","""",256,IntactFace,Memorization,78,5000,n,"""",CFD-WF-003-003-N.jpg,Melissa,0,"""","""","""",1,4/20/2021 15:22,31.205.112.174,Mozilla/5.0 (Windows NT 10.0; Win64; x64; rv:88.0) Gecko/20100101 Firefox/88.0,,Firefox,88,Windows,10
58,1,null,"""",html-keyboard-response,115,353757,0.0-115.0,"""","<div style=""font-size:60px;"">+</div>","""",256,fixation,Memorization,null,500,"""","""","""","""","""","""","""","""",1,4/20/2021 15:22,31.205.112.174,Mozilla/5.0 (Windows NT 10.0; Win64; x64; rv:88.0) Gecko/20100101 Firefox/88.0,,Firefox,88,Windows,10
58,1,2354,"""",html-keyboard-response,116,358762,0.0-116.0,"""","<img src='jspsych/CFDfaces/CFD-LM-248-089-N.jpg' height=""250px""></br><b>Jeffrey</b>","""",256,IntactFace,Memorization,70,5000,f,"""",CFD-BF-023-010-N.jpg,Rebecca,0,"""","""","""",1,4/20/2021 15:22,31.205.112.174,Mozilla/5.0 (Windows NT 10.0; Win64; x64; rv:88.0) Gecko/20100101 Firefox/88.0,,Firefox,88,Windows,10
58,1,null,"""",html-keyboard-response,117,359281,0.0-117.0,"""","<div style=""font-size:60px;"">+</div>","""",256,fixation,Memorization,null,500,"""","""","""","""","""","""","""","""",1,4/20/2021 15:22,31.205.112.174,Mozilla/5.0 (Windows NT 10.0; Win64; x64; rv:88.0) Gecko/20100101 Firefox/88.0,,Firefox,88,Windows,10
58,1,2130,"""",html-keyboard-response,118,364296,0.0-118.0,"""","<img src='jspsych/CFDfaces/CFD-LM-223-175-N.jpg' height=""250px""></br><b>James</b>","""",256,IntactFace,Memorization,78,5000,n,"""",CFD-WM-020-001-N.jpg,Justin,0,"""","""","""",1,4/20/2021 15:22,31.205.112.174,Mozilla/5.0 (Windows NT 10.0; Win64; x64; rv:88.0) Gecko/20100101 Firefox/88.0,,Firefox,88,Windows,10
58,1,null,"""",html-keyboard-response,119,364807,0.0-119.0,"""","<div style=""font-size:60px;"">+</div>","""",256,fixation,Memorization,null,500,"""","""","""","""","""","""","""","""",1,4/20/2021 15:22,31.205.112.174,Mozilla/5.0 (Windows NT 10.0; Win64; x64; rv:88.0) Gecko/20100101 Firefox/88.0,,Firefox,88,Windows,10
58,1,3224,"""",html-keyboard-response,120,369813,0.0-120.0,"""","<img src='jspsych/CFDfaces/CFD-WM-034-030-N.jpg' height=""250px""></br><b>Joshua</b>","""",256,IntactFace,Memorization,78,5000,n,"""",CFD-LF-218-072-N.jpg,Taylor,0,"""","""","""",1,4/20/2021 15:22,31.205.112.174,Mozilla/5.0 (Windows NT 10.0; Win64; x64; rv:88.0) Gecko/20100101 Firefox/88.0,,Firefox,88,Windows,10
58,1,null,"""",html-keyboard-response,121,370318,0.0-121.0,"""","<div style=""font-size:60px;"">+</div>","""",256,fixation,Memorization,null,500,"""","""","""","""","""","""","""","""",1,4/20/2021 15:22,31.205.112.174,Mozilla/5.0 (Windows NT 10.0; Win64; x64; rv:88.0) Gecko/20100101 Firefox/88.0,,Firefox,88,Windows,10
58,1,2486,"""",html-keyboard-response,122,375322,0.0-122.0,"""","<img src='jspsych/CFDfaces/CFD-WF-202-056-N.jpg' height=""250px""></br><b>Samantha</b>","""",256,IntactFace,Memorization,70,5000,f,"""",CFD-LM-201-057-N.jpg,Austin,0,"""","""","""",1,4/20/2021 15:22,31.205.112.174,Mozilla/5.0 (Windows NT 10.0; Win64; x64; rv:88.0) Gecko/20100101 Firefox/88.0,,Firefox,88,Windows,10
58,1,null,"""",html-keyboard-response,123,375836,0.0-123.0,"""","<div style=""font-size:60px;"">+</div>","""",256,fixation,Memorization,null,500,"""","""","""","""","""","""","""","""",1,4/20/2021 15:22,31.205.112.174,Mozilla/5.0 (Windows NT 10.0; Win64; x64; rv:88.0) Gecko/20100101 Firefox/88.0,,Firefox,88,Windows,10
58,1,3049,"""",html-keyboard-response,124,380851,0.0-124.0,"""","<img src='jspsych/CFDfaces/CFD-BF-212-315-N.jpg' height=""250px""></br><b>Kayla</b>","""",256,IntactFace,Memorization,78,5000,n,"""",CFD-AF-226-251-N.jpg,Erin,0,"""","""","""",1,4/20/2021 15:22,31.205.112.174,Mozilla/5.0 (Windows NT 10.0; Win64; x64; rv:88.0) Gecko/20100101 Firefox/88.0,,Firefox,88,Windows,10
58,1,null,"""",html-keyboard-response,125,381372,0.0-125.0,"""","<div style=""font-size:60px;"">+</div>","""",256,fixation,Memorization,null,500,"""","""","""","""","""","""","""","""",1,4/20/2021 15:22,31.205.112.174,Mozilla/5.0 (Windows NT 10.0; Win64; x64; rv:88.0) Gecko/20100101 Firefox/88.0,,Firefox,88,Windows,10
58,1,2158,"""",html-keyboard-response,126,386382,0.0-126.0,"""","<img src='jspsych/CFDfaces/CFD-AM-207-108-N.jpg' height=""250px""></br><b>Ian</b>","""",256,IntactFace,Memorization,70,5000,f,"""",CFD-BM-002-013-N.jpg,Cameron,0,"""","""","""",1,4/20/2021 15:22,31.205.112.174,Mozilla/5.0 (Windows NT 10.0; Win64; x64; rv:88.0) Gecko/20100101 Firefox/88.0,,Firefox,88,Windows,10
58,1,null,"""",html-keyboard-response,127,386891,0.0-127.0,"""","<div style=""font-size:60px;"">+</div>","""",256,fixation,Memorization,null,500,"""","""","""","""","""","""","""","""",1,4/20/2021 15:22,31.205.112.174,Mozilla/5.0 (Windows NT 10.0; Win64; x64; rv:88.0) Gecko/20100101 Firefox/88.0,,Firefox,88,Windows,10
58,1,3491,"""",html-keyboard-response,128,391912,0.0-128.0,"""","<img src='jspsych/CFDfaces/CFD-LM-200-045-N.jpg' height=""250px""></br><b>Brian</b>","""",256,IntactFace,Memorization,70,5000,f,"""",CFD-AM-231-136-N.jpg,Kenneth,0,"""","""","""",1,4/20/2021 15:22,31.205.112.174,Mozilla/5.0 (Windows NT 10.0; Win64; x64; rv:88.0) Gecko/20100101 Firefox/88.0,,Firefox,88,Windows,10
58,1,null,"""",html-keyboard-response,129,392432,0.0-129.0,"""","<div style=""font-size:60px;"">+</div>","""",256,fixation,Memorization,null,500,"""","""","""","""","""","""","""","""",1,4/20/2021 15:22,31.205.112.174,Mozilla/5.0 (Windows NT 10.0; Win64; x64; rv:88.0) Gecko/20100101 Firefox/88.0,,Firefox,88,Windows,10
58,1,2711,"""",html-keyboard-response,130,397451,0.0-130.0,"""","<img src='jspsych/CFDfaces/CFD-AF-228-173-N.jpg' height=""250px""></br><b>Julie</b>","""",256,IntactFace,Memorization,78,5000,n,"""",CFD-WF-218-087-N.jpg,Jenna,0,"""","""","""",1,4/20/2021 15:22,31.205.112.174,Mozilla/5.0 (Windows NT 10.0; Win64; x64; rv:88.0) Gecko/20100101 Firefox/88.0,,Firefox,88,Windows,10
58,1,null,"""",html-keyboard-response,131,397965,0.0-131.0,"""","<div style=""font-size:60px;"">+</div>","""",256,fixation,Memorization,null,500,"""","""","""","""","""","""","""","""",1,4/20/2021 15:22,31.205.112.174,Mozilla/5.0 (Windows NT 10.0; Win64; x64; rv:88.0) Gecko/20100101 Firefox/88.0,,Firefox,88,Windows,10
58,1,1873,"""",html-keyboard-response,132,402972,0.0-132.0,"""","<img src='jspsych/CFDfaces/CFD-WM-215-041-N.jpg' height=""250px""></br><b>Nicholas</b>","""",256,IntactFace,Memorization,78,5000,n,"""",CFD-AF-239-171-N.jpg,Heather,0,"""","""","""",1,4/20/2021 15:22,31.205.112.174,Mozilla/5.0 (Windows NT 10.0; Win64; x64; rv:88.0) Gecko/20100101 Firefox/88.0,,Firefox,88,Windows,10
58,1,null,"""",html-keyboard-response,133,403489,0.0-133.0,"""","<div style=""font-size:60px;"">+</div>","""",256,fixation,Memorization,null,500,"""","""","""","""","""","""","""","""",1,4/20/2021 15:22,31.205.112.174,Mozilla/5.0 (Windows NT 10.0; Win64; x64; rv:88.0) Gecko/20100101 Firefox/88.0,,Firefox,88,Windows,10
58,1,2904,"""",html-keyboard-response,134,408492,0.0-134.0,"""","<img src='jspsych/CFDfaces/CFD-LF-230-203-N.jpg' height=""250px""></br><b>Meghan</b>","""",256,IntactFace,Memorization,70,5000,f,"""",CFD-AM-214-168-N.jpg,Mark,0,"""","""","""",1,4/20/2021 15:22,31.205.112.174,Mozilla/5.0 (Windows NT 10.0; Win64; x64; rv:88.0) Gecko/20100101 Firefox/88.0,,Firefox,88,Windows,10
58,1,null,"""",html-keyboard-response,135,408996,0.0-135.0,"""","<div style=""font-size:60px;"">+</div>","""",256,fixation,Memorization,null,500,"""","""","""","""","""","""","""","""",1,4/20/2021 15:22,31.205.112.174,Mozilla/5.0 (Windows NT 10.0; Win64; x64; rv:88.0) Gecko/20100101 Firefox/88.0,,Firefox,88,Windows,10
58,1,2036,"""",html-keyboard-response,136,414012,0.0-136.0,"""","<img src='jspsych/CFDfaces/CFD-BM-043-071-N.jpg' height=""250px""></br><b>Christian</b>","""",256,IntactFace,Memorization,70,5000,f,"""",CFD-LM-217-162-N.jpg,Timothy,0,"""","""","""",1,4/20/2021 15:22,31.205.112.174,Mozilla/5.0 (Windows NT 10.0; Win64; x64; rv:88.0) Gecko/20100101 Firefox/88.0,,Firefox,88,Windows,10
58,1,null,"""",html-keyboard-response,137,414532,0.0-137.0,"""","<div style=""font-size:60px;"">+</div>","""",256,fixation,Memorization,null,500,"""","""","""","""","""","""","""","""",1,4/20/2021 15:22,31.205.112.174,Mozilla/5.0 (Windows NT 10.0; Win64; x64; rv:88.0) Gecko/20100101 Firefox/88.0,,Firefox,88,Windows,10
58,1,2377,"""",html-keyboard-response,138,419543,0.0-138.0,"""","<img src='jspsych/CFDfaces/CFD-LM-219-295-N.jpg' height=""250px""></br><b>Daniel</b>","""",256,IntactFace,Memorization,70,5000,f,"""",CFD-BF-004-014-N.jpg,Jordan,0,"""","""","""",1,4/20/2021 15:22,31.205.112.174,Mozilla/5.0 (Windows NT 10.0; Win64; x64; rv:88.0) Gecko/20100101 Firefox/88.0,,Firefox,88,Windows,10
58,1,null,"""",html-keyboard-response,139,420059,0.0-139.0,"""","<div style=""font-size:60px;"">+</div>","""",256,fixation,Memorization,null,500,"""","""","""","""","""","""","""","""",1,4/20/2021 15:22,31.205.112.174,Mozilla/5.0 (Windows NT 10.0; Win64; x64; rv:88.0) Gecko/20100101 Firefox/88.0,,Firefox,88,Windows,10
58,1,2757,"""",html-keyboard-response,140,425071,0.0-140.0,"""","<img src='jspsych/CFDfaces/CFD-WM-022-001-N.jpg' height=""250px""></br><b>Eric</b>","""",256,IntactFace,Memorization,78,5000,n,"""",CFD-WF-223-133-N.jpg,Tiffany,0,"""","""","""",1,4/20/2021 15:22,31.205.112.174,Mozilla/5.0 (Windows NT 10.0; Win64; x64; rv:88.0) Gecko/20100101 Firefox/88.0,,Firefox,88,Windows,10
58,1,null,"""",html-keyboard-response,141,425592,0.0-141.0,"""","<div style=""font-size:60px;"">+</div>","""",256,fixation,Memorization,null,500,"""","""","""","""","""","""","""","""",1,4/20/2021 15:22,31.205.112.174,Mozilla/5.0 (Windows NT 10.0; Win64; x64; rv:88.0) Gecko/20100101 Firefox/88.0,,Firefox,88,Windows,10
58,1,2638,"""",html-keyboard-response,142,430612,0.0-142.0,"""","<img src='jspsych/CFDfaces/CFD-LM-220-329-N.jpg' height=""250px""></br><b>Richard</b>","""",256,IntactFace,Memorization,78,5000,n,"""",CFD-LF-204-133-N.jpg,Whitney,0,"""","""","""",1,4/20/2021 15:22,31.205.112.174,Mozilla/5.0 (Windows NT 10.0; Win64; x64; rv:88.0) Gecko/20100101 Firefox/88.0,,Firefox,88,Windows,10
58,1,null,"""",html-keyboard-response,143,431131,0.0-143.0,"""","<div style=""font-size:60px;"">+</div>","""",256,fixation,Memorization,null,500,"""","""","""","""","""","""","""","""",1,4/20/2021 15:22,31.205.112.174,Mozilla/5.0 (Windows NT 10.0; Win64; x64; rv:88.0) Gecko/20100101 Firefox/88.0,,Firefox,88,Windows,10
58,1,4180,"""",html-keyboard-response,144,436147,0.0-144.0,"""","<img src='jspsych/CFDfaces/CFD-BF-226-119-N.jpg' height=""250px""></br><b>Victoria</b>","""",256,IntactFace,Memorization,78,5000,n,"""",CFD-BM-017-021-N.jpg,Steven,0,"""","""","""",1,4/20/2021 15:22,31.205.112.174,Mozilla/5.0 (Windows NT 10.0; Win64; x64; rv:88.0) Gecko/20100101 Firefox/88.0,,Firefox,88,Windows,10
58,1,null,"""",html-keyboard-response,145,436651,0.0-145.0,"""","<div style=""font-size:60px;"">+</div>","""",256,fixation,Memorization,null,500,"""","""","""","""","""","""","""","""",1,4/20/2021 15:22,31.205.112.174,Mozilla/5.0 (Windows NT 10.0; Win64; x64; rv:88.0) Gecko/20100101 Firefox/88.0,,Firefox,88,Windows,10
58,1,2704,"""",html-keyboard-response,146,441659,0.0-146.0,"""","<img src='jspsych/CFDfaces/CFD-WF-207-014-N.jpg' height=""250px""></br><b>Ashley</b>","""",256,IntactFace,Memorization,70,5000,f,"""",CFD-WM-207-048-N.jpg,Sean,0,"""","""","""",1,4/20/2021 15:22,31.205.112.174,Mozilla/5.0 (Windows NT 10.0; Win64; x64; rv:88.0) Gecko/20100101 Firefox/88.0,,Firefox,88,Windows,10
58,1,null,"""",html-keyboard-response,147,442175,0.0-147.0,"""","<div style=""font-size:60px;"">+</div>","""",256,fixation,Memorization,null,500,"""","""","""","""","""","""","""","""",1,4/20/2021 15:22,31.205.112.174,Mozilla/5.0 (Windows NT 10.0; Win64; x64; rv:88.0) Gecko/20100101 Firefox/88.0,,Firefox,88,Windows,10
58,1,2877,"""",html-keyboard-response,148,447192,0.0-148.0,"""","<img src='jspsych/CFDfaces/CFD-LF-206-078-N.jpg' height=""250px""></br><b>Andrea</b>","""",256,IntactFace,Memorization,70,5000,f,"""",CFD-WF-016-015-N.jpg,Amy,0,"""","""","""",1,4/20/2021 15:22,31.205.112.174,Mozilla/5.0 (Windows NT 10.0; Win64; x64; rv:88.0) Gecko/20100101 Firefox/88.0,,Firefox,88,Windows,10
58,1,null,"""",html-keyboard-response,149,447712,0.0-149.0,"""","<div style=""font-size:60px;"">+</div>","""",256,fixation,Memorization,null,500,"""","""","""","""","""","""","""","""",1,4/20/2021 15:22,31.205.112.174,Mozilla/5.0 (Windows NT 10.0; Win64; x64; rv:88.0) Gecko/20100101 Firefox/88.0,,Firefox,88,Windows,10
58,1,2104,"""",html-keyboard-response,150,452722,0.0-150.0,"""","<img src='jspsych/CFDfaces/CFD-WF-024-003-N.jpg' height=""250px""></br><b>Brittany</b>","""",256,IntactFace,Memorization,70,5000,f,"""",CFD-LF-202-065-N.jpg,Angela,0,"""","""","""",1,4/20/2021 15:22,31.205.112.174,Mozilla/5.0 (Windows NT 10.0; Win64; x64; rv:88.0) Gecko/20100101 Firefox/88.0,,Firefox,88,Windows,10
58,1,null,"""",html-keyboard-response,151,453242,0.0-151.0,"""","<div style=""font-size:60px;"">+</div>","""",256,fixation,Memorization,null,500,"""","""","""","""","""","""","""","""",1,4/20/2021 15:22,31.205.112.174,Mozilla/5.0 (Windows NT 10.0; Win64; x64; rv:88.0) Gecko/20100101 Firefox/88.0,,Firefox,88,Windows,10
58,1,2351,"""",html-keyboard-response,152,458252,0.0-152.0,"""","<img src='jspsych/CFDfaces/CFD-AF-201-060-N.jpg' height=""250px""></br><b>Michelle</b>","""",256,IntactFace,Memorization,78,5000,n,"""",CFD-BF-218-207-N.jpg,Jasmine,0,"""","""","""",1,4/20/2021 15:22,31.205.112.174,Mozilla/5.0 (Windows NT 10.0; Win64; x64; rv:88.0) Gecko/20100101 Firefox/88.0,,Firefox,88,Windows,10
58,1,null,"""",html-keyboard-response,153,458762,0.0-153.0,"""","<div style=""font-size:60px;"">+</div>","""",256,fixation,Memorization,null,500,"""","""","""","""","""","""","""","""",1,4/20/2021 15:22,31.205.112.174,Mozilla/5.0 (Windows NT 10.0; Win64; x64; rv:88.0) Gecko/20100101 Firefox/88.0,,Firefox,88,Windows,10
58,1,1262,"""",html-keyboard-response,154,460026,0.0-154.0,"""",Press Any Key to Begin Memory Test,"""",1,welcomeScreen,Break,78,"""","""","""","""","""","""","""","""","""",1,4/20/2021 15:22,31.205.112.174,Mozilla/5.0 (Windows NT 10.0; Win64; x64; rv:88.0) Gecko/20100101 Firefox/88.0,,Firefox,88,Windows,10
58,1,null,"""",html-keyboard-response,155,461041,0.0-155.0,"""","<div style=""font-size:60px;"">+</div>","""",256,ITI,Test,null,1000,"""","""","""","""","""","""","""","""",1,4/20/2021 15:22,31.205.112.174,Mozilla/5.0 (Windows NT 10.0; Win64; x64; rv:88.0) Gecko/20100101 Firefox/88.0,,Firefox,88,Windows,10
58,1,null,"""",image-keyboard-response,156,461302,0.0-156.0,"""",jspsych/scrambledDisgustFaces/scrambledBF23DIS.JPG,"""",256,forwardMask,Test,null,250,"""",d,"""","""","""","""","""","""",1,4/20/2021 15:22,31.205.112.174,Mozilla/5.0 (Windows NT 10.0; Win64; x64; rv:88.0) Gecko/20100101 Firefox/88.0,,Firefox,88,Windows,10
58,1,null,"""",image-keyboard-response,157,461322,0.0-157.0,"""",jspsych/disgustFaces/BF23DIS.JPG,"""",256,Cue,Test,null,16,"""","""","""","""","""","""","""","""",1,4/20/2021 15:22,31.205.112.174,Mozilla/5.0 (Windows NT 10.0; Win64; x64; rv:88.0) Gecko/20100101 Firefox/88.0,,Firefox,88,Windows,10
58,1,null,"""",image-keyboard-response,158,461442,0.0-158.0,"""",jspsych/neutralFaces/BF20NES.JPG,"""",256,backwardMask,Test,null,100,"""","""","""","""","""","""","""","""",1,4/20/2021 15:22,31.205.112.174,Mozilla/5.0 (Windows NT 10.0; Win64; x64; rv:88.0) Gecko/20100101 Firefox/88.0,,Firefox,88,Windows,10
58,1,null,"""",html-keyboard-response,159,462452,0.0-159.0,"""","<div style=""font-size:60px;"">+</div>","""",256,fixationBtwnNeutralMaskAndPrompt,Test,null,1000,"""","""","""","""","""","""","""","""",1,4/20/2021 15:22,31.205.112.174,Mozilla/5.0 (Windows NT 10.0; Win64; x64; rv:88.0) Gecko/20100101 Firefox/88.0,,Firefox,88,Windows,10
58,1,4448,"""",html-button-response,160,466902,0.0-160.0,"""","<img src='jspsych/CFDfaces/CFD-BF-226-119-N.jpg' height=""250px"">,</br><b>Ashley</b>",1,256,IntactOrRearranged,Test,"""","""","""","""",CFD-AF-239-171-N.jpg,Heather,1,1,"""","""",1,4/20/2021 15:22,31.205.112.174,Mozilla/5.0 (Windows NT 10.0; Win64; x64; rv:88.0) Gecko/20100101 Firefox/88.0,,Firefox,88,Windows,10
58,1,null,"""",html-slider-response,161,471920,0.0-161.0,"""","<img src='jspsych/CFDfaces/CFD-BF-226-119-N.jpg' height=""250px"">,</br><b>Ashley</b>","""",256,ConfidenceQuery,Test,"""","""","""","""",CFD-AF-239-171-N.jpg,Heather,1,"""",0,null,1,4/20/2021 15:22,31.205.112.174,Mozilla/5.0 (Windows NT 10.0; Win64; x64; rv:88.0) Gecko/20100101 Firefox/88.0,,Firefox,88,Windows,10
58,1,null,"""",html-keyboard-response,162,472932,0.0-162.0,"""","<div style=""font-size:60px;"">+</div>","""",256,ITI,Test,null,1000,"""","""","""","""","""","""","""","""",1,4/20/2021 15:22,31.205.112.174,Mozilla/5.0 (Windows NT 10.0; Win64; x64; rv:88.0) Gecko/20100101 Firefox/88.0,,Firefox,88,Windows,10
58,1,null,"""",image-keyboard-response,163,473192,0.0-163.0,"""",jspsych/scrambledNeutralFaces/scrambledBF32NES.JPG,"""",256,forwardMask,Test,null,250,"""",n,"""","""","""","""","""","""",1,4/20/2021 15:22,31.205.112.174,Mozilla/5.0 (Windows NT 10.0; Win64; x64; rv:88.0) Gecko/20100101 Firefox/88.0,,Firefox,88,Windows,10
58,1,null,"""",image-keyboard-response,164,473231,0.0-164.0,"""",jspsych/neutralFaces/BF32NES.JPG,"""",256,Cue,Test,null,16,"""","""","""","""","""","""","""","""",1,4/20/2021 15:22,31.205.112.174,Mozilla/5.0 (Windows NT 10.0; Win64; x64; rv:88.0) Gecko/20100101 Firefox/88.0,,Firefox,88,Windows,10
58,1,null,"""",image-keyboard-response,165,473352,0.0-165.0,"""",jspsych/neutralFaces/BF29NES.JPG,"""",256,backwardMask,Test,null,100,"""","""","""","""","""","""","""","""",1,4/20/2021 15:22,31.205.112.174,Mozilla/5.0 (Windows NT 10.0; Win64; x64; rv:88.0) Gecko/20100101 Firefox/88.0,,Firefox,88,Windows,10
58,1,null,"""",html-keyboard-response,166,474362,0.0-166.0,"""","<div style=""font-size:60px;"">+</div>","""",256,fixationBtwnNeutralMaskAndPrompt,Test,null,1000,"""","""","""","""","""","""","""","""",1,4/20/2021 15:22,31.205.112.174,Mozilla/5.0 (Windows NT 10.0; Win64; x64; rv:88.0) Gecko/20100101 Firefox/88.0,,Firefox,88,Windows,10
58,1,3350,"""",html-button-response,167,477713,0.0-167.0,"""","<img src='jspsych/CFDfaces/CFD-LM-223-175-N.jpg' height=""250px"">,</br><b>Jeffrey</b>",1,256,IntactOrRearranged,Test,"""","""","""","""",CFD-LF-204-133-N.jpg,Whitney,1,1,"""","""",1,4/20/2021 15:22,31.205.112.174,Mozilla/5.0 (Windows NT 10.0; Win64; x64; rv:88.0) Gecko/20100101 Firefox/88.0,,Firefox,88,Windows,10
58,1,4471,"""",html-slider-response,168,482187,0.0-168.0,"""","<img src='jspsych/CFDfaces/CFD-LM-223-175-N.jpg' height=""250px"">,</br><b>Jeffrey</b>","""",256,ConfidenceQuery,Test,"""","""","""","""",CFD-LF-204-133-N.jpg,Whitney,1,"""",0,57,1,4/20/2021 15:22,31.205.112.174,Mozilla/5.0 (Windows NT 10.0; Win64; x64; rv:88.0) Gecko/20100101 Firefox/88.0,,Firefox,88,Windows,10
58,1,null,"""",html-keyboard-response,169,483191,0.0-169.0,"""","<div style=""font-size:60px;"">+</div>","""",256,ITI,Test,null,1000,"""","""","""","""","""","""","""","""",1,4/20/2021 15:22,31.205.112.174,Mozilla/5.0 (Windows NT 10.0; Win64; x64; rv:88.0) Gecko/20100101 Firefox/88.0,,Firefox,88,Windows,10
58,1,null,"""",image-keyboard-response,170,483451,0.0-170.0,"""",jspsych/scrambledNeutralFaces/scrambledBM32NES.JPG,"""",256,forwardMask,Test,null,250,"""",n,"""","""","""","""","""","""",1,4/20/2021 15:22,31.205.112.174,Mozilla/5.0 (Windows NT 10.0; Win64; x64; rv:88.0) Gecko/20100101 Firefox/88.0,,Firefox,88,Windows,10
58,1,null,"""",image-keyboard-response,171,483472,0.0-171.0,"""",jspsych/neutralFaces/BM32NES.JPG,"""",256,Cue,Test,null,16,"""","""","""","""","""","""","""","""",1,4/20/2021 15:22,31.205.112.174,Mozilla/5.0 (Windows NT 10.0; Win64; x64; rv:88.0) Gecko/20100101 Firefox/88.0,,Firefox,88,Windows,10
58,1,null,"""",image-keyboard-response,172,483592,0.0-172.0,"""",jspsych/neutralFaces/BM11NES.JPG,"""",256,backwardMask,Test,null,100,"""","""","""","""","""","""","""","""",1,4/20/2021 15:22,31.205.112.174,Mozilla/5.0 (Windows NT 10.0; Win64; x64; rv:88.0) Gecko/20100101 Firefox/88.0,,Firefox,88,Windows,10
58,1,null,"""",html-keyboard-response,173,484602,0.0-173.0,"""","<div style=""font-size:60px;"">+</div>","""",256,fixationBtwnNeutralMaskAndPrompt,Test,null,1000,"""","""","""","""","""","""","""","""",1,4/20/2021 15:22,31.205.112.174,Mozilla/5.0 (Windows NT 10.0; Win64; x64; rv:88.0) Gecko/20100101 Firefox/88.0,,Firefox,88,Windows,10
58,1,null,"""",html-button-response,174,489622,0.0-174.0,"""","<img src='jspsych/CFDfaces/CFD-WF-029-002-N.jpg' height=""250px"">,</br><b>Stephanie</b>",null,256,IntactOrRearranged,Test,"""","""","""","""",CFD-BF-023-010-N.jpg,Rebecca,0,"""","""","""",1,4/20/2021 15:22,31.205.112.174,Mozilla/5.0 (Windows NT 10.0; Win64; x64; rv:88.0) Gecko/20100101 Firefox/88.0,,Firefox,88,Windows,10
58,1,3624,"""",html-slider-response,175,493252,0.0-175.0,"""","<img src='jspsych/CFDfaces/CFD-WF-029-002-N.jpg' height=""250px"">,</br><b>Stephanie</b>","""",256,ConfidenceQuery,Test,"""","""","""","""",CFD-BF-023-010-N.jpg,Rebecca,0,"""",0,19,1,4/20/2021 15:22,31.205.112.174,Mozilla/5.0 (Windows NT 10.0; Win64; x64; rv:88.0) Gecko/20100101 Firefox/88.0,,Firefox,88,Windows,10
58,1,null,"""",html-keyboard-response,176,494271,0.0-176.0,"""","<div style=""font-size:60px;"">+</div>","""",256,ITI,Test,null,1000,"""","""","""","""","""","""","""","""",1,4/20/2021 15:22,31.205.112.174,Mozilla/5.0 (Windows NT 10.0; Win64; x64; rv:88.0) Gecko/20100101 Firefox/88.0,,Firefox,88,Windows,10
58,1,null,"""",image-keyboard-response,177,494531,0.0-177.0,"""",jspsych/scrambledDisgustFaces/scrambledBF07DIS.JPG,"""",256,forwardMask,Test,null,250,"""",d,"""","""","""","""","""","""",1,4/20/2021 15:22,31.205.112.174,Mozilla/5.0 (Windows NT 10.0; Win64; x64; rv:88.0) Gecko/20100101 Firefox/88.0,,Firefox,88,Windows,10
58,1,null,"""",image-keyboard-response,178,494551,0.0-178.0,"""",jspsych/disgustFaces/BF07DIS.JPG,"""",256,Cue,Test,null,16,"""","""","""","""","""","""","""","""",1,4/20/2021 15:22,31.205.112.174,Mozilla/5.0 (Windows NT 10.0; Win64; x64; rv:88.0) Gecko/20100101 Firefox/88.0,,Firefox,88,Windows,10
58,1,null,"""",image-keyboard-response,179,494671,0.0-179.0,"""",jspsych/neutralFaces/BF04NES.JPG,"""",256,backwardMask,Test,null,100,"""","""","""","""","""","""","""","""",1,4/20/2021 15:22,31.205.112.174,Mozilla/5.0 (Windows NT 10.0; Win64; x64; rv:88.0) Gecko/20100101 Firefox/88.0,,Firefox,88,Windows,10
58,1,null,"""",html-keyboard-response,180,495683,0.0-180.0,"""","<div style=""font-size:60px;"">+</div>","""",256,fixationBtwnNeutralMaskAndPrompt,Test,null,1000,"""","""","""","""","""","""","""","""",1,4/20/2021 15:22,31.205.112.174,Mozilla/5.0 (Windows NT 10.0; Win64; x64; rv:88.0) Gecko/20100101 Firefox/88.0,,Firefox,88,Windows,10
58,1,null,"""",html-button-response,181,500691,0.0-181.0,"""","<img src='jspsych/CFDfaces/CFD-WF-202-056-N.jpg' height=""250px"">,</br><b>Samantha</b>",null,256,IntactOrRearranged,Test,"""","""","""","""",CFD-AM-214-168-N.jpg,Jesse,0,"""","""","""",1,4/20/2021 15:22,31.205.112.174,Mozilla/5.0 (Windows NT 10.0; Win64; x64; rv:88.0) Gecko/20100101 Firefox/88.0,,Firefox,88,Windows,10
58,1,3099,"""",html-slider-response,182,503793,0.0-182.0,"""","<img src='jspsych/CFDfaces/CFD-WF-202-056-N.jpg' height=""250px"">,</br><b>Samantha</b>","""",256,ConfidenceQuery,Test,"""","""","""","""",CFD-AM-214-168-N.jpg,Jesse,0,"""",0,30,1,4/20/2021 15:22,31.205.112.174,Mozilla/5.0 (Windows NT 10.0; Win64; x64; rv:88.0) Gecko/20100101 Firefox/88.0,,Firefox,88,Windows,10
58,1,null,"""",html-keyboard-response,183,504811,0.0-183.0,"""","<div style=""font-size:60px;"">+</div>","""",256,ITI,Test,null,1000,"""","""","""","""","""","""","""","""",1,4/20/2021 15:22,31.205.112.174,Mozilla/5.0 (Windows NT 10.0; Win64; x64; rv:88.0) Gecko/20100101 Firefox/88.0,,Firefox,88,Windows,10
58,1,null,"""",image-keyboard-response,184,505072,0.0-184.0,"""",jspsych/scrambledDisgustFaces/scrambledAM34DIS.JPG,"""",256,forwardMask,Test,null,250,"""",d,"""","""","""","""","""","""",1,4/20/2021 15:22,31.205.112.174,Mozilla/5.0 (Windows NT 10.0; Win64; x64; rv:88.0) Gecko/20100101 Firefox/88.0,,Firefox,88,Windows,10
58,1,null,"""",image-keyboard-response,185,505091,0.0-185.0,"""",jspsych/disgustFaces/AM34DIS.JPG,"""",256,Cue,Test,null,16,"""","""","""","""","""","""","""","""",1,4/20/2021 15:22,31.205.112.174,Mozilla/5.0 (Windows NT 10.0; Win64; x64; rv:88.0) Gecko/20100101 Firefox/88.0,,Firefox,88,Windows,10
58,1,null,"""",image-keyboard-response,186,505212,0.0-186.0,"""",jspsych/neutralFaces/AM13NES.JPG,"""",256,backwardMask,Test,null,100,"""","""","""","""","""","""","""","""",1,4/20/2021 15:22,31.205.112.174,Mozilla/5.0 (Windows NT 10.0; Win64; x64; rv:88.0) Gecko/20100101 Firefox/88.0,,Firefox,88,Windows,10
58,1,null,"""",html-keyboard-response,187,506231,0.0-187.0,"""","<div style=""font-size:60px;"">+</div>","""",256,fixationBtwnNeutralMaskAndPrompt,Test,null,1000,"""","""","""","""","""","""","""","""",1,4/20/2021 15:22,31.205.112.174,Mozilla/5.0 (Windows NT 10.0; Win64; x64; rv:88.0) Gecko/20100101 Firefox/88.0,,Firefox,88,Windows,10
58,1,1881,"""",html-button-response,188,508112,0.0-188.0,"""","<img src='jspsych/CFDfaces/CFD-BF-212-315-N.jpg' height=""250px"">,</br><b>Kayla</b>",0,256,IntactOrRearranged,Test,"""","""","""","""",CFD-AM-228-214-N.jpg,Dustin,0,0,"""","""",1,4/20/2021 15:22,31.205.112.174,Mozilla/5.0 (Windows NT 10.0; Win64; x64; rv:88.0) Gecko/20100101 Firefox/88.0,,Firefox,88,Windows,10
58,1,null,"""",html-slider-response,189,513131,0.0-189.0,"""","<img src='jspsych/CFDfaces/CFD-BF-212-315-N.jpg' height=""250px"">,</br><b>Kayla</b>","""",256,ConfidenceQuery,Test,"""","""","""","""",CFD-AM-228-214-N.jpg,Dustin,0,"""",0,null,1,4/20/2021 15:22,31.205.112.174,Mozilla/5.0 (Windows NT 10.0; Win64; x64; rv:88.0) Gecko/20100101 Firefox/88.0,,Firefox,88,Windows,10
58,1,null,"""",html-keyboard-response,190,514152,0.0-190.0,"""","<div style=""font-size:60px;"">+</div>","""",256,ITI,Test,null,1000,"""","""","""","""","""","""","""","""",1,4/20/2021 15:22,31.205.112.174,Mozilla/5.0 (Windows NT 10.0; Win64; x64; rv:88.0) Gecko/20100101 Firefox/88.0,,Firefox,88,Windows,10
58,1,null,"""",image-keyboard-response,191,514411,0.0-191.0,"""",jspsych/scrambledDisgustFaces/scrambledBM09DIS.JPG,"""",256,forwardMask,Test,null,250,"""",d,"""","""","""","""","""","""",1,4/20/2021 15:22,31.205.112.174,Mozilla/5.0 (Windows NT 10.0; Win64; x64; rv:88.0) Gecko/20100101 Firefox/88.0,,Firefox,88,Windows,10
58,1,null,"""",image-keyboard-response,192,514431,0.0-192.0,"""",jspsych/disgustFaces/BM10DIS.JPG,"""",256,Cue,Test,null,16,"""","""","""","""","""","""","""","""",1,4/20/2021 15:22,31.205.112.174,Mozilla/5.0 (Windows NT 10.0; Win64; x64; rv:88.0) Gecko/20100101 Firefox/88.0,,Firefox,88,Windows,10
58,1,null,"""",image-keyboard-response,193,514551,0.0-193.0,"""",jspsych/neutralFaces/BM08NES.JPG,"""",256,backwardMask,Test,null,100,"""","""","""","""","""","""","""","""",1,4/20/2021 15:22,31.205.112.174,Mozilla/5.0 (Windows NT 10.0; Win64; x64; rv:88.0) Gecko/20100101 Firefox/88.0,,Firefox,88,Windows,10
58,1,null,"""",html-keyboard-response,194,515572,0.0-194.0,"""","<div style=""font-size:60px;"">+</div>","""",256,fixationBtwnNeutralMaskAndPrompt,Test,null,1000,"""","""","""","""","""","""","""","""",1,4/20/2021 15:22,31.205.112.174,Mozilla/5.0 (Windows NT 10.0; Win64; x64; rv:88.0) Gecko/20100101 Firefox/88.0,,Firefox,88,Windows,10
58,1,2240,"""",html-button-response,195,517813,0.0-195.0,"""","<img src='jspsych/CFDfaces/CFD-LF-232-199-N.jpg' height=""250px"">,</br><b>Kimberly</b>",1,256,IntactOrRearranged,Test,"""","""","""","""",CFD-BF-218-207-N.jpg,Angela,1,1,"""","""",1,4/20/2021 15:22,31.205.112.174,Mozilla/5.0 (Windows NT 10.0; Win64; x64; rv:88.0) Gecko/20100101 Firefox/88.0,,Firefox,88,Windows,10
58,1,null,"""",html-slider-response,196,522822,0.0-196.0,"""","<img src='jspsych/CFDfaces/CFD-LF-232-199-N.jpg' height=""250px"">,</br><b>Kimberly</b>","""",256,ConfidenceQuery,Test,"""","""","""","""",CFD-BF-218-207-N.jpg,Angela,1,"""",0,null,1,4/20/2021 15:22,31.205.112.174,Mozilla/5.0 (Windows NT 10.0; Win64; x64; rv:88.0) Gecko/20100101 Firefox/88.0,,Firefox,88,Windows,10
58,1,null,"""",html-keyboard-response,197,523831,0.0-197.0,"""","<div style=""font-size:60px;"">+</div>","""",256,ITI,Test,null,1000,"""","""","""","""","""","""","""","""",1,4/20/2021 15:22,31.205.112.174,Mozilla/5.0 (Windows NT 10.0; Win64; x64; rv:88.0) Gecko/20100101 Firefox/88.0,,Firefox,88,Windows,10
58,1,null,"""",image-keyboard-response,198,524092,0.0-198.0,"""",jspsych/scrambledDisgustFaces/scrambledAF02DIS.JPG,"""",256,forwardMask,Test,null,250,"""",d,"""","""","""","""","""","""",1,4/20/2021 15:22,31.205.112.174,Mozilla/5.0 (Windows NT 10.0; Win64; x64; rv:88.0) Gecko/20100101 Firefox/88.0,,Firefox,88,Windows,10
58,1,null,"""",image-keyboard-response,199,524111,0.0-199.0,"""",jspsych/disgustFaces/AF02DIS.JPG,"""",256,Cue,Test,null,16,"""","""","""","""","""","""","""","""",1,4/20/2021 15:22,31.205.112.174,Mozilla/5.0 (Windows NT 10.0; Win64; x64; rv:88.0) Gecko/20100101 Firefox/88.0,,Firefox,88,Windows,10
58,1,null,"""",image-keyboard-response,200,524231,0.0-200.0,"""",jspsych/neutralFaces/AF28NES.JPG,"""",256,backwardMask,Test,null,100,"""","""","""","""","""","""","""","""",1,4/20/2021 15:22,31.205.112.174,Mozilla/5.0 (Windows NT 10.0; Win64; x64; rv:88.0) Gecko/20100101 Firefox/88.0,,Firefox,88,Windows,10
58,1,null,"""",html-keyboard-response,201,525234,0.0-201.0,"""","<div style=""font-size:60px;"">+</div>","""",256,fixationBtwnNeutralMaskAndPrompt,Test,null,1000,"""","""","""","""","""","""","""","""",1,4/20/2021 15:22,31.205.112.174,Mozilla/5.0 (Windows NT 10.0; Win64; x64; rv:88.0) Gecko/20100101 Firefox/88.0,,Firefox,88,Windows,10
58,1,3515,"""",html-button-response,202,528749,0.0-202.0,"""","<img src='jspsych/CFDfaces/CFD-BM-027-001-N.jpg' height=""250px"">,</br><b>Peter</b>",0,256,IntactOrRearranged,Test,"""","""","""","""",CFD-LF-244-096-N.jpg,Sara,0,0,"""","""",1,4/20/2021 15:22,31.205.112.174,Mozilla/5.0 (Windows NT 10.0; Win64; x64; rv:88.0) Gecko/20100101 Firefox/88.0,,Firefox,88,Windows,10
58,1,3778,"""",html-slider-response,203,532532,0.0-203.0,"""","<img src='jspsych/CFDfaces/CFD-BM-027-001-N.jpg' height=""250px"">,</br><b>Peter</b>","""",256,ConfidenceQuery,Test,"""","""","""","""",CFD-LF-244-096-N.jpg,Sara,0,"""",0,73,1,4/20/2021 15:22,31.205.112.174,Mozilla/5.0 (Windows NT 10.0; Win64; x64; rv:88.0) Gecko/20100101 Firefox/88.0,,Firefox,88,Windows,10
58,1,null,"""",html-keyboard-response,204,533552,0.0-204.0,"""","<div style=""font-size:60px;"">+</div>","""",256,ITI,Test,null,1000,"""","""","""","""","""","""","""","""",1,4/20/2021 15:22,31.205.112.174,Mozilla/5.0 (Windows NT 10.0; Win64; x64; rv:88.0) Gecko/20100101 Firefox/88.0,,Firefox,88,Windows,10
58,1,null,"""",image-keyboard-response,205,533811,0.0-205.0,"""",jspsych/scrambledNeutralFaces/scrambledAF04NES.JPG,"""",256,forwardMask,Test,null,250,"""",n,"""","""","""","""","""","""",1,4/20/2021 15:22,31.205.112.174,Mozilla/5.0 (Windows NT 10.0; Win64; x64; rv:88.0) Gecko/20100101 Firefox/88.0,,Firefox,88,Windows,10
58,1,null,"""",image-keyboard-response,206,533832,0.0-206.0,"""",jspsych/neutralFaces/AF04NES.JPG,"""",256,Cue,Test,null,16,"""","""","""","""","""","""","""","""",1,4/20/2021 15:22,31.205.112.174,Mozilla/5.0 (Windows NT 10.0; Win64; x64; rv:88.0) Gecko/20100101 Firefox/88.0,,Firefox,88,Windows,10
58,1,null,"""",image-keyboard-response,207,533951,0.0-207.0,"""",jspsych/neutralFaces/BF06NES.JPG,"""",256,backwardMask,Test,null,100,"""","""","""","""","""","""","""","""",1,4/20/2021 15:22,31.205.112.174,Mozilla/5.0 (Windows NT 10.0; Win64; x64; rv:88.0) Gecko/20100101 Firefox/88.0,,Firefox,88,Windows,10
58,1,null,"""",html-keyboard-response,208,534971,0.0-208.0,"""","<div style=""font-size:60px;"">+</div>","""",256,fixationBtwnNeutralMaskAndPrompt,Test,null,1000,"""","""","""","""","""","""","""","""",1,4/20/2021 15:22,31.205.112.174,Mozilla/5.0 (Windows NT 10.0; Win64; x64; rv:88.0) Gecko/20100101 Firefox/88.0,,Firefox,88,Windows,10
58,1,4677,"""",html-button-response,209,539653,0.0-209.0,"""","<img src='jspsych/CFDfaces/CFD-AM-246-184-N.jpg' height=""250px"">,</br><b>Jason</b>",0,256,IntactOrRearranged,Test,"""","""","""","""",CFD-LM-201-057-N.jpg,Mark,0,0,"""","""",1,4/20/2021 15:22,31.205.112.174,Mozilla/5.0 (Windows NT 10.0; Win64; x64; rv:88.0) Gecko/20100101 Firefox/88.0,,Firefox,88,Windows,10
58,1,null,"""",html-slider-response,210,544662,0.0-210.0,"""","<img src='jspsych/CFDfaces/CFD-AM-246-184-N.jpg' height=""250px"">,</br><b>Jason</b>","""",256,ConfidenceQuery,Test,"""","""","""","""",CFD-LM-201-057-N.jpg,Mark,0,"""",0,null,1,4/20/2021 15:22,31.205.112.174,Mozilla/5.0 (Windows NT 10.0; Win64; x64; rv:88.0) Gecko/20100101 Firefox/88.0,,Firefox,88,Windows,10
58,1,null,"""",html-keyboard-response,211,545672,0.0-211.0,"""","<div style=""font-size:60px;"">+</div>","""",256,ITI,Test,null,1000,"""","""","""","""","""","""","""","""",1,4/20/2021 15:22,31.205.112.174,Mozilla/5.0 (Windows NT 10.0; Win64; x64; rv:88.0) Gecko/20100101 Firefox/88.0,,Firefox,88,Windows,10
58,1,null,"""",image-keyboard-response,212,545932,0.0-212.0,"""",jspsych/scrambledNeutralFaces/scrambledAM06NES.JPG,"""",256,forwardMask,Test,null,250,"""",n,"""","""","""","""","""","""",1,4/20/2021 15:22,31.205.112.174,Mozilla/5.0 (Windows NT 10.0; Win64; x64; rv:88.0) Gecko/20100101 Firefox/88.0,,Firefox,88,Windows,10
58,1,null,"""",image-keyboard-response,213,545951,0.0-213.0,"""",jspsych/neutralFaces/AM06NES.JPG,"""",256,Cue,Test,null,16,"""","""","""","""","""","""","""","""",1,4/20/2021 15:22,31.205.112.174,Mozilla/5.0 (Windows NT 10.0; Win64; x64; rv:88.0) Gecko/20100101 Firefox/88.0,,Firefox,88,Windows,10
58,1,null,"""",image-keyboard-response,214,546072,0.0-214.0,"""",jspsych/neutralFaces/BM03NES.JPG,"""",256,backwardMask,Test,null,100,"""","""","""","""","""","""","""","""",1,4/20/2021 15:22,31.205.112.174,Mozilla/5.0 (Windows NT 10.0; Win64; x64; rv:88.0) Gecko/20100101 Firefox/88.0,,Firefox,88,Windows,10
58,1,null,"""",html-keyboard-response,215,547083,0.0-215.0,"""","<div style=""font-size:60px;"">+</div>","""",256,fixationBtwnNeutralMaskAndPrompt,Test,null,1000,"""","""","""","""","""","""","""","""",1,4/20/2021 15:22,31.205.112.174,Mozilla/5.0 (Windows NT 10.0; Win64; x64; rv:88.0) Gecko/20100101 Firefox/88.0,,Firefox,88,Windows,10
58,1,2759,"""",html-button-response,216,549843,0.0-216.0,"""","<img src='jspsych/CFDfaces/CFD-WF-017-003-N.jpg' height=""250px"">,</br><b>Andrea</b>",1,256,IntactOrRearranged,Test,"""","""","""","""",CFD-LF-218-072-N.jpg,Taylor,1,1,"""","""",1,4/20/2021 15:22,31.205.112.174,Mozilla/5.0 (Windows NT 10.0; Win64; x64; rv:88.0) Gecko/20100101 Firefox/88.0,,Firefox,88,Windows,10
58,1,3688,"""",html-slider-response,217,553533,0.0-217.0,"""","<img src='jspsych/CFDfaces/CFD-WF-017-003-N.jpg' height=""250px"">,</br><b>Andrea</b>","""",256,ConfidenceQuery,Test,"""","""","""","""",CFD-LF-218-072-N.jpg,Taylor,1,"""",0,80,1,4/20/2021 15:22,31.205.112.174,Mozilla/5.0 (Windows NT 10.0; Win64; x64; rv:88.0) Gecko/20100101 Firefox/88.0,,Firefox,88,Windows,10
58,1,null,"""",html-keyboard-response,218,554542,0.0-218.0,"""","<div style=""font-size:60px;"">+</div>","""",256,ITI,Test,null,1000,"""","""","""","""","""","""","""","""",1,4/20/2021 15:22,31.205.112.174,Mozilla/5.0 (Windows NT 10.0; Win64; x64; rv:88.0) Gecko/20100101 Firefox/88.0,,Firefox,88,Windows,10
58,1,null,"""",image-keyboard-response,219,554806,0.0-219.0,"""",jspsych/scrambledNeutralFaces/scrambledAM13NES.JPG,"""",256,forwardMask,Test,null,250,"""",n,"""","""","""","""","""","""",1,4/20/2021 15:22,31.205.112.174,Mozilla/5.0 (Windows NT 10.0; Win64; x64; rv:88.0) Gecko/20100101 Firefox/88.0,,Firefox,88,Windows,10
58,1,null,"""",image-keyboard-response,220,554837,0.0-220.0,"""",jspsych/neutralFaces/AM13NES.JPG,"""",256,Cue,Test,null,16,"""","""","""","""","""","""","""","""",1,4/20/2021 15:22,31.205.112.174,Mozilla/5.0 (Windows NT 10.0; Win64; x64; rv:88.0) Gecko/20100101 Firefox/88.0,,Firefox,88,Windows,10
58,1,null,"""",image-keyboard-response,221,554944,0.0-221.0,"""",jspsych/neutralFaces/BM05NES.JPG,"""",256,backwardMask,Test,null,100,"""","""","""","""","""","""","""","""",1,4/20/2021 15:22,31.205.112.174,Mozilla/5.0 (Windows NT 10.0; Win64; x64; rv:88.0) Gecko/20100101 Firefox/88.0,,Firefox,88,Windows,10
58,1,null,"""",html-keyboard-response,222,555951,0.0-222.0,"""","<div style=""font-size:60px;"">+</div>","""",256,fixationBtwnNeutralMaskAndPrompt,Test,null,1000,"""","""","""","""","""","""","""","""",1,4/20/2021 15:22,31.205.112.174,Mozilla/5.0 (Windows NT 10.0; Win64; x64; rv:88.0) Gecko/20100101 Firefox/88.0,,Firefox,88,Windows,10
58,1,2750,"""",html-button-response,223,558703,0.0-223.0,"""","<img src='jspsych/CFDfaces/CFD-WM-215-041-N.jpg' height=""250px"">,</br><b>Nicholas</b>",1,256,IntactOrRearranged,Test,"""","""","""","""",CFD-LF-202-065-N.jpg,Erin,0,1,"""","""",1,4/20/2021 15:22,31.205.112.174,Mozilla/5.0 (Windows NT 10.0; Win64; x64; rv:88.0) Gecko/20100101 Firefox/88.0,,Firefox,88,Windows,10
58,1,3193,"""",html-slider-response,224,561898,0.0-224.0,"""","<img src='jspsych/CFDfaces/CFD-WM-215-041-N.jpg' height=""250px"">,</br><b>Nicholas</b>","""",256,ConfidenceQuery,Test,"""","""","""","""",CFD-LF-202-065-N.jpg,Erin,0,"""",0,91,1,4/20/2021 15:22,31.205.112.174,Mozilla/5.0 (Windows NT 10.0; Win64; x64; rv:88.0) Gecko/20100101 Firefox/88.0,,Firefox,88,Windows,10
58,1,null,"""",html-keyboard-response,225,562922,0.0-225.0,"""","<div style=""font-size:60px;"">+</div>","""",256,ITI,Test,null,1000,"""","""","""","""","""","""","""","""",1,4/20/2021 15:22,31.205.112.174,Mozilla/5.0 (Windows NT 10.0; Win64; x64; rv:88.0) Gecko/20100101 Firefox/88.0,,Firefox,88,Windows,10
58,1,null,"""",image-keyboard-response,226,563182,0.0-226.0,"""",jspsych/scrambledNeutralFaces/scrambledAM04NES.JPG,"""",256,forwardMask,Test,null,250,"""",n,"""","""","""","""","""","""",1,4/20/2021 15:22,31.205.112.174,Mozilla/5.0 (Windows NT 10.0; Win64; x64; rv:88.0) Gecko/20100101 Firefox/88.0,,Firefox,88,Windows,10
58,1,null,"""",image-keyboard-response,227,563221,0.0-227.0,"""",jspsych/neutralFaces/AM04NES.JPG,"""",256,Cue,Test,null,16,"""","""","""","""","""","""","""","""",1,4/20/2021 15:22,31.205.112.174,Mozilla/5.0 (Windows NT 10.0; Win64; x64; rv:88.0) Gecko/20100101 Firefox/88.0,,Firefox,88,Windows,10
58,1,null,"""",image-keyboard-response,228,563341,0.0-228.0,"""",jspsych/neutralFaces/AM34NES.JPG,"""",256,backwardMask,Test,null,100,"""","""","""","""","""","""","""","""",1,4/20/2021 15:22,31.205.112.174,Mozilla/5.0 (Windows NT 10.0; Win64; x64; rv:88.0) Gecko/20100101 Firefox/88.0,,Firefox,88,Windows,10
58,1,null,"""",html-keyboard-response,229,564362,0.0-229.0,"""","<div style=""font-size:60px;"">+</div>","""",256,fixationBtwnNeutralMaskAndPrompt,Test,null,1000,"""","""","""","""","""","""","""","""",1,4/20/2021 15:22,31.205.112.174,Mozilla/5.0 (Windows NT 10.0; Win64; x64; rv:88.0) Gecko/20100101 Firefox/88.0,,Firefox,88,Windows,10
58,1,2599,"""",html-button-response,230,566962,0.0-230.0,"""","<img src='jspsych/CFDfaces/CFD-LF-203-066-N.jpg' height=""250px"">,</br><b>Vanessa</b>",0,256,IntactOrRearranged,Test,"""","""","""","""",CFD-LM-213-061-N.jpg,Jacob,0,0,"""","""",1,4/20/2021 15:22,31.205.112.174,Mozilla/5.0 (Windows NT 10.0; Win64; x64; rv:88.0) Gecko/20100101 Firefox/88.0,,Firefox,88,Windows,10
58,1,2908,"""",html-slider-response,231,569872,0.0-231.0,"""","<img src='jspsych/CFDfaces/CFD-LF-203-066-N.jpg' height=""250px"">,</br><b>Vanessa</b>","""",256,ConfidenceQuery,Test,"""","""","""","""",CFD-LM-213-061-N.jpg,Jacob,0,"""",0,68,1,4/20/2021 15:22,31.205.112.174,Mozilla/5.0 (Windows NT 10.0; Win64; x64; rv:88.0) Gecko/20100101 Firefox/88.0,,Firefox,88,Windows,10
58,1,null,"""",html-keyboard-response,232,570891,0.0-232.0,"""","<div style=""font-size:60px;"">+</div>","""",256,ITI,Test,null,1000,"""","""","""","""","""","""","""","""",1,4/20/2021 15:22,31.205.112.174,Mozilla/5.0 (Windows NT 10.0; Win64; x64; rv:88.0) Gecko/20100101 Firefox/88.0,,Firefox,88,Windows,10
58,1,null,"""",image-keyboard-response,233,571156,0.0-233.0,"""",jspsych/scrambledNeutralFaces/scrambledBF29NES.JPG,"""",256,forwardMask,Test,null,250,"""",n,"""","""","""","""","""","""",1,4/20/2021 15:22,31.205.112.174,Mozilla/5.0 (Windows NT 10.0; Win64; x64; rv:88.0) Gecko/20100101 Firefox/88.0,,Firefox,88,Windows,10
58,1,null,"""",image-keyboard-response,234,571187,0.0-234.0,"""",jspsych/neutralFaces/BF29NES.JPG,"""",256,Cue,Test,null,16,"""","""","""","""","""","""","""","""",1,4/20/2021 15:22,31.205.112.174,Mozilla/5.0 (Windows NT 10.0; Win64; x64; rv:88.0) Gecko/20100101 Firefox/88.0,,Firefox,88,Windows,10
58,1,null,"""",image-keyboard-response,235,571296,0.0-235.0,"""",jspsych/neutralFaces/BF11NES.JPG,"""",256,backwardMask,Test,null,100,"""","""","""","""","""","""","""","""",1,4/20/2021 15:22,31.205.112.174,Mozilla/5.0 (Windows NT 10.0; Win64; x64; rv:88.0) Gecko/20100101 Firefox/88.0,,Firefox,88,Windows,10
58,1,null,"""",html-keyboard-response,236,572312,0.0-236.0,"""","<div style=""font-size:60px;"">+</div>","""",256,fixationBtwnNeutralMaskAndPrompt,Test,null,1000,"""","""","""","""","""","""","""","""",1,4/20/2021 15:22,31.205.112.174,Mozilla/5.0 (Windows NT 10.0; Win64; x64; rv:88.0) Gecko/20100101 Firefox/88.0,,Firefox,88,Windows,10
58,1,4150,"""",html-button-response,237,576463,0.0-237.0,"""","<img src='jspsych/CFDfaces/CFD-LF-231-260-N.jpg' height=""250px"">,</br><b>Victoria</b>",0,256,IntactOrRearranged,Test,"""","""","""","""",CFD-WM-212-097-N.jpg,Kenneth,1,0,"""","""",1,4/20/2021 15:22,31.205.112.174,Mozilla/5.0 (Windows NT 10.0; Win64; x64; rv:88.0) Gecko/20100101 Firefox/88.0,,Firefox,88,Windows,10
58,1,null,"""",html-slider-response,238,581478,0.0-238.0,"""","<img src='jspsych/CFDfaces/CFD-LF-231-260-N.jpg' height=""250px"">,</br><b>Victoria</b>","""",256,ConfidenceQuery,Test,"""","""","""","""",CFD-WM-212-097-N.jpg,Kenneth,1,"""",0,null,1,4/20/2021 15:22,31.205.112.174,Mozilla/5.0 (Windows NT 10.0; Win64; x64; rv:88.0) Gecko/20100101 Firefox/88.0,,Firefox,88,Windows,10
58,1,null,"""",html-keyboard-response,239,582481,0.0-239.0,"""","<div style=""font-size:60px;"">+</div>","""",256,ITI,Test,null,1000,"""","""","""","""","""","""","""","""",1,4/20/2021 15:22,31.205.112.174,Mozilla/5.0 (Windows NT 10.0; Win64; x64; rv:88.0) Gecko/20100101 Firefox/88.0,,Firefox,88,Windows,10
58,1,null,"""",image-keyboard-response,240,582742,0.0-240.0,"""",jspsych/scrambledDisgustFaces/scrambledAM21DIS.JPG,"""",256,forwardMask,Test,null,250,"""",d,"""","""","""","""","""","""",1,4/20/2021 15:22,31.205.112.174,Mozilla/5.0 (Windows NT 10.0; Win64; x64; rv:88.0) Gecko/20100101 Firefox/88.0,,Firefox,88,Windows,10
58,1,null,"""",image-keyboard-response,241,582772,0.0-241.0,"""",jspsych/disgustFaces/AM21DIS.JPG,"""",256,Cue,Test,null,16,"""","""","""","""","""","""","""","""",1,4/20/2021 15:22,31.205.112.174,Mozilla/5.0 (Windows NT 10.0; Win64; x64; rv:88.0) Gecko/20100101 Firefox/88.0,,Firefox,88,Windows,10
58,1,null,"""",image-keyboard-response,242,582882,0.0-242.0,"""",jspsych/neutralFaces/AM28NES.JPG,"""",256,backwardMask,Test,null,100,"""","""","""","""","""","""","""","""",1,4/20/2021 15:22,31.205.112.174,Mozilla/5.0 (Windows NT 10.0; Win64; x64; rv:88.0) Gecko/20100101 Firefox/88.0,,Firefox,88,Windows,10
58,1,null,"""",html-keyboard-response,243,583901,0.0-243.0,"""","<div style=""font-size:60px;"">+</div>","""",256,fixationBtwnNeutralMaskAndPrompt,Test,null,1000,"""","""","""","""","""","""","""","""",1,4/20/2021 15:22,31.205.112.174,Mozilla/5.0 (Windows NT 10.0; Win64; x64; rv:88.0) Gecko/20100101 Firefox/88.0,,Firefox,88,Windows,10
58,1,2000,"""",html-button-response,244,585902,0.0-244.0,"""","<img src='jspsych/CFDfaces/CFD-LM-200-045-N.jpg' height=""250px"">,</br><b>Brian</b>",0,256,IntactOrRearranged,Test,"""","""","""","""",CFD-AM-231-136-N.jpg,Jeremy,0,0,"""","""",1,4/20/2021 15:22,31.205.112.174,Mozilla/5.0 (Windows NT 10.0; Win64; x64; rv:88.0) Gecko/20100101 Firefox/88.0,,Firefox,88,Windows,10
58,1,4808,"""",html-slider-response,245,590712,0.0-245.0,"""","<img src='jspsych/CFDfaces/CFD-LM-200-045-N.jpg' height=""250px"">,</br><b>Brian</b>","""",256,ConfidenceQuery,Test,"""","""","""","""",CFD-AM-231-136-N.jpg,Jeremy,0,"""",0,83,1,4/20/2021 15:22,31.205.112.174,Mozilla/5.0 (Windows NT 10.0; Win64; x64; rv:88.0) Gecko/20100101 Firefox/88.0,,Firefox,88,Windows,10
58,1,null,"""",html-keyboard-response,246,591722,0.0-246.0,"""","<div style=""font-size:60px;"">+</div>","""",256,ITI,Test,null,1000,"""","""","""","""","""","""","""","""",1,4/20/2021 15:22,31.205.112.174,Mozilla/5.0 (Windows NT 10.0; Win64; x64; rv:88.0) Gecko/20100101 Firefox/88.0,,Firefox,88,Windows,10
58,1,null,"""",image-keyboard-response,247,591981,0.0-247.0,"""",jspsych/scrambledDisgustFaces/scrambledAF14DIS.JPG,"""",256,forwardMask,Test,null,250,"""",d,"""","""","""","""","""","""",1,4/20/2021 15:22,31.205.112.174,Mozilla/5.0 (Windows NT 10.0; Win64; x64; rv:88.0) Gecko/20100101 Firefox/88.0,,Firefox,88,Windows,10
58,1,null,"""",image-keyboard-response,248,592021,0.0-248.0,"""",jspsych/disgustFaces/AF14DIS.JPG,"""",256,Cue,Test,null,16,"""","""","""","""","""","""","""","""",1,4/20/2021 15:22,31.205.112.174,Mozilla/5.0 (Windows NT 10.0; Win64; x64; rv:88.0) Gecko/20100101 Firefox/88.0,,Firefox,88,Windows,10
58,1,null,"""",image-keyboard-response,249,592141,0.0-249.0,"""",jspsych/neutralFaces/AF06NES.JPG,"""",256,backwardMask,Test,null,100,"""","""","""","""","""","""","""","""",1,4/20/2021 15:22,31.205.112.174,Mozilla/5.0 (Windows NT 10.0; Win64; x64; rv:88.0) Gecko/20100101 Firefox/88.0,,Firefox,88,Windows,10
58,1,null,"""",html-keyboard-response,250,593161,0.0-250.0,"""","<div style=""font-size:60px;"">+</div>","""",256,fixationBtwnNeutralMaskAndPrompt,Test,null,1000,"""","""","""","""","""","""","""","""",1,4/20/2021 15:22,31.205.112.174,Mozilla/5.0 (Windows NT 10.0; Win64; x64; rv:88.0) Gecko/20100101 Firefox/88.0,,Firefox,88,Windows,10
58,1,2520,"""",html-button-response,251,595683,0.0-251.0,"""","<img src='jspsych/CFDfaces/CFD-WF-024-003-N.jpg' height=""250px"">,</br><b>Brittany</b>",0,256,IntactOrRearranged,Test,"""","""","""","""",CFD-BF-019-001-N.jpg,Lauren,0,0,"""","""",1,4/20/2021 15:22,31.205.112.174,Mozilla/5.0 (Windows NT 10.0; Win64; x64; rv:88.0) Gecko/20100101 Firefox/88.0,,Firefox,88,Windows,10
58,1,3314,"""",html-slider-response,252,598998,0.0-252.0,"""","<img src='jspsych/CFDfaces/CFD-WF-024-003-N.jpg' height=""250px"">,</br><b>Brittany</b>","""",256,ConfidenceQuery,Test,"""","""","""","""",CFD-BF-019-001-N.jpg,Lauren,0,"""",0,91,1,4/20/2021 15:22,31.205.112.174,Mozilla/5.0 (Windows NT 10.0; Win64; x64; rv:88.0) Gecko/20100101 Firefox/88.0,,Firefox,88,Windows,10
58,1,null,"""",html-keyboard-response,253,600012,0.0-253.0,"""","<div style=""font-size:60px;"">+</div>","""",256,ITI,Test,null,1000,"""","""","""","""","""","""","""","""",1,4/20/2021 15:22,31.205.112.174,Mozilla/5.0 (Windows NT 10.0; Win64; x64; rv:88.0) Gecko/20100101 Firefox/88.0,,Firefox,88,Windows,10
58,1,null,"""",image-keyboard-response,254,600272,0.0-254.0,"""",jspsych/scrambledNeutralFaces/scrambledBM07NES.JPG,"""",256,forwardMask,Test,null,250,"""",n,"""","""","""","""","""","""",1,4/20/2021 15:22,31.205.112.174,Mozilla/5.0 (Windows NT 10.0; Win64; x64; rv:88.0) Gecko/20100101 Firefox/88.0,,Firefox,88,Windows,10
58,1,null,"""",image-keyboard-response,255,600291,0.0-255.0,"""",jspsych/neutralFaces/BM07NES.JPG,"""",256,Cue,Test,null,16,"""","""","""","""","""","""","""","""",1,4/20/2021 15:22,31.205.112.174,Mozilla/5.0 (Windows NT 10.0; Win64; x64; rv:88.0) Gecko/20100101 Firefox/88.0,,Firefox,88,Windows,10
58,1,null,"""",image-keyboard-response,256,600411,0.0-256.0,"""",jspsych/neutralFaces/AM29NES.JPG,"""",256,backwardMask,Test,null,100,"""","""","""","""","""","""","""","""",1,4/20/2021 15:22,31.205.112.174,Mozilla/5.0 (Windows NT 10.0; Win64; x64; rv:88.0) Gecko/20100101 Firefox/88.0,,Firefox,88,Windows,10
58,1,null,"""",html-keyboard-response,257,601431,0.0-257.0,"""","<div style=""font-size:60px;"">+</div>","""",256,fixationBtwnNeutralMaskAndPrompt,Test,null,1000,"""","""","""","""","""","""","""","""",1,4/20/2021 15:22,31.205.112.174,Mozilla/5.0 (Windows NT 10.0; Win64; x64; rv:88.0) Gecko/20100101 Firefox/88.0,,Firefox,88,Windows,10
58,1,null,"""",html-button-response,258,606452,0.0-258.0,"""","<img src='jspsych/CFDfaces/CFD-AF-201-060-N.jpg' height=""250px"">,</br><b>Michelle</b>",null,256,IntactOrRearranged,Test,"""","""","""","""",CFD-WF-016-015-N.jpg,Amy,0,"""","""","""",1,4/20/2021 15:22,31.205.112.174,Mozilla/5.0 (Windows NT 10.0; Win64; x64; rv:88.0) Gecko/20100101 Firefox/88.0,,Firefox,88,Windows,10
58,1,4535,"""",html-slider-response,259,610992,0.0-259.0,"""","<img src='jspsych/CFDfaces/CFD-AF-201-060-N.jpg' height=""250px"">,</br><b>Michelle</b>","""",256,ConfidenceQuery,Test,"""","""","""","""",CFD-WF-016-015-N.jpg,Amy,0,"""",0,5,1,4/20/2021 15:22,31.205.112.174,Mozilla/5.0 (Windows NT 10.0; Win64; x64; rv:88.0) Gecko/20100101 Firefox/88.0,,Firefox,88,Windows,10
58,1,null,"""",html-keyboard-response,260,612009,0.0-260.0,"""","<div style=""font-size:60px;"">+</div>","""",256,ITI,Test,null,1000,"""","""","""","""","""","""","""","""",1,4/20/2021 15:22,31.205.112.174,Mozilla/5.0 (Windows NT 10.0; Win64; x64; rv:88.0) Gecko/20100101 Firefox/88.0,,Firefox,88,Windows,10
58,1,null,"""",image-keyboard-response,261,612271,0.0-261.0,"""",jspsych/scrambledNeutralFaces/scrambledAF27NES.JPG,"""",256,forwardMask,Test,null,250,"""",n,"""","""","""","""","""","""",1,4/20/2021 15:22,31.205.112.174,Mozilla/5.0 (Windows NT 10.0; Win64; x64; rv:88.0) Gecko/20100101 Firefox/88.0,,Firefox,88,Windows,10
58,1,null,"""",image-keyboard-response,262,612292,0.0-262.0,"""",jspsych/neutralFaces/AF27NES.JPG,"""",256,Cue,Test,null,16,"""","""","""","""","""","""","""","""",1,4/20/2021 15:22,31.205.112.174,Mozilla/5.0 (Windows NT 10.0; Win64; x64; rv:88.0) Gecko/20100101 Firefox/88.0,,Firefox,88,Windows,10
58,1,null,"""",image-keyboard-response,263,612412,0.0-263.0,"""",jspsych/neutralFaces/AF19NES.JPG,"""",256,backwardMask,Test,null,100,"""","""","""","""","""","""","""","""",1,4/20/2021 15:22,31.205.112.174,Mozilla/5.0 (Windows NT 10.0; Win64; x64; rv:88.0) Gecko/20100101 Firefox/88.0,,Firefox,88,Windows,10
58,1,null,"""",html-keyboard-response,264,613432,0.0-264.0,"""","<div style=""font-size:60px;"">+</div>","""",256,fixationBtwnNeutralMaskAndPrompt,Test,null,1000,"""","""","""","""","""","""","""","""",1,4/20/2021 15:22,31.205.112.174,Mozilla/5.0 (Windows NT 10.0; Win64; x64; rv:88.0) Gecko/20100101 Firefox/88.0,,Firefox,88,Windows,10
58,1,2270,"""",html-button-response,265,615703,0.0-265.0,"""","<img src='jspsych/CFDfaces/CFD-AF-228-173-N.jpg' height=""250px"">,</br><b>Julie</b>",1,256,IntactOrRearranged,Test,"""","""","""","""",CFD-BM-017-021-N.jpg,Steven,0,1,"""","""",1,4/20/2021 15:22,31.205.112.174,Mozilla/5.0 (Windows NT 10.0; Win64; x64; rv:88.0) Gecko/20100101 Firefox/88.0,,Firefox,88,Windows,10
58,1,3248,"""",html-slider-response,266,618953,0.0-266.0,"""","<img src='jspsych/CFDfaces/CFD-AF-228-173-N.jpg' height=""250px"">,</br><b>Julie</b>","""",256,ConfidenceQuery,Test,"""","""","""","""",CFD-BM-017-021-N.jpg,Steven,0,"""",0,20,1,4/20/2021 15:22,31.205.112.174,Mozilla/5.0 (Windows NT 10.0; Win64; x64; rv:88.0) Gecko/20100101 Firefox/88.0,,Firefox,88,Windows,10
58,1,null,"""",html-keyboard-response,267,619972,0.0-267.0,"""","<div style=""font-size:60px;"">+</div>","""",256,ITI,Test,null,1000,"""","""","""","""","""","""","""","""",1,4/20/2021 15:22,31.205.112.174,Mozilla/5.0 (Windows NT 10.0; Win64; x64; rv:88.0) Gecko/20100101 Firefox/88.0,,Firefox,88,Windows,10
58,1,null,"""",image-keyboard-response,268,620231,0.0-268.0,"""",jspsych/scrambledDisgustFaces/scrambledAM19DIS.JPG,"""",256,forwardMask,Test,null,250,"""",d,"""","""","""","""","""","""",1,4/20/2021 15:22,31.205.112.174,Mozilla/5.0 (Windows NT 10.0; Win64; x64; rv:88.0) Gecko/20100101 Firefox/88.0,,Firefox,88,Windows,10
58,1,null,"""",image-keyboard-response,269,620252,0.0-269.0,"""",jspsych/disgustFaces/AM19DIS.JPG,"""",256,Cue,Test,null,16,"""","""","""","""","""","""","""","""",1,4/20/2021 15:22,31.205.112.174,Mozilla/5.0 (Windows NT 10.0; Win64; x64; rv:88.0) Gecko/20100101 Firefox/88.0,,Firefox,88,Windows,10
58,1,null,"""",image-keyboard-response,270,620372,0.0-270.0,"""",jspsych/neutralFaces/AM13NES.JPG,"""",256,backwardMask,Test,null,100,"""","""","""","""","""","""","""","""",1,4/20/2021 15:22,31.205.112.174,Mozilla/5.0 (Windows NT 10.0; Win64; x64; rv:88.0) Gecko/20100101 Firefox/88.0,,Firefox,88,Windows,10
58,1,null,"""",html-keyboard-response,271,621389,0.0-271.0,"""","<div style=""font-size:60px;"">+</div>","""",256,fixationBtwnNeutralMaskAndPrompt,Test,null,1000,"""","""","""","""","""","""","""","""",1,4/20/2021 15:22,31.205.112.174,Mozilla/5.0 (Windows NT 10.0; Win64; x64; rv:88.0) Gecko/20100101 Firefox/88.0,,Firefox,88,Windows,10
58,1,1762,"""",html-button-response,272,623153,0.0-272.0,"""","<img src='jspsych/CFDfaces/CFD-AM-237-154-N.jpg' height=""250px"">,</br><b>Robert</b>",0,256,IntactOrRearranged,Test,"""","""","""","""",CFD-WM-015-002-N.jpg,Ryan,0,0,"""","""",1,4/20/2021 15:22,31.205.112.174,Mozilla/5.0 (Windows NT 10.0; Win64; x64; rv:88.0) Gecko/20100101 Firefox/88.0,,Firefox,88,Windows,10
58,1,null,"""",html-slider-response,273,628172,0.0-273.0,"""","<img src='jspsych/CFDfaces/CFD-AM-237-154-N.jpg' height=""250px"">,</br><b>Robert</b>","""",256,ConfidenceQuery,Test,"""","""","""","""",CFD-WM-015-002-N.jpg,Ryan,0,"""",0,null,1,4/20/2021 15:22,31.205.112.174,Mozilla/5.0 (Windows NT 10.0; Win64; x64; rv:88.0) Gecko/20100101 Firefox/88.0,,Firefox,88,Windows,10
58,1,null,"""",html-keyboard-response,274,629192,0.0-274.0,"""","<div style=""font-size:60px;"">+</div>","""",256,ITI,Test,null,1000,"""","""","""","""","""","""","""","""",1,4/20/2021 15:22,31.205.112.174,Mozilla/5.0 (Windows NT 10.0; Win64; x64; rv:88.0) Gecko/20100101 Firefox/88.0,,Firefox,88,Windows,10
58,1,null,"""",image-keyboard-response,275,629452,0.0-275.0,"""",jspsych/scrambledDisgustFaces/scrambledBF24DIS.JPG,"""",256,forwardMask,Test,null,250,"""",d,"""","""","""","""","""","""",1,4/20/2021 15:22,31.205.112.174,Mozilla/5.0 (Windows NT 10.0; Win64; x64; rv:88.0) Gecko/20100101 Firefox/88.0,,Firefox,88,Windows,10
58,1,null,"""",image-keyboard-response,276,629471,0.0-276.0,"""",jspsych/disgustFaces/BF24DIS.JPG,"""",256,Cue,Test,null,16,"""","""","""","""","""","""","""","""",1,4/20/2021 15:22,31.205.112.174,Mozilla/5.0 (Windows NT 10.0; Win64; x64; rv:88.0) Gecko/20100101 Firefox/88.0,,Firefox,88,Windows,10
58,1,null,"""",image-keyboard-response,277,629587,0.0-277.0,"""",jspsych/neutralFaces/BF15NES.JPG,"""",256,backwardMask,Test,null,100,"""","""","""","""","""","""","""","""",1,4/20/2021 15:22,31.205.112.174,Mozilla/5.0 (Windows NT 10.0; Win64; x64; rv:88.0) Gecko/20100101 Firefox/88.0,,Firefox,88,Windows,10
58,1,null,"""",html-keyboard-response,278,630595,0.0-278.0,"""","<div style=""font-size:60px;"">+</div>","""",256,fixationBtwnNeutralMaskAndPrompt,Test,null,1000,"""","""","""","""","""","""","""","""",1,4/20/2021 15:22,31.205.112.174,Mozilla/5.0 (Windows NT 10.0; Win64; x64; rv:88.0) Gecko/20100101 Firefox/88.0,,Firefox,88,Windows,10
58,1,3487,"""",html-button-response,279,634083,0.0-279.0,"""","<img src='jspsych/CFDfaces/CFD-LM-219-295-N.jpg' height=""250px"">,</br><b>James</b>",1,256,IntactOrRearranged,Test,"""","""","""","""",CFD-WM-020-001-N.jpg,Justin,1,1,"""","""",1,4/20/2021 15:22,31.205.112.174,Mozilla/5.0 (Windows NT 10.0; Win64; x64; rv:88.0) Gecko/20100101 Firefox/88.0,,Firefox,88,Windows,10
58,1,null,"""",html-slider-response,280,639092,0.0-280.0,"""","<img src='jspsych/CFDfaces/CFD-LM-219-295-N.jpg' height=""250px"">,</br><b>James</b>","""",256,ConfidenceQuery,Test,"""","""","""","""",CFD-WM-020-001-N.jpg,Justin,1,"""",0,null,1,4/20/2021 15:22,31.205.112.174,Mozilla/5.0 (Windows NT 10.0; Win64; x64; rv:88.0) Gecko/20100101 Firefox/88.0,,Firefox,88,Windows,10
58,1,null,"""",html-keyboard-response,281,640111,0.0-281.0,"""","<div style=""font-size:60px;"">+</div>","""",256,ITI,Test,null,1000,"""","""","""","""","""","""","""","""",1,4/20/2021 15:22,31.205.112.174,Mozilla/5.0 (Windows NT 10.0; Win64; x64; rv:88.0) Gecko/20100101 Firefox/88.0,,Firefox,88,Windows,10
58,1,null,"""",image-keyboard-response,282,640371,0.0-282.0,"""",jspsych/scrambledNeutralFaces/scrambledBM05NES.JPG,"""",256,forwardMask,Test,null,250,"""",n,"""","""","""","""","""","""",1,4/20/2021 15:22,31.205.112.174,Mozilla/5.0 (Windows NT 10.0; Win64; x64; rv:88.0) Gecko/20100101 Firefox/88.0,,Firefox,88,Windows,10
58,1,null,"""",image-keyboard-response,283,640391,0.0-283.0,"""",jspsych/neutralFaces/BM05NES.JPG,"""",256,Cue,Test,null,16,"""","""","""","""","""","""","""","""",1,4/20/2021 15:22,31.205.112.174,Mozilla/5.0 (Windows NT 10.0; Win64; x64; rv:88.0) Gecko/20100101 Firefox/88.0,,Firefox,88,Windows,10
58,1,null,"""",image-keyboard-response,284,640512,0.0-284.0,"""",jspsych/neutralFaces/BM31NES.JPG,"""",256,backwardMask,Test,null,100,"""","""","""","""","""","""","""","""",1,4/20/2021 15:22,31.205.112.174,Mozilla/5.0 (Windows NT 10.0; Win64; x64; rv:88.0) Gecko/20100101 Firefox/88.0,,Firefox,88,Windows,10
58,1,null,"""",html-keyboard-response,285,641529,0.0-285.0,"""","<div style=""font-size:60px;"">+</div>","""",256,fixationBtwnNeutralMaskAndPrompt,Test,null,1000,"""","""","""","""","""","""","""","""",1,4/20/2021 15:22,31.205.112.174,Mozilla/5.0 (Windows NT 10.0; Win64; x64; rv:88.0) Gecko/20100101 Firefox/88.0,,Firefox,88,Windows,10
58,1,2835,"""",html-button-response,286,644364,0.0-286.0,"""","<img src='jspsych/CFDfaces/CFD-LF-230-203-N.jpg' height=""250px"">,</br><b>Meghan</b>",1,256,IntactOrRearranged,Test,"""","""","""","""",CFD-AF-226-251-N.jpg,Laura,0,1,"""","""",1,4/20/2021 15:22,31.205.112.174,Mozilla/5.0 (Windows NT 10.0; Win64; x64; rv:88.0) Gecko/20100101 Firefox/88.0,,Firefox,88,Windows,10
58,1,null,"""",html-slider-response,287,649382,0.0-287.0,"""","<img src='jspsych/CFDfaces/CFD-LF-230-203-N.jpg' height=""250px"">,</br><b>Meghan</b>","""",256,ConfidenceQuery,Test,"""","""","""","""",CFD-AF-226-251-N.jpg,Laura,0,"""",0,null,1,4/20/2021 15:22,31.205.112.174,Mozilla/5.0 (Windows NT 10.0; Win64; x64; rv:88.0) Gecko/20100101 Firefox/88.0,,Firefox,88,Windows,10
58,1,null,"""",html-keyboard-response,288,650392,0.0-288.0,"""","<div style=""font-size:60px;"">+</div>","""",256,ITI,Test,null,1000,"""","""","""","""","""","""","""","""",1,4/20/2021 15:22,31.205.112.174,Mozilla/5.0 (Windows NT 10.0; Win64; x64; rv:88.0) Gecko/20100101 Firefox/88.0,,Firefox,88,Windows,10
58,1,null,"""",image-keyboard-response,289,650652,0.0-289.0,"""",jspsych/scrambledDisgustFaces/scrambledAF23DIS.JPG,"""",256,forwardMask,Test,null,250,"""",d,"""","""","""","""","""","""",1,4/20/2021 15:22,31.205.112.174,Mozilla/5.0 (Windows NT 10.0; Win64; x64; rv:88.0) Gecko/20100101 Firefox/88.0,,Firefox,88,Windows,10
58,1,null,"""",image-keyboard-response,290,650672,0.0-290.0,"""",jspsych/disgustFaces/AF23DIS.JPG,"""",256,Cue,Test,null,16,"""","""","""","""","""","""","""","""",1,4/20/2021 15:22,31.205.112.174,Mozilla/5.0 (Windows NT 10.0; Win64; x64; rv:88.0) Gecko/20100101 Firefox/88.0,,Firefox,88,Windows,10
58,1,null,"""",image-keyboard-response,291,650791,0.0-291.0,"""",jspsych/neutralFaces/AF20NES.JPG,"""",256,backwardMask,Test,null,100,"""","""","""","""","""","""","""","""",1,4/20/2021 15:22,31.205.112.174,Mozilla/5.0 (Windows NT 10.0; Win64; x64; rv:88.0) Gecko/20100101 Firefox/88.0,,Firefox,88,Windows,10
58,1,null,"""",html-keyboard-response,292,651793,0.0-292.0,"""","<div style=""font-size:60px;"">+</div>","""",256,fixationBtwnNeutralMaskAndPrompt,Test,null,1000,"""","""","""","""","""","""","""","""",1,4/20/2021 15:22,31.205.112.174,Mozilla/5.0 (Windows NT 10.0; Win64; x64; rv:88.0) Gecko/20100101 Firefox/88.0,,Firefox,88,Windows,10
58,1,1887,"""",html-button-response,293,653682,0.0-293.0,"""","<img src='jspsych/CFDfaces/CFD-WM-019-003-N.jpg' height=""250px"">,</br><b>Juan</b>",0,256,IntactOrRearranged,Test,"""","""","""","""",CFD-WF-218-087-N.jpg,Jasmine,0,0,"""","""",1,4/20/2021 15:22,31.205.112.174,Mozilla/5.0 (Windows NT 10.0; Win64; x64; rv:88.0) Gecko/20100101 Firefox/88.0,,Firefox,88,Windows,10
58,1,null,"""",html-slider-response,294,658692,0.0-294.0,"""","<img src='jspsych/CFDfaces/CFD-WM-019-003-N.jpg' height=""250px"">,</br><b>Juan</b>","""",256,ConfidenceQuery,Test,"""","""","""","""",CFD-WF-218-087-N.jpg,Jasmine,0,"""",0,null,1,4/20/2021 15:22,31.205.112.174,Mozilla/5.0 (Windows NT 10.0; Win64; x64; rv:88.0) Gecko/20100101 Firefox/88.0,,Firefox,88,Windows,10
58,1,null,"""",html-keyboard-response,295,659712,0.0-295.0,"""","<div style=""font-size:60px;"">+</div>","""",256,ITI,Test,null,1000,"""","""","""","""","""","""","""","""",1,4/20/2021 15:22,31.205.112.174,Mozilla/5.0 (Windows NT 10.0; Win64; x64; rv:88.0) Gecko/20100101 Firefox/88.0,,Firefox,88,Windows,10
