run_id,condition,rt,responses,trial_type,trial_index,time_elapsed,internal_node_id,question_order,stimulus,button_pressed,iTrial,Phase,ExperimentPhase,key_press,StimulusDurationSetting,CharacterResponse,correctResponse,Face,Name,rearranged,slider_start,response,didSubjectEnterRearranged,Block,recorded_at,ip,user_agent,device,browser,browser_version,platform,platform_version
232,1,20050,"{""Q0"":""A3BAWEUNMUZDE7""}",survey-text,0,20058,0.0-0.0,"""","""","""","""","""","""","""","""","""","""","""","""","""","""","""","""","""",5/2/2021 17:36,223.182.193.232,Mozilla/5.0 (Windows NT 10.0; Win64; x64; rv:88.0) Gecko/20100101 Firefox/88.0,,Firefox,88,Windows,10
232,1,7063,"{""Q0"":""30""}",survey-text,1,27149,0.0-1.0,"""","""","""","""","""","""","""","""","""","""","""","""","""","""","""","""","""",5/2/2021 17:36,223.182.193.232,Mozilla/5.0 (Windows NT 10.0; Win64; x64; rv:88.0) Gecko/20100101 Firefox/88.0,,Firefox,88,Windows,10
232,1,9099,"{""Q0"":""female"",""Q1"":""Not Hispanic/Latino"",""Q2"":""White or Caucasian""}",survey-multi-choice,2,36260,0.0-2.0,"[0,1,2]","""","""","""","""","""","""","""","""","""","""","""","""","""","""","""","""",5/2/2021 17:36,223.182.193.232,Mozilla/5.0 (Windows NT 10.0; Win64; x64; rv:88.0) Gecko/20100101 Firefox/88.0,,Firefox,88,Windows,10
232,1,222901,"""",image-button-response,3,259199,0.0-3.0,"""",directionsMemoryAssociation1.JPG,0,1,IntroDirections1,break,"""","""","""","""","""","""","""","""","""","""","""",5/2/2021 17:36,223.182.193.232,Mozilla/5.0 (Windows NT 10.0; Win64; x64; rv:88.0) Gecko/20100101 Firefox/88.0,,Firefox,88,Windows,10
232,1,59600,"""",image-button-response,4,318814,0.0-4.0,"""",directionsMemoryAssociation2.JPG,0,1,IntroDirections2,break,"""","""","""","""","""","""","""","""","""","""","""",5/2/2021 17:36,223.182.193.232,Mozilla/5.0 (Windows NT 10.0; Win64; x64; rv:88.0) Gecko/20100101 Firefox/88.0,,Firefox,88,Windows,10
232,1,null,"""",html-keyboard-response,5,323833,0.0-5.0,"""","<img src='jspsych/CFDfaces/CFD-AF-214-139-N.jpg' height=""250px"">,</br><b>Tara</b>","""",1,IntactFace,Practice,null,5000,"""","""","""","""","""","""","""","""","""",5/2/2021 17:36,223.182.193.232,Mozilla/5.0 (Windows NT 10.0; Win64; x64; rv:88.0) Gecko/20100101 Firefox/88.0,,Firefox,88,Windows,10
232,1,null,"""",html-keyboard-response,6,324340,0.0-6.0,"""","<div style=""font-size:60px;"">+</div>","""",1,ITI,Practice,null,1000,"""","""","""","""","""","""","""","""","""",5/2/2021 17:36,223.182.193.232,Mozilla/5.0 (Windows NT 10.0; Win64; x64; rv:88.0) Gecko/20100101 Firefox/88.0,,Firefox,88,Windows,10
232,1,2813,"""",html-keyboard-response,7,329348,0.0-7.0,"""","<img src='jspsych/CFDfaces/CFD-WM-006-002-N.jpg' height=""250px"">,</br><b>Marcus</b>","""",2,IntactFace,Practice,70,5000,f,"""","""","""","""","""","""","""","""",5/2/2021 17:36,223.182.193.232,Mozilla/5.0 (Windows NT 10.0; Win64; x64; rv:88.0) Gecko/20100101 Firefox/88.0,,Firefox,88,Windows,10
232,1,null,"""",html-keyboard-response,8,329856,0.0-8.0,"""","<div style=""font-size:60px;"">+</div>","""",2,ITI,Practice,null,1000,"""","""","""","""","""","""","""","""","""",5/2/2021 17:36,223.182.193.232,Mozilla/5.0 (Windows NT 10.0; Win64; x64; rv:88.0) Gecko/20100101 Firefox/88.0,,Firefox,88,Windows,10
232,1,1954,"""",html-keyboard-response,9,334864,0.0-9.0,"""","<img src='jspsych/CFDfaces/CFD-LF-205-100-N.jpg' height=""250px"">,</br><b>Katelyn</b>","""",3,IntactFace,Practice,70,5000,f,"""","""","""","""","""","""","""","""",5/2/2021 17:36,223.182.193.232,Mozilla/5.0 (Windows NT 10.0; Win64; x64; rv:88.0) Gecko/20100101 Firefox/88.0,,Firefox,88,Windows,10
232,1,null,"""",html-keyboard-response,10,335372,0.0-10.0,"""","<div style=""font-size:60px;"">+</div>","""",3,ITI,Practice,null,1000,"""","""","""","""","""","""","""","""","""",5/2/2021 17:36,223.182.193.232,Mozilla/5.0 (Windows NT 10.0; Win64; x64; rv:88.0) Gecko/20100101 Firefox/88.0,,Firefox,88,Windows,10
232,1,2395,"""",html-keyboard-response,11,340381,0.0-11.0,"""","<img src='jspsych/CFDfaces/CFD-AM-248-104-N.jpg' height=""250px"">,</br><b>Samuel</b>","""",4,IntactFace,Practice,70,5000,f,"""","""","""","""","""","""","""","""",5/2/2021 17:36,223.182.193.232,Mozilla/5.0 (Windows NT 10.0; Win64; x64; rv:88.0) Gecko/20100101 Firefox/88.0,,Firefox,88,Windows,10
232,1,null,"""",html-keyboard-response,12,340892,0.0-12.0,"""","<div style=""font-size:60px;"">+</div>","""",4,ITI,Practice,null,1000,"""","""","""","""","""","""","""","""","""",5/2/2021 17:36,223.182.193.232,Mozilla/5.0 (Windows NT 10.0; Win64; x64; rv:88.0) Gecko/20100101 Firefox/88.0,,Firefox,88,Windows,10
232,1,4389,"""",html-keyboard-response,13,345896,0.0-13.0,"""","<img src='jspsych/CFDfaces/CFD-AF-241-141-N.jpg' height=""250px"">,</br><b>Shannon</b>","""",5,IntactFace,Practice,78,5000,n,"""","""","""","""","""","""","""","""",5/2/2021 17:36,223.182.193.232,Mozilla/5.0 (Windows NT 10.0; Win64; x64; rv:88.0) Gecko/20100101 Firefox/88.0,,Firefox,88,Windows,10
232,1,null,"""",html-keyboard-response,14,346404,0.0-14.0,"""","<div style=""font-size:60px;"">+</div>","""",5,ITI,Practice,null,1000,"""","""","""","""","""","""","""","""","""",5/2/2021 17:36,223.182.193.232,Mozilla/5.0 (Windows NT 10.0; Win64; x64; rv:88.0) Gecko/20100101 Firefox/88.0,,Firefox,88,Windows,10
232,1,2846,"""",html-keyboard-response,15,351412,0.0-15.0,"""","<img src='jspsych/CFDfaces/CFD-LM-200-045-N.jpg' height=""250px"">,</br><b>Carlos</b>","""",6,IntactFace,Practice,70,5000,f,"""","""","""","""","""","""","""","""",5/2/2021 17:36,223.182.193.232,Mozilla/5.0 (Windows NT 10.0; Win64; x64; rv:88.0) Gecko/20100101 Firefox/88.0,,Firefox,88,Windows,10
232,1,null,"""",html-keyboard-response,16,351923,0.0-16.0,"""","<div style=""font-size:60px;"">+</div>","""",6,ITI,Practice,null,1000,"""","""","""","""","""","""","""","""","""",5/2/2021 17:36,223.182.193.232,Mozilla/5.0 (Windows NT 10.0; Win64; x64; rv:88.0) Gecko/20100101 Firefox/88.0,,Firefox,88,Windows,10
232,1,3216,"""",html-keyboard-response,17,356929,0.0-17.0,"""","<img src='jspsych/CFDfaces/CFD-BF-004-014-N.jpg' height=""250px"">,</br><b>Cassandra</b>","""",7,IntactFace,Practice,70,5000,f,"""","""","""","""","""","""","""","""",5/2/2021 17:36,223.182.193.232,Mozilla/5.0 (Windows NT 10.0; Win64; x64; rv:88.0) Gecko/20100101 Firefox/88.0,,Firefox,88,Windows,10
232,1,null,"""",html-keyboard-response,18,357436,0.0-18.0,"""","<div style=""font-size:60px;"">+</div>","""",7,ITI,Practice,null,1000,"""","""","""","""","""","""","""","""","""",5/2/2021 17:36,223.182.193.232,Mozilla/5.0 (Windows NT 10.0; Win64; x64; rv:88.0) Gecko/20100101 Firefox/88.0,,Firefox,88,Windows,10
232,1,2502,"""",html-keyboard-response,19,362444,0.0-19.0,"""","<img src='jspsych/CFDfaces/CFD-WM-216-061-N.jpg' height=""250px"">,</br><b>Patrick</b>","""",8,IntactFace,Practice,70,5000,f,"""","""","""","""","""","""","""","""",5/2/2021 17:36,223.182.193.232,Mozilla/5.0 (Windows NT 10.0; Win64; x64; rv:88.0) Gecko/20100101 Firefox/88.0,,Firefox,88,Windows,10
232,1,null,"""",html-keyboard-response,20,362953,0.0-20.0,"""","<div style=""font-size:60px;"">+</div>","""",8,ITI,Practice,null,1000,"""","""","""","""","""","""","""","""","""",5/2/2021 17:36,223.182.193.232,Mozilla/5.0 (Windows NT 10.0; Win64; x64; rv:88.0) Gecko/20100101 Firefox/88.0,,Firefox,88,Windows,10
232,1,4492,"""",image-button-response,21,367455,0.0-21.0,"""",directionsForTest.JPG,0,1,directionsForTest,break,"""","""","""","""","""","""","""","""","""","""","""",5/2/2021 17:36,223.182.193.232,Mozilla/5.0 (Windows NT 10.0; Win64; x64; rv:88.0) Gecko/20100101 Firefox/88.0,,Firefox,88,Windows,10
232,1,19815,"""",image-button-response,22,387286,0.0-22.0,"""",directionsForTest2.JPG,0,1,directionsForTest2,break,"""","""","""","""","""","""","""","""","""","""","""",5/2/2021 17:36,223.182.193.232,Mozilla/5.0 (Windows NT 10.0; Win64; x64; rv:88.0) Gecko/20100101 Firefox/88.0,,Firefox,88,Windows,10
232,1,null,"""",html-keyboard-response,23,388300,0.0-23.0,"""","<div style=""font-size:60px;"">+</div>","""",1,ITI,Practice,null,1000,"""","""","""","""","""","""","""","""","""",5/2/2021 17:36,223.182.193.232,Mozilla/5.0 (Windows NT 10.0; Win64; x64; rv:88.0) Gecko/20100101 Firefox/88.0,,Firefox,88,Windows,10
232,1,null,"""",image-keyboard-response,24,388564,0.0-24.0,"""",jspsych/scrambledNeutralFaces/scrambledBF34NES.JPG,"""",1,forwardMask,Practice,null,250,"""",n,"""","""","""","""","""","""","""",5/2/2021 17:36,223.182.193.232,Mozilla/5.0 (Windows NT 10.0; Win64; x64; rv:88.0) Gecko/20100101 Firefox/88.0,,Firefox,88,Windows,10
232,1,null,"""",image-keyboard-response,25,388593,0.0-25.0,"""",jspsych/neutralFaces/BF34NES.JPG,"""",1,Cue,Practice,null,16,"""","""","""","""","""","""","""","""","""",5/2/2021 17:36,223.182.193.232,Mozilla/5.0 (Windows NT 10.0; Win64; x64; rv:88.0) Gecko/20100101 Firefox/88.0,,Firefox,88,Windows,10
232,1,null,"""",image-keyboard-response,26,388702,0.0-26.0,"""",jspsych/neutralFaces/BF15NES.JPG,"""",1,backwardMask,Practice,null,100,"""","""","""","""","""","""","""","""","""",5/2/2021 17:36,223.182.193.232,Mozilla/5.0 (Windows NT 10.0; Win64; x64; rv:88.0) Gecko/20100101 Firefox/88.0,,Firefox,88,Windows,10
232,1,null,"""",html-keyboard-response,27,389712,0.0-27.0,"""","<div style=""font-size:60px;"">+</div>","""",1,fixationBtwnNeutralMaskAndPrompt,Practice,null,1000,"""","""","""","""","""","""","""","""","""",5/2/2021 17:36,223.182.193.232,Mozilla/5.0 (Windows NT 10.0; Win64; x64; rv:88.0) Gecko/20100101 Firefox/88.0,,Firefox,88,Windows,10
232,1,null,"""",html-button-response,28,394721,0.0-28.0,"""","<img src='jspsych/CFDfaces/CFD-AM-248-104-N.jpg'height=""250px""></br><b>Samuel</b>",null,1,IntactOrRearranged,Practice,"""","""","""","""",CFD-AM-248-104-N.jpg,Samuel,0,"""","""","""","""",5/2/2021 17:36,223.182.193.232,Mozilla/5.0 (Windows NT 10.0; Win64; x64; rv:88.0) Gecko/20100101 Firefox/88.0,,Firefox,88,Windows,10
232,1,null,"""",html-slider-response,29,399748,0.0-29.0,"""","<img src='jspsych/CFDfaces/CFD-AM-248-104-N.jpg'height=""250px""></br><b>Samuel</b>","""",1,ConfidenceQuery,Practice,"""","""","""","""",CFD-BF-212-315-N.jpg,Lauren,0,0,null,"""","""",5/2/2021 17:36,223.182.193.232,Mozilla/5.0 (Windows NT 10.0; Win64; x64; rv:88.0) Gecko/20100101 Firefox/88.0,,Firefox,88,Windows,10
232,1,2970,"""",html-button-response,30,402723,0.0-30.0,"""",<p>Please click either button: REARRANGED or INTACT before the 5-second time limit.</p>,0,1,feedback,Practice,"""","""","""","""","""","""","""","""","""","""","""",5/2/2021 17:36,223.182.193.232,Mozilla/5.0 (Windows NT 10.0; Win64; x64; rv:88.0) Gecko/20100101 Firefox/88.0,,Firefox,88,Windows,10
232,1,null,"""",html-keyboard-response,31,403734,0.0-31.0,"""","<div style=""font-size:60px;"">+</div>","""",2,ITI,Practice,null,1000,"""","""","""","""","""","""","""","""","""",5/2/2021 17:36,223.182.193.232,Mozilla/5.0 (Windows NT 10.0; Win64; x64; rv:88.0) Gecko/20100101 Firefox/88.0,,Firefox,88,Windows,10
232,1,null,"""",image-keyboard-response,32,403994,0.0-32.0,"""",jspsych/scrambledDisgustFaces/scrambledAM35DIS.JPG,"""",2,forwardMask,Practice,null,250,"""",d,"""","""","""","""","""","""","""",5/2/2021 17:36,223.182.193.232,Mozilla/5.0 (Windows NT 10.0; Win64; x64; rv:88.0) Gecko/20100101 Firefox/88.0,,Firefox,88,Windows,10
232,1,null,"""",image-keyboard-response,33,404025,0.0-33.0,"""",jspsych/disgustFaces/AM35DIS.JPG,"""",2,Cue,Practice,null,16,"""","""","""","""","""","""","""","""","""",5/2/2021 17:36,223.182.193.232,Mozilla/5.0 (Windows NT 10.0; Win64; x64; rv:88.0) Gecko/20100101 Firefox/88.0,,Firefox,88,Windows,10
232,1,null,"""",image-keyboard-response,34,404139,0.0-34.0,"""",jspsych/neutralFaces/BM33NES.JPG,"""",2,backwardMask,Practice,null,100,"""","""","""","""","""","""","""","""","""",5/2/2021 17:36,223.182.193.232,Mozilla/5.0 (Windows NT 10.0; Win64; x64; rv:88.0) Gecko/20100101 Firefox/88.0,,Firefox,88,Windows,10
232,1,null,"""",html-keyboard-response,35,405142,0.0-35.0,"""","<div style=""font-size:60px;"">+</div>","""",2,fixationBtwnNeutralMaskAndPrompt,Practice,null,1000,"""","""","""","""","""","""","""","""","""",5/2/2021 17:36,223.182.193.232,Mozilla/5.0 (Windows NT 10.0; Win64; x64; rv:88.0) Gecko/20100101 Firefox/88.0,,Firefox,88,Windows,10
232,1,4857,"""",html-button-response,36,410002,0.0-36.0,"""","<img src='jspsych/CFDfaces/CFD-AF-241-141-N.jpg'height=""250px""></br><b>Shannon</b>",1,2,IntactOrRearranged,Practice,"""","""","""","""",CFD-AF-241-141-N.jpg,Shannon,0,"""","""",1,"""",5/2/2021 17:36,223.182.193.232,Mozilla/5.0 (Windows NT 10.0; Win64; x64; rv:88.0) Gecko/20100101 Firefox/88.0,,Firefox,88,Windows,10
232,1,3102,"""",html-slider-response,37,413114,0.0-37.0,"""","<img src='jspsych/CFDfaces/CFD-AF-241-141-N.jpg'height=""250px""></br><b>Shannon</b>","""",2,ConfidenceQuery,Practice,"""","""","""","""",CFD-BF-212-315-N.jpg,Lauren,0,0,35,"""","""",5/2/2021 17:36,223.182.193.232,Mozilla/5.0 (Windows NT 10.0; Win64; x64; rv:88.0) Gecko/20100101 Firefox/88.0,,Firefox,88,Windows,10
232,1,1555,"""",html-button-response,38,414674,0.0-38.0,"""",You are Incorrect. You Called an Intact Pair Rearranged,0,2,feedback,Practice,"""","""","""","""","""","""","""","""","""","""","""",5/2/2021 17:36,223.182.193.232,Mozilla/5.0 (Windows NT 10.0; Win64; x64; rv:88.0) Gecko/20100101 Firefox/88.0,,Firefox,88,Windows,10
232,1,null,"""",html-keyboard-response,39,415684,0.0-39.0,"""","<div style=""font-size:60px;"">+</div>","""",3,ITI,Practice,null,1000,"""","""","""","""","""","""","""","""","""",5/2/2021 17:36,223.182.193.232,Mozilla/5.0 (Windows NT 10.0; Win64; x64; rv:88.0) Gecko/20100101 Firefox/88.0,,Firefox,88,Windows,10
232,1,null,"""",image-keyboard-response,40,415961,0.0-40.0,"""",jspsych/scrambledDisgustFaces/scrambledBF06DIS.JPG,"""",3,forwardMask,Practice,null,250,"""",d,"""","""","""","""","""","""","""",5/2/2021 17:36,223.182.193.232,Mozilla/5.0 (Windows NT 10.0; Win64; x64; rv:88.0) Gecko/20100101 Firefox/88.0,,Firefox,88,Windows,10
232,1,null,"""",image-keyboard-response,41,415992,0.0-41.0,"""",jspsych/disgustFaces/BF06DIS.JPG,"""",3,Cue,Practice,null,16,"""","""","""","""","""","""","""","""","""",5/2/2021 17:36,223.182.193.232,Mozilla/5.0 (Windows NT 10.0; Win64; x64; rv:88.0) Gecko/20100101 Firefox/88.0,,Firefox,88,Windows,10
232,1,null,"""",image-keyboard-response,42,416103,0.0-42.0,"""",jspsych/neutralFaces/AF24NES.JPG,"""",3,backwardMask,Practice,null,100,"""","""","""","""","""","""","""","""","""",5/2/2021 17:36,223.182.193.232,Mozilla/5.0 (Windows NT 10.0; Win64; x64; rv:88.0) Gecko/20100101 Firefox/88.0,,Firefox,88,Windows,10
232,1,null,"""",html-keyboard-response,43,417109,0.0-43.0,"""","<div style=""font-size:60px;"">+</div>","""",3,fixationBtwnNeutralMaskAndPrompt,Practice,null,1000,"""","""","""","""","""","""","""","""","""",5/2/2021 17:36,223.182.193.232,Mozilla/5.0 (Windows NT 10.0; Win64; x64; rv:88.0) Gecko/20100101 Firefox/88.0,,Firefox,88,Windows,10
232,1,2497,"""",html-button-response,44,419609,0.0-44.0,"""","<img src='jspsych/CFDfaces/CFD-BF-004-014-N.jpg'height=""250px""></br><b>Katelyn</b>",0,3,IntactOrRearranged,Practice,"""","""","""","""",CFD-BF-004-014-N.jpg,Katelyn,1,"""","""",0,"""",5/2/2021 17:36,223.182.193.232,Mozilla/5.0 (Windows NT 10.0; Win64; x64; rv:88.0) Gecko/20100101 Firefox/88.0,,Firefox,88,Windows,10
232,1,3098,"""",html-slider-response,45,422712,0.0-45.0,"""","<img src='jspsych/CFDfaces/CFD-BF-004-014-N.jpg'height=""250px""></br><b>Katelyn</b>","""",3,ConfidenceQuery,Practice,"""","""","""","""",CFD-BF-212-315-N.jpg,Lauren,1,0,84,"""","""",5/2/2021 17:36,223.182.193.232,Mozilla/5.0 (Windows NT 10.0; Win64; x64; rv:88.0) Gecko/20100101 Firefox/88.0,,Firefox,88,Windows,10
232,1,4135,"""",html-button-response,46,426855,0.0-46.0,"""",You are Incorrect. You called a Rearranged Pair Intact,0,3,feedback,Practice,"""","""","""","""","""","""","""","""","""","""","""",5/2/2021 17:36,223.182.193.232,Mozilla/5.0 (Windows NT 10.0; Win64; x64; rv:88.0) Gecko/20100101 Firefox/88.0,,Firefox,88,Windows,10
232,1,null,"""",html-keyboard-response,47,427867,0.0-47.0,"""","<div style=""font-size:60px;"">+</div>","""",4,ITI,Practice,null,1000,"""","""","""","""","""","""","""","""","""",5/2/2021 17:36,223.182.193.232,Mozilla/5.0 (Windows NT 10.0; Win64; x64; rv:88.0) Gecko/20100101 Firefox/88.0,,Firefox,88,Windows,10
232,1,null,"""",image-keyboard-response,48,428131,0.0-48.0,"""",jspsych/scrambledDisgustFaces/scrambledAM24DIS.JPG,"""",4,forwardMask,Practice,null,250,"""",d,"""","""","""","""","""","""","""",5/2/2021 17:36,223.182.193.232,Mozilla/5.0 (Windows NT 10.0; Win64; x64; rv:88.0) Gecko/20100101 Firefox/88.0,,Firefox,88,Windows,10
232,1,null,"""",image-keyboard-response,49,428161,0.0-49.0,"""",jspsych/disgustFaces/AM24DIS.JPG,"""",4,Cue,Practice,null,16,"""","""","""","""","""","""","""","""","""",5/2/2021 17:36,223.182.193.232,Mozilla/5.0 (Windows NT 10.0; Win64; x64; rv:88.0) Gecko/20100101 Firefox/88.0,,Firefox,88,Windows,10
232,1,null,"""",image-keyboard-response,50,428284,0.0-50.0,"""",jspsych/neutralFaces/AM28NES.JPG,"""",4,backwardMask,Practice,null,100,"""","""","""","""","""","""","""","""","""",5/2/2021 17:36,223.182.193.232,Mozilla/5.0 (Windows NT 10.0; Win64; x64; rv:88.0) Gecko/20100101 Firefox/88.0,,Firefox,88,Windows,10
232,1,null,"""",html-keyboard-response,51,429289,0.0-51.0,"""","<div style=""font-size:60px;"">+</div>","""",4,fixationBtwnNeutralMaskAndPrompt,Practice,null,1000,"""","""","""","""","""","""","""","""","""",5/2/2021 17:36,223.182.193.232,Mozilla/5.0 (Windows NT 10.0; Win64; x64; rv:88.0) Gecko/20100101 Firefox/88.0,,Firefox,88,Windows,10
232,1,null,"""",html-button-response,52,434298,0.0-52.0,"""","<img src='jspsych/CFDfaces/CFD-WM-006-002-N.jpg'height=""250px""></br><b>Carlos</b>",null,4,IntactOrRearranged,Practice,"""","""","""","""",CFD-WM-006-002-N.jpg,Carlos,1,"""","""","""","""",5/2/2021 17:36,223.182.193.232,Mozilla/5.0 (Windows NT 10.0; Win64; x64; rv:88.0) Gecko/20100101 Firefox/88.0,,Firefox,88,Windows,10
232,1,4197,"""",html-slider-response,53,438510,0.0-53.0,"""","<img src='jspsych/CFDfaces/CFD-WM-006-002-N.jpg'height=""250px""></br><b>Carlos</b>","""",4,ConfidenceQuery,Practice,"""","""","""","""",CFD-BF-212-315-N.jpg,Lauren,1,0,33,"""","""",5/2/2021 17:36,223.182.193.232,Mozilla/5.0 (Windows NT 10.0; Win64; x64; rv:88.0) Gecko/20100101 Firefox/88.0,,Firefox,88,Windows,10
232,1,2812,"""",html-button-response,54,441325,0.0-54.0,"""",<p>Please click either button: REARRANGED or INTACT before the 5-second time limit.</p>,0,4,feedback,Practice,"""","""","""","""","""","""","""","""","""","""","""",5/2/2021 17:36,223.182.193.232,Mozilla/5.0 (Windows NT 10.0; Win64; x64; rv:88.0) Gecko/20100101 Firefox/88.0,,Firefox,88,Windows,10
232,1,null,"""",html-keyboard-response,55,442336,0.0-55.0,"""","<div style=""font-size:60px;"">+</div>","""",5,ITI,Practice,null,1000,"""","""","""","""","""","""","""","""","""",5/2/2021 17:36,223.182.193.232,Mozilla/5.0 (Windows NT 10.0; Win64; x64; rv:88.0) Gecko/20100101 Firefox/88.0,,Firefox,88,Windows,10
232,1,null,"""",image-keyboard-response,56,442598,0.0-56.0,"""",jspsych/scrambledNeutralFaces/scrambledBF21NES.JPG,"""",5,forwardMask,Practice,null,250,"""",n,"""","""","""","""","""","""","""",5/2/2021 17:36,223.182.193.232,Mozilla/5.0 (Windows NT 10.0; Win64; x64; rv:88.0) Gecko/20100101 Firefox/88.0,,Firefox,88,Windows,10
232,1,null,"""",image-keyboard-response,57,442630,0.0-57.0,"""",jspsych/neutralFaces/BF21NES.JPG,"""",5,Cue,Practice,null,16,"""","""","""","""","""","""","""","""","""",5/2/2021 17:36,223.182.193.232,Mozilla/5.0 (Windows NT 10.0; Win64; x64; rv:88.0) Gecko/20100101 Firefox/88.0,,Firefox,88,Windows,10
232,1,null,"""",image-keyboard-response,58,442740,0.0-58.0,"""",jspsych/neutralFaces/AF13NES.JPG,"""",5,backwardMask,Practice,null,100,"""","""","""","""","""","""","""","""","""",5/2/2021 17:36,223.182.193.232,Mozilla/5.0 (Windows NT 10.0; Win64; x64; rv:88.0) Gecko/20100101 Firefox/88.0,,Firefox,88,Windows,10
232,1,null,"""",html-keyboard-response,59,443746,0.0-59.0,"""","<div style=""font-size:60px;"">+</div>","""",5,fixationBtwnNeutralMaskAndPrompt,Practice,null,1000,"""","""","""","""","""","""","""","""","""",5/2/2021 17:36,223.182.193.232,Mozilla/5.0 (Windows NT 10.0; Win64; x64; rv:88.0) Gecko/20100101 Firefox/88.0,,Firefox,88,Windows,10
232,1,3257,"""",html-button-response,60,447006,0.0-60.0,"""","<img src='jspsych/CFDfaces/CFD-LF-205-100-N.jpg'height=""250px""></br><b>Cassandra</b>",1,5,IntactOrRearranged,Practice,"""","""","""","""",CFD-LF-205-100-N.jpg,Cassandra,1,"""","""",1,"""",5/2/2021 17:36,223.182.193.232,Mozilla/5.0 (Windows NT 10.0; Win64; x64; rv:88.0) Gecko/20100101 Firefox/88.0,,Firefox,88,Windows,10
232,1,3814,"""",html-slider-response,61,450846,0.0-61.0,"""","<img src='jspsych/CFDfaces/CFD-LF-205-100-N.jpg'height=""250px""></br><b>Cassandra</b>","""",5,ConfidenceQuery,Practice,"""","""","""","""",CFD-BF-212-315-N.jpg,Lauren,1,0,84,"""","""",5/2/2021 17:36,223.182.193.232,Mozilla/5.0 (Windows NT 10.0; Win64; x64; rv:88.0) Gecko/20100101 Firefox/88.0,,Firefox,88,Windows,10
232,1,2274,"""",html-button-response,62,453125,0.0-62.0,"""",You are Correct. You Called A Rearranged Pair Rearranged,0,5,feedback,Practice,"""","""","""","""","""","""","""","""","""","""","""",5/2/2021 17:36,223.182.193.232,Mozilla/5.0 (Windows NT 10.0; Win64; x64; rv:88.0) Gecko/20100101 Firefox/88.0,,Firefox,88,Windows,10
232,1,null,"""",html-keyboard-response,63,454139,0.0-63.0,"""","<div style=""font-size:60px;"">+</div>","""",6,ITI,Practice,null,1000,"""","""","""","""","""","""","""","""","""",5/2/2021 17:36,223.182.193.232,Mozilla/5.0 (Windows NT 10.0; Win64; x64; rv:88.0) Gecko/20100101 Firefox/88.0,,Firefox,88,Windows,10
232,1,null,"""",image-keyboard-response,64,454403,0.0-64.0,"""",jspsych/scrambledNeutralFaces/scrambledAM34NES.JPG,"""",6,forwardMask,Practice,null,250,"""",n,"""","""","""","""","""","""","""",5/2/2021 17:36,223.182.193.232,Mozilla/5.0 (Windows NT 10.0; Win64; x64; rv:88.0) Gecko/20100101 Firefox/88.0,,Firefox,88,Windows,10
232,1,null,"""",image-keyboard-response,65,454435,0.0-65.0,"""",jspsych/neutralFaces/AM34NES.JPG,"""",6,Cue,Practice,null,16,"""","""","""","""","""","""","""","""","""",5/2/2021 17:36,223.182.193.232,Mozilla/5.0 (Windows NT 10.0; Win64; x64; rv:88.0) Gecko/20100101 Firefox/88.0,,Firefox,88,Windows,10
232,1,null,"""",image-keyboard-response,66,454544,0.0-66.0,"""",jspsych/neutralFaces/AM15NES.JPG,"""",6,backwardMask,Practice,null,100,"""","""","""","""","""","""","""","""","""",5/2/2021 17:36,223.182.193.232,Mozilla/5.0 (Windows NT 10.0; Win64; x64; rv:88.0) Gecko/20100101 Firefox/88.0,,Firefox,88,Windows,10
232,1,null,"""",html-keyboard-response,67,455550,0.0-67.0,"""","<div style=""font-size:60px;"">+</div>","""",6,fixationBtwnNeutralMaskAndPrompt,Practice,null,1000,"""","""","""","""","""","""","""","""","""",5/2/2021 17:36,223.182.193.232,Mozilla/5.0 (Windows NT 10.0; Win64; x64; rv:88.0) Gecko/20100101 Firefox/88.0,,Firefox,88,Windows,10
232,1,2033,"""",html-button-response,68,457588,0.0-68.0,"""","<img src='jspsych/CFDfaces/CFD-AF-214-139-N.jpg'height=""250px""></br><b>Tara</b>",1,6,IntactOrRearranged,Practice,"""","""","""","""",CFD-AF-214-139-N.jpg,Tara,0,"""","""",1,"""",5/2/2021 17:36,223.182.193.232,Mozilla/5.0 (Windows NT 10.0; Win64; x64; rv:88.0) Gecko/20100101 Firefox/88.0,,Firefox,88,Windows,10
232,1,2833,"""",html-slider-response,69,460427,0.0-69.0,"""","<img src='jspsych/CFDfaces/CFD-AF-214-139-N.jpg'height=""250px""></br><b>Tara</b>","""",6,ConfidenceQuery,Practice,"""","""","""","""",CFD-BF-212-315-N.jpg,Lauren,0,0,81,"""","""",5/2/2021 17:36,223.182.193.232,Mozilla/5.0 (Windows NT 10.0; Win64; x64; rv:88.0) Gecko/20100101 Firefox/88.0,,Firefox,88,Windows,10
232,1,1885,"""",html-button-response,70,462323,0.0-70.0,"""",You are Incorrect. You Called an Intact Pair Rearranged,0,6,feedback,Practice,"""","""","""","""","""","""","""","""","""","""","""",5/2/2021 17:36,223.182.193.232,Mozilla/5.0 (Windows NT 10.0; Win64; x64; rv:88.0) Gecko/20100101 Firefox/88.0,,Firefox,88,Windows,10
232,1,null,"""",html-keyboard-response,71,463334,0.0-71.0,"""","<div style=""font-size:60px;"">+</div>","""",7,ITI,Practice,null,1000,"""","""","""","""","""","""","""","""","""",5/2/2021 17:36,223.182.193.232,Mozilla/5.0 (Windows NT 10.0; Win64; x64; rv:88.0) Gecko/20100101 Firefox/88.0,,Firefox,88,Windows,10
232,1,null,"""",image-keyboard-response,72,463605,0.0-72.0,"""",jspsych/scrambledDisgustFaces/scrambledAM19DIS.JPG,"""",7,forwardMask,Practice,null,250,"""",d,"""","""","""","""","""","""","""",5/2/2021 17:36,223.182.193.232,Mozilla/5.0 (Windows NT 10.0; Win64; x64; rv:88.0) Gecko/20100101 Firefox/88.0,,Firefox,88,Windows,10
232,1,null,"""",image-keyboard-response,73,463633,0.0-73.0,"""",jspsych/disgustFaces/AM19DIS.JPG,"""",7,Cue,Practice,null,16,"""","""","""","""","""","""","""","""","""",5/2/2021 17:36,223.182.193.232,Mozilla/5.0 (Windows NT 10.0; Win64; x64; rv:88.0) Gecko/20100101 Firefox/88.0,,Firefox,88,Windows,10
232,1,null,"""",image-keyboard-response,74,463749,0.0-74.0,"""",jspsych/neutralFaces/AM29NES.JPG,"""",7,backwardMask,Practice,null,100,"""","""","""","""","""","""","""","""","""",5/2/2021 17:36,223.182.193.232,Mozilla/5.0 (Windows NT 10.0; Win64; x64; rv:88.0) Gecko/20100101 Firefox/88.0,,Firefox,88,Windows,10
232,1,null,"""",html-keyboard-response,75,464754,0.0-75.0,"""","<div style=""font-size:60px;"">+</div>","""",7,fixationBtwnNeutralMaskAndPrompt,Practice,null,1000,"""","""","""","""","""","""","""","""","""",5/2/2021 17:36,223.182.193.232,Mozilla/5.0 (Windows NT 10.0; Win64; x64; rv:88.0) Gecko/20100101 Firefox/88.0,,Firefox,88,Windows,10
232,1,2287,"""",html-button-response,76,467042,0.0-76.0,"""","<img src='jspsych/CFDfaces/CFD-LM-200-045-N.jpg'height=""250px""></br><b>Marcus</b>",1,7,IntactOrRearranged,Practice,"""","""","""","""",CFD-LM-200-045-N.jpg,Marcus,1,"""","""",1,"""",5/2/2021 17:36,223.182.193.232,Mozilla/5.0 (Windows NT 10.0; Win64; x64; rv:88.0) Gecko/20100101 Firefox/88.0,,Firefox,88,Windows,10
232,1,2772,"""",html-slider-response,77,469826,0.0-77.0,"""","<img src='jspsych/CFDfaces/CFD-LM-200-045-N.jpg'height=""250px""></br><b>Marcus</b>","""",7,ConfidenceQuery,Practice,"""","""","""","""",CFD-BF-212-315-N.jpg,Lauren,1,0,67,"""","""",5/2/2021 17:36,223.182.193.232,Mozilla/5.0 (Windows NT 10.0; Win64; x64; rv:88.0) Gecko/20100101 Firefox/88.0,,Firefox,88,Windows,10
232,1,1452,"""",html-button-response,78,471281,0.0-78.0,"""",You are Correct. You Called A Rearranged Pair Rearranged,0,7,feedback,Practice,"""","""","""","""","""","""","""","""","""","""","""",5/2/2021 17:36,223.182.193.232,Mozilla/5.0 (Windows NT 10.0; Win64; x64; rv:88.0) Gecko/20100101 Firefox/88.0,,Firefox,88,Windows,10
232,1,null,"""",html-keyboard-response,79,472292,0.0-79.0,"""","<div style=""font-size:60px;"">+</div>","""",8,ITI,Practice,null,1000,"""","""","""","""","""","""","""","""","""",5/2/2021 17:36,223.182.193.232,Mozilla/5.0 (Windows NT 10.0; Win64; x64; rv:88.0) Gecko/20100101 Firefox/88.0,,Firefox,88,Windows,10
232,1,null,"""",image-keyboard-response,80,472556,0.0-80.0,"""",jspsych/scrambledNeutralFaces/scrambledAF04NES.JPG,"""",8,forwardMask,Practice,null,250,"""",n,"""","""","""","""","""","""","""",5/2/2021 17:36,223.182.193.232,Mozilla/5.0 (Windows NT 10.0; Win64; x64; rv:88.0) Gecko/20100101 Firefox/88.0,,Firefox,88,Windows,10
232,1,null,"""",image-keyboard-response,81,472605,0.0-81.0,"""",jspsych/neutralFaces/AF04NES.JPG,"""",8,Cue,Practice,null,16,"""","""","""","""","""","""","""","""","""",5/2/2021 17:36,223.182.193.232,Mozilla/5.0 (Windows NT 10.0; Win64; x64; rv:88.0) Gecko/20100101 Firefox/88.0,,Firefox,88,Windows,10
232,1,null,"""",image-keyboard-response,82,472718,0.0-82.0,"""",jspsych/neutralFaces/BF09NES.JPG,"""",8,backwardMask,Practice,null,100,"""","""","""","""","""","""","""","""","""",5/2/2021 17:36,223.182.193.232,Mozilla/5.0 (Windows NT 10.0; Win64; x64; rv:88.0) Gecko/20100101 Firefox/88.0,,Firefox,88,Windows,10
232,1,null,"""",html-keyboard-response,83,473724,0.0-83.0,"""","<div style=""font-size:60px;"">+</div>","""",8,fixationBtwnNeutralMaskAndPrompt,Practice,null,1000,"""","""","""","""","""","""","""","""","""",5/2/2021 17:36,223.182.193.232,Mozilla/5.0 (Windows NT 10.0; Win64; x64; rv:88.0) Gecko/20100101 Firefox/88.0,,Firefox,88,Windows,10
232,1,2066,"""",html-button-response,84,475793,0.0-84.0,"""","<img src='jspsych/CFDfaces/CFD-WM-216-061-N.jpg'height=""250px""></br><b>Patrick</b>",1,8,IntactOrRearranged,Practice,"""","""","""","""",CFD-WM-216-061-N.jpg,Patrick,0,"""","""",1,"""",5/2/2021 17:36,223.182.193.232,Mozilla/5.0 (Windows NT 10.0; Win64; x64; rv:88.0) Gecko/20100101 Firefox/88.0,,Firefox,88,Windows,10
232,1,3283,"""",html-slider-response,85,479082,0.0-85.0,"""","<img src='jspsych/CFDfaces/CFD-WM-216-061-N.jpg'height=""250px""></br><b>Patrick</b>","""",8,ConfidenceQuery,Practice,"""","""","""","""",CFD-BF-212-315-N.jpg,Lauren,0,0,78,"""","""",5/2/2021 17:36,223.182.193.232,Mozilla/5.0 (Windows NT 10.0; Win64; x64; rv:88.0) Gecko/20100101 Firefox/88.0,,Firefox,88,Windows,10
232,1,1431,"""",html-button-response,86,480522,0.0-86.0,"""",You are Incorrect. You Called an Intact Pair Rearranged,0,8,feedback,Practice,"""","""","""","""","""","""","""","""","""","""","""",5/2/2021 17:36,223.182.193.232,Mozilla/5.0 (Windows NT 10.0; Win64; x64; rv:88.0) Gecko/20100101 Firefox/88.0,,Firefox,88,Windows,10
232,1,3188,"""",image-button-response,87,483728,0.0-87.0,"""",directionsMemoryAssociation3.JPG,0,128,DirectionsBeforeActualTEst,Break,"""","""","""","""","""","""","""","""","""","""","""",5/2/2021 17:36,223.182.193.232,Mozilla/5.0 (Windows NT 10.0; Win64; x64; rv:88.0) Gecko/20100101 Firefox/88.0,,Firefox,88,Windows,10
232,1,5042,"""",image-button-response,88,488783,0.0-88.0,"""",directionsForTest2.JPG,0,1,directionsForTest2,break,"""","""","""","""","""","""","""","""","""","""","""",5/2/2021 17:36,223.182.193.232,Mozilla/5.0 (Windows NT 10.0; Win64; x64; rv:88.0) Gecko/20100101 Firefox/88.0,,Firefox,88,Windows,10
232,1,4143,"""",html-button-response,89,492935,0.0-89.0,"""","<p>You will be asked to memorize and then recall four sets of face-name pairs. </p> <p> Each set will have 32 pairs. </p> <p>After the fourth set, there will be a brief follow-up experiment (<40 min alltogether)</p>",0,"""","""","""","""","""","""","""","""","""","""","""","""","""","""",5/2/2021 17:36,223.182.193.232,Mozilla/5.0 (Windows NT 10.0; Win64; x64; rv:88.0) Gecko/20100101 Firefox/88.0,,Firefox,88,Windows,10
232,1,2904,"""",html-keyboard-response,90,497943,0.0-90.0,"""","<img src='jspsych/CFDfaces/CFD-LF-243-175-N.jpg' height=""250px""></br><b>Julie</b>","""",256,IntactFace,Memorization,70,5000,f,"""",CFD-AM-230-150-N.jpg,Travis,0,"""","""","""",1,5/2/2021 17:36,223.182.193.232,Mozilla/5.0 (Windows NT 10.0; Win64; x64; rv:88.0) Gecko/20100101 Firefox/88.0,,Firefox,88,Windows,10
232,1,null,"""",html-keyboard-response,91,498461,0.0-91.0,"""","<div style=""font-size:60px;"">+</div>","""",256,fixation,Memorization,null,500,"""","""","""","""","""","""","""","""",1,5/2/2021 17:36,223.182.193.232,Mozilla/5.0 (Windows NT 10.0; Win64; x64; rv:88.0) Gecko/20100101 Firefox/88.0,,Firefox,88,Windows,10
232,1,null,"""",html-keyboard-response,92,503471,0.0-92.0,"""","<img src='jspsych/CFDfaces/CFD-WM-041-021-N.jpg' height=""250px""></br><b>Juan</b>","""",256,IntactFace,Memorization,null,5000,"""","""",CFD-BF-005-001-N.jpg,Whitney,0,"""","""","""",1,5/2/2021 17:36,223.182.193.232,Mozilla/5.0 (Windows NT 10.0; Win64; x64; rv:88.0) Gecko/20100101 Firefox/88.0,,Firefox,88,Windows,10
232,1,null,"""",html-keyboard-response,93,504009,0.0-93.0,"""","<div style=""font-size:60px;"">+</div>","""",256,fixation,Memorization,null,500,"""","""","""","""","""","""","""","""",1,5/2/2021 17:36,223.182.193.232,Mozilla/5.0 (Windows NT 10.0; Win64; x64; rv:88.0) Gecko/20100101 Firefox/88.0,,Firefox,88,Windows,10
232,1,2855,"""",html-keyboard-response,94,509017,0.0-94.0,"""","<img src='jspsych/CFDfaces/CFD-WF-223-133-N.jpg' height=""250px""></br><b>Meghan</b>","""",256,IntactFace,Memorization,78,5000,n,"""",CFD-BM-026-002-N.jpg,Jacob,0,"""","""","""",1,5/2/2021 17:36,223.182.193.232,Mozilla/5.0 (Windows NT 10.0; Win64; x64; rv:88.0) Gecko/20100101 Firefox/88.0,,Firefox,88,Windows,10
232,1,null,"""",html-keyboard-response,95,509534,0.0-95.0,"""","<div style=""font-size:60px;"">+</div>","""",256,fixation,Memorization,null,500,"""","""","""","""","""","""","""","""",1,5/2/2021 17:36,223.182.193.232,Mozilla/5.0 (Windows NT 10.0; Win64; x64; rv:88.0) Gecko/20100101 Firefox/88.0,,Firefox,88,Windows,10
232,1,1731,"""",html-keyboard-response,96,514542,0.0-96.0,"""","<img src='jspsych/CFDfaces/CFD-LM-223-175-N.jpg' height=""250px""></br><b>Peter</b>","""",256,IntactFace,Memorization,70,5000,f,"""",CFD-LF-231-260-N.jpg,Lauren,0,"""","""","""",1,5/2/2021 17:36,223.182.193.232,Mozilla/5.0 (Windows NT 10.0; Win64; x64; rv:88.0) Gecko/20100101 Firefox/88.0,,Firefox,88,Windows,10
232,1,null,"""",html-keyboard-response,97,515061,0.0-97.0,"""","<div style=""font-size:60px;"">+</div>","""",256,fixation,Memorization,null,500,"""","""","""","""","""","""","""","""",1,5/2/2021 17:36,223.182.193.232,Mozilla/5.0 (Windows NT 10.0; Win64; x64; rv:88.0) Gecko/20100101 Firefox/88.0,,Firefox,88,Windows,10
232,1,2302,"""",html-keyboard-response,98,520068,0.0-98.0,"""","<img src='jspsych/CFDfaces/CFD-WM-207-048-N.jpg' height=""250px""></br><b>Nicholas</b>","""",256,IntactFace,Memorization,70,5000,f,"""",CFD-BM-207-024-N.jpg,Mark,0,"""","""","""",1,5/2/2021 17:36,223.182.193.232,Mozilla/5.0 (Windows NT 10.0; Win64; x64; rv:88.0) Gecko/20100101 Firefox/88.0,,Firefox,88,Windows,10
232,1,null,"""",html-keyboard-response,99,520586,0.0-99.0,"""","<div style=""font-size:60px;"">+</div>","""",256,fixation,Memorization,null,500,"""","""","""","""","""","""","""","""",1,5/2/2021 17:36,223.182.193.232,Mozilla/5.0 (Windows NT 10.0; Win64; x64; rv:88.0) Gecko/20100101 Firefox/88.0,,Firefox,88,Windows,10
232,1,1336,"""",html-keyboard-response,100,525597,0.0-100.0,"""","<img src='jspsych/CFDfaces/CFD-LM-234-176-N.jpg' height=""250px""></br><b>Richard</b>","""",256,IntactFace,Memorization,70,5000,f,"""",CFD-AF-230-193-N.jpg,Heather,0,"""","""","""",1,5/2/2021 17:36,223.182.193.232,Mozilla/5.0 (Windows NT 10.0; Win64; x64; rv:88.0) Gecko/20100101 Firefox/88.0,,Firefox,88,Windows,10
232,1,null,"""",html-keyboard-response,101,526113,0.0-101.0,"""","<div style=""font-size:60px;"">+</div>","""",256,fixation,Memorization,null,500,"""","""","""","""","""","""","""","""",1,5/2/2021 17:36,223.182.193.232,Mozilla/5.0 (Windows NT 10.0; Win64; x64; rv:88.0) Gecko/20100101 Firefox/88.0,,Firefox,88,Windows,10
232,1,2724,"""",html-keyboard-response,102,531121,0.0-102.0,"""","<img src='jspsych/CFDfaces/CFD-WF-023-003-N.jpg' height=""250px""></br><b>Amanda</b>","""",256,IntactFace,Memorization,70,5000,f,"""",CFD-BM-211-174-N.jpg,Ryan,0,"""","""","""",1,5/2/2021 17:36,223.182.193.232,Mozilla/5.0 (Windows NT 10.0; Win64; x64; rv:88.0) Gecko/20100101 Firefox/88.0,,Firefox,88,Windows,10
232,1,null,"""",html-keyboard-response,103,531639,0.0-103.0,"""","<div style=""font-size:60px;"">+</div>","""",256,fixation,Memorization,null,500,"""","""","""","""","""","""","""","""",1,5/2/2021 17:36,223.182.193.232,Mozilla/5.0 (Windows NT 10.0; Win64; x64; rv:88.0) Gecko/20100101 Firefox/88.0,,Firefox,88,Windows,10
232,1,2650,"""",html-keyboard-response,104,536646,0.0-104.0,"""","<img src='jspsych/CFDfaces/CFD-LM-213-061-N.jpg' height=""250px""></br><b>Gregory</b>","""",256,IntactFace,Memorization,70,5000,f,"""",CFD-AF-208-003-N.jpg,Rebecca,0,"""","""","""",1,5/2/2021 17:36,223.182.193.232,Mozilla/5.0 (Windows NT 10.0; Win64; x64; rv:88.0) Gecko/20100101 Firefox/88.0,,Firefox,88,Windows,10
232,1,null,"""",html-keyboard-response,105,537154,0.0-105.0,"""","<div style=""font-size:60px;"">+</div>","""",256,fixation,Memorization,null,500,"""","""","""","""","""","""","""","""",1,5/2/2021 17:36,223.182.193.232,Mozilla/5.0 (Windows NT 10.0; Win64; x64; rv:88.0) Gecko/20100101 Firefox/88.0,,Firefox,88,Windows,10
232,1,1282,"""",html-keyboard-response,106,542164,0.0-106.0,"""","<img src='jspsych/CFDfaces/CFD-AM-202-079-N.jpg' height=""250px""></br><b>James</b>","""",256,IntactFace,Memorization,70,5000,f,"""",CFD-WF-024-003-N.jpg,Tiffany,0,"""","""","""",1,5/2/2021 17:36,223.182.193.232,Mozilla/5.0 (Windows NT 10.0; Win64; x64; rv:88.0) Gecko/20100101 Firefox/88.0,,Firefox,88,Windows,10
232,1,null,"""",html-keyboard-response,107,542681,0.0-107.0,"""","<div style=""font-size:60px;"">+</div>","""",256,fixation,Memorization,null,500,"""","""","""","""","""","""","""","""",1,5/2/2021 17:36,223.182.193.232,Mozilla/5.0 (Windows NT 10.0; Win64; x64; rv:88.0) Gecko/20100101 Firefox/88.0,,Firefox,88,Windows,10
232,1,2317,"""",html-keyboard-response,108,547693,0.0-108.0,"""","<img src='jspsych/CFDfaces/CFD-AF-239-171-N.jpg' height=""250px""></br><b>Brittany</b>","""",256,IntactFace,Memorization,70,5000,f,"""",CFD-WM-011-002-N.jpg,Vincent,0,"""","""","""",1,5/2/2021 17:36,223.182.193.232,Mozilla/5.0 (Windows NT 10.0; Win64; x64; rv:88.0) Gecko/20100101 Firefox/88.0,,Firefox,88,Windows,10
232,1,null,"""",html-keyboard-response,109,548207,0.0-109.0,"""","<div style=""font-size:60px;"">+</div>","""",256,fixation,Memorization,null,500,"""","""","""","""","""","""","""","""",1,5/2/2021 17:36,223.182.193.232,Mozilla/5.0 (Windows NT 10.0; Win64; x64; rv:88.0) Gecko/20100101 Firefox/88.0,,Firefox,88,Windows,10
232,1,1810,"""",html-keyboard-response,110,553216,0.0-110.0,"""","<img src='jspsych/CFDfaces/CFD-WF-018-017-N.jpg' height=""250px""></br><b>Elizabeth</b>","""",256,IntactFace,Memorization,70,5000,f,"""",CFD-WF-202-056-N.jpg,Amy,0,"""","""","""",1,5/2/2021 17:36,223.182.193.232,Mozilla/5.0 (Windows NT 10.0; Win64; x64; rv:88.0) Gecko/20100101 Firefox/88.0,,Firefox,88,Windows,10
232,1,null,"""",html-keyboard-response,111,553734,0.0-111.0,"""","<div style=""font-size:60px;"">+</div>","""",256,fixation,Memorization,null,500,"""","""","""","""","""","""","""","""",1,5/2/2021 17:36,223.182.193.232,Mozilla/5.0 (Windows NT 10.0; Win64; x64; rv:88.0) Gecko/20100101 Firefox/88.0,,Firefox,88,Windows,10
232,1,1596,"""",html-keyboard-response,112,558743,0.0-112.0,"""","<img src='jspsych/CFDfaces/CFD-BF-209-172-N.jpg' height=""250px""></br><b>Victoria</b>","""",256,IntactFace,Memorization,70,5000,f,"""",CFD-BF-047-003-N.jpg,Melissa,0,"""","""","""",1,5/2/2021 17:36,223.182.193.232,Mozilla/5.0 (Windows NT 10.0; Win64; x64; rv:88.0) Gecko/20100101 Firefox/88.0,,Firefox,88,Windows,10
232,1,null,"""",html-keyboard-response,113,559260,0.0-113.0,"""","<div style=""font-size:60px;"">+</div>","""",256,fixation,Memorization,null,500,"""","""","""","""","""","""","""","""",1,5/2/2021 17:36,223.182.193.232,Mozilla/5.0 (Windows NT 10.0; Win64; x64; rv:88.0) Gecko/20100101 Firefox/88.0,,Firefox,88,Windows,10
232,1,2488,"""",html-keyboard-response,114,564269,0.0-114.0,"""","<img src='jspsych/CFDfaces/CFD-BM-210-148-N.jpg' height=""250px""></br><b>Jeffrey</b>","""",256,IntactFace,Memorization,70,5000,f,"""",CFD-AM-238-269-N.jpg,Sean,0,"""","""","""",1,5/2/2021 17:36,223.182.193.232,Mozilla/5.0 (Windows NT 10.0; Win64; x64; rv:88.0) Gecko/20100101 Firefox/88.0,,Firefox,88,Windows,10
232,1,null,"""",html-keyboard-response,115,564787,0.0-115.0,"""","<div style=""font-size:60px;"">+</div>","""",256,fixation,Memorization,null,500,"""","""","""","""","""","""","""","""",1,5/2/2021 17:36,223.182.193.232,Mozilla/5.0 (Windows NT 10.0; Win64; x64; rv:88.0) Gecko/20100101 Firefox/88.0,,Firefox,88,Windows,10
232,1,1441,"""",html-keyboard-response,116,569795,0.0-116.0,"""","<img src='jspsych/CFDfaces/CFD-WF-200-099-N.jpg' height=""250px""></br><b>Ashley</b>","""",256,IntactFace,Memorization,70,5000,f,"""",CFD-AM-221-184-N.jpg,Dustin,0,"""","""","""",1,5/2/2021 17:36,223.182.193.232,Mozilla/5.0 (Windows NT 10.0; Win64; x64; rv:88.0) Gecko/20100101 Firefox/88.0,,Firefox,88,Windows,10
232,1,null,"""",html-keyboard-response,117,570314,0.0-117.0,"""","<div style=""font-size:60px;"">+</div>","""",256,fixation,Memorization,null,500,"""","""","""","""","""","""","""","""",1,5/2/2021 17:36,223.182.193.232,Mozilla/5.0 (Windows NT 10.0; Win64; x64; rv:88.0) Gecko/20100101 Firefox/88.0,,Firefox,88,Windows,10
232,1,2793,"""",html-keyboard-response,118,575322,0.0-118.0,"""","<img src='jspsych/CFDfaces/CFD-WM-003-002-N.jpg' height=""250px""></br><b>Brandon</b>","""",256,IntactFace,Memorization,70,5000,f,"""",CFD-AM-212-050-N.jpg,Austin,0,"""","""","""",1,5/2/2021 17:36,223.182.193.232,Mozilla/5.0 (Windows NT 10.0; Win64; x64; rv:88.0) Gecko/20100101 Firefox/88.0,,Firefox,88,Windows,10
232,1,null,"""",html-keyboard-response,119,575839,0.0-119.0,"""","<div style=""font-size:60px;"">+</div>","""",256,fixation,Memorization,null,500,"""","""","""","""","""","""","""","""",1,5/2/2021 17:36,223.182.193.232,Mozilla/5.0 (Windows NT 10.0; Win64; x64; rv:88.0) Gecko/20100101 Firefox/88.0,,Firefox,88,Windows,10
232,1,2051,"""",html-keyboard-response,120,580847,0.0-120.0,"""","<img src='jspsych/CFDfaces/CFD-LF-204-133-N.jpg' height=""250px""></br><b>Christina</b>","""",256,IntactFace,Memorization,70,5000,f,"""",CFD-WF-016-015-N.jpg,Angela,0,"""","""","""",1,5/2/2021 17:36,223.182.193.232,Mozilla/5.0 (Windows NT 10.0; Win64; x64; rv:88.0) Gecko/20100101 Firefox/88.0,,Firefox,88,Windows,10
232,1,null,"""",html-keyboard-response,121,581356,0.0-121.0,"""","<div style=""font-size:60px;"">+</div>","""",256,fixation,Memorization,null,500,"""","""","""","""","""","""","""","""",1,5/2/2021 17:36,223.182.193.232,Mozilla/5.0 (Windows NT 10.0; Win64; x64; rv:88.0) Gecko/20100101 Firefox/88.0,,Firefox,88,Windows,10
232,1,1782,"""",html-keyboard-response,122,586364,0.0-122.0,"""","<img src='jspsych/CFDfaces/CFD-AF-215-70-N.jpg' height=""250px""></br><b>Emily</b>","""",256,IntactFace,Memorization,70,5000,f,"""",CFD-BM-017-021-N.jpg,Justin,0,"""","""","""",1,5/2/2021 17:36,223.182.193.232,Mozilla/5.0 (Windows NT 10.0; Win64; x64; rv:88.0) Gecko/20100101 Firefox/88.0,,Firefox,88,Windows,10
232,1,null,"""",html-keyboard-response,123,586873,0.0-123.0,"""","<div style=""font-size:60px;"">+</div>","""",256,fixation,Memorization,null,500,"""","""","""","""","""","""","""","""",1,5/2/2021 17:36,223.182.193.232,Mozilla/5.0 (Windows NT 10.0; Win64; x64; rv:88.0) Gecko/20100101 Firefox/88.0,,Firefox,88,Windows,10
232,1,null,"""",html-keyboard-response,124,591891,0.0-124.0,"""","<img src='jspsych/CFDfaces/CFD-BM-205-001-N.jpg' height=""250px""></br><b>Christian</b>","""",256,IntactFace,Memorization,null,5000,"""","""",CFD-WF-017-003-N.jpg,Erin,0,"""","""","""",1,5/2/2021 17:36,223.182.193.232,Mozilla/5.0 (Windows NT 10.0; Win64; x64; rv:88.0) Gecko/20100101 Firefox/88.0,,Firefox,88,Windows,10
232,1,null,"""",html-keyboard-response,125,592399,0.0-125.0,"""","<div style=""font-size:60px;"">+</div>","""",256,fixation,Memorization,null,500,"""","""","""","""","""","""","""","""",1,5/2/2021 17:36,223.182.193.232,Mozilla/5.0 (Windows NT 10.0; Win64; x64; rv:88.0) Gecko/20100101 Firefox/88.0,,Firefox,88,Windows,10
232,1,2036,"""",html-keyboard-response,126,597407,0.0-126.0,"""","<img src='jspsych/CFDfaces/CFD-LF-230-203-N.jpg' height=""250px""></br><b>Stephanie</b>","""",256,IntactFace,Memorization,78,5000,n,"""",CFD-BM-203-001-N.jpg,Timothy,0,"""","""","""",1,5/2/2021 17:36,223.182.193.232,Mozilla/5.0 (Windows NT 10.0; Win64; x64; rv:88.0) Gecko/20100101 Firefox/88.0,,Firefox,88,Windows,10
232,1,null,"""",html-keyboard-response,127,597925,0.0-127.0,"""","<div style=""font-size:60px;"">+</div>","""",256,fixation,Memorization,null,500,"""","""","""","""","""","""","""","""",1,5/2/2021 17:36,223.182.193.232,Mozilla/5.0 (Windows NT 10.0; Win64; x64; rv:88.0) Gecko/20100101 Firefox/88.0,,Firefox,88,Windows,10
232,1,4190,"""",html-keyboard-response,128,602933,0.0-128.0,"""","<img src='jspsych/CFDfaces/CFD-WF-038-021-N.jpg' height=""250px""></br><b>Andrea</b>","""",256,IntactFace,Memorization,70,5000,f,"""",CFD-BF-009-002-N.jpg,Lindsey,0,"""","""","""",1,5/2/2021 17:36,223.182.193.232,Mozilla/5.0 (Windows NT 10.0; Win64; x64; rv:88.0) Gecko/20100101 Firefox/88.0,,Firefox,88,Windows,10
232,1,null,"""",html-keyboard-response,129,603451,0.0-129.0,"""","<div style=""font-size:60px;"">+</div>","""",256,fixation,Memorization,null,500,"""","""","""","""","""","""","""","""",1,5/2/2021 17:36,223.182.193.232,Mozilla/5.0 (Windows NT 10.0; Win64; x64; rv:88.0) Gecko/20100101 Firefox/88.0,,Firefox,88,Windows,10
232,1,2440,"""",html-keyboard-response,130,608459,0.0-130.0,"""","<img src='jspsych/CFDfaces/CFD-AF-220-107-N.jpg' height=""250px""></br><b>Kayla</b>","""",256,IntactFace,Memorization,70,5000,f,"""",CFD-AM-213-056-N.jpg,Jesse,0,"""","""","""",1,5/2/2021 17:36,223.182.193.232,Mozilla/5.0 (Windows NT 10.0; Win64; x64; rv:88.0) Gecko/20100101 Firefox/88.0,,Firefox,88,Windows,10
232,1,null,"""",html-keyboard-response,131,608968,0.0-131.0,"""","<div style=""font-size:60px;"">+</div>","""",256,fixation,Memorization,null,500,"""","""","""","""","""","""","""","""",1,5/2/2021 17:36,223.182.193.232,Mozilla/5.0 (Windows NT 10.0; Win64; x64; rv:88.0) Gecko/20100101 Firefox/88.0,,Firefox,88,Windows,10
232,1,3295,"""",html-keyboard-response,132,613986,0.0-132.0,"""","<img src='jspsych/CFDfaces/CFD-WM-020-001-N.jpg' height=""250px""></br><b>Brian</b>","""",256,IntactFace,Memorization,78,5000,n,"""",CFD-LF-208-127-N.jpg,Laura,0,"""","""","""",1,5/2/2021 17:36,223.182.193.232,Mozilla/5.0 (Windows NT 10.0; Win64; x64; rv:88.0) Gecko/20100101 Firefox/88.0,,Firefox,88,Windows,10
232,1,null,"""",html-keyboard-response,133,614494,0.0-133.0,"""","<div style=""font-size:60px;"">+</div>","""",256,fixation,Memorization,null,500,"""","""","""","""","""","""","""","""",1,5/2/2021 17:36,223.182.193.232,Mozilla/5.0 (Windows NT 10.0; Win64; x64; rv:88.0) Gecko/20100101 Firefox/88.0,,Firefox,88,Windows,10
232,1,2747,"""",html-keyboard-response,134,619513,0.0-134.0,"""","<img src='jspsych/CFDfaces/CFD-LF-202-065-N.jpg' height=""250px""></br><b>Vanessa</b>","""",256,IntactFace,Memorization,70,5000,f,"""",CFD-LF-200-058-N.jpg,Jordan,0,"""","""","""",1,5/2/2021 17:36,223.182.193.232,Mozilla/5.0 (Windows NT 10.0; Win64; x64; rv:88.0) Gecko/20100101 Firefox/88.0,,Firefox,88,Windows,10
232,1,null,"""",html-keyboard-response,135,620020,0.0-135.0,"""","<div style=""font-size:60px;"">+</div>","""",256,fixation,Memorization,null,500,"""","""","""","""","""","""","""","""",1,5/2/2021 17:36,223.182.193.232,Mozilla/5.0 (Windows NT 10.0; Win64; x64; rv:88.0) Gecko/20100101 Firefox/88.0,,Firefox,88,Windows,10
232,1,1782,"""",html-keyboard-response,136,625049,0.0-136.0,"""","<img src='jspsych/CFDfaces/CFD-BF-023-010-N.jpg' height=""250px""></br><b>Michelle</b>","""",256,IntactFace,Memorization,70,5000,f,"""",CFD-BF-212-315-N.jpg,Sara,0,"""","""","""",1,5/2/2021 17:36,223.182.193.232,Mozilla/5.0 (Windows NT 10.0; Win64; x64; rv:88.0) Gecko/20100101 Firefox/88.0,,Firefox,88,Windows,10
232,1,null,"""",html-keyboard-response,137,625558,0.0-137.0,"""","<div style=""font-size:60px;"">+</div>","""",256,fixation,Memorization,null,500,"""","""","""","""","""","""","""","""",1,5/2/2021 17:36,223.182.193.232,Mozilla/5.0 (Windows NT 10.0; Win64; x64; rv:88.0) Gecko/20100101 Firefox/88.0,,Firefox,88,Windows,10
232,1,1950,"""",html-keyboard-response,138,630575,0.0-138.0,"""","<img src='jspsych/CFDfaces/CFD-LM-225-130-N.jpg' height=""250px""></br><b>Ian</b>","""",256,IntactFace,Memorization,70,5000,f,"""",CFD-WM-232-070-N.jpg,Jeremy,0,"""","""","""",1,5/2/2021 17:36,223.182.193.232,Mozilla/5.0 (Windows NT 10.0; Win64; x64; rv:88.0) Gecko/20100101 Firefox/88.0,,Firefox,88,Windows,10
232,1,null,"""",html-keyboard-response,139,631084,0.0-139.0,"""","<div style=""font-size:60px;"">+</div>","""",256,fixation,Memorization,null,500,"""","""","""","""","""","""","""","""",1,5/2/2021 17:36,223.182.193.232,Mozilla/5.0 (Windows NT 10.0; Win64; x64; rv:88.0) Gecko/20100101 Firefox/88.0,,Firefox,88,Windows,10
232,1,1532,"""",html-keyboard-response,140,636102,0.0-140.0,"""","<img src='jspsych/CFDfaces/CFD-BM-208-065-N.jpg' height=""250px""></br><b>Robert</b>","""",256,IntactFace,Memorization,70,5000,f,"""",CFD-LF-239-148-N.jpg,Taylor,0,"""","""","""",1,5/2/2021 17:36,223.182.193.232,Mozilla/5.0 (Windows NT 10.0; Win64; x64; rv:88.0) Gecko/20100101 Firefox/88.0,,Firefox,88,Windows,10
232,1,null,"""",html-keyboard-response,141,636610,0.0-141.0,"""","<div style=""font-size:60px;"">+</div>","""",256,fixation,Memorization,null,500,"""","""","""","""","""","""","""","""",1,5/2/2021 17:36,223.182.193.232,Mozilla/5.0 (Windows NT 10.0; Win64; x64; rv:88.0) Gecko/20100101 Firefox/88.0,,Firefox,88,Windows,10
232,1,null,"""",html-keyboard-response,142,641617,0.0-142.0,"""","<img src='jspsych/CFDfaces/CFD-LF-236-221-N.jpg' height=""250px""></br><b>Kimberly</b>","""",256,IntactFace,Memorization,null,5000,"""","""",CFD-LM-233-171-N.jpg,Steven,0,"""","""","""",1,5/2/2021 17:36,223.182.193.232,Mozilla/5.0 (Windows NT 10.0; Win64; x64; rv:88.0) Gecko/20100101 Firefox/88.0,,Firefox,88,Windows,10
232,1,null,"""",html-keyboard-response,143,642136,0.0-143.0,"""","<div style=""font-size:60px;"">+</div>","""",256,fixation,Memorization,null,500,"""","""","""","""","""","""","""","""",1,5/2/2021 17:36,223.182.193.232,Mozilla/5.0 (Windows NT 10.0; Win64; x64; rv:88.0) Gecko/20100101 Firefox/88.0,,Firefox,88,Windows,10
232,1,3483,"""",html-keyboard-response,144,647146,0.0-144.0,"""","<img src='jspsych/CFDfaces/CFD-BM-011-016-N.jpg' height=""250px""></br><b>Eric</b>","""",256,IntactFace,Memorization,78,5000,n,"""",CFD-BF-039-031-N.jpg,Jasmine,0,"""","""","""",1,5/2/2021 17:36,223.182.193.232,Mozilla/5.0 (Windows NT 10.0; Win64; x64; rv:88.0) Gecko/20100101 Firefox/88.0,,Firefox,88,Windows,10
232,1,null,"""",html-keyboard-response,145,647662,0.0-145.0,"""","<div style=""font-size:60px;"">+</div>","""",256,fixation,Memorization,null,500,"""","""","""","""","""","""","""","""",1,5/2/2021 17:36,223.182.193.232,Mozilla/5.0 (Windows NT 10.0; Win64; x64; rv:88.0) Gecko/20100101 Firefox/88.0,,Firefox,88,Windows,10
232,1,2372,"""",html-keyboard-response,146,652671,0.0-146.0,"""","<img src='jspsych/CFDfaces/CFD-AM-242-176-N.jpg' height=""250px""></br><b>Joshua</b>","""",256,IntactFace,Memorization,70,5000,f,"""",CFD-BM-001-014-N.jpg,Luis,0,"""","""","""",1,5/2/2021 17:36,223.182.193.232,Mozilla/5.0 (Windows NT 10.0; Win64; x64; rv:88.0) Gecko/20100101 Firefox/88.0,,Firefox,88,Windows,10
232,1,null,"""",html-keyboard-response,147,653189,0.0-147.0,"""","<div style=""font-size:60px;"">+</div>","""",256,fixation,Memorization,null,500,"""","""","""","""","""","""","""","""",1,5/2/2021 17:36,223.182.193.232,Mozilla/5.0 (Windows NT 10.0; Win64; x64; rv:88.0) Gecko/20100101 Firefox/88.0,,Firefox,88,Windows,10
232,1,1583,"""",html-keyboard-response,148,658200,0.0-148.0,"""","<img src='jspsych/CFDfaces/CFD-LM-221-216-N.jpg' height=""250px""></br><b>Daniel</b>","""",256,IntactFace,Memorization,70,5000,f,"""",CFD-WM-222-057-N.jpg,Kenneth,0,"""","""","""",1,5/2/2021 17:36,223.182.193.232,Mozilla/5.0 (Windows NT 10.0; Win64; x64; rv:88.0) Gecko/20100101 Firefox/88.0,,Firefox,88,Windows,10
232,1,null,"""",html-keyboard-response,149,658745,0.0-149.0,"""","<div style=""font-size:60px;"">+</div>","""",256,fixation,Memorization,null,500,"""","""","""","""","""","""","""","""",1,5/2/2021 17:36,223.182.193.232,Mozilla/5.0 (Windows NT 10.0; Win64; x64; rv:88.0) Gecko/20100101 Firefox/88.0,,Firefox,88,Windows,10
232,1,2137,"""",html-keyboard-response,150,663764,0.0-150.0,"""","<img src='jspsych/CFDfaces/CFD-AM-231-136-N.jpg' height=""250px""></br><b>Jason</b>","""",256,IntactFace,Memorization,70,5000,f,"""",CFD-LM-209-111-N.jpg,Cameron,0,"""","""","""",1,5/2/2021 17:36,223.182.193.232,Mozilla/5.0 (Windows NT 10.0; Win64; x64; rv:88.0) Gecko/20100101 Firefox/88.0,,Firefox,88,Windows,10
232,1,null,"""",html-keyboard-response,151,664285,0.0-151.0,"""","<div style=""font-size:60px;"">+</div>","""",256,fixation,Memorization,null,500,"""","""","""","""","""","""","""","""",1,5/2/2021 17:36,223.182.193.232,Mozilla/5.0 (Windows NT 10.0; Win64; x64; rv:88.0) Gecko/20100101 Firefox/88.0,,Firefox,88,Windows,10
232,1,3704,"""",html-keyboard-response,152,669291,0.0-152.0,"""","<img src='jspsych/CFDfaces/CFD-WF-204-038-N.jpg' height=""250px""></br><b>Samantha</b>","""",256,IntactFace,Memorization,78,5000,n,"""",CFD-AF-222-134-N.jpg,Jenna,0,"""","""","""",1,5/2/2021 17:36,223.182.193.232,Mozilla/5.0 (Windows NT 10.0; Win64; x64; rv:88.0) Gecko/20100101 Firefox/88.0,,Firefox,88,Windows,10
232,1,null,"""",html-keyboard-response,153,669819,0.0-153.0,"""","<div style=""font-size:60px;"">+</div>","""",256,fixation,Memorization,null,500,"""","""","""","""","""","""","""","""",1,5/2/2021 17:36,223.182.193.232,Mozilla/5.0 (Windows NT 10.0; Win64; x64; rv:88.0) Gecko/20100101 Firefox/88.0,,Firefox,88,Windows,10
232,1,2105,"""",html-keyboard-response,154,671927,0.0-154.0,"""",Press Any Key to Begin Memory Test,"""",1,welcomeScreen,Break,32,"""","""","""","""","""","""","""","""","""",1,5/2/2021 17:36,223.182.193.232,Mozilla/5.0 (Windows NT 10.0; Win64; x64; rv:88.0) Gecko/20100101 Firefox/88.0,,Firefox,88,Windows,10
232,1,null,"""",html-keyboard-response,155,672948,0.0-155.0,"""","<div style=""font-size:60px;"">+</div>","""",256,ITI,Test,null,1000,"""","""","""","""","""","""","""","""",1,5/2/2021 17:36,223.182.193.232,Mozilla/5.0 (Windows NT 10.0; Win64; x64; rv:88.0) Gecko/20100101 Firefox/88.0,,Firefox,88,Windows,10
232,1,null,"""",image-keyboard-response,156,673221,0.0-156.0,"""",jspsych/scrambledNeutralFaces/scrambledBF34NES.JPG,"""",256,forwardMask,Test,null,250,"""",n,"""","""","""","""","""","""",1,5/2/2021 17:36,223.182.193.232,Mozilla/5.0 (Windows NT 10.0; Win64; x64; rv:88.0) Gecko/20100101 Firefox/88.0,,Firefox,88,Windows,10
232,1,null,"""",image-keyboard-response,157,673262,0.0-157.0,"""",jspsych/neutralFaces/BF34NES.JPG,"""",256,Cue,Test,null,16,"""","""","""","""","""","""","""","""",1,5/2/2021 17:36,223.182.193.232,Mozilla/5.0 (Windows NT 10.0; Win64; x64; rv:88.0) Gecko/20100101 Firefox/88.0,,Firefox,88,Windows,10
232,1,null,"""",image-keyboard-response,158,673384,0.0-158.0,"""",jspsych/neutralFaces/BF15NES.JPG,"""",256,backwardMask,Test,null,100,"""","""","""","""","""","""","""","""",1,5/2/2021 17:36,223.182.193.232,Mozilla/5.0 (Windows NT 10.0; Win64; x64; rv:88.0) Gecko/20100101 Firefox/88.0,,Firefox,88,Windows,10
232,1,null,"""",html-keyboard-response,159,674390,0.0-159.0,"""","<div style=""font-size:60px;"">+</div>","""",256,fixationBtwnNeutralMaskAndPrompt,Test,null,1000,"""","""","""","""","""","""","""","""",1,5/2/2021 17:36,223.182.193.232,Mozilla/5.0 (Windows NT 10.0; Win64; x64; rv:88.0) Gecko/20100101 Firefox/88.0,,Firefox,88,Windows,10
232,1,2789,"""",html-button-response,160,677183,0.0-160.0,"""","<img src='jspsych/CFDfaces/CFD-WM-041-021-N.jpg' height=""250px"">,</br><b>Juan</b>",1,256,IntactOrRearranged,Test,"""","""","""","""",CFD-WF-024-003-N.jpg,Tiffany,0,"""","""",1,1,5/2/2021 17:36,223.182.193.232,Mozilla/5.0 (Windows NT 10.0; Win64; x64; rv:88.0) Gecko/20100101 Firefox/88.0,,Firefox,88,Windows,10
232,1,3153,"""",html-slider-response,161,680350,0.0-161.0,"""","<img src='jspsych/CFDfaces/CFD-WM-041-021-N.jpg' height=""250px"">,</br><b>Juan</b>","""",256,ConfidenceQuery,Test,"""","""","""","""",CFD-WF-024-003-N.jpg,Tiffany,0,0,59,"""",1,5/2/2021 17:36,223.182.193.232,Mozilla/5.0 (Windows NT 10.0; Win64; x64; rv:88.0) Gecko/20100101 Firefox/88.0,,Firefox,88,Windows,10
232,1,null,"""",html-keyboard-response,162,681369,0.0-162.0,"""","<div style=""font-size:60px;"">+</div>","""",256,ITI,Test,null,1000,"""","""","""","""","""","""","""","""",1,5/2/2021 17:36,223.182.193.232,Mozilla/5.0 (Windows NT 10.0; Win64; x64; rv:88.0) Gecko/20100101 Firefox/88.0,,Firefox,88,Windows,10
232,1,null,"""",image-keyboard-response,163,681624,0.0-163.0,"""",jspsych/scrambledDisgustFaces/scrambledAM35DIS.JPG,"""",256,forwardMask,Test,null,250,"""",d,"""","""","""","""","""","""",1,5/2/2021 17:36,223.182.193.232,Mozilla/5.0 (Windows NT 10.0; Win64; x64; rv:88.0) Gecko/20100101 Firefox/88.0,,Firefox,88,Windows,10
232,1,null,"""",image-keyboard-response,164,681662,0.0-164.0,"""",jspsych/disgustFaces/AM35DIS.JPG,"""",256,Cue,Test,null,16,"""","""","""","""","""","""","""","""",1,5/2/2021 17:36,223.182.193.232,Mozilla/5.0 (Windows NT 10.0; Win64; x64; rv:88.0) Gecko/20100101 Firefox/88.0,,Firefox,88,Windows,10
232,1,null,"""",image-keyboard-response,165,681785,0.0-165.0,"""",jspsych/neutralFaces/BM33NES.JPG,"""",256,backwardMask,Test,null,100,"""","""","""","""","""","""","""","""",1,5/2/2021 17:36,223.182.193.232,Mozilla/5.0 (Windows NT 10.0; Win64; x64; rv:88.0) Gecko/20100101 Firefox/88.0,,Firefox,88,Windows,10
232,1,null,"""",html-keyboard-response,166,682801,0.0-166.0,"""","<div style=""font-size:60px;"">+</div>","""",256,fixationBtwnNeutralMaskAndPrompt,Test,null,1000,"""","""","""","""","""","""","""","""",1,5/2/2021 17:36,223.182.193.232,Mozilla/5.0 (Windows NT 10.0; Win64; x64; rv:88.0) Gecko/20100101 Firefox/88.0,,Firefox,88,Windows,10
232,1,2892,"""",html-button-response,167,685709,0.0-167.0,"""","<img src='jspsych/CFDfaces/CFD-WF-204-038-N.jpg' height=""250px"">,</br><b>Samantha</b>",1,256,IntactOrRearranged,Test,"""","""","""","""",CFD-WF-202-056-N.jpg,Amy,0,"""","""",1,1,5/2/2021 17:36,223.182.193.232,Mozilla/5.0 (Windows NT 10.0; Win64; x64; rv:88.0) Gecko/20100101 Firefox/88.0,,Firefox,88,Windows,10
232,1,2883,"""",html-slider-response,168,688597,0.0-168.0,"""","<img src='jspsych/CFDfaces/CFD-WF-204-038-N.jpg' height=""250px"">,</br><b>Samantha</b>","""",256,ConfidenceQuery,Test,"""","""","""","""",CFD-WF-202-056-N.jpg,Amy,0,0,82,"""",1,5/2/2021 17:36,223.182.193.232,Mozilla/5.0 (Windows NT 10.0; Win64; x64; rv:88.0) Gecko/20100101 Firefox/88.0,,Firefox,88,Windows,10
232,1,null,"""",html-keyboard-response,169,689608,0.0-169.0,"""","<div style=""font-size:60px;"">+</div>","""",256,ITI,Test,null,1000,"""","""","""","""","""","""","""","""",1,5/2/2021 17:36,223.182.193.232,Mozilla/5.0 (Windows NT 10.0; Win64; x64; rv:88.0) Gecko/20100101 Firefox/88.0,,Firefox,88,Windows,10
232,1,null,"""",image-keyboard-response,170,689882,0.0-170.0,"""",jspsych/scrambledDisgustFaces/scrambledBF06DIS.JPG,"""",256,forwardMask,Test,null,250,"""",d,"""","""","""","""","""","""",1,5/2/2021 17:36,223.182.193.232,Mozilla/5.0 (Windows NT 10.0; Win64; x64; rv:88.0) Gecko/20100101 Firefox/88.0,,Firefox,88,Windows,10
232,1,null,"""",image-keyboard-response,171,689916,0.0-171.0,"""",jspsych/disgustFaces/BF06DIS.JPG,"""",256,Cue,Test,null,16,"""","""","""","""","""","""","""","""",1,5/2/2021 17:36,223.182.193.232,Mozilla/5.0 (Windows NT 10.0; Win64; x64; rv:88.0) Gecko/20100101 Firefox/88.0,,Firefox,88,Windows,10
232,1,null,"""",image-keyboard-response,172,690039,0.0-172.0,"""",jspsych/neutralFaces/AF24NES.JPG,"""",256,backwardMask,Test,null,100,"""","""","""","""","""","""","""","""",1,5/2/2021 17:36,223.182.193.232,Mozilla/5.0 (Windows NT 10.0; Win64; x64; rv:88.0) Gecko/20100101 Firefox/88.0,,Firefox,88,Windows,10
232,1,null,"""",html-keyboard-response,173,691050,0.0-173.0,"""","<div style=""font-size:60px;"">+</div>","""",256,fixationBtwnNeutralMaskAndPrompt,Test,null,1000,"""","""","""","""","""","""","""","""",1,5/2/2021 17:36,223.182.193.232,Mozilla/5.0 (Windows NT 10.0; Win64; x64; rv:88.0) Gecko/20100101 Firefox/88.0,,Firefox,88,Windows,10
232,1,2023,"""",html-button-response,174,693077,0.0-174.0,"""","<img src='jspsych/CFDfaces/CFD-LM-213-061-N.jpg' height=""250px"">,</br><b>Daniel</b>",1,256,IntactOrRearranged,Test,"""","""","""","""",CFD-AM-213-056-N.jpg,Kenneth,1,"""","""",1,1,5/2/2021 17:36,223.182.193.232,Mozilla/5.0 (Windows NT 10.0; Win64; x64; rv:88.0) Gecko/20100101 Firefox/88.0,,Firefox,88,Windows,10
232,1,2949,"""",html-slider-response,175,696037,0.0-175.0,"""","<img src='jspsych/CFDfaces/CFD-LM-213-061-N.jpg' height=""250px"">,</br><b>Daniel</b>","""",256,ConfidenceQuery,Test,"""","""","""","""",CFD-AM-213-056-N.jpg,Kenneth,1,0,60,"""",1,5/2/2021 17:36,223.182.193.232,Mozilla/5.0 (Windows NT 10.0; Win64; x64; rv:88.0) Gecko/20100101 Firefox/88.0,,Firefox,88,Windows,10
232,1,null,"""",html-keyboard-response,176,697053,0.0-176.0,"""","<div style=""font-size:60px;"">+</div>","""",256,ITI,Test,null,1000,"""","""","""","""","""","""","""","""",1,5/2/2021 17:36,223.182.193.232,Mozilla/5.0 (Windows NT 10.0; Win64; x64; rv:88.0) Gecko/20100101 Firefox/88.0,,Firefox,88,Windows,10
232,1,null,"""",image-keyboard-response,177,697308,0.0-177.0,"""",jspsych/scrambledDisgustFaces/scrambledAM24DIS.JPG,"""",256,forwardMask,Test,null,250,"""",d,"""","""","""","""","""","""",1,5/2/2021 17:36,223.182.193.232,Mozilla/5.0 (Windows NT 10.0; Win64; x64; rv:88.0) Gecko/20100101 Firefox/88.0,,Firefox,88,Windows,10
232,1,null,"""",image-keyboard-response,178,697348,0.0-178.0,"""",jspsych/disgustFaces/AM24DIS.JPG,"""",256,Cue,Test,null,16,"""","""","""","""","""","""","""","""",1,5/2/2021 17:36,223.182.193.232,Mozilla/5.0 (Windows NT 10.0; Win64; x64; rv:88.0) Gecko/20100101 Firefox/88.0,,Firefox,88,Windows,10
232,1,null,"""",image-keyboard-response,179,697460,0.0-179.0,"""",jspsych/neutralFaces/AM28NES.JPG,"""",256,backwardMask,Test,null,100,"""","""","""","""","""","""","""","""",1,5/2/2021 17:36,223.182.193.232,Mozilla/5.0 (Windows NT 10.0; Win64; x64; rv:88.0) Gecko/20100101 Firefox/88.0,,Firefox,88,Windows,10
232,1,null,"""",html-keyboard-response,180,698476,0.0-180.0,"""","<div style=""font-size:60px;"">+</div>","""",256,fixationBtwnNeutralMaskAndPrompt,Test,null,1000,"""","""","""","""","""","""","""","""",1,5/2/2021 17:36,223.182.193.232,Mozilla/5.0 (Windows NT 10.0; Win64; x64; rv:88.0) Gecko/20100101 Firefox/88.0,,Firefox,88,Windows,10
232,1,4376,"""",html-button-response,181,702854,0.0-181.0,"""","<img src='jspsych/CFDfaces/CFD-WM-003-002-N.jpg' height=""250px"">,</br><b>Brandon</b>",1,256,IntactOrRearranged,Test,"""","""","""","""",CFD-LM-233-171-N.jpg,Steven,0,"""","""",1,1,5/2/2021 17:36,223.182.193.232,Mozilla/5.0 (Windows NT 10.0; Win64; x64; rv:88.0) Gecko/20100101 Firefox/88.0,,Firefox,88,Windows,10
232,1,3393,"""",html-slider-response,182,706259,0.0-182.0,"""","<img src='jspsych/CFDfaces/CFD-WM-003-002-N.jpg' height=""250px"">,</br><b>Brandon</b>","""",256,ConfidenceQuery,Test,"""","""","""","""",CFD-LM-233-171-N.jpg,Steven,0,0,56,"""",1,5/2/2021 17:36,223.182.193.232,Mozilla/5.0 (Windows NT 10.0; Win64; x64; rv:88.0) Gecko/20100101 Firefox/88.0,,Firefox,88,Windows,10
232,1,null,"""",html-keyboard-response,183,707285,0.0-183.0,"""","<div style=""font-size:60px;"">+</div>","""",256,ITI,Test,null,1000,"""","""","""","""","""","""","""","""",1,5/2/2021 17:36,223.182.193.232,Mozilla/5.0 (Windows NT 10.0; Win64; x64; rv:88.0) Gecko/20100101 Firefox/88.0,,Firefox,88,Windows,10
232,1,null,"""",image-keyboard-response,184,707549,0.0-184.0,"""",jspsych/scrambledNeutralFaces/scrambledBF21NES.JPG,"""",256,forwardMask,Test,null,250,"""",n,"""","""","""","""","""","""",1,5/2/2021 17:36,223.182.193.232,Mozilla/5.0 (Windows NT 10.0; Win64; x64; rv:88.0) Gecko/20100101 Firefox/88.0,,Firefox,88,Windows,10
232,1,null,"""",image-keyboard-response,185,707582,0.0-185.0,"""",jspsych/neutralFaces/BF21NES.JPG,"""",256,Cue,Test,null,16,"""","""","""","""","""","""","""","""",1,5/2/2021 17:36,223.182.193.232,Mozilla/5.0 (Windows NT 10.0; Win64; x64; rv:88.0) Gecko/20100101 Firefox/88.0,,Firefox,88,Windows,10
232,1,null,"""",image-keyboard-response,186,707690,0.0-186.0,"""",jspsych/neutralFaces/AF13NES.JPG,"""",256,backwardMask,Test,null,100,"""","""","""","""","""","""","""","""",1,5/2/2021 17:36,223.182.193.232,Mozilla/5.0 (Windows NT 10.0; Win64; x64; rv:88.0) Gecko/20100101 Firefox/88.0,,Firefox,88,Windows,10
232,1,null,"""",html-keyboard-response,187,708706,0.0-187.0,"""","<div style=""font-size:60px;"">+</div>","""",256,fixationBtwnNeutralMaskAndPrompt,Test,null,1000,"""","""","""","""","""","""","""","""",1,5/2/2021 17:36,223.182.193.232,Mozilla/5.0 (Windows NT 10.0; Win64; x64; rv:88.0) Gecko/20100101 Firefox/88.0,,Firefox,88,Windows,10
232,1,2266,"""",html-button-response,188,710986,0.0-188.0,"""","<img src='jspsych/CFDfaces/CFD-WF-038-021-N.jpg' height=""250px"">,</br><b>Amanda</b>",1,256,IntactOrRearranged,Test,"""","""","""","""",CFD-BM-026-002-N.jpg,Jacob,1,"""","""",1,1,5/2/2021 17:36,223.182.193.232,Mozilla/5.0 (Windows NT 10.0; Win64; x64; rv:88.0) Gecko/20100101 Firefox/88.0,,Firefox,88,Windows,10
232,1,2162,"""",html-slider-response,189,713153,0.0-189.0,"""","<img src='jspsych/CFDfaces/CFD-WF-038-021-N.jpg' height=""250px"">,</br><b>Amanda</b>","""",256,ConfidenceQuery,Test,"""","""","""","""",CFD-BM-026-002-N.jpg,Jacob,1,0,61,"""",1,5/2/2021 17:36,223.182.193.232,Mozilla/5.0 (Windows NT 10.0; Win64; x64; rv:88.0) Gecko/20100101 Firefox/88.0,,Firefox,88,Windows,10
232,1,null,"""",html-keyboard-response,190,714171,0.0-190.0,"""","<div style=""font-size:60px;"">+</div>","""",256,ITI,Test,null,1000,"""","""","""","""","""","""","""","""",1,5/2/2021 17:36,223.182.193.232,Mozilla/5.0 (Windows NT 10.0; Win64; x64; rv:88.0) Gecko/20100101 Firefox/88.0,,Firefox,88,Windows,10
232,1,null,"""",image-keyboard-response,191,714435,0.0-191.0,"""",jspsych/scrambledNeutralFaces/scrambledAM34NES.JPG,"""",256,forwardMask,Test,null,250,"""",n,"""","""","""","""","""","""",1,5/2/2021 17:36,223.182.193.232,Mozilla/5.0 (Windows NT 10.0; Win64; x64; rv:88.0) Gecko/20100101 Firefox/88.0,,Firefox,88,Windows,10
232,1,null,"""",image-keyboard-response,192,714475,0.0-192.0,"""",jspsych/neutralFaces/AM34NES.JPG,"""",256,Cue,Test,null,16,"""","""","""","""","""","""","""","""",1,5/2/2021 17:36,223.182.193.232,Mozilla/5.0 (Windows NT 10.0; Win64; x64; rv:88.0) Gecko/20100101 Firefox/88.0,,Firefox,88,Windows,10
232,1,null,"""",image-keyboard-response,193,714598,0.0-193.0,"""",jspsych/neutralFaces/AM15NES.JPG,"""",256,backwardMask,Test,null,100,"""","""","""","""","""","""","""","""",1,5/2/2021 17:36,223.182.193.232,Mozilla/5.0 (Windows NT 10.0; Win64; x64; rv:88.0) Gecko/20100101 Firefox/88.0,,Firefox,88,Windows,10
232,1,null,"""",html-keyboard-response,194,715614,0.0-194.0,"""","<div style=""font-size:60px;"">+</div>","""",256,fixationBtwnNeutralMaskAndPrompt,Test,null,1000,"""","""","""","""","""","""","""","""",1,5/2/2021 17:36,223.182.193.232,Mozilla/5.0 (Windows NT 10.0; Win64; x64; rv:88.0) Gecko/20100101 Firefox/88.0,,Firefox,88,Windows,10
232,1,2714,"""",html-button-response,195,718329,0.0-195.0,"""","<img src='jspsych/CFDfaces/CFD-BM-210-148-N.jpg' height=""250px"">,</br><b>Richard</b>",0,256,IntactOrRearranged,Test,"""","""","""","""",CFD-WM-232-070-N.jpg,Ryan,1,"""","""",0,1,5/2/2021 17:36,223.182.193.232,Mozilla/5.0 (Windows NT 10.0; Win64; x64; rv:88.0) Gecko/20100101 Firefox/88.0,,Firefox,88,Windows,10
232,1,3026,"""",html-slider-response,196,721361,0.0-196.0,"""","<img src='jspsych/CFDfaces/CFD-BM-210-148-N.jpg' height=""250px"">,</br><b>Richard</b>","""",256,ConfidenceQuery,Test,"""","""","""","""",CFD-WM-232-070-N.jpg,Ryan,1,0,33,"""",1,5/2/2021 17:36,223.182.193.232,Mozilla/5.0 (Windows NT 10.0; Win64; x64; rv:88.0) Gecko/20100101 Firefox/88.0,,Firefox,88,Windows,10
232,1,null,"""",html-keyboard-response,197,722389,0.0-197.0,"""","<div style=""font-size:60px;"">+</div>","""",256,ITI,Test,null,1000,"""","""","""","""","""","""","""","""",1,5/2/2021 17:36,223.182.193.232,Mozilla/5.0 (Windows NT 10.0; Win64; x64; rv:88.0) Gecko/20100101 Firefox/88.0,,Firefox,88,Windows,10
232,1,null,"""",image-keyboard-response,198,722664,0.0-198.0,"""",jspsych/scrambledDisgustFaces/scrambledAM19DIS.JPG,"""",256,forwardMask,Test,null,250,"""",d,"""","""","""","""","""","""",1,5/2/2021 17:36,223.182.193.232,Mozilla/5.0 (Windows NT 10.0; Win64; x64; rv:88.0) Gecko/20100101 Firefox/88.0,,Firefox,88,Windows,10
232,1,null,"""",image-keyboard-response,199,722704,0.0-199.0,"""",jspsych/disgustFaces/AM19DIS.JPG,"""",256,Cue,Test,null,16,"""","""","""","""","""","""","""","""",1,5/2/2021 17:36,223.182.193.232,Mozilla/5.0 (Windows NT 10.0; Win64; x64; rv:88.0) Gecko/20100101 Firefox/88.0,,Firefox,88,Windows,10
232,1,null,"""",image-keyboard-response,200,722826,0.0-200.0,"""",jspsych/neutralFaces/AM29NES.JPG,"""",256,backwardMask,Test,null,100,"""","""","""","""","""","""","""","""",1,5/2/2021 17:36,223.182.193.232,Mozilla/5.0 (Windows NT 10.0; Win64; x64; rv:88.0) Gecko/20100101 Firefox/88.0,,Firefox,88,Windows,10
232,1,null,"""",html-keyboard-response,201,723833,0.0-201.0,"""","<div style=""font-size:60px;"">+</div>","""",256,fixationBtwnNeutralMaskAndPrompt,Test,null,1000,"""","""","""","""","""","""","""","""",1,5/2/2021 17:36,223.182.193.232,Mozilla/5.0 (Windows NT 10.0; Win64; x64; rv:88.0) Gecko/20100101 Firefox/88.0,,Firefox,88,Windows,10
232,1,null,"""",html-button-response,202,728848,0.0-202.0,"""","<img src='jspsych/CFDfaces/CFD-AF-215-70-N.jpg' height=""250px"">,</br><b>Andrea</b>",null,256,IntactOrRearranged,Test,"""","""","""","""",CFD-WF-017-003-N.jpg,Laura,1,"""","""","""",1,5/2/2021 17:36,223.182.193.232,Mozilla/5.0 (Windows NT 10.0; Win64; x64; rv:88.0) Gecko/20100101 Firefox/88.0,,Firefox,88,Windows,10
232,1,2283,"""",html-slider-response,203,731151,0.0-203.0,"""","<img src='jspsych/CFDfaces/CFD-AF-215-70-N.jpg' height=""250px"">,</br><b>Andrea</b>","""",256,ConfidenceQuery,Test,"""","""","""","""",CFD-WF-017-003-N.jpg,Laura,1,0,54,"""",1,5/2/2021 17:36,223.182.193.232,Mozilla/5.0 (Windows NT 10.0; Win64; x64; rv:88.0) Gecko/20100101 Firefox/88.0,,Firefox,88,Windows,10
232,1,null,"""",html-keyboard-response,204,732163,0.0-204.0,"""","<div style=""font-size:60px;"">+</div>","""",256,ITI,Test,null,1000,"""","""","""","""","""","""","""","""",1,5/2/2021 17:36,223.182.193.232,Mozilla/5.0 (Windows NT 10.0; Win64; x64; rv:88.0) Gecko/20100101 Firefox/88.0,,Firefox,88,Windows,10
232,1,null,"""",image-keyboard-response,205,732437,0.0-205.0,"""",jspsych/scrambledNeutralFaces/scrambledAF04NES.JPG,"""",256,forwardMask,Test,null,250,"""",n,"""","""","""","""","""","""",1,5/2/2021 17:36,223.182.193.232,Mozilla/5.0 (Windows NT 10.0; Win64; x64; rv:88.0) Gecko/20100101 Firefox/88.0,,Firefox,88,Windows,10
232,1,null,"""",image-keyboard-response,206,732477,0.0-206.0,"""",jspsych/neutralFaces/AF04NES.JPG,"""",256,Cue,Test,null,16,"""","""","""","""","""","""","""","""",1,5/2/2021 17:36,223.182.193.232,Mozilla/5.0 (Windows NT 10.0; Win64; x64; rv:88.0) Gecko/20100101 Firefox/88.0,,Firefox,88,Windows,10
232,1,null,"""",image-keyboard-response,207,732589,0.0-207.0,"""",jspsych/neutralFaces/BF09NES.JPG,"""",256,backwardMask,Test,null,100,"""","""","""","""","""","""","""","""",1,5/2/2021 17:36,223.182.193.232,Mozilla/5.0 (Windows NT 10.0; Win64; x64; rv:88.0) Gecko/20100101 Firefox/88.0,,Firefox,88,Windows,10
232,1,null,"""",html-keyboard-response,208,733595,0.0-208.0,"""","<div style=""font-size:60px;"">+</div>","""",256,fixationBtwnNeutralMaskAndPrompt,Test,null,1000,"""","""","""","""","""","""","""","""",1,5/2/2021 17:36,223.182.193.232,Mozilla/5.0 (Windows NT 10.0; Win64; x64; rv:88.0) Gecko/20100101 Firefox/88.0,,Firefox,88,Windows,10
232,1,2171,"""",html-button-response,209,735768,0.0-209.0,"""","<img src='jspsych/CFDfaces/CFD-LF-202-065-N.jpg' height=""250px"">,</br><b>Vanessa</b>",0,256,IntactOrRearranged,Test,"""","""","""","""",CFD-BM-211-174-N.jpg,Cameron,0,"""","""",0,1,5/2/2021 17:36,223.182.193.232,Mozilla/5.0 (Windows NT 10.0; Win64; x64; rv:88.0) Gecko/20100101 Firefox/88.0,,Firefox,88,Windows,10
232,1,2176,"""",html-slider-response,210,737959,0.0-210.0,"""","<img src='jspsych/CFDfaces/CFD-LF-202-065-N.jpg' height=""250px"">,</br><b>Vanessa</b>","""",256,ConfidenceQuery,Test,"""","""","""","""",CFD-BM-211-174-N.jpg,Cameron,0,0,46,"""",1,5/2/2021 17:36,223.182.193.232,Mozilla/5.0 (Windows NT 10.0; Win64; x64; rv:88.0) Gecko/20100101 Firefox/88.0,,Firefox,88,Windows,10
232,1,null,"""",html-keyboard-response,211,738979,0.0-211.0,"""","<div style=""font-size:60px;"">+</div>","""",256,ITI,Test,null,1000,"""","""","""","""","""","""","""","""",1,5/2/2021 17:36,223.182.193.232,Mozilla/5.0 (Windows NT 10.0; Win64; x64; rv:88.0) Gecko/20100101 Firefox/88.0,,Firefox,88,Windows,10
232,1,null,"""",image-keyboard-response,212,739247,0.0-212.0,"""",jspsych/scrambledDisgustFaces/scrambledAM22DIS.JPG,"""",256,forwardMask,Test,null,250,"""",d,"""","""","""","""","""","""",1,5/2/2021 17:36,223.182.193.232,Mozilla/5.0 (Windows NT 10.0; Win64; x64; rv:88.0) Gecko/20100101 Firefox/88.0,,Firefox,88,Windows,10
232,1,null,"""",image-keyboard-response,213,739284,0.0-213.0,"""",jspsych/disgustFaces/AM22DIS.JPG,"""",256,Cue,Test,null,16,"""","""","""","""","""","""","""","""",1,5/2/2021 17:36,223.182.193.232,Mozilla/5.0 (Windows NT 10.0; Win64; x64; rv:88.0) Gecko/20100101 Firefox/88.0,,Firefox,88,Windows,10
232,1,null,"""",image-keyboard-response,214,739395,0.0-214.0,"""",jspsych/neutralFaces/BM32NES.JPG,"""",256,backwardMask,Test,null,100,"""","""","""","""","""","""","""","""",1,5/2/2021 17:36,223.182.193.232,Mozilla/5.0 (Windows NT 10.0; Win64; x64; rv:88.0) Gecko/20100101 Firefox/88.0,,Firefox,88,Windows,10
232,1,null,"""",html-keyboard-response,215,740406,0.0-215.0,"""","<div style=""font-size:60px;"">+</div>","""",256,fixationBtwnNeutralMaskAndPrompt,Test,null,1000,"""","""","""","""","""","""","""","""",1,5/2/2021 17:36,223.182.193.232,Mozilla/5.0 (Windows NT 10.0; Win64; x64; rv:88.0) Gecko/20100101 Firefox/88.0,,Firefox,88,Windows,10
232,1,2677,"""",html-button-response,216,743086,0.0-216.0,"""","<img src='jspsych/CFDfaces/CFD-LF-236-221-N.jpg' height=""250px"">,</br><b>Emily</b>",0,256,IntactOrRearranged,Test,"""","""","""","""",CFD-WF-016-015-N.jpg,Erin,1,"""","""",0,1,5/2/2021 17:36,223.182.193.232,Mozilla/5.0 (Windows NT 10.0; Win64; x64; rv:88.0) Gecko/20100101 Firefox/88.0,,Firefox,88,Windows,10
232,1,1873,"""",html-slider-response,217,744975,0.0-217.0,"""","<img src='jspsych/CFDfaces/CFD-LF-236-221-N.jpg' height=""250px"">,</br><b>Emily</b>","""",256,ConfidenceQuery,Test,"""","""","""","""",CFD-WF-016-015-N.jpg,Erin,1,0,43,"""",1,5/2/2021 17:36,223.182.193.232,Mozilla/5.0 (Windows NT 10.0; Win64; x64; rv:88.0) Gecko/20100101 Firefox/88.0,,Firefox,88,Windows,10
232,1,null,"""",html-keyboard-response,218,745979,0.0-218.0,"""","<div style=""font-size:60px;"">+</div>","""",256,ITI,Test,null,1000,"""","""","""","""","""","""","""","""",1,5/2/2021 17:36,223.182.193.232,Mozilla/5.0 (Windows NT 10.0; Win64; x64; rv:88.0) Gecko/20100101 Firefox/88.0,,Firefox,88,Windows,10
232,1,null,"""",image-keyboard-response,219,746243,0.0-219.0,"""",jspsych/scrambledNeutralFaces/scrambledBM02NES.JPG,"""",256,forwardMask,Test,null,250,"""",n,"""","""","""","""","""","""",1,5/2/2021 17:36,223.182.193.232,Mozilla/5.0 (Windows NT 10.0; Win64; x64; rv:88.0) Gecko/20100101 Firefox/88.0,,Firefox,88,Windows,10
232,1,null,"""",image-keyboard-response,220,746273,0.0-220.0,"""",jspsych/neutralFaces/BM02NES.JPG,"""",256,Cue,Test,null,16,"""","""","""","""","""","""","""","""",1,5/2/2021 17:36,223.182.193.232,Mozilla/5.0 (Windows NT 10.0; Win64; x64; rv:88.0) Gecko/20100101 Firefox/88.0,,Firefox,88,Windows,10
232,1,null,"""",image-keyboard-response,221,746384,0.0-221.0,"""",jspsych/neutralFaces/AM29NES.JPG,"""",256,backwardMask,Test,null,100,"""","""","""","""","""","""","""","""",1,5/2/2021 17:36,223.182.193.232,Mozilla/5.0 (Windows NT 10.0; Win64; x64; rv:88.0) Gecko/20100101 Firefox/88.0,,Firefox,88,Windows,10
232,1,null,"""",html-keyboard-response,222,747391,0.0-222.0,"""","<div style=""font-size:60px;"">+</div>","""",256,fixationBtwnNeutralMaskAndPrompt,Test,null,1000,"""","""","""","""","""","""","""","""",1,5/2/2021 17:36,223.182.193.232,Mozilla/5.0 (Windows NT 10.0; Win64; x64; rv:88.0) Gecko/20100101 Firefox/88.0,,Firefox,88,Windows,10
232,1,2517,"""",html-button-response,223,749910,0.0-223.0,"""","<img src='jspsych/CFDfaces/CFD-WM-020-001-N.jpg' height=""250px"">,</br><b>Brian</b>",1,256,IntactOrRearranged,Test,"""","""","""","""",CFD-BM-203-001-N.jpg,Austin,0,"""","""",1,1,5/2/2021 17:36,223.182.193.232,Mozilla/5.0 (Windows NT 10.0; Win64; x64; rv:88.0) Gecko/20100101 Firefox/88.0,,Firefox,88,Windows,10
232,1,2168,"""",html-slider-response,224,752095,0.0-224.0,"""","<img src='jspsych/CFDfaces/CFD-WM-020-001-N.jpg' height=""250px"">,</br><b>Brian</b>","""",256,ConfidenceQuery,Test,"""","""","""","""",CFD-BM-203-001-N.jpg,Austin,0,0,57,"""",1,5/2/2021 17:36,223.182.193.232,Mozilla/5.0 (Windows NT 10.0; Win64; x64; rv:88.0) Gecko/20100101 Firefox/88.0,,Firefox,88,Windows,10
232,1,null,"""",html-keyboard-response,225,753110,0.0-225.0,"""","<div style=""font-size:60px;"">+</div>","""",256,ITI,Test,null,1000,"""","""","""","""","""","""","""","""",1,5/2/2021 17:36,223.182.193.232,Mozilla/5.0 (Windows NT 10.0; Win64; x64; rv:88.0) Gecko/20100101 Firefox/88.0,,Firefox,88,Windows,10
232,1,null,"""",image-keyboard-response,226,753374,0.0-226.0,"""",jspsych/scrambledNeutralFaces/scrambledAM31NES.JPG,"""",256,forwardMask,Test,null,250,"""",n,"""","""","""","""","""","""",1,5/2/2021 17:36,223.182.193.232,Mozilla/5.0 (Windows NT 10.0; Win64; x64; rv:88.0) Gecko/20100101 Firefox/88.0,,Firefox,88,Windows,10
232,1,null,"""",image-keyboard-response,227,753404,0.0-227.0,"""",jspsych/neutralFaces/AM31NES.JPG,"""",256,Cue,Test,null,16,"""","""","""","""","""","""","""","""",1,5/2/2021 17:36,223.182.193.232,Mozilla/5.0 (Windows NT 10.0; Win64; x64; rv:88.0) Gecko/20100101 Firefox/88.0,,Firefox,88,Windows,10
232,1,null,"""",image-keyboard-response,228,753516,0.0-228.0,"""",jspsych/neutralFaces/AM03NES.JPG,"""",256,backwardMask,Test,null,100,"""","""","""","""","""","""","""","""",1,5/2/2021 17:36,223.182.193.232,Mozilla/5.0 (Windows NT 10.0; Win64; x64; rv:88.0) Gecko/20100101 Firefox/88.0,,Firefox,88,Windows,10
232,1,null,"""",html-keyboard-response,229,754521,0.0-229.0,"""","<div style=""font-size:60px;"">+</div>","""",256,fixationBtwnNeutralMaskAndPrompt,Test,null,1000,"""","""","""","""","""","""","""","""",1,5/2/2021 17:36,223.182.193.232,Mozilla/5.0 (Windows NT 10.0; Win64; x64; rv:88.0) Gecko/20100101 Firefox/88.0,,Firefox,88,Windows,10
232,1,2081,"""",html-button-response,230,756604,0.0-230.0,"""","<img src='jspsych/CFDfaces/CFD-LM-234-176-N.jpg' height=""250px"">,</br><b>Christian</b>",1,256,IntactOrRearranged,Test,"""","""","""","""",CFD-BF-047-003-N.jpg,Melissa,1,"""","""",1,1,5/2/2021 17:36,223.182.193.232,Mozilla/5.0 (Windows NT 10.0; Win64; x64; rv:88.0) Gecko/20100101 Firefox/88.0,,Firefox,88,Windows,10
232,1,1994,"""",html-slider-response,231,758612,0.0-231.0,"""","<img src='jspsych/CFDfaces/CFD-LM-234-176-N.jpg' height=""250px"">,</br><b>Christian</b>","""",256,ConfidenceQuery,Test,"""","""","""","""",CFD-BF-047-003-N.jpg,Melissa,1,0,65,"""",1,5/2/2021 17:36,223.182.193.232,Mozilla/5.0 (Windows NT 10.0; Win64; x64; rv:88.0) Gecko/20100101 Firefox/88.0,,Firefox,88,Windows,10
232,1,null,"""",html-keyboard-response,232,759622,0.0-232.0,"""","<div style=""font-size:60px;"">+</div>","""",256,ITI,Test,null,1000,"""","""","""","""","""","""","""","""",1,5/2/2021 17:36,223.182.193.232,Mozilla/5.0 (Windows NT 10.0; Win64; x64; rv:88.0) Gecko/20100101 Firefox/88.0,,Firefox,88,Windows,10
232,1,null,"""",image-keyboard-response,233,759896,0.0-233.0,"""",jspsych/scrambledNeutralFaces/scrambledAF12NES.JPG,"""",256,forwardMask,Test,null,250,"""",n,"""","""","""","""","""","""",1,5/2/2021 17:36,223.182.193.232,Mozilla/5.0 (Windows NT 10.0; Win64; x64; rv:88.0) Gecko/20100101 Firefox/88.0,,Firefox,88,Windows,10
232,1,null,"""",image-keyboard-response,234,759936,0.0-234.0,"""",jspsych/neutralFaces/AF12NES.JPG,"""",256,Cue,Test,null,16,"""","""","""","""","""","""","""","""",1,5/2/2021 17:36,223.182.193.232,Mozilla/5.0 (Windows NT 10.0; Win64; x64; rv:88.0) Gecko/20100101 Firefox/88.0,,Firefox,88,Windows,10
232,1,null,"""",image-keyboard-response,235,760049,0.0-235.0,"""",jspsych/neutralFaces/BF01NES.JPG,"""",256,backwardMask,Test,null,100,"""","""","""","""","""","""","""","""",1,5/2/2021 17:36,223.182.193.232,Mozilla/5.0 (Windows NT 10.0; Win64; x64; rv:88.0) Gecko/20100101 Firefox/88.0,,Firefox,88,Windows,10
232,1,null,"""",html-keyboard-response,236,761064,0.0-236.0,"""","<div style=""font-size:60px;"">+</div>","""",256,fixationBtwnNeutralMaskAndPrompt,Test,null,1000,"""","""","""","""","""","""","""","""",1,5/2/2021 17:36,223.182.193.232,Mozilla/5.0 (Windows NT 10.0; Win64; x64; rv:88.0) Gecko/20100101 Firefox/88.0,,Firefox,88,Windows,10
232,1,1249,"""",html-button-response,237,762317,0.0-237.0,"""","<img src='jspsych/CFDfaces/CFD-AM-231-136-N.jpg' height=""250px"">,</br><b>Jason</b>",1,256,IntactOrRearranged,Test,"""","""","""","""",CFD-BF-005-001-N.jpg,Whitney,0,"""","""",1,1,5/2/2021 17:36,223.182.193.232,Mozilla/5.0 (Windows NT 10.0; Win64; x64; rv:88.0) Gecko/20100101 Firefox/88.0,,Firefox,88,Windows,10
232,1,1737,"""",html-slider-response,238,764067,0.0-238.0,"""","<img src='jspsych/CFDfaces/CFD-AM-231-136-N.jpg' height=""250px"">,</br><b>Jason</b>","""",256,ConfidenceQuery,Test,"""","""","""","""",CFD-BF-005-001-N.jpg,Whitney,0,0,48,"""",1,5/2/2021 17:36,223.182.193.232,Mozilla/5.0 (Windows NT 10.0; Win64; x64; rv:88.0) Gecko/20100101 Firefox/88.0,,Firefox,88,Windows,10
232,1,null,"""",html-keyboard-response,239,765087,0.0-239.0,"""","<div style=""font-size:60px;"">+</div>","""",256,ITI,Test,null,1000,"""","""","""","""","""","""","""","""",1,5/2/2021 17:36,223.182.193.232,Mozilla/5.0 (Windows NT 10.0; Win64; x64; rv:88.0) Gecko/20100101 Firefox/88.0,,Firefox,88,Windows,10
232,1,null,"""",image-keyboard-response,240,765362,0.0-240.0,"""",jspsych/scrambledNeutralFaces/scrambledBF30NES.JPG,"""",256,forwardMask,Test,null,250,"""",n,"""","""","""","""","""","""",1,5/2/2021 17:36,223.182.193.232,Mozilla/5.0 (Windows NT 10.0; Win64; x64; rv:88.0) Gecko/20100101 Firefox/88.0,,Firefox,88,Windows,10
232,1,null,"""",image-keyboard-response,241,765396,0.0-241.0,"""",jspsych/neutralFaces/BF30NES.JPG,"""",256,Cue,Test,null,16,"""","""","""","""","""","""","""","""",1,5/2/2021 17:36,223.182.193.232,Mozilla/5.0 (Windows NT 10.0; Win64; x64; rv:88.0) Gecko/20100101 Firefox/88.0,,Firefox,88,Windows,10
232,1,null,"""",image-keyboard-response,242,765515,0.0-242.0,"""",jspsych/neutralFaces/AF02NES.JPG,"""",256,backwardMask,Test,null,100,"""","""","""","""","""","""","""","""",1,5/2/2021 17:36,223.182.193.232,Mozilla/5.0 (Windows NT 10.0; Win64; x64; rv:88.0) Gecko/20100101 Firefox/88.0,,Firefox,88,Windows,10
232,1,null,"""",html-keyboard-response,243,766540,0.0-243.0,"""","<div style=""font-size:60px;"">+</div>","""",256,fixationBtwnNeutralMaskAndPrompt,Test,null,1000,"""","""","""","""","""","""","""","""",1,5/2/2021 17:36,223.182.193.232,Mozilla/5.0 (Windows NT 10.0; Win64; x64; rv:88.0) Gecko/20100101 Firefox/88.0,,Firefox,88,Windows,10
232,1,1860,"""",html-button-response,244,768402,0.0-244.0,"""","<img src='jspsych/CFDfaces/CFD-BM-205-001-N.jpg' height=""250px"">,</br><b>Joshua</b>",0,256,IntactOrRearranged,Test,"""","""","""","""",CFD-BF-039-031-N.jpg,Angela,1,"""","""",0,1,5/2/2021 17:36,223.182.193.232,Mozilla/5.0 (Windows NT 10.0; Win64; x64; rv:88.0) Gecko/20100101 Firefox/88.0,,Firefox,88,Windows,10
232,1,1727,"""",html-slider-response,245,770148,0.0-245.0,"""","<img src='jspsych/CFDfaces/CFD-BM-205-001-N.jpg' height=""250px"">,</br><b>Joshua</b>","""",256,ConfidenceQuery,Test,"""","""","""","""",CFD-BF-039-031-N.jpg,Angela,1,0,37,"""",1,5/2/2021 17:36,223.182.193.232,Mozilla/5.0 (Windows NT 10.0; Win64; x64; rv:88.0) Gecko/20100101 Firefox/88.0,,Firefox,88,Windows,10
232,1,null,"""",html-keyboard-response,246,771173,0.0-246.0,"""","<div style=""font-size:60px;"">+</div>","""",256,ITI,Test,null,1000,"""","""","""","""","""","""","""","""",1,5/2/2021 17:36,223.182.193.232,Mozilla/5.0 (Windows NT 10.0; Win64; x64; rv:88.0) Gecko/20100101 Firefox/88.0,,Firefox,88,Windows,10
232,1,null,"""",image-keyboard-response,247,771436,0.0-247.0,"""",jspsych/scrambledNeutralFaces/scrambledBF17NES.JPG,"""",256,forwardMask,Test,null,250,"""",n,"""","""","""","""","""","""",1,5/2/2021 17:36,223.182.193.232,Mozilla/5.0 (Windows NT 10.0; Win64; x64; rv:88.0) Gecko/20100101 Firefox/88.0,,Firefox,88,Windows,10
232,1,null,"""",image-keyboard-response,248,771476,0.0-248.0,"""",jspsych/neutralFaces/BF17NES.JPG,"""",256,Cue,Test,null,16,"""","""","""","""","""","""","""","""",1,5/2/2021 17:36,223.182.193.232,Mozilla/5.0 (Windows NT 10.0; Win64; x64; rv:88.0) Gecko/20100101 Firefox/88.0,,Firefox,88,Windows,10
232,1,null,"""",image-keyboard-response,249,771599,0.0-249.0,"""",jspsych/neutralFaces/BF28NES.JPG,"""",256,backwardMask,Test,null,100,"""","""","""","""","""","""","""","""",1,5/2/2021 17:36,223.182.193.232,Mozilla/5.0 (Windows NT 10.0; Win64; x64; rv:88.0) Gecko/20100101 Firefox/88.0,,Firefox,88,Windows,10
232,1,null,"""",html-keyboard-response,250,772604,0.0-250.0,"""","<div style=""font-size:60px;"">+</div>","""",256,fixationBtwnNeutralMaskAndPrompt,Test,null,1000,"""","""","""","""","""","""","""","""",1,5/2/2021 17:36,223.182.193.232,Mozilla/5.0 (Windows NT 10.0; Win64; x64; rv:88.0) Gecko/20100101 Firefox/88.0,,Firefox,88,Windows,10
232,1,3114,"""",html-button-response,251,775721,0.0-251.0,"""","<img src='jspsych/CFDfaces/CFD-WF-200-099-N.jpg' height=""250px"">,</br><b>Elizabeth</b>",1,256,IntactOrRearranged,Test,"""","""","""","""",CFD-LM-209-111-N.jpg,Timothy,1,"""","""",1,1,5/2/2021 17:36,223.182.193.232,Mozilla/5.0 (Windows NT 10.0; Win64; x64; rv:88.0) Gecko/20100101 Firefox/88.0,,Firefox,88,Windows,10
232,1,1616,"""",html-slider-response,252,777353,0.0-252.0,"""","<img src='jspsych/CFDfaces/CFD-WF-200-099-N.jpg' height=""250px"">,</br><b>Elizabeth</b>","""",256,ConfidenceQuery,Test,"""","""","""","""",CFD-LM-209-111-N.jpg,Timothy,1,0,67,"""",1,5/2/2021 17:36,223.182.193.232,Mozilla/5.0 (Windows NT 10.0; Win64; x64; rv:88.0) Gecko/20100101 Firefox/88.0,,Firefox,88,Windows,10
232,1,null,"""",html-keyboard-response,253,778374,0.0-253.0,"""","<div style=""font-size:60px;"">+</div>","""",256,ITI,Test,null,1000,"""","""","""","""","""","""","""","""",1,5/2/2021 17:36,223.182.193.232,Mozilla/5.0 (Windows NT 10.0; Win64; x64; rv:88.0) Gecko/20100101 Firefox/88.0,,Firefox,88,Windows,10
232,1,null,"""",image-keyboard-response,254,778649,0.0-254.0,"""",jspsych/scrambledNeutralFaces/scrambledAF17NES.JPG,"""",256,forwardMask,Test,null,250,"""",n,"""","""","""","""","""","""",1,5/2/2021 17:36,223.182.193.232,Mozilla/5.0 (Windows NT 10.0; Win64; x64; rv:88.0) Gecko/20100101 Firefox/88.0,,Firefox,88,Windows,10
232,1,null,"""",image-keyboard-response,255,778689,0.0-255.0,"""",jspsych/neutralFaces/AF17NES.JPG,"""",256,Cue,Test,null,16,"""","""","""","""","""","""","""","""",1,5/2/2021 17:36,223.182.193.232,Mozilla/5.0 (Windows NT 10.0; Win64; x64; rv:88.0) Gecko/20100101 Firefox/88.0,,Firefox,88,Windows,10
232,1,null,"""",image-keyboard-response,256,778812,0.0-256.0,"""",jspsych/neutralFaces/BF06NES.JPG,"""",256,backwardMask,Test,null,100,"""","""","""","""","""","""","""","""",1,5/2/2021 17:36,223.182.193.232,Mozilla/5.0 (Windows NT 10.0; Win64; x64; rv:88.0) Gecko/20100101 Firefox/88.0,,Firefox,88,Windows,10
232,1,null,"""",html-keyboard-response,257,779820,0.0-257.0,"""","<div style=""font-size:60px;"">+</div>","""",256,fixationBtwnNeutralMaskAndPrompt,Test,null,1000,"""","""","""","""","""","""","""","""",1,5/2/2021 17:36,223.182.193.232,Mozilla/5.0 (Windows NT 10.0; Win64; x64; rv:88.0) Gecko/20100101 Firefox/88.0,,Firefox,88,Windows,10
232,1,1585,"""",html-button-response,258,781408,0.0-258.0,"""","<img src='jspsych/CFDfaces/CFD-WF-018-017-N.jpg' height=""250px"">,</br><b>Kimberly</b>",0,256,IntactOrRearranged,Test,"""","""","""","""",CFD-AF-222-134-N.jpg,Jasmine,1,"""","""",0,1,5/2/2021 17:36,223.182.193.232,Mozilla/5.0 (Windows NT 10.0; Win64; x64; rv:88.0) Gecko/20100101 Firefox/88.0,,Firefox,88,Windows,10
232,1,1704,"""",html-slider-response,259,783129,0.0-259.0,"""","<img src='jspsych/CFDfaces/CFD-WF-018-017-N.jpg' height=""250px"">,</br><b>Kimberly</b>","""",256,ConfidenceQuery,Test,"""","""","""","""",CFD-AF-222-134-N.jpg,Jasmine,1,0,38,"""",1,5/2/2021 17:36,223.182.193.232,Mozilla/5.0 (Windows NT 10.0; Win64; x64; rv:88.0) Gecko/20100101 Firefox/88.0,,Firefox,88,Windows,10
232,1,null,"""",html-keyboard-response,260,784144,0.0-260.0,"""","<div style=""font-size:60px;"">+</div>","""",256,ITI,Test,null,1000,"""","""","""","""","""","""","""","""",1,5/2/2021 17:36,223.182.193.232,Mozilla/5.0 (Windows NT 10.0; Win64; x64; rv:88.0) Gecko/20100101 Firefox/88.0,,Firefox,88,Windows,10
232,1,null,"""",image-keyboard-response,261,784419,0.0-261.0,"""",jspsych/scrambledNeutralFaces/scrambledBM12NES.JPG,"""",256,forwardMask,Test,null,250,"""",n,"""","""","""","""","""","""",1,5/2/2021 17:36,223.182.193.232,Mozilla/5.0 (Windows NT 10.0; Win64; x64; rv:88.0) Gecko/20100101 Firefox/88.0,,Firefox,88,Windows,10
232,1,null,"""",image-keyboard-response,262,784459,0.0-262.0,"""",jspsych/neutralFaces/BM12NES.JPG,"""",256,Cue,Test,null,16,"""","""","""","""","""","""","""","""",1,5/2/2021 17:36,223.182.193.232,Mozilla/5.0 (Windows NT 10.0; Win64; x64; rv:88.0) Gecko/20100101 Firefox/88.0,,Firefox,88,Windows,10
232,1,null,"""",image-keyboard-response,263,784581,0.0-263.0,"""",jspsych/neutralFaces/AM04NES.JPG,"""",256,backwardMask,Test,null,100,"""","""","""","""","""","""","""","""",1,5/2/2021 17:36,223.182.193.232,Mozilla/5.0 (Windows NT 10.0; Win64; x64; rv:88.0) Gecko/20100101 Firefox/88.0,,Firefox,88,Windows,10
232,1,null,"""",html-keyboard-response,264,785587,0.0-264.0,"""","<div style=""font-size:60px;"">+</div>","""",256,fixationBtwnNeutralMaskAndPrompt,Test,null,1000,"""","""","""","""","""","""","""","""",1,5/2/2021 17:36,223.182.193.232,Mozilla/5.0 (Windows NT 10.0; Win64; x64; rv:88.0) Gecko/20100101 Firefox/88.0,,Firefox,88,Windows,10
232,1,2084,"""",html-button-response,265,787672,0.0-265.0,"""","<img src='jspsych/CFDfaces/CFD-AM-242-176-N.jpg' height=""250px"">,</br><b>Eric</b>",0,256,IntactOrRearranged,Test,"""","""","""","""",CFD-LF-200-058-N.jpg,Jenna,1,"""","""",0,1,5/2/2021 17:36,223.182.193.232,Mozilla/5.0 (Windows NT 10.0; Win64; x64; rv:88.0) Gecko/20100101 Firefox/88.0,,Firefox,88,Windows,10
232,1,1992,"""",html-slider-response,266,789681,0.0-266.0,"""","<img src='jspsych/CFDfaces/CFD-AM-242-176-N.jpg' height=""250px"">,</br><b>Eric</b>","""",256,ConfidenceQuery,Test,"""","""","""","""",CFD-LF-200-058-N.jpg,Jenna,1,0,32,"""",1,5/2/2021 17:36,223.182.193.232,Mozilla/5.0 (Windows NT 10.0; Win64; x64; rv:88.0) Gecko/20100101 Firefox/88.0,,Firefox,88,Windows,10
232,1,null,"""",html-keyboard-response,267,790698,0.0-267.0,"""","<div style=""font-size:60px;"">+</div>","""",256,ITI,Test,null,1000,"""","""","""","""","""","""","""","""",1,5/2/2021 17:36,223.182.193.232,Mozilla/5.0 (Windows NT 10.0; Win64; x64; rv:88.0) Gecko/20100101 Firefox/88.0,,Firefox,88,Windows,10
232,1,null,"""",image-keyboard-response,268,790962,0.0-268.0,"""",jspsych/scrambledNeutralFaces/scrambledBM32NES.JPG,"""",256,forwardMask,Test,null,250,"""",n,"""","""","""","""","""","""",1,5/2/2021 17:36,223.182.193.232,Mozilla/5.0 (Windows NT 10.0; Win64; x64; rv:88.0) Gecko/20100101 Firefox/88.0,,Firefox,88,Windows,10
232,1,null,"""",image-keyboard-response,269,790982,0.0-269.0,"""",jspsych/neutralFaces/BM32NES.JPG,"""",256,Cue,Test,null,16,"""","""","""","""","""","""","""","""",1,5/2/2021 17:36,223.182.193.232,Mozilla/5.0 (Windows NT 10.0; Win64; x64; rv:88.0) Gecko/20100101 Firefox/88.0,,Firefox,88,Windows,10
232,1,null,"""",image-keyboard-response,270,791104,0.0-270.0,"""",jspsych/neutralFaces/BM34NES.JPG,"""",256,backwardMask,Test,null,100,"""","""","""","""","""","""","""","""",1,5/2/2021 17:36,223.182.193.232,Mozilla/5.0 (Windows NT 10.0; Win64; x64; rv:88.0) Gecko/20100101 Firefox/88.0,,Firefox,88,Windows,10
232,1,null,"""",html-keyboard-response,271,792107,0.0-271.0,"""","<div style=""font-size:60px;"">+</div>","""",256,fixationBtwnNeutralMaskAndPrompt,Test,null,1000,"""","""","""","""","""","""","""","""",1,5/2/2021 17:36,223.182.193.232,Mozilla/5.0 (Windows NT 10.0; Win64; x64; rv:88.0) Gecko/20100101 Firefox/88.0,,Firefox,88,Windows,10
232,1,2297,"""",html-button-response,272,794407,0.0-272.0,"""","<img src='jspsych/CFDfaces/CFD-LF-243-175-N.jpg' height=""250px"">,</br><b>Julie</b>",0,256,IntactOrRearranged,Test,"""","""","""","""",CFD-LF-231-260-N.jpg,Jordan,0,"""","""",0,1,5/2/2021 17:36,223.182.193.232,Mozilla/5.0 (Windows NT 10.0; Win64; x64; rv:88.0) Gecko/20100101 Firefox/88.0,,Firefox,88,Windows,10
232,1,1419,"""",html-slider-response,273,795839,0.0-273.0,"""","<img src='jspsych/CFDfaces/CFD-LF-243-175-N.jpg' height=""250px"">,</br><b>Julie</b>","""",256,ConfidenceQuery,Test,"""","""","""","""",CFD-LF-231-260-N.jpg,Jordan,0,0,37,"""",1,5/2/2021 17:36,223.182.193.232,Mozilla/5.0 (Windows NT 10.0; Win64; x64; rv:88.0) Gecko/20100101 Firefox/88.0,,Firefox,88,Windows,10
232,1,null,"""",html-keyboard-response,274,796854,0.0-274.0,"""","<div style=""font-size:60px;"">+</div>","""",256,ITI,Test,null,1000,"""","""","""","""","""","""","""","""",1,5/2/2021 17:36,223.182.193.232,Mozilla/5.0 (Windows NT 10.0; Win64; x64; rv:88.0) Gecko/20100101 Firefox/88.0,,Firefox,88,Windows,10
232,1,null,"""",image-keyboard-response,275,797118,0.0-275.0,"""",jspsych/scrambledDisgustFaces/scrambledBM23DIS.JPG,"""",256,forwardMask,Test,null,250,"""",d,"""","""","""","""","""","""",1,5/2/2021 17:36,223.182.193.232,Mozilla/5.0 (Windows NT 10.0; Win64; x64; rv:88.0) Gecko/20100101 Firefox/88.0,,Firefox,88,Windows,10
232,1,null,"""",image-keyboard-response,276,797157,0.0-276.0,"""",jspsych/disgustFaces/BM25DIS.JPG,"""",256,Cue,Test,null,16,"""","""","""","""","""","""","""","""",1,5/2/2021 17:36,223.182.193.232,Mozilla/5.0 (Windows NT 10.0; Win64; x64; rv:88.0) Gecko/20100101 Firefox/88.0,,Firefox,88,Windows,10
232,1,null,"""",image-keyboard-response,277,797270,0.0-277.0,"""",jspsych/neutralFaces/AM14NES.JPG,"""",256,backwardMask,Test,null,100,"""","""","""","""","""","""","""","""",1,5/2/2021 17:36,223.182.193.232,Mozilla/5.0 (Windows NT 10.0; Win64; x64; rv:88.0) Gecko/20100101 Firefox/88.0,,Firefox,88,Windows,10
232,1,null,"""",html-keyboard-response,278,798276,0.0-278.0,"""","<div style=""font-size:60px;"">+</div>","""",256,fixationBtwnNeutralMaskAndPrompt,Test,null,1000,"""","""","""","""","""","""","""","""",1,5/2/2021 17:36,223.182.193.232,Mozilla/5.0 (Windows NT 10.0; Win64; x64; rv:88.0) Gecko/20100101 Firefox/88.0,,Firefox,88,Windows,10
232,1,1474,"""",html-button-response,279,799751,0.0-279.0,"""","<img src='jspsych/CFDfaces/CFD-WM-207-048-N.jpg' height=""250px"">,</br><b>Nicholas</b>",1,256,IntactOrRearranged,Test,"""","""","""","""",CFD-BM-001-014-N.jpg,Luis,0,"""","""",1,1,5/2/2021 17:36,223.182.193.232,Mozilla/5.0 (Windows NT 10.0; Win64; x64; rv:88.0) Gecko/20100101 Firefox/88.0,,Firefox,88,Windows,10
232,1,1492,"""",html-slider-response,280,801247,0.0-280.0,"""","<img src='jspsych/CFDfaces/CFD-WM-207-048-N.jpg' height=""250px"">,</br><b>Nicholas</b>","""",256,ConfidenceQuery,Test,"""","""","""","""",CFD-BM-001-014-N.jpg,Luis,0,0,58,"""",1,5/2/2021 17:36,223.182.193.232,Mozilla/5.0 (Windows NT 10.0; Win64; x64; rv:88.0) Gecko/20100101 Firefox/88.0,,Firefox,88,Windows,10
232,1,null,"""",html-keyboard-response,281,802268,0.0-281.0,"""","<div style=""font-size:60px;"">+</div>","""",256,ITI,Test,null,1000,"""","""","""","""","""","""","""","""",1,5/2/2021 17:36,223.182.193.232,Mozilla/5.0 (Windows NT 10.0; Win64; x64; rv:88.0) Gecko/20100101 Firefox/88.0,,Firefox,88,Windows,10
232,1,null,"""",image-keyboard-response,282,802542,0.0-282.0,"""",jspsych/scrambledNeutralFaces/scrambledAF11NES.JPG,"""",256,forwardMask,Test,null,250,"""",n,"""","""","""","""","""","""",1,5/2/2021 17:36,223.182.193.232,Mozilla/5.0 (Windows NT 10.0; Win64; x64; rv:88.0) Gecko/20100101 Firefox/88.0,,Firefox,88,Windows,10
232,1,null,"""",image-keyboard-response,283,802572,0.0-283.0,"""",jspsych/neutralFaces/AF11NES.JPG,"""",256,Cue,Test,null,16,"""","""","""","""","""","""","""","""",1,5/2/2021 17:36,223.182.193.232,Mozilla/5.0 (Windows NT 10.0; Win64; x64; rv:88.0) Gecko/20100101 Firefox/88.0,,Firefox,88,Windows,10
232,1,null,"""",image-keyboard-response,284,802684,0.0-284.0,"""",jspsych/neutralFaces/BF31NES.JPG,"""",256,backwardMask,Test,null,100,"""","""","""","""","""","""","""","""",1,5/2/2021 17:36,223.182.193.232,Mozilla/5.0 (Windows NT 10.0; Win64; x64; rv:88.0) Gecko/20100101 Firefox/88.0,,Firefox,88,Windows,10
232,1,null,"""",html-keyboard-response,285,803701,0.0-285.0,"""","<div style=""font-size:60px;"">+</div>","""",256,fixationBtwnNeutralMaskAndPrompt,Test,null,1000,"""","""","""","""","""","""","""","""",1,5/2/2021 17:36,223.182.193.232,Mozilla/5.0 (Windows NT 10.0; Win64; x64; rv:88.0) Gecko/20100101 Firefox/88.0,,Firefox,88,Windows,10
232,1,1414,"""",html-button-response,286,805117,0.0-286.0,"""","<img src='jspsych/CFDfaces/CFD-LM-221-216-N.jpg' height=""250px"">,</br><b>James</b>",1,256,IntactOrRearranged,Test,"""","""","""","""",CFD-AF-208-003-N.jpg,Rebecca,1,"""","""",1,1,5/2/2021 17:36,223.182.193.232,Mozilla/5.0 (Windows NT 10.0; Win64; x64; rv:88.0) Gecko/20100101 Firefox/88.0,,Firefox,88,Windows,10
232,1,1483,"""",html-slider-response,287,806606,0.0-287.0,"""","<img src='jspsych/CFDfaces/CFD-LM-221-216-N.jpg' height=""250px"">,</br><b>James</b>","""",256,ConfidenceQuery,Test,"""","""","""","""",CFD-AF-208-003-N.jpg,Rebecca,1,0,70,"""",1,5/2/2021 17:36,223.182.193.232,Mozilla/5.0 (Windows NT 10.0; Win64; x64; rv:88.0) Gecko/20100101 Firefox/88.0,,Firefox,88,Windows,10
232,1,null,"""",html-keyboard-response,288,807612,0.0-288.0,"""","<div style=""font-size:60px;"">+</div>","""",256,ITI,Test,null,1000,"""","""","""","""","""","""","""","""",1,5/2/2021 17:36,223.182.193.232,Mozilla/5.0 (Windows NT 10.0; Win64; x64; rv:88.0) Gecko/20100101 Firefox/88.0,,Firefox,88,Windows,10
232,1,null,"""",image-keyboard-response,289,807897,0.0-289.0,"""",jspsych/scrambledDisgustFaces/scrambledBM20DIS.JPG,"""",256,forwardMask,Test,null,250,"""",d,"""","""","""","""","""","""",1,5/2/2021 17:36,223.182.193.232,Mozilla/5.0 (Windows NT 10.0; Win64; x64; rv:88.0) Gecko/20100101 Firefox/88.0,,Firefox,88,Windows,10
232,1,null,"""",image-keyboard-response,290,807937,0.0-290.0,"""",jspsych/disgustFaces/BM21DIS.JPG,"""",256,Cue,Test,null,16,"""","""","""","""","""","""","""","""",1,5/2/2021 17:36,223.182.193.232,Mozilla/5.0 (Windows NT 10.0; Win64; x64; rv:88.0) Gecko/20100101 Firefox/88.0,,Firefox,88,Windows,10
232,1,null,"""",image-keyboard-response,291,808057,0.0-291.0,"""",jspsych/neutralFaces/BM10NES.JPG,"""",256,backwardMask,Test,null,100,"""","""","""","""","""","""","""","""",1,5/2/2021 17:36,223.182.193.232,Mozilla/5.0 (Windows NT 10.0; Win64; x64; rv:88.0) Gecko/20100101 Firefox/88.0,,Firefox,88,Windows,10
232,1,null,"""",html-keyboard-response,292,809063,0.0-292.0,"""","<div style=""font-size:60px;"">+</div>","""",256,fixationBtwnNeutralMaskAndPrompt,Test,null,1000,"""","""","""","""","""","""","""","""",1,5/2/2021 17:36,223.182.193.232,Mozilla/5.0 (Windows NT 10.0; Win64; x64; rv:88.0) Gecko/20100101 Firefox/88.0,,Firefox,88,Windows,10
232,1,2563,"""",html-button-response,293,811629,0.0-293.0,"""","<img src='jspsych/CFDfaces/CFD-BF-209-172-N.jpg' height=""250px"">,</br><b>Ashley</b>",1,256,IntactOrRearranged,Test,"""","""","""","""",CFD-AM-212-050-N.jpg,Mark,1,"""","""",1,1,5/2/2021 17:36,223.182.193.232,Mozilla/5.0 (Windows NT 10.0; Win64; x64; rv:88.0) Gecko/20100101 Firefox/88.0,,Firefox,88,Windows,10
232,1,2049,"""",html-slider-response,294,813685,0.0-294.0,"""","<img src='jspsych/CFDfaces/CFD-BF-209-172-N.jpg' height=""250px"">,</br><b>Ashley</b>","""",256,ConfidenceQuery,Test,"""","""","""","""",CFD-AM-212-050-N.jpg,Mark,1,0,36,"""",1,5/2/2021 17:36,223.182.193.232,Mozilla/5.0 (Windows NT 10.0; Win64; x64; rv:88.0) Gecko/20100101 Firefox/88.0,,Firefox,88,Windows,10
