run_id,condition,rt,responses,trial_type,trial_index,time_elapsed,internal_node_id,question_order,stimulus,button_pressed,iTrial,Phase,ExperimentPhase,key_press,StimulusDurationSetting,CharacterResponse,correctResponse,Face,Name,rearranged,didSubjectEnterRearranged,slider_start,response,Block,recorded_at,ip,user_agent,device,browser,browser_version,platform,platform_version
171,1,35829,"{""Q0"":""A3IE3EBIDHG7MV""}",survey-text,0,35975,0.0-0.0,"""","""","""","""","""","""","""","""","""","""","""","""","""","""","""","""","""",4/27/2021 4:50,60.231.48.194,Mozilla/5.0 (Windows NT 6.1; rv:88.0) Gecko/20100101 Firefox/88.0,,Firefox,88,Windows,6.1
171,1,3543,"{""Q0"":""49""}",survey-text,1,39539,0.0-1.0,"""","""","""","""","""","""","""","""","""","""","""","""","""","""","""","""","""",4/27/2021 4:50,60.231.48.194,Mozilla/5.0 (Windows NT 6.1; rv:88.0) Gecko/20100101 Firefox/88.0,,Firefox,88,Windows,6.1
171,1,9661,"{""Q0"":""female"",""Q1"":""Not Hispanic/Latino"",""Q2"":""White or Caucasian""}",survey-multi-choice,2,49220,0.0-2.0,"[0,1,2]","""","""","""","""","""","""","""","""","""","""","""","""","""","""","""","""",4/27/2021 4:50,60.231.48.194,Mozilla/5.0 (Windows NT 6.1; rv:88.0) Gecko/20100101 Firefox/88.0,,Firefox,88,Windows,6.1
171,1,84770,"""",image-button-response,3,134276,0.0-3.0,"""",directionsMemoryAssociation1.JPG,0,1,IntroDirections1,break,"""","""","""","""","""","""","""","""","""","""","""",4/27/2021 4:50,60.231.48.194,Mozilla/5.0 (Windows NT 6.1; rv:88.0) Gecko/20100101 Firefox/88.0,,Firefox,88,Windows,6.1
171,1,61497,"""",image-button-response,4,195792,0.0-4.0,"""",directionsMemoryAssociation2.JPG,0,1,IntroDirections2,break,"""","""","""","""","""","""","""","""","""","""","""",4/27/2021 4:50,60.231.48.194,Mozilla/5.0 (Windows NT 6.1; rv:88.0) Gecko/20100101 Firefox/88.0,,Firefox,88,Windows,6.1
171,1,null,"""",html-keyboard-response,5,200805,0.0-5.0,"""","<img src='jspsych/CFDfaces/CFD-AM-207-108-N.jpg' height=""250px"">,</br><b>Patrick</b>","""",1,IntactFace,Practice,null,5000,"""","""","""","""","""","""","""","""","""",4/27/2021 4:50,60.231.48.194,Mozilla/5.0 (Windows NT 6.1; rv:88.0) Gecko/20100101 Firefox/88.0,,Firefox,88,Windows,6.1
171,1,null,"""",html-keyboard-response,6,201307,0.0-6.0,"""","<div style=""font-size:60px;"">+</div>","""",1,ITI,Practice,null,1000,"""","""","""","""","""","""","""","""","""",4/27/2021 4:50,60.231.48.194,Mozilla/5.0 (Windows NT 6.1; rv:88.0) Gecko/20100101 Firefox/88.0,,Firefox,88,Windows,6.1
171,1,null,"""",html-keyboard-response,7,206310,0.0-7.0,"""","<img src='jspsych/CFDfaces/CFD-LF-244-096-N.jpg' height=""250px"">,</br><b>Shannon</b>","""",2,IntactFace,Practice,null,5000,"""","""","""","""","""","""","""","""","""",4/27/2021 4:50,60.231.48.194,Mozilla/5.0 (Windows NT 6.1; rv:88.0) Gecko/20100101 Firefox/88.0,,Firefox,88,Windows,6.1
171,1,null,"""",html-keyboard-response,8,206841,0.0-8.0,"""","<div style=""font-size:60px;"">+</div>","""",2,ITI,Practice,null,1000,"""","""","""","""","""","""","""","""","""",4/27/2021 4:50,60.231.48.194,Mozilla/5.0 (Windows NT 6.1; rv:88.0) Gecko/20100101 Firefox/88.0,,Firefox,88,Windows,6.1
171,1,4082,"""",html-keyboard-response,9,211843,0.0-9.0,"""","<img src='jspsych/CFDfaces/CFD-LM-239-075-N.jpg' height=""250px"">,</br><b>Samuel</b>","""",3,IntactFace,Practice,78,5000,n,"""","""","""","""","""","""","""","""",4/27/2021 4:50,60.231.48.194,Mozilla/5.0 (Windows NT 6.1; rv:88.0) Gecko/20100101 Firefox/88.0,,Firefox,88,Windows,6.1
171,1,null,"""",html-keyboard-response,10,212346,0.0-10.0,"""","<div style=""font-size:60px;"">+</div>","""",3,ITI,Practice,null,1000,"""","""","""","""","""","""","""","""","""",4/27/2021 4:50,60.231.48.194,Mozilla/5.0 (Windows NT 6.1; rv:88.0) Gecko/20100101 Firefox/88.0,,Firefox,88,Windows,6.1
171,1,4204,"""",html-keyboard-response,11,217352,0.0-11.0,"""","<img src='jspsych/CFDfaces/CFD-WF-220-101-N.jpg' height=""250px"">,</br><b>Tara</b>","""",4,IntactFace,Practice,78,5000,n,"""","""","""","""","""","""","""","""",4/27/2021 4:50,60.231.48.194,Mozilla/5.0 (Windows NT 6.1; rv:88.0) Gecko/20100101 Firefox/88.0,,Firefox,88,Windows,6.1
171,1,null,"""",html-keyboard-response,12,217854,0.0-12.0,"""","<div style=""font-size:60px;"">+</div>","""",4,ITI,Practice,null,1000,"""","""","""","""","""","""","""","""","""",4/27/2021 4:50,60.231.48.194,Mozilla/5.0 (Windows NT 6.1; rv:88.0) Gecko/20100101 Firefox/88.0,,Firefox,88,Windows,6.1
171,1,4316,"""",html-keyboard-response,13,222857,0.0-13.0,"""","<img src='jspsych/CFDfaces/CFD-BF-039-031-N.jpg' height=""250px"">,</br><b>Cassandra</b>","""",5,IntactFace,Practice,70,5000,f,"""","""","""","""","""","""","""","""",4/27/2021 4:50,60.231.48.194,Mozilla/5.0 (Windows NT 6.1; rv:88.0) Gecko/20100101 Firefox/88.0,,Firefox,88,Windows,6.1
171,1,null,"""",html-keyboard-response,14,223363,0.0-14.0,"""","<div style=""font-size:60px;"">+</div>","""",5,ITI,Practice,null,1000,"""","""","""","""","""","""","""","""","""",4/27/2021 4:50,60.231.48.194,Mozilla/5.0 (Windows NT 6.1; rv:88.0) Gecko/20100101 Firefox/88.0,,Firefox,88,Windows,6.1
171,1,1215,"""",html-keyboard-response,15,228367,0.0-15.0,"""","<img src='jspsych/CFDfaces/CFD-BM-011-016-N.jpg' height=""250px"">,</br><b>Carlos</b>","""",6,IntactFace,Practice,70,5000,f,"""","""","""","""","""","""","""","""",4/27/2021 4:50,60.231.48.194,Mozilla/5.0 (Windows NT 6.1; rv:88.0) Gecko/20100101 Firefox/88.0,,Firefox,88,Windows,6.1
171,1,null,"""",html-keyboard-response,16,228868,0.0-16.0,"""","<div style=""font-size:60px;"">+</div>","""",6,ITI,Practice,null,1000,"""","""","""","""","""","""","""","""","""",4/27/2021 4:50,60.231.48.194,Mozilla/5.0 (Windows NT 6.1; rv:88.0) Gecko/20100101 Firefox/88.0,,Firefox,88,Windows,6.1
171,1,3906,"""",html-keyboard-response,17,233875,0.0-17.0,"""","<img src='jspsych/CFDfaces/CFD-LM-213-061-N.jpg' height=""250px"">,</br><b>Marcus</b>","""",7,IntactFace,Practice,70,5000,f,"""","""","""","""","""","""","""","""",4/27/2021 4:50,60.231.48.194,Mozilla/5.0 (Windows NT 6.1; rv:88.0) Gecko/20100101 Firefox/88.0,,Firefox,88,Windows,6.1
171,1,null,"""",html-keyboard-response,18,234377,0.0-18.0,"""","<div style=""font-size:60px;"">+</div>","""",7,ITI,Practice,null,1000,"""","""","""","""","""","""","""","""","""",4/27/2021 4:50,60.231.48.194,Mozilla/5.0 (Windows NT 6.1; rv:88.0) Gecko/20100101 Firefox/88.0,,Firefox,88,Windows,6.1
171,1,1945,"""",html-keyboard-response,19,239379,0.0-19.0,"""","<img src='jspsych/CFDfaces/CFD-LF-204-133-N.jpg' height=""250px"">,</br><b>Katelyn</b>","""",8,IntactFace,Practice,78,5000,n,"""","""","""","""","""","""","""","""",4/27/2021 4:50,60.231.48.194,Mozilla/5.0 (Windows NT 6.1; rv:88.0) Gecko/20100101 Firefox/88.0,,Firefox,88,Windows,6.1
171,1,null,"""",html-keyboard-response,20,239889,0.0-20.0,"""","<div style=""font-size:60px;"">+</div>","""",8,ITI,Practice,null,1000,"""","""","""","""","""","""","""","""","""",4/27/2021 4:50,60.231.48.194,Mozilla/5.0 (Windows NT 6.1; rv:88.0) Gecko/20100101 Firefox/88.0,,Firefox,88,Windows,6.1
171,1,30166,"""",image-button-response,21,270069,0.0-21.0,"""",directionsForTest.JPG,0,1,directionsForTest,break,"""","""","""","""","""","""","""","""","""","""","""",4/27/2021 4:50,60.231.48.194,Mozilla/5.0 (Windows NT 6.1; rv:88.0) Gecko/20100101 Firefox/88.0,,Firefox,88,Windows,6.1
171,1,23706,"""",image-button-response,22,293796,0.0-22.0,"""",directionsForTest2.JPG,0,1,directionsForTest2,break,"""","""","""","""","""","""","""","""","""","""","""",4/27/2021 4:50,60.231.48.194,Mozilla/5.0 (Windows NT 6.1; rv:88.0) Gecko/20100101 Firefox/88.0,,Firefox,88,Windows,6.1
171,1,null,"""",html-keyboard-response,23,294799,0.0-23.0,"""","<div style=""font-size:60px;"">+</div>","""",1,ITI,Practice,null,1000,"""","""","""","""","""","""","""","""","""",4/27/2021 4:50,60.231.48.194,Mozilla/5.0 (Windows NT 6.1; rv:88.0) Gecko/20100101 Firefox/88.0,,Firefox,88,Windows,6.1
171,1,null,"""",image-keyboard-response,24,295101,0.0-24.0,"""",jspsych/scrambledNeutralFaces/scrambledBM32NES.JPG,"""",1,forwardMask,Practice,null,250,"""",n,"""","""","""","""","""","""","""",4/27/2021 4:50,60.231.48.194,Mozilla/5.0 (Windows NT 6.1; rv:88.0) Gecko/20100101 Firefox/88.0,,Firefox,88,Windows,6.1
171,1,null,"""",image-keyboard-response,25,295123,0.0-25.0,"""",jspsych/neutralFaces/BM32NES.JPG,"""",1,Cue,Practice,null,16,"""","""","""","""","""","""","""","""","""",4/27/2021 4:50,60.231.48.194,Mozilla/5.0 (Windows NT 6.1; rv:88.0) Gecko/20100101 Firefox/88.0,,Firefox,88,Windows,6.1
171,1,null,"""",image-keyboard-response,26,295232,0.0-26.0,"""",jspsych/neutralFaces/BM13NES.JPG,"""",1,backwardMask,Practice,null,100,"""","""","""","""","""","""","""","""","""",4/27/2021 4:50,60.231.48.194,Mozilla/5.0 (Windows NT 6.1; rv:88.0) Gecko/20100101 Firefox/88.0,,Firefox,88,Windows,6.1
171,1,null,"""",html-keyboard-response,27,296233,0.0-27.0,"""","<div style=""font-size:60px;"">+</div>","""",1,fixationBtwnNeutralMaskAndPrompt,Practice,null,1000,"""","""","""","""","""","""","""","""","""",4/27/2021 4:50,60.231.48.194,Mozilla/5.0 (Windows NT 6.1; rv:88.0) Gecko/20100101 Firefox/88.0,,Firefox,88,Windows,6.1
171,1,3992,"""",html-button-response,28,300228,0.0-28.0,"""","<img src='jspsych/CFDfaces/CFD-LM-239-075-N.jpg'height=""250px""></br><b>Samuel</b>",1,1,IntactOrRearranged,Practice,"""","""","""","""",CFD-LM-239-075-N.jpg,Samuel,0,1,"""","""","""",4/27/2021 4:50,60.231.48.194,Mozilla/5.0 (Windows NT 6.1; rv:88.0) Gecko/20100101 Firefox/88.0,,Firefox,88,Windows,6.1
171,1,2354,"""",html-slider-response,29,302788,0.0-29.0,"""","<img src='jspsych/CFDfaces/CFD-LM-239-075-N.jpg'height=""250px""></br><b>Samuel</b>","""",1,ConfidenceQuery,Practice,"""","""","""","""",CFD-BF-009-002-N.jpg,Jasmine,0,"""",0,65,"""",4/27/2021 4:50,60.231.48.194,Mozilla/5.0 (Windows NT 6.1; rv:88.0) Gecko/20100101 Firefox/88.0,,Firefox,88,Windows,6.1
171,1,3150,"""",html-button-response,30,305947,0.0-30.0,"""",You are Incorrect. You Called an Intact Pair Rearranged,0,1,feedback,Practice,"""","""","""","""","""","""","""","""","""","""","""",4/27/2021 4:50,60.231.48.194,Mozilla/5.0 (Windows NT 6.1; rv:88.0) Gecko/20100101 Firefox/88.0,,Firefox,88,Windows,6.1
171,1,null,"""",html-keyboard-response,31,306952,0.0-31.0,"""","<div style=""font-size:60px;"">+</div>","""",2,ITI,Practice,null,1000,"""","""","""","""","""","""","""","""","""",4/27/2021 4:50,60.231.48.194,Mozilla/5.0 (Windows NT 6.1; rv:88.0) Gecko/20100101 Firefox/88.0,,Firefox,88,Windows,6.1
171,1,null,"""",image-keyboard-response,32,307207,0.0-32.0,"""",jspsych/scrambledNeutralFaces/scrambledAF28NES.JPG,"""",2,forwardMask,Practice,null,250,"""",n,"""","""","""","""","""","""","""",4/27/2021 4:50,60.231.48.194,Mozilla/5.0 (Windows NT 6.1; rv:88.0) Gecko/20100101 Firefox/88.0,,Firefox,88,Windows,6.1
171,1,null,"""",image-keyboard-response,33,307230,0.0-33.0,"""",jspsych/neutralFaces/AF28NES.JPG,"""",2,Cue,Practice,null,16,"""","""","""","""","""","""","""","""","""",4/27/2021 4:50,60.231.48.194,Mozilla/5.0 (Windows NT 6.1; rv:88.0) Gecko/20100101 Firefox/88.0,,Firefox,88,Windows,6.1
171,1,null,"""",image-keyboard-response,34,307337,0.0-34.0,"""",jspsych/neutralFaces/AF15NES.JPG,"""",2,backwardMask,Practice,null,100,"""","""","""","""","""","""","""","""","""",4/27/2021 4:50,60.231.48.194,Mozilla/5.0 (Windows NT 6.1; rv:88.0) Gecko/20100101 Firefox/88.0,,Firefox,88,Windows,6.1
171,1,null,"""",html-keyboard-response,35,308338,0.0-35.0,"""","<div style=""font-size:60px;"">+</div>","""",2,fixationBtwnNeutralMaskAndPrompt,Practice,null,1000,"""","""","""","""","""","""","""","""","""",4/27/2021 4:50,60.231.48.194,Mozilla/5.0 (Windows NT 6.1; rv:88.0) Gecko/20100101 Firefox/88.0,,Firefox,88,Windows,6.1
171,1,1895,"""",html-button-response,36,310236,0.0-36.0,"""","<img src='jspsych/CFDfaces/CFD-AM-207-108-N.jpg'height=""250px""></br><b>Patrick</b>",0,2,IntactOrRearranged,Practice,"""","""","""","""",CFD-AM-207-108-N.jpg,Patrick,0,0,"""","""","""",4/27/2021 4:50,60.231.48.194,Mozilla/5.0 (Windows NT 6.1; rv:88.0) Gecko/20100101 Firefox/88.0,,Firefox,88,Windows,6.1
171,1,1887,"""",html-slider-response,37,312131,0.0-37.0,"""","<img src='jspsych/CFDfaces/CFD-AM-207-108-N.jpg'height=""250px""></br><b>Patrick</b>","""",2,ConfidenceQuery,Practice,"""","""","""","""",CFD-BF-009-002-N.jpg,Jasmine,0,"""",0,60,"""",4/27/2021 4:50,60.231.48.194,Mozilla/5.0 (Windows NT 6.1; rv:88.0) Gecko/20100101 Firefox/88.0,,Firefox,88,Windows,6.1
171,1,1405,"""",html-button-response,38,313540,0.0-38.0,"""",You are Correct. You called an Intact Pair Intact,0,2,feedback,Practice,"""","""","""","""","""","""","""","""","""","""","""",4/27/2021 4:50,60.231.48.194,Mozilla/5.0 (Windows NT 6.1; rv:88.0) Gecko/20100101 Firefox/88.0,,Firefox,88,Windows,6.1
171,1,null,"""",html-keyboard-response,39,314543,0.0-39.0,"""","<div style=""font-size:60px;"">+</div>","""",3,ITI,Practice,null,1000,"""","""","""","""","""","""","""","""","""",4/27/2021 4:50,60.231.48.194,Mozilla/5.0 (Windows NT 6.1; rv:88.0) Gecko/20100101 Firefox/88.0,,Firefox,88,Windows,6.1
171,1,null,"""",image-keyboard-response,40,314798,0.0-40.0,"""",jspsych/scrambledDisgustFaces/scrambledAM35DIS.JPG,"""",3,forwardMask,Practice,null,250,"""",d,"""","""","""","""","""","""","""",4/27/2021 4:50,60.231.48.194,Mozilla/5.0 (Windows NT 6.1; rv:88.0) Gecko/20100101 Firefox/88.0,,Firefox,88,Windows,6.1
171,1,null,"""",image-keyboard-response,41,314822,0.0-41.0,"""",jspsych/disgustFaces/AM35DIS.JPG,"""",3,Cue,Practice,null,16,"""","""","""","""","""","""","""","""","""",4/27/2021 4:50,60.231.48.194,Mozilla/5.0 (Windows NT 6.1; rv:88.0) Gecko/20100101 Firefox/88.0,,Firefox,88,Windows,6.1
171,1,null,"""",image-keyboard-response,42,314930,0.0-42.0,"""",jspsych/neutralFaces/BM33NES.JPG,"""",3,backwardMask,Practice,null,100,"""","""","""","""","""","""","""","""","""",4/27/2021 4:50,60.231.48.194,Mozilla/5.0 (Windows NT 6.1; rv:88.0) Gecko/20100101 Firefox/88.0,,Firefox,88,Windows,6.1
171,1,null,"""",html-keyboard-response,43,315930,0.0-43.0,"""","<div style=""font-size:60px;"">+</div>","""",3,fixationBtwnNeutralMaskAndPrompt,Practice,null,1000,"""","""","""","""","""","""","""","""","""",4/27/2021 4:50,60.231.48.194,Mozilla/5.0 (Windows NT 6.1; rv:88.0) Gecko/20100101 Firefox/88.0,,Firefox,88,Windows,6.1
171,1,2087,"""",html-button-response,44,318020,0.0-44.0,"""","<img src='jspsych/CFDfaces/CFD-WF-220-101-N.jpg'height=""250px""></br><b>Tara</b>",1,3,IntactOrRearranged,Practice,"""","""","""","""",CFD-WF-220-101-N.jpg,Tara,0,1,"""","""","""",4/27/2021 4:50,60.231.48.194,Mozilla/5.0 (Windows NT 6.1; rv:88.0) Gecko/20100101 Firefox/88.0,,Firefox,88,Windows,6.1
171,1,2630,"""",html-slider-response,45,320661,0.0-45.0,"""","<img src='jspsych/CFDfaces/CFD-WF-220-101-N.jpg'height=""250px""></br><b>Tara</b>","""",3,ConfidenceQuery,Practice,"""","""","""","""",CFD-BF-009-002-N.jpg,Jasmine,0,"""",0,62,"""",4/27/2021 4:50,60.231.48.194,Mozilla/5.0 (Windows NT 6.1; rv:88.0) Gecko/20100101 Firefox/88.0,,Firefox,88,Windows,6.1
171,1,1546,"""",html-button-response,46,322212,0.0-46.0,"""",You are Incorrect. You Called an Intact Pair Rearranged,0,3,feedback,Practice,"""","""","""","""","""","""","""","""","""","""","""",4/27/2021 4:50,60.231.48.194,Mozilla/5.0 (Windows NT 6.1; rv:88.0) Gecko/20100101 Firefox/88.0,,Firefox,88,Windows,6.1
171,1,null,"""",html-keyboard-response,47,323217,0.0-47.0,"""","<div style=""font-size:60px;"">+</div>","""",4,ITI,Practice,null,1000,"""","""","""","""","""","""","""","""","""",4/27/2021 4:50,60.231.48.194,Mozilla/5.0 (Windows NT 6.1; rv:88.0) Gecko/20100101 Firefox/88.0,,Firefox,88,Windows,6.1
171,1,null,"""",image-keyboard-response,48,323473,0.0-48.0,"""",jspsych/scrambledNeutralFaces/scrambledBM01NES.JPG,"""",4,forwardMask,Practice,null,250,"""",n,"""","""","""","""","""","""","""",4/27/2021 4:50,60.231.48.194,Mozilla/5.0 (Windows NT 6.1; rv:88.0) Gecko/20100101 Firefox/88.0,,Firefox,88,Windows,6.1
171,1,null,"""",image-keyboard-response,49,323497,0.0-49.0,"""",jspsych/neutralFaces/BM01NES.JPG,"""",4,Cue,Practice,null,16,"""","""","""","""","""","""","""","""","""",4/27/2021 4:50,60.231.48.194,Mozilla/5.0 (Windows NT 6.1; rv:88.0) Gecko/20100101 Firefox/88.0,,Firefox,88,Windows,6.1
171,1,null,"""",image-keyboard-response,50,323603,0.0-50.0,"""",jspsych/neutralFaces/BM32NES.JPG,"""",4,backwardMask,Practice,null,100,"""","""","""","""","""","""","""","""","""",4/27/2021 4:50,60.231.48.194,Mozilla/5.0 (Windows NT 6.1; rv:88.0) Gecko/20100101 Firefox/88.0,,Firefox,88,Windows,6.1
171,1,null,"""",html-keyboard-response,51,324605,0.0-51.0,"""","<div style=""font-size:60px;"">+</div>","""",4,fixationBtwnNeutralMaskAndPrompt,Practice,null,1000,"""","""","""","""","""","""","""","""","""",4/27/2021 4:50,60.231.48.194,Mozilla/5.0 (Windows NT 6.1; rv:88.0) Gecko/20100101 Firefox/88.0,,Firefox,88,Windows,6.1
171,1,4811,"""",html-button-response,52,329435,0.0-52.0,"""","<img src='jspsych/CFDfaces/CFD-LM-213-061-N.jpg'height=""250px""></br><b>Carlos</b>",0,4,IntactOrRearranged,Practice,"""","""","""","""",CFD-LM-213-061-N.jpg,Carlos,1,0,"""","""","""",4/27/2021 4:50,60.231.48.194,Mozilla/5.0 (Windows NT 6.1; rv:88.0) Gecko/20100101 Firefox/88.0,,Firefox,88,Windows,6.1
171,1,1434,"""",html-slider-response,53,330874,0.0-53.0,"""","<img src='jspsych/CFDfaces/CFD-LM-213-061-N.jpg'height=""250px""></br><b>Carlos</b>","""",4,ConfidenceQuery,Practice,"""","""","""","""",CFD-BF-009-002-N.jpg,Jasmine,1,"""",0,53,"""",4/27/2021 4:50,60.231.48.194,Mozilla/5.0 (Windows NT 6.1; rv:88.0) Gecko/20100101 Firefox/88.0,,Firefox,88,Windows,6.1
171,1,2319,"""",html-button-response,54,333203,0.0-54.0,"""",You are Incorrect. You called a Rearranged Pair Intact,0,4,feedback,Practice,"""","""","""","""","""","""","""","""","""","""","""",4/27/2021 4:50,60.231.48.194,Mozilla/5.0 (Windows NT 6.1; rv:88.0) Gecko/20100101 Firefox/88.0,,Firefox,88,Windows,6.1
171,1,null,"""",html-keyboard-response,55,334205,0.0-55.0,"""","<div style=""font-size:60px;"">+</div>","""",5,ITI,Practice,null,1000,"""","""","""","""","""","""","""","""","""",4/27/2021 4:50,60.231.48.194,Mozilla/5.0 (Windows NT 6.1; rv:88.0) Gecko/20100101 Firefox/88.0,,Firefox,88,Windows,6.1
171,1,null,"""",image-keyboard-response,56,334461,0.0-56.0,"""",jspsych/scrambledDisgustFaces/scrambledAM19DIS.JPG,"""",5,forwardMask,Practice,null,250,"""",d,"""","""","""","""","""","""","""",4/27/2021 4:50,60.231.48.194,Mozilla/5.0 (Windows NT 6.1; rv:88.0) Gecko/20100101 Firefox/88.0,,Firefox,88,Windows,6.1
171,1,null,"""",image-keyboard-response,57,334484,0.0-57.0,"""",jspsych/disgustFaces/AM19DIS.JPG,"""",5,Cue,Practice,null,16,"""","""","""","""","""","""","""","""","""",4/27/2021 4:50,60.231.48.194,Mozilla/5.0 (Windows NT 6.1; rv:88.0) Gecko/20100101 Firefox/88.0,,Firefox,88,Windows,6.1
171,1,null,"""",image-keyboard-response,58,334592,0.0-58.0,"""",jspsych/neutralFaces/AM32NES.JPG,"""",5,backwardMask,Practice,null,100,"""","""","""","""","""","""","""","""","""",4/27/2021 4:50,60.231.48.194,Mozilla/5.0 (Windows NT 6.1; rv:88.0) Gecko/20100101 Firefox/88.0,,Firefox,88,Windows,6.1
171,1,null,"""",html-keyboard-response,59,335594,0.0-59.0,"""","<div style=""font-size:60px;"">+</div>","""",5,fixationBtwnNeutralMaskAndPrompt,Practice,null,1000,"""","""","""","""","""","""","""","""","""",4/27/2021 4:50,60.231.48.194,Mozilla/5.0 (Windows NT 6.1; rv:88.0) Gecko/20100101 Firefox/88.0,,Firefox,88,Windows,6.1
171,1,3136,"""",html-button-response,60,338731,0.0-60.0,"""","<img src='jspsych/CFDfaces/CFD-LF-244-096-N.jpg'height=""250px""></br><b>Shannon</b>",1,5,IntactOrRearranged,Practice,"""","""","""","""",CFD-LF-244-096-N.jpg,Shannon,0,1,"""","""","""",4/27/2021 4:50,60.231.48.194,Mozilla/5.0 (Windows NT 6.1; rv:88.0) Gecko/20100101 Firefox/88.0,,Firefox,88,Windows,6.1
171,1,1964,"""",html-slider-response,61,340707,0.0-61.0,"""","<img src='jspsych/CFDfaces/CFD-LF-244-096-N.jpg'height=""250px""></br><b>Shannon</b>","""",5,ConfidenceQuery,Practice,"""","""","""","""",CFD-BF-009-002-N.jpg,Jasmine,0,"""",0,68,"""",4/27/2021 4:50,60.231.48.194,Mozilla/5.0 (Windows NT 6.1; rv:88.0) Gecko/20100101 Firefox/88.0,,Firefox,88,Windows,6.1
171,1,1470,"""",html-button-response,62,342179,0.0-62.0,"""",You are Incorrect. You Called an Intact Pair Rearranged,0,5,feedback,Practice,"""","""","""","""","""","""","""","""","""","""","""",4/27/2021 4:50,60.231.48.194,Mozilla/5.0 (Windows NT 6.1; rv:88.0) Gecko/20100101 Firefox/88.0,,Firefox,88,Windows,6.1
171,1,null,"""",html-keyboard-response,63,343183,0.0-63.0,"""","<div style=""font-size:60px;"">+</div>","""",6,ITI,Practice,null,1000,"""","""","""","""","""","""","""","""","""",4/27/2021 4:50,60.231.48.194,Mozilla/5.0 (Windows NT 6.1; rv:88.0) Gecko/20100101 Firefox/88.0,,Firefox,88,Windows,6.1
171,1,null,"""",image-keyboard-response,64,343438,0.0-64.0,"""",jspsych/scrambledDisgustFaces/scrambledAM31DIS.JPG,"""",6,forwardMask,Practice,null,250,"""",d,"""","""","""","""","""","""","""",4/27/2021 4:50,60.231.48.194,Mozilla/5.0 (Windows NT 6.1; rv:88.0) Gecko/20100101 Firefox/88.0,,Firefox,88,Windows,6.1
171,1,null,"""",image-keyboard-response,65,343460,0.0-65.0,"""",jspsych/disgustFaces/AM31DIS.JPG,"""",6,Cue,Practice,null,16,"""","""","""","""","""","""","""","""","""",4/27/2021 4:50,60.231.48.194,Mozilla/5.0 (Windows NT 6.1; rv:88.0) Gecko/20100101 Firefox/88.0,,Firefox,88,Windows,6.1
171,1,null,"""",image-keyboard-response,66,343567,0.0-66.0,"""",jspsych/neutralFaces/BM03NES.JPG,"""",6,backwardMask,Practice,null,100,"""","""","""","""","""","""","""","""","""",4/27/2021 4:50,60.231.48.194,Mozilla/5.0 (Windows NT 6.1; rv:88.0) Gecko/20100101 Firefox/88.0,,Firefox,88,Windows,6.1
171,1,null,"""",html-keyboard-response,67,344569,0.0-67.0,"""","<div style=""font-size:60px;"">+</div>","""",6,fixationBtwnNeutralMaskAndPrompt,Practice,null,1000,"""","""","""","""","""","""","""","""","""",4/27/2021 4:50,60.231.48.194,Mozilla/5.0 (Windows NT 6.1; rv:88.0) Gecko/20100101 Firefox/88.0,,Firefox,88,Windows,6.1
171,1,1856,"""",html-button-response,68,346427,0.0-68.0,"""","<img src='jspsych/CFDfaces/CFD-LF-204-133-N.jpg'height=""250px""></br><b>Cassandra</b>",1,6,IntactOrRearranged,Practice,"""","""","""","""",CFD-LF-204-133-N.jpg,Cassandra,1,1,"""","""","""",4/27/2021 4:50,60.231.48.194,Mozilla/5.0 (Windows NT 6.1; rv:88.0) Gecko/20100101 Firefox/88.0,,Firefox,88,Windows,6.1
171,1,1541,"""",html-slider-response,69,347979,0.0-69.0,"""","<img src='jspsych/CFDfaces/CFD-LF-204-133-N.jpg'height=""250px""></br><b>Cassandra</b>","""",6,ConfidenceQuery,Practice,"""","""","""","""",CFD-BF-009-002-N.jpg,Jasmine,1,"""",0,61,"""",4/27/2021 4:50,60.231.48.194,Mozilla/5.0 (Windows NT 6.1; rv:88.0) Gecko/20100101 Firefox/88.0,,Firefox,88,Windows,6.1
171,1,1427,"""",html-button-response,70,349409,0.0-70.0,"""",You are Correct. You Called A Rearranged Pair Rearranged,0,6,feedback,Practice,"""","""","""","""","""","""","""","""","""","""","""",4/27/2021 4:50,60.231.48.194,Mozilla/5.0 (Windows NT 6.1; rv:88.0) Gecko/20100101 Firefox/88.0,,Firefox,88,Windows,6.1
171,1,null,"""",html-keyboard-response,71,350413,0.0-71.0,"""","<div style=""font-size:60px;"">+</div>","""",7,ITI,Practice,null,1000,"""","""","""","""","""","""","""","""","""",4/27/2021 4:50,60.231.48.194,Mozilla/5.0 (Windows NT 6.1; rv:88.0) Gecko/20100101 Firefox/88.0,,Firefox,88,Windows,6.1
171,1,null,"""",image-keyboard-response,72,350668,0.0-72.0,"""",jspsych/scrambledDisgustFaces/scrambledAF13DIS.JPG,"""",7,forwardMask,Practice,null,250,"""",d,"""","""","""","""","""","""","""",4/27/2021 4:50,60.231.48.194,Mozilla/5.0 (Windows NT 6.1; rv:88.0) Gecko/20100101 Firefox/88.0,,Firefox,88,Windows,6.1
171,1,null,"""",image-keyboard-response,73,350691,0.0-73.0,"""",jspsych/disgustFaces/AF13DIS.JPG,"""",7,Cue,Practice,null,16,"""","""","""","""","""","""","""","""","""",4/27/2021 4:50,60.231.48.194,Mozilla/5.0 (Windows NT 6.1; rv:88.0) Gecko/20100101 Firefox/88.0,,Firefox,88,Windows,6.1
171,1,null,"""",image-keyboard-response,74,350798,0.0-74.0,"""",jspsych/neutralFaces/AF21NES.JPG,"""",7,backwardMask,Practice,null,100,"""","""","""","""","""","""","""","""","""",4/27/2021 4:50,60.231.48.194,Mozilla/5.0 (Windows NT 6.1; rv:88.0) Gecko/20100101 Firefox/88.0,,Firefox,88,Windows,6.1
171,1,null,"""",html-keyboard-response,75,351800,0.0-75.0,"""","<div style=""font-size:60px;"">+</div>","""",7,fixationBtwnNeutralMaskAndPrompt,Practice,null,1000,"""","""","""","""","""","""","""","""","""",4/27/2021 4:50,60.231.48.194,Mozilla/5.0 (Windows NT 6.1; rv:88.0) Gecko/20100101 Firefox/88.0,,Firefox,88,Windows,6.1
171,1,3631,"""",html-button-response,76,355433,0.0-76.0,"""","<img src='jspsych/CFDfaces/CFD-BM-011-016-N.jpg'height=""250px""></br><b>Marcus</b>",0,7,IntactOrRearranged,Practice,"""","""","""","""",CFD-BM-011-016-N.jpg,Marcus,1,0,"""","""","""",4/27/2021 4:50,60.231.48.194,Mozilla/5.0 (Windows NT 6.1; rv:88.0) Gecko/20100101 Firefox/88.0,,Firefox,88,Windows,6.1
171,1,2173,"""",html-slider-response,77,357618,0.0-77.0,"""","<img src='jspsych/CFDfaces/CFD-BM-011-016-N.jpg'height=""250px""></br><b>Marcus</b>","""",7,ConfidenceQuery,Practice,"""","""","""","""",CFD-BF-009-002-N.jpg,Jasmine,1,"""",0,60,"""",4/27/2021 4:50,60.231.48.194,Mozilla/5.0 (Windows NT 6.1; rv:88.0) Gecko/20100101 Firefox/88.0,,Firefox,88,Windows,6.1
171,1,1261,"""",html-button-response,78,358882,0.0-78.0,"""",You are Incorrect. You called a Rearranged Pair Intact,0,7,feedback,Practice,"""","""","""","""","""","""","""","""","""","""","""",4/27/2021 4:50,60.231.48.194,Mozilla/5.0 (Windows NT 6.1; rv:88.0) Gecko/20100101 Firefox/88.0,,Firefox,88,Windows,6.1
171,1,null,"""",html-keyboard-response,79,359885,0.0-79.0,"""","<div style=""font-size:60px;"">+</div>","""",8,ITI,Practice,null,1000,"""","""","""","""","""","""","""","""","""",4/27/2021 4:50,60.231.48.194,Mozilla/5.0 (Windows NT 6.1; rv:88.0) Gecko/20100101 Firefox/88.0,,Firefox,88,Windows,6.1
171,1,null,"""",image-keyboard-response,80,360140,0.0-80.0,"""",jspsych/scrambledNeutralFaces/scrambledBM07NES.JPG,"""",8,forwardMask,Practice,null,250,"""",n,"""","""","""","""","""","""","""",4/27/2021 4:50,60.231.48.194,Mozilla/5.0 (Windows NT 6.1; rv:88.0) Gecko/20100101 Firefox/88.0,,Firefox,88,Windows,6.1
171,1,null,"""",image-keyboard-response,81,360164,0.0-81.0,"""",jspsych/neutralFaces/BM07NES.JPG,"""",8,Cue,Practice,null,16,"""","""","""","""","""","""","""","""","""",4/27/2021 4:50,60.231.48.194,Mozilla/5.0 (Windows NT 6.1; rv:88.0) Gecko/20100101 Firefox/88.0,,Firefox,88,Windows,6.1
171,1,null,"""",image-keyboard-response,82,360271,0.0-82.0,"""",jspsych/neutralFaces/AM17NES.JPG,"""",8,backwardMask,Practice,null,100,"""","""","""","""","""","""","""","""","""",4/27/2021 4:50,60.231.48.194,Mozilla/5.0 (Windows NT 6.1; rv:88.0) Gecko/20100101 Firefox/88.0,,Firefox,88,Windows,6.1
171,1,null,"""",html-keyboard-response,83,361273,0.0-83.0,"""","<div style=""font-size:60px;"">+</div>","""",8,fixationBtwnNeutralMaskAndPrompt,Practice,null,1000,"""","""","""","""","""","""","""","""","""",4/27/2021 4:50,60.231.48.194,Mozilla/5.0 (Windows NT 6.1; rv:88.0) Gecko/20100101 Firefox/88.0,,Firefox,88,Windows,6.1
171,1,2622,"""",html-button-response,84,363897,0.0-84.0,"""","<img src='jspsych/CFDfaces/CFD-BF-039-031-N.jpg'height=""250px""></br><b>Katelyn</b>",0,8,IntactOrRearranged,Practice,"""","""","""","""",CFD-BF-039-031-N.jpg,Katelyn,1,0,"""","""","""",4/27/2021 4:50,60.231.48.194,Mozilla/5.0 (Windows NT 6.1; rv:88.0) Gecko/20100101 Firefox/88.0,,Firefox,88,Windows,6.1
171,1,1285,"""",html-slider-response,85,365194,0.0-85.0,"""","<img src='jspsych/CFDfaces/CFD-BF-039-031-N.jpg'height=""250px""></br><b>Katelyn</b>","""",8,ConfidenceQuery,Practice,"""","""","""","""",CFD-BF-009-002-N.jpg,Jasmine,1,"""",0,63,"""",4/27/2021 4:50,60.231.48.194,Mozilla/5.0 (Windows NT 6.1; rv:88.0) Gecko/20100101 Firefox/88.0,,Firefox,88,Windows,6.1
171,1,1093,"""",html-button-response,86,366289,0.0-86.0,"""",You are Incorrect. You called a Rearranged Pair Intact,0,8,feedback,Practice,"""","""","""","""","""","""","""","""","""","""","""",4/27/2021 4:50,60.231.48.194,Mozilla/5.0 (Windows NT 6.1; rv:88.0) Gecko/20100101 Firefox/88.0,,Firefox,88,Windows,6.1
171,1,4823,"""",image-button-response,87,371129,0.0-87.0,"""",directionsMemoryAssociation3.JPG,0,128,DirectionsBeforeActualTEst,Break,"""","""","""","""","""","""","""","""","""","""","""",4/27/2021 4:50,60.231.48.194,Mozilla/5.0 (Windows NT 6.1; rv:88.0) Gecko/20100101 Firefox/88.0,,Firefox,88,Windows,6.1
171,1,2062,"""",image-button-response,88,373217,0.0-88.0,"""",directionsForTest2.JPG,0,1,directionsForTest2,break,"""","""","""","""","""","""","""","""","""","""","""",4/27/2021 4:50,60.231.48.194,Mozilla/5.0 (Windows NT 6.1; rv:88.0) Gecko/20100101 Firefox/88.0,,Firefox,88,Windows,6.1
171,1,13348,"""",html-button-response,89,386570,0.0-89.0,"""","<p>You will be asked to memorize and then recall four sets of face-name pairs. </p> <p> Each set will have 32 pairs. </p> <p>After the fourth set, there will be a brief follow-up experiment (<40 min alltogether)</p>",0,"""","""","""","""","""","""","""","""","""","""","""","""","""","""",4/27/2021 4:50,60.231.48.194,Mozilla/5.0 (Windows NT 6.1; rv:88.0) Gecko/20100101 Firefox/88.0,,Firefox,88,Windows,6.1
171,1,null,"""",html-keyboard-response,90,391594,0.0-90.0,"""","<img src='jspsych/CFDfaces/CFD-LF-218-072-N.jpg' height=""250px""></br><b>Elizabeth</b>","""",256,IntactFace,Memorization,null,5000,"""","""",CFD-BM-002-013-N.jpg,Jacob,0,"""","""","""",1,4/27/2021 4:50,60.231.48.194,Mozilla/5.0 (Windows NT 6.1; rv:88.0) Gecko/20100101 Firefox/88.0,,Firefox,88,Windows,6.1
171,1,null,"""",html-keyboard-response,91,392099,0.0-91.0,"""","<div style=""font-size:60px;"">+</div>","""",256,fixation,Memorization,null,500,"""","""","""","""","""","""","""","""",1,4/27/2021 4:50,60.231.48.194,Mozilla/5.0 (Windows NT 6.1; rv:88.0) Gecko/20100101 Firefox/88.0,,Firefox,88,Windows,6.1
171,1,null,"""",html-keyboard-response,92,397103,0.0-92.0,"""","<img src='jspsych/CFDfaces/CFD-WF-024-003-N.jpg' height=""250px""></br><b>Kayla</b>","""",256,IntactFace,Memorization,null,5000,"""","""",CFD-AM-228-214-N.jpg,Kenneth,0,"""","""","""",1,4/27/2021 4:50,60.231.48.194,Mozilla/5.0 (Windows NT 6.1; rv:88.0) Gecko/20100101 Firefox/88.0,,Firefox,88,Windows,6.1
171,1,null,"""",html-keyboard-response,93,397613,0.0-93.0,"""","<div style=""font-size:60px;"">+</div>","""",256,fixation,Memorization,null,500,"""","""","""","""","""","""","""","""",1,4/27/2021 4:50,60.231.48.194,Mozilla/5.0 (Windows NT 6.1; rv:88.0) Gecko/20100101 Firefox/88.0,,Firefox,88,Windows,6.1
171,1,1166,"""",html-keyboard-response,94,402617,0.0-94.0,"""","<img src='jspsych/CFDfaces/CFD-WM-003-002-N.jpg' height=""250px""></br><b>Christian</b>","""",256,IntactFace,Memorization,70,5000,f,"""",CFD-WF-003-003-N.jpg,Amy,0,"""","""","""",1,4/27/2021 4:50,60.231.48.194,Mozilla/5.0 (Windows NT 6.1; rv:88.0) Gecko/20100101 Firefox/88.0,,Firefox,88,Windows,6.1
171,1,null,"""",html-keyboard-response,95,403120,0.0-95.0,"""","<div style=""font-size:60px;"">+</div>","""",256,fixation,Memorization,null,500,"""","""","""","""","""","""","""","""",1,4/27/2021 4:50,60.231.48.194,Mozilla/5.0 (Windows NT 6.1; rv:88.0) Gecko/20100101 Firefox/88.0,,Firefox,88,Windows,6.1
171,1,2084,"""",html-keyboard-response,96,408122,0.0-96.0,"""","<img src='jspsych/CFDfaces/CFD-BM-205-001-N.jpg' height=""250px""></br><b>Jason</b>","""",256,IntactFace,Memorization,78,5000,n,"""",CFD-AF-200-228-N.jpg,Melissa,0,"""","""","""",1,4/27/2021 4:50,60.231.48.194,Mozilla/5.0 (Windows NT 6.1; rv:88.0) Gecko/20100101 Firefox/88.0,,Firefox,88,Windows,6.1
171,1,null,"""",html-keyboard-response,97,408631,0.0-97.0,"""","<div style=""font-size:60px;"">+</div>","""",256,fixation,Memorization,null,500,"""","""","""","""","""","""","""","""",1,4/27/2021 4:50,60.231.48.194,Mozilla/5.0 (Windows NT 6.1; rv:88.0) Gecko/20100101 Firefox/88.0,,Firefox,88,Windows,6.1
171,1,1924,"""",html-keyboard-response,98,413634,0.0-98.0,"""","<img src='jspsych/CFDfaces/CFD-WF-038-021-N.jpg' height=""250px""></br><b>Andrea</b>","""",256,IntactFace,Memorization,70,5000,f,"""",CFD-AF-235-170-N.jpg,Tiffany,0,"""","""","""",1,4/27/2021 4:50,60.231.48.194,Mozilla/5.0 (Windows NT 6.1; rv:88.0) Gecko/20100101 Firefox/88.0,,Firefox,88,Windows,6.1
171,1,null,"""",html-keyboard-response,99,414137,0.0-99.0,"""","<div style=""font-size:60px;"">+</div>","""",256,fixation,Memorization,null,500,"""","""","""","""","""","""","""","""",1,4/27/2021 4:50,60.231.48.194,Mozilla/5.0 (Windows NT 6.1; rv:88.0) Gecko/20100101 Firefox/88.0,,Firefox,88,Windows,6.1
171,1,1466,"""",html-keyboard-response,100,419140,0.0-100.0,"""","<img src='jspsych/CFDfaces/CFD-WM-009-002-N.jpg' height=""250px""></br><b>Joshua</b>","""",256,IntactFace,Memorization,78,5000,n,"""",CFD-BF-021-013-N.jpg,Whitney,0,"""","""","""",1,4/27/2021 4:50,60.231.48.194,Mozilla/5.0 (Windows NT 6.1; rv:88.0) Gecko/20100101 Firefox/88.0,,Firefox,88,Windows,6.1
171,1,null,"""",html-keyboard-response,101,419650,0.0-101.0,"""","<div style=""font-size:60px;"">+</div>","""",256,fixation,Memorization,null,500,"""","""","""","""","""","""","""","""",1,4/27/2021 4:50,60.231.48.194,Mozilla/5.0 (Windows NT 6.1; rv:88.0) Gecko/20100101 Firefox/88.0,,Firefox,88,Windows,6.1
171,1,1479,"""",html-keyboard-response,102,424653,0.0-102.0,"""","<img src='jspsych/CFDfaces/CFD-LM-201-057-N.jpg' height=""250px""></br><b>Richard</b>","""",256,IntactFace,Memorization,70,5000,f,"""",CFD-LM-225-130-N.jpg,Vincent,0,"""","""","""",1,4/27/2021 4:50,60.231.48.194,Mozilla/5.0 (Windows NT 6.1; rv:88.0) Gecko/20100101 Firefox/88.0,,Firefox,88,Windows,6.1
171,1,null,"""",html-keyboard-response,103,425155,0.0-103.0,"""","<div style=""font-size:60px;"">+</div>","""",256,fixation,Memorization,null,500,"""","""","""","""","""","""","""","""",1,4/27/2021 4:50,60.231.48.194,Mozilla/5.0 (Windows NT 6.1; rv:88.0) Gecko/20100101 Firefox/88.0,,Firefox,88,Windows,6.1
171,1,1264,"""",html-keyboard-response,104,430158,0.0-104.0,"""","<img src='jspsych/CFDfaces/CFD-AM-220-134-N.jpg' height=""250px""></br><b>Brandon</b>","""",256,IntactFace,Memorization,70,5000,f,"""",CFD-LF-215-157-N.jpg,Sara,0,"""","""","""",1,4/27/2021 4:50,60.231.48.194,Mozilla/5.0 (Windows NT 6.1; rv:88.0) Gecko/20100101 Firefox/88.0,,Firefox,88,Windows,6.1
171,1,null,"""",html-keyboard-response,105,430666,0.0-105.0,"""","<div style=""font-size:60px;"">+</div>","""",256,fixation,Memorization,null,500,"""","""","""","""","""","""","""","""",1,4/27/2021 4:50,60.231.48.194,Mozilla/5.0 (Windows NT 6.1; rv:88.0) Gecko/20100101 Firefox/88.0,,Firefox,88,Windows,6.1
171,1,2207,"""",html-keyboard-response,106,435670,0.0-106.0,"""","<img src='jspsych/CFDfaces/CFD-BF-212-315-N.jpg' height=""250px""></br><b>Emily</b>","""",256,IntactFace,Memorization,70,5000,f,"""",CFD-LF-201-035-N.jpg,Erin,0,"""","""","""",1,4/27/2021 4:50,60.231.48.194,Mozilla/5.0 (Windows NT 6.1; rv:88.0) Gecko/20100101 Firefox/88.0,,Firefox,88,Windows,6.1
171,1,null,"""",html-keyboard-response,107,436172,0.0-107.0,"""","<div style=""font-size:60px;"">+</div>","""",256,fixation,Memorization,null,500,"""","""","""","""","""","""","""","""",1,4/27/2021 4:50,60.231.48.194,Mozilla/5.0 (Windows NT 6.1; rv:88.0) Gecko/20100101 Firefox/88.0,,Firefox,88,Windows,6.1
171,1,2158,"""",html-keyboard-response,108,441174,0.0-108.0,"""","<img src='jspsych/CFDfaces/CFD-BF-222-240-N.jpg' height=""250px""></br><b>Julie</b>","""",256,IntactFace,Memorization,70,5000,f,"""",CFD-WF-202-056-N.jpg,Lauren,0,"""","""","""",1,4/27/2021 4:50,60.231.48.194,Mozilla/5.0 (Windows NT 6.1; rv:88.0) Gecko/20100101 Firefox/88.0,,Firefox,88,Windows,6.1
171,1,null,"""",html-keyboard-response,109,441684,0.0-109.0,"""","<div style=""font-size:60px;"">+</div>","""",256,fixation,Memorization,null,500,"""","""","""","""","""","""","""","""",1,4/27/2021 4:50,60.231.48.194,Mozilla/5.0 (Windows NT 6.1; rv:88.0) Gecko/20100101 Firefox/88.0,,Firefox,88,Windows,6.1
171,1,1350,"""",html-keyboard-response,110,446686,0.0-110.0,"""","<img src='jspsych/CFDfaces/CFD-AF-228-173-N.jpg' height=""250px""></br><b>Amanda</b>","""",256,IntactFace,Memorization,70,5000,f,"""",CFD-LM-252-076-N.jpg,Ryan,0,"""","""","""",1,4/27/2021 4:50,60.231.48.194,Mozilla/5.0 (Windows NT 6.1; rv:88.0) Gecko/20100101 Firefox/88.0,,Firefox,88,Windows,6.1
171,1,null,"""",html-keyboard-response,111,447187,0.0-111.0,"""","<div style=""font-size:60px;"">+</div>","""",256,fixation,Memorization,null,500,"""","""","""","""","""","""","""","""",1,4/27/2021 4:50,60.231.48.194,Mozilla/5.0 (Windows NT 6.1; rv:88.0) Gecko/20100101 Firefox/88.0,,Firefox,88,Windows,6.1
171,1,1813,"""",html-keyboard-response,112,452192,0.0-112.0,"""","<img src='jspsych/CFDfaces/CFD-AM-246-184-N.jpg' height=""250px""></br><b>Nicholas</b>","""",256,IntactFace,Memorization,70,5000,f,"""",CFD-BM-017-021-N.jpg,Steven,0,"""","""","""",1,4/27/2021 4:50,60.231.48.194,Mozilla/5.0 (Windows NT 6.1; rv:88.0) Gecko/20100101 Firefox/88.0,,Firefox,88,Windows,6.1
171,1,null,"""",html-keyboard-response,113,452700,0.0-113.0,"""","<div style=""font-size:60px;"">+</div>","""",256,fixation,Memorization,null,500,"""","""","""","""","""","""","""","""",1,4/27/2021 4:50,60.231.48.194,Mozilla/5.0 (Windows NT 6.1; rv:88.0) Gecko/20100101 Firefox/88.0,,Firefox,88,Windows,6.1
171,1,1253,"""",html-keyboard-response,114,457702,0.0-114.0,"""","<img src='jspsych/CFDfaces/CFD-BF-201-080-N.jpg' height=""250px""></br><b>Michelle</b>","""",256,IntactFace,Memorization,78,5000,n,"""",CFD-BF-009-002-N.jpg,Jenna,0,"""","""","""",1,4/27/2021 4:50,60.231.48.194,Mozilla/5.0 (Windows NT 6.1; rv:88.0) Gecko/20100101 Firefox/88.0,,Firefox,88,Windows,6.1
171,1,null,"""",html-keyboard-response,115,458204,0.0-115.0,"""","<div style=""font-size:60px;"">+</div>","""",256,fixation,Memorization,null,500,"""","""","""","""","""","""","""","""",1,4/27/2021 4:50,60.231.48.194,Mozilla/5.0 (Windows NT 6.1; rv:88.0) Gecko/20100101 Firefox/88.0,,Firefox,88,Windows,6.1
171,1,1685,"""",html-keyboard-response,116,463206,0.0-116.0,"""","<img src='jspsych/CFDfaces/CFD-BF-010-001-N.jpg' height=""250px""></br><b>Kimberly</b>","""",256,IntactFace,Memorization,70,5000,f,"""",CFD-AF-215-70-N.jpg,Taylor,0,"""","""","""",1,4/27/2021 4:50,60.231.48.194,Mozilla/5.0 (Windows NT 6.1; rv:88.0) Gecko/20100101 Firefox/88.0,,Firefox,88,Windows,6.1
171,1,null,"""",html-keyboard-response,117,463715,0.0-117.0,"""","<div style=""font-size:60px;"">+</div>","""",256,fixation,Memorization,null,500,"""","""","""","""","""","""","""","""",1,4/27/2021 4:50,60.231.48.194,Mozilla/5.0 (Windows NT 6.1; rv:88.0) Gecko/20100101 Firefox/88.0,,Firefox,88,Windows,6.1
171,1,1685,"""",html-keyboard-response,118,468719,0.0-118.0,"""","<img src='jspsych/CFDfaces/CFD-BM-022-022-N.jpg' height=""250px""></br><b>Daniel</b>","""",256,IntactFace,Memorization,70,5000,f,"""",CFD-LF-206-078-N.jpg,Angela,0,"""","""","""",1,4/27/2021 4:50,60.231.48.194,Mozilla/5.0 (Windows NT 6.1; rv:88.0) Gecko/20100101 Firefox/88.0,,Firefox,88,Windows,6.1
171,1,null,"""",html-keyboard-response,119,469220,0.0-119.0,"""","<div style=""font-size:60px;"">+</div>","""",256,fixation,Memorization,null,500,"""","""","""","""","""","""","""","""",1,4/27/2021 4:50,60.231.48.194,Mozilla/5.0 (Windows NT 6.1; rv:88.0) Gecko/20100101 Firefox/88.0,,Firefox,88,Windows,6.1
171,1,1915,"""",html-keyboard-response,120,474223,0.0-120.0,"""","<img src='jspsych/CFDfaces/CFD-BF-047-003-N.jpg' height=""250px""></br><b>Vanessa</b>","""",256,IntactFace,Memorization,70,5000,f,"""",CFD-WF-016-015-N.jpg,Lindsey,0,"""","""","""",1,4/27/2021 4:50,60.231.48.194,Mozilla/5.0 (Windows NT 6.1; rv:88.0) Gecko/20100101 Firefox/88.0,,Firefox,88,Windows,6.1
171,1,null,"""",html-keyboard-response,121,474733,0.0-121.0,"""","<div style=""font-size:60px;"">+</div>","""",256,fixation,Memorization,null,500,"""","""","""","""","""","""","""","""",1,4/27/2021 4:50,60.231.48.194,Mozilla/5.0 (Windows NT 6.1; rv:88.0) Gecko/20100101 Firefox/88.0,,Firefox,88,Windows,6.1
171,1,1603,"""",html-keyboard-response,122,479735,0.0-122.0,"""","<img src='jspsych/CFDfaces/CFD-BF-019-001-N.jpg' height=""250px""></br><b>Brittany</b>","""",256,IntactFace,Memorization,78,5000,n,"""",CFD-LF-203-066-N.jpg,Rebecca,0,"""","""","""",1,4/27/2021 4:50,60.231.48.194,Mozilla/5.0 (Windows NT 6.1; rv:88.0) Gecko/20100101 Firefox/88.0,,Firefox,88,Windows,6.1
171,1,null,"""",html-keyboard-response,123,480237,0.0-123.0,"""","<div style=""font-size:60px;"">+</div>","""",256,fixation,Memorization,null,500,"""","""","""","""","""","""","""","""",1,4/27/2021 4:50,60.231.48.194,Mozilla/5.0 (Windows NT 6.1; rv:88.0) Gecko/20100101 Firefox/88.0,,Firefox,88,Windows,6.1
171,1,2420,"""",html-keyboard-response,124,485239,0.0-124.0,"""","<img src='jspsych/CFDfaces/CFD-AF-242-158-N.jpg' height=""250px""></br><b>Samantha</b>","""",256,IntactFace,Memorization,70,5000,f,"""",CFD-WM-212-097-N.jpg,Sean,0,"""","""","""",1,4/27/2021 4:50,60.231.48.194,Mozilla/5.0 (Windows NT 6.1; rv:88.0) Gecko/20100101 Firefox/88.0,,Firefox,88,Windows,6.1
171,1,null,"""",html-keyboard-response,125,485748,0.0-125.0,"""","<div style=""font-size:60px;"">+</div>","""",256,fixation,Memorization,null,500,"""","""","""","""","""","""","""","""",1,4/27/2021 4:50,60.231.48.194,Mozilla/5.0 (Windows NT 6.1; rv:88.0) Gecko/20100101 Firefox/88.0,,Firefox,88,Windows,6.1
171,1,1723,"""",html-keyboard-response,126,490751,0.0-126.0,"""","<img src='jspsych/CFDfaces/CFD-WM-222-057-N.jpg' height=""250px""></br><b>Eric</b>","""",256,IntactFace,Memorization,70,5000,f,"""",CFD-WM-215-041-N.jpg,Jeremy,0,"""","""","""",1,4/27/2021 4:50,60.231.48.194,Mozilla/5.0 (Windows NT 6.1; rv:88.0) Gecko/20100101 Firefox/88.0,,Firefox,88,Windows,6.1
171,1,null,"""",html-keyboard-response,127,491253,0.0-127.0,"""","<div style=""font-size:60px;"">+</div>","""",256,fixation,Memorization,null,500,"""","""","""","""","""","""","""","""",1,4/27/2021 4:50,60.231.48.194,Mozilla/5.0 (Windows NT 6.1; rv:88.0) Gecko/20100101 Firefox/88.0,,Firefox,88,Windows,6.1
171,1,1587,"""",html-keyboard-response,128,496255,0.0-128.0,"""","<img src='jspsych/CFDfaces/CFD-BM-211-174-N.jpg' height=""250px""></br><b>Jeffrey</b>","""",256,IntactFace,Memorization,70,5000,f,"""",CFD-BM-029-024-N.jpg,Cameron,0,"""","""","""",1,4/27/2021 4:50,60.231.48.194,Mozilla/5.0 (Windows NT 6.1; rv:88.0) Gecko/20100101 Firefox/88.0,,Firefox,88,Windows,6.1
171,1,null,"""",html-keyboard-response,129,496767,0.0-129.0,"""","<div style=""font-size:60px;"">+</div>","""",256,fixation,Memorization,null,500,"""","""","""","""","""","""","""","""",1,4/27/2021 4:50,60.231.48.194,Mozilla/5.0 (Windows NT 6.1; rv:88.0) Gecko/20100101 Firefox/88.0,,Firefox,88,Windows,6.1
171,1,1690,"""",html-keyboard-response,130,501769,0.0-130.0,"""","<img src='jspsych/CFDfaces/CFD-LM-200-045-N.jpg' height=""250px""></br><b>Gregory</b>","""",256,IntactFace,Memorization,70,5000,f,"""",CFD-BF-023-010-N.jpg,Heather,0,"""","""","""",1,4/27/2021 4:50,60.231.48.194,Mozilla/5.0 (Windows NT 6.1; rv:88.0) Gecko/20100101 Firefox/88.0,,Firefox,88,Windows,6.1
171,1,null,"""",html-keyboard-response,131,502271,0.0-131.0,"""","<div style=""font-size:60px;"">+</div>","""",256,fixation,Memorization,null,500,"""","""","""","""","""","""","""","""",1,4/27/2021 4:50,60.231.48.194,Mozilla/5.0 (Windows NT 6.1; rv:88.0) Gecko/20100101 Firefox/88.0,,Firefox,88,Windows,6.1
171,1,1599,"""",html-keyboard-response,132,507273,0.0-132.0,"""","<img src='jspsych/CFDfaces/CFD-BM-207-024-N.jpg' height=""250px""></br><b>Peter</b>","""",256,IntactFace,Memorization,70,5000,f,"""",CFD-WM-022-001-N.jpg,Luis,0,"""","""","""",1,4/27/2021 4:50,60.231.48.194,Mozilla/5.0 (Windows NT 6.1; rv:88.0) Gecko/20100101 Firefox/88.0,,Firefox,88,Windows,6.1
171,1,null,"""",html-keyboard-response,133,507783,0.0-133.0,"""","<div style=""font-size:60px;"">+</div>","""",256,fixation,Memorization,null,500,"""","""","""","""","""","""","""","""",1,4/27/2021 4:50,60.231.48.194,Mozilla/5.0 (Windows NT 6.1; rv:88.0) Gecko/20100101 Firefox/88.0,,Firefox,88,Windows,6.1
171,1,2256,"""",html-keyboard-response,134,512786,0.0-134.0,"""","<img src='jspsych/CFDfaces/CFD-BF-004-014-N.jpg' height=""250px""></br><b>Christina</b>","""",256,IntactFace,Memorization,70,5000,f,"""",CFD-AF-226-251-N.jpg,Jordan,0,"""","""","""",1,4/27/2021 4:50,60.231.48.194,Mozilla/5.0 (Windows NT 6.1; rv:88.0) Gecko/20100101 Firefox/88.0,,Firefox,88,Windows,6.1
171,1,null,"""",html-keyboard-response,135,513287,0.0-135.0,"""","<div style=""font-size:60px;"">+</div>","""",256,fixation,Memorization,null,500,"""","""","""","""","""","""","""","""",1,4/27/2021 4:50,60.231.48.194,Mozilla/5.0 (Windows NT 6.1; rv:88.0) Gecko/20100101 Firefox/88.0,,Firefox,88,Windows,6.1
171,1,1071,"""",html-keyboard-response,136,518289,0.0-136.0,"""","<img src='jspsych/CFDfaces/CFD-WM-017-002-N.jpg' height=""250px""></br><b>Robert</b>","""",256,IntactFace,Memorization,78,5000,n,"""",CFD-LM-221-216-N.jpg,Justin,0,"""","""","""",1,4/27/2021 4:50,60.231.48.194,Mozilla/5.0 (Windows NT 6.1; rv:88.0) Gecko/20100101 Firefox/88.0,,Firefox,88,Windows,6.1
171,1,null,"""",html-keyboard-response,137,518799,0.0-137.0,"""","<div style=""font-size:60px;"">+</div>","""",256,fixation,Memorization,null,500,"""","""","""","""","""","""","""","""",1,4/27/2021 4:50,60.231.48.194,Mozilla/5.0 (Windows NT 6.1; rv:88.0) Gecko/20100101 Firefox/88.0,,Firefox,88,Windows,6.1
171,1,1400,"""",html-keyboard-response,138,523801,0.0-138.0,"""","<img src='jspsych/CFDfaces/CFD-LM-224-162-N.jpg' height=""250px""></br><b>Juan</b>","""",256,IntactFace,Memorization,70,5000,f,"""",CFD-WM-216-061-N.jpg,Austin,0,"""","""","""",1,4/27/2021 4:50,60.231.48.194,Mozilla/5.0 (Windows NT 6.1; rv:88.0) Gecko/20100101 Firefox/88.0,,Firefox,88,Windows,6.1
171,1,null,"""",html-keyboard-response,139,524303,0.0-139.0,"""","<div style=""font-size:60px;"">+</div>","""",256,fixation,Memorization,null,500,"""","""","""","""","""","""","""","""",1,4/27/2021 4:50,60.231.48.194,Mozilla/5.0 (Windows NT 6.1; rv:88.0) Gecko/20100101 Firefox/88.0,,Firefox,88,Windows,6.1
171,1,3400,"""",html-keyboard-response,140,529305,0.0-140.0,"""","<img src='jspsych/CFDfaces/CFD-LF-231-260-N.jpg' height=""250px""></br><b>Stephanie</b>","""",256,IntactFace,Memorization,78,5000,n,"""",CFD-AF-208-003-N.jpg,Laura,0,"""","""","""",1,4/27/2021 4:50,60.231.48.194,Mozilla/5.0 (Windows NT 6.1; rv:88.0) Gecko/20100101 Firefox/88.0,,Firefox,88,Windows,6.1
171,1,null,"""",html-keyboard-response,141,529814,0.0-141.0,"""","<div style=""font-size:60px;"">+</div>","""",256,fixation,Memorization,null,500,"""","""","""","""","""","""","""","""",1,4/27/2021 4:50,60.231.48.194,Mozilla/5.0 (Windows NT 6.1; rv:88.0) Gecko/20100101 Firefox/88.0,,Firefox,88,Windows,6.1
171,1,895,"""",html-keyboard-response,142,534817,0.0-142.0,"""","<img src='jspsych/CFDfaces/CFD-WF-023-003-N.jpg' height=""250px""></br><b>Victoria</b>","""",256,IntactFace,Memorization,70,5000,f,"""",CFD-BM-043-071-N.jpg,Jesse,0,"""","""","""",1,4/27/2021 4:50,60.231.48.194,Mozilla/5.0 (Windows NT 6.1; rv:88.0) Gecko/20100101 Firefox/88.0,,Firefox,88,Windows,6.1
171,1,null,"""",html-keyboard-response,143,535319,0.0-143.0,"""","<div style=""font-size:60px;"">+</div>","""",256,fixation,Memorization,null,500,"""","""","""","""","""","""","""","""",1,4/27/2021 4:50,60.231.48.194,Mozilla/5.0 (Windows NT 6.1; rv:88.0) Gecko/20100101 Firefox/88.0,,Firefox,88,Windows,6.1
171,1,1551,"""",html-keyboard-response,144,540322,0.0-144.0,"""","<img src='jspsych/CFDfaces/CFD-AM-230-150-N.jpg' height=""250px""></br><b>Brian</b>","""",256,IntactFace,Memorization,70,5000,f,"""",CFD-AM-202-079-N.jpg,Travis,0,"""","""","""",1,4/27/2021 4:50,60.231.48.194,Mozilla/5.0 (Windows NT 6.1; rv:88.0) Gecko/20100101 Firefox/88.0,,Firefox,88,Windows,6.1
171,1,null,"""",html-keyboard-response,145,540830,0.0-145.0,"""","<div style=""font-size:60px;"">+</div>","""",256,fixation,Memorization,null,500,"""","""","""","""","""","""","""","""",1,4/27/2021 4:50,60.231.48.194,Mozilla/5.0 (Windows NT 6.1; rv:88.0) Gecko/20100101 Firefox/88.0,,Firefox,88,Windows,6.1
171,1,null,"""",html-keyboard-response,146,545832,0.0-146.0,"""","<img src='jspsych/CFDfaces/CFD-AM-234-355-N.jpg' height=""250px""></br><b>Ian</b>","""",256,IntactFace,Memorization,null,5000,"""","""",CFD-AM-213-056-N.jpg,Timothy,0,"""","""","""",1,4/27/2021 4:50,60.231.48.194,Mozilla/5.0 (Windows NT 6.1; rv:88.0) Gecko/20100101 Firefox/88.0,,Firefox,88,Windows,6.1
171,1,null,"""",html-keyboard-response,147,546334,0.0-147.0,"""","<div style=""font-size:60px;"">+</div>","""",256,fixation,Memorization,null,500,"""","""","""","""","""","""","""","""",1,4/27/2021 4:50,60.231.48.194,Mozilla/5.0 (Windows NT 6.1; rv:88.0) Gecko/20100101 Firefox/88.0,,Firefox,88,Windows,6.1
171,1,1279,"""",html-keyboard-response,148,551337,0.0-148.0,"""","<img src='jspsych/CFDfaces/CFD-LF-220-120-N.jpg' height=""250px""></br><b>Ashley</b>","""",256,IntactFace,Memorization,70,5000,f,"""",CFD-WF-215-145-N.jpg,Jasmine,0,"""","""","""",1,4/27/2021 4:50,60.231.48.194,Mozilla/5.0 (Windows NT 6.1; rv:88.0) Gecko/20100101 Firefox/88.0,,Firefox,88,Windows,6.1
171,1,null,"""",html-keyboard-response,149,551847,0.0-149.0,"""","<div style=""font-size:60px;"">+</div>","""",256,fixation,Memorization,null,500,"""","""","""","""","""","""","""","""",1,4/27/2021 4:50,60.231.48.194,Mozilla/5.0 (Windows NT 6.1; rv:88.0) Gecko/20100101 Firefox/88.0,,Firefox,88,Windows,6.1
171,1,1014,"""",html-keyboard-response,150,556850,0.0-150.0,"""","<img src='jspsych/CFDfaces/CFD-WF-207-014-N.jpg' height=""250px""></br><b>Meghan</b>","""",256,IntactFace,Memorization,78,5000,n,"""",CFD-BM-018-001-N.jpg,Dustin,0,"""","""","""",1,4/27/2021 4:50,60.231.48.194,Mozilla/5.0 (Windows NT 6.1; rv:88.0) Gecko/20100101 Firefox/88.0,,Firefox,88,Windows,6.1
171,1,null,"""",html-keyboard-response,151,557352,0.0-151.0,"""","<div style=""font-size:60px;"">+</div>","""",256,fixation,Memorization,null,500,"""","""","""","""","""","""","""","""",1,4/27/2021 4:50,60.231.48.194,Mozilla/5.0 (Windows NT 6.1; rv:88.0) Gecko/20100101 Firefox/88.0,,Firefox,88,Windows,6.1
171,1,2854,"""",html-keyboard-response,152,562354,0.0-152.0,"""","<img src='jspsych/CFDfaces/CFD-AM-242-176-N.jpg' height=""250px""></br><b>James</b>","""",256,IntactFace,Memorization,70,5000,f,"""",CFD-WM-034-030-N.jpg,Mark,0,"""","""","""",1,4/27/2021 4:50,60.231.48.194,Mozilla/5.0 (Windows NT 6.1; rv:88.0) Gecko/20100101 Firefox/88.0,,Firefox,88,Windows,6.1
171,1,null,"""",html-keyboard-response,153,562863,0.0-153.0,"""","<div style=""font-size:60px;"">+</div>","""",256,fixation,Memorization,null,500,"""","""","""","""","""","""","""","""",1,4/27/2021 4:50,60.231.48.194,Mozilla/5.0 (Windows NT 6.1; rv:88.0) Gecko/20100101 Firefox/88.0,,Firefox,88,Windows,6.1
171,1,4238,"""",html-keyboard-response,154,567102,0.0-154.0,"""",Press Any Key to Begin Memory Test,"""",1,welcomeScreen,Break,32,"""","""","""","""","""","""","""","""","""",1,4/27/2021 4:50,60.231.48.194,Mozilla/5.0 (Windows NT 6.1; rv:88.0) Gecko/20100101 Firefox/88.0,,Firefox,88,Windows,6.1
171,1,null,"""",html-keyboard-response,155,568105,0.0-155.0,"""","<div style=""font-size:60px;"">+</div>","""",256,ITI,Test,null,1000,"""","""","""","""","""","""","""","""",1,4/27/2021 4:50,60.231.48.194,Mozilla/5.0 (Windows NT 6.1; rv:88.0) Gecko/20100101 Firefox/88.0,,Firefox,88,Windows,6.1
171,1,null,"""",image-keyboard-response,156,568361,0.0-156.0,"""",jspsych/scrambledNeutralFaces/scrambledBM32NES.JPG,"""",256,forwardMask,Test,null,250,"""",n,"""","""","""","""","""","""",1,4/27/2021 4:50,60.231.48.194,Mozilla/5.0 (Windows NT 6.1; rv:88.0) Gecko/20100101 Firefox/88.0,,Firefox,88,Windows,6.1
171,1,null,"""",image-keyboard-response,157,568384,0.0-157.0,"""",jspsych/neutralFaces/BM32NES.JPG,"""",256,Cue,Test,null,16,"""","""","""","""","""","""","""","""",1,4/27/2021 4:50,60.231.48.194,Mozilla/5.0 (Windows NT 6.1; rv:88.0) Gecko/20100101 Firefox/88.0,,Firefox,88,Windows,6.1
171,1,null,"""",image-keyboard-response,158,568492,0.0-158.0,"""",jspsych/neutralFaces/BM13NES.JPG,"""",256,backwardMask,Test,null,100,"""","""","""","""","""","""","""","""",1,4/27/2021 4:50,60.231.48.194,Mozilla/5.0 (Windows NT 6.1; rv:88.0) Gecko/20100101 Firefox/88.0,,Firefox,88,Windows,6.1
171,1,null,"""",html-keyboard-response,159,569494,0.0-159.0,"""","<div style=""font-size:60px;"">+</div>","""",256,fixationBtwnNeutralMaskAndPrompt,Test,null,1000,"""","""","""","""","""","""","""","""",1,4/27/2021 4:50,60.231.48.194,Mozilla/5.0 (Windows NT 6.1; rv:88.0) Gecko/20100101 Firefox/88.0,,Firefox,88,Windows,6.1
171,1,null,"""",html-button-response,160,574505,0.0-160.0,"""","<img src='jspsych/CFDfaces/CFD-WF-038-021-N.jpg' height=""250px"">,</br><b>Amanda</b>",null,256,IntactOrRearranged,Test,"""","""","""","""",CFD-WM-212-097-N.jpg,Sean,1,"""","""","""",1,4/27/2021 4:50,60.231.48.194,Mozilla/5.0 (Windows NT 6.1; rv:88.0) Gecko/20100101 Firefox/88.0,,Firefox,88,Windows,6.1
171,1,2260,"""",html-slider-response,161,576769,0.0-161.0,"""","<img src='jspsych/CFDfaces/CFD-WF-038-021-N.jpg' height=""250px"">,</br><b>Amanda</b>","""",256,ConfidenceQuery,Test,"""","""","""","""",CFD-WM-212-097-N.jpg,Sean,1,"""",0,47,1,4/27/2021 4:50,60.231.48.194,Mozilla/5.0 (Windows NT 6.1; rv:88.0) Gecko/20100101 Firefox/88.0,,Firefox,88,Windows,6.1
171,1,null,"""",html-keyboard-response,162,577780,0.0-162.0,"""","<div style=""font-size:60px;"">+</div>","""",256,ITI,Test,null,1000,"""","""","""","""","""","""","""","""",1,4/27/2021 4:50,60.231.48.194,Mozilla/5.0 (Windows NT 6.1; rv:88.0) Gecko/20100101 Firefox/88.0,,Firefox,88,Windows,6.1
171,1,null,"""",image-keyboard-response,163,578036,0.0-163.0,"""",jspsych/scrambledNeutralFaces/scrambledAF28NES.JPG,"""",256,forwardMask,Test,null,250,"""",n,"""","""","""","""","""","""",1,4/27/2021 4:50,60.231.48.194,Mozilla/5.0 (Windows NT 6.1; rv:88.0) Gecko/20100101 Firefox/88.0,,Firefox,88,Windows,6.1
171,1,null,"""",image-keyboard-response,164,578059,0.0-164.0,"""",jspsych/neutralFaces/AF28NES.JPG,"""",256,Cue,Test,null,16,"""","""","""","""","""","""","""","""",1,4/27/2021 4:50,60.231.48.194,Mozilla/5.0 (Windows NT 6.1; rv:88.0) Gecko/20100101 Firefox/88.0,,Firefox,88,Windows,6.1
171,1,null,"""",image-keyboard-response,165,578166,0.0-165.0,"""",jspsych/neutralFaces/AF15NES.JPG,"""",256,backwardMask,Test,null,100,"""","""","""","""","""","""","""","""",1,4/27/2021 4:50,60.231.48.194,Mozilla/5.0 (Windows NT 6.1; rv:88.0) Gecko/20100101 Firefox/88.0,,Firefox,88,Windows,6.1
171,1,null,"""",html-keyboard-response,166,579168,0.0-166.0,"""","<div style=""font-size:60px;"">+</div>","""",256,fixationBtwnNeutralMaskAndPrompt,Test,null,1000,"""","""","""","""","""","""","""","""",1,4/27/2021 4:50,60.231.48.194,Mozilla/5.0 (Windows NT 6.1; rv:88.0) Gecko/20100101 Firefox/88.0,,Firefox,88,Windows,6.1
171,1,3559,"""",html-button-response,167,582730,0.0-167.0,"""","<img src='jspsych/CFDfaces/CFD-BM-211-174-N.jpg' height=""250px"">,</br><b>Richard</b>",1,256,IntactOrRearranged,Test,"""","""","""","""",CFD-LF-206-078-N.jpg,Erin,1,1,"""","""",1,4/27/2021 4:50,60.231.48.194,Mozilla/5.0 (Windows NT 6.1; rv:88.0) Gecko/20100101 Firefox/88.0,,Firefox,88,Windows,6.1
171,1,1761,"""",html-slider-response,168,584496,0.0-168.0,"""","<img src='jspsych/CFDfaces/CFD-BM-211-174-N.jpg' height=""250px"">,</br><b>Richard</b>","""",256,ConfidenceQuery,Test,"""","""","""","""",CFD-LF-206-078-N.jpg,Erin,1,"""",0,55,1,4/27/2021 4:50,60.231.48.194,Mozilla/5.0 (Windows NT 6.1; rv:88.0) Gecko/20100101 Firefox/88.0,,Firefox,88,Windows,6.1
171,1,null,"""",html-keyboard-response,169,585508,0.0-169.0,"""","<div style=""font-size:60px;"">+</div>","""",256,ITI,Test,null,1000,"""","""","""","""","""","""","""","""",1,4/27/2021 4:50,60.231.48.194,Mozilla/5.0 (Windows NT 6.1; rv:88.0) Gecko/20100101 Firefox/88.0,,Firefox,88,Windows,6.1
171,1,null,"""",image-keyboard-response,170,585765,0.0-170.0,"""",jspsych/scrambledDisgustFaces/scrambledAM35DIS.JPG,"""",256,forwardMask,Test,null,250,"""",d,"""","""","""","""","""","""",1,4/27/2021 4:50,60.231.48.194,Mozilla/5.0 (Windows NT 6.1; rv:88.0) Gecko/20100101 Firefox/88.0,,Firefox,88,Windows,6.1
171,1,null,"""",image-keyboard-response,171,585787,0.0-171.0,"""",jspsych/disgustFaces/AM35DIS.JPG,"""",256,Cue,Test,null,16,"""","""","""","""","""","""","""","""",1,4/27/2021 4:50,60.231.48.194,Mozilla/5.0 (Windows NT 6.1; rv:88.0) Gecko/20100101 Firefox/88.0,,Firefox,88,Windows,6.1
171,1,null,"""",image-keyboard-response,172,585894,0.0-172.0,"""",jspsych/neutralFaces/BM33NES.JPG,"""",256,backwardMask,Test,null,100,"""","""","""","""","""","""","""","""",1,4/27/2021 4:50,60.231.48.194,Mozilla/5.0 (Windows NT 6.1; rv:88.0) Gecko/20100101 Firefox/88.0,,Firefox,88,Windows,6.1
171,1,null,"""",html-keyboard-response,173,586896,0.0-173.0,"""","<div style=""font-size:60px;"">+</div>","""",256,fixationBtwnNeutralMaskAndPrompt,Test,null,1000,"""","""","""","""","""","""","""","""",1,4/27/2021 4:50,60.231.48.194,Mozilla/5.0 (Windows NT 6.1; rv:88.0) Gecko/20100101 Firefox/88.0,,Firefox,88,Windows,6.1
171,1,3062,"""",html-button-response,174,589961,0.0-174.0,"""","<img src='jspsych/CFDfaces/CFD-LF-220-120-N.jpg' height=""250px"">,</br><b>Elizabeth</b>",1,256,IntactOrRearranged,Test,"""","""","""","""",CFD-WM-034-030-N.jpg,Jesse,1,1,"""","""",1,4/27/2021 4:50,60.231.48.194,Mozilla/5.0 (Windows NT 6.1; rv:88.0) Gecko/20100101 Firefox/88.0,,Firefox,88,Windows,6.1
171,1,1875,"""",html-slider-response,175,591840,0.0-175.0,"""","<img src='jspsych/CFDfaces/CFD-LF-220-120-N.jpg' height=""250px"">,</br><b>Elizabeth</b>","""",256,ConfidenceQuery,Test,"""","""","""","""",CFD-WM-034-030-N.jpg,Jesse,1,"""",0,63,1,4/27/2021 4:50,60.231.48.194,Mozilla/5.0 (Windows NT 6.1; rv:88.0) Gecko/20100101 Firefox/88.0,,Firefox,88,Windows,6.1
171,1,null,"""",html-keyboard-response,176,592852,0.0-176.0,"""","<div style=""font-size:60px;"">+</div>","""",256,ITI,Test,null,1000,"""","""","""","""","""","""","""","""",1,4/27/2021 4:50,60.231.48.194,Mozilla/5.0 (Windows NT 6.1; rv:88.0) Gecko/20100101 Firefox/88.0,,Firefox,88,Windows,6.1
171,1,null,"""",image-keyboard-response,177,593109,0.0-177.0,"""",jspsych/scrambledNeutralFaces/scrambledBM01NES.JPG,"""",256,forwardMask,Test,null,250,"""",n,"""","""","""","""","""","""",1,4/27/2021 4:50,60.231.48.194,Mozilla/5.0 (Windows NT 6.1; rv:88.0) Gecko/20100101 Firefox/88.0,,Firefox,88,Windows,6.1
171,1,null,"""",image-keyboard-response,178,593131,0.0-178.0,"""",jspsych/neutralFaces/BM01NES.JPG,"""",256,Cue,Test,null,16,"""","""","""","""","""","""","""","""",1,4/27/2021 4:50,60.231.48.194,Mozilla/5.0 (Windows NT 6.1; rv:88.0) Gecko/20100101 Firefox/88.0,,Firefox,88,Windows,6.1
171,1,null,"""",image-keyboard-response,179,593237,0.0-179.0,"""",jspsych/neutralFaces/BM32NES.JPG,"""",256,backwardMask,Test,null,100,"""","""","""","""","""","""","""","""",1,4/27/2021 4:50,60.231.48.194,Mozilla/5.0 (Windows NT 6.1; rv:88.0) Gecko/20100101 Firefox/88.0,,Firefox,88,Windows,6.1
171,1,null,"""",html-keyboard-response,180,594237,0.0-180.0,"""","<div style=""font-size:60px;"">+</div>","""",256,fixationBtwnNeutralMaskAndPrompt,Test,null,1000,"""","""","""","""","""","""","""","""",1,4/27/2021 4:50,60.231.48.194,Mozilla/5.0 (Windows NT 6.1; rv:88.0) Gecko/20100101 Firefox/88.0,,Firefox,88,Windows,6.1
171,1,2409,"""",html-button-response,181,596649,0.0-181.0,"""","<img src='jspsych/CFDfaces/CFD-WF-207-014-N.jpg' height=""250px"">,</br><b>Meghan</b>",0,256,IntactOrRearranged,Test,"""","""","""","""",CFD-WF-003-003-N.jpg,Amy,0,0,"""","""",1,4/27/2021 4:50,60.231.48.194,Mozilla/5.0 (Windows NT 6.1; rv:88.0) Gecko/20100101 Firefox/88.0,,Firefox,88,Windows,6.1
171,1,1427,"""",html-slider-response,182,598081,0.0-182.0,"""","<img src='jspsych/CFDfaces/CFD-WF-207-014-N.jpg' height=""250px"">,</br><b>Meghan</b>","""",256,ConfidenceQuery,Test,"""","""","""","""",CFD-WF-003-003-N.jpg,Amy,0,"""",0,47,1,4/27/2021 4:50,60.231.48.194,Mozilla/5.0 (Windows NT 6.1; rv:88.0) Gecko/20100101 Firefox/88.0,,Firefox,88,Windows,6.1
171,1,null,"""",html-keyboard-response,183,599084,0.0-183.0,"""","<div style=""font-size:60px;"">+</div>","""",256,ITI,Test,null,1000,"""","""","""","""","""","""","""","""",1,4/27/2021 4:50,60.231.48.194,Mozilla/5.0 (Windows NT 6.1; rv:88.0) Gecko/20100101 Firefox/88.0,,Firefox,88,Windows,6.1
171,1,null,"""",image-keyboard-response,184,599349,0.0-184.0,"""",jspsych/scrambledDisgustFaces/scrambledAM19DIS.JPG,"""",256,forwardMask,Test,null,250,"""",d,"""","""","""","""","""","""",1,4/27/2021 4:50,60.231.48.194,Mozilla/5.0 (Windows NT 6.1; rv:88.0) Gecko/20100101 Firefox/88.0,,Firefox,88,Windows,6.1
171,1,null,"""",image-keyboard-response,185,599372,0.0-185.0,"""",jspsych/disgustFaces/AM19DIS.JPG,"""",256,Cue,Test,null,16,"""","""","""","""","""","""","""","""",1,4/27/2021 4:50,60.231.48.194,Mozilla/5.0 (Windows NT 6.1; rv:88.0) Gecko/20100101 Firefox/88.0,,Firefox,88,Windows,6.1
171,1,null,"""",image-keyboard-response,186,599480,0.0-186.0,"""",jspsych/neutralFaces/AM32NES.JPG,"""",256,backwardMask,Test,null,100,"""","""","""","""","""","""","""","""",1,4/27/2021 4:50,60.231.48.194,Mozilla/5.0 (Windows NT 6.1; rv:88.0) Gecko/20100101 Firefox/88.0,,Firefox,88,Windows,6.1
171,1,null,"""",html-keyboard-response,187,600481,0.0-187.0,"""","<div style=""font-size:60px;"">+</div>","""",256,fixationBtwnNeutralMaskAndPrompt,Test,null,1000,"""","""","""","""","""","""","""","""",1,4/27/2021 4:50,60.231.48.194,Mozilla/5.0 (Windows NT 6.1; rv:88.0) Gecko/20100101 Firefox/88.0,,Firefox,88,Windows,6.1
171,1,2165,"""",html-button-response,188,602648,0.0-188.0,"""","<img src='jspsych/CFDfaces/CFD-BF-212-315-N.jpg' height=""250px"">,</br><b>Andrea</b>",0,256,IntactOrRearranged,Test,"""","""","""","""",CFD-AF-200-228-N.jpg,Melissa,1,0,"""","""",1,4/27/2021 4:50,60.231.48.194,Mozilla/5.0 (Windows NT 6.1; rv:88.0) Gecko/20100101 Firefox/88.0,,Firefox,88,Windows,6.1
171,1,1361,"""",html-slider-response,189,604016,0.0-189.0,"""","<img src='jspsych/CFDfaces/CFD-BF-212-315-N.jpg' height=""250px"">,</br><b>Andrea</b>","""",256,ConfidenceQuery,Test,"""","""","""","""",CFD-AF-200-228-N.jpg,Melissa,1,"""",0,67,1,4/27/2021 4:50,60.231.48.194,Mozilla/5.0 (Windows NT 6.1; rv:88.0) Gecko/20100101 Firefox/88.0,,Firefox,88,Windows,6.1
171,1,null,"""",html-keyboard-response,190,605019,0.0-190.0,"""","<div style=""font-size:60px;"">+</div>","""",256,ITI,Test,null,1000,"""","""","""","""","""","""","""","""",1,4/27/2021 4:50,60.231.48.194,Mozilla/5.0 (Windows NT 6.1; rv:88.0) Gecko/20100101 Firefox/88.0,,Firefox,88,Windows,6.1
171,1,null,"""",image-keyboard-response,191,605275,0.0-191.0,"""",jspsych/scrambledDisgustFaces/scrambledAM31DIS.JPG,"""",256,forwardMask,Test,null,250,"""",d,"""","""","""","""","""","""",1,4/27/2021 4:50,60.231.48.194,Mozilla/5.0 (Windows NT 6.1; rv:88.0) Gecko/20100101 Firefox/88.0,,Firefox,88,Windows,6.1
171,1,null,"""",image-keyboard-response,192,605297,0.0-192.0,"""",jspsych/disgustFaces/AM31DIS.JPG,"""",256,Cue,Test,null,16,"""","""","""","""","""","""","""","""",1,4/27/2021 4:50,60.231.48.194,Mozilla/5.0 (Windows NT 6.1; rv:88.0) Gecko/20100101 Firefox/88.0,,Firefox,88,Windows,6.1
171,1,null,"""",image-keyboard-response,193,605405,0.0-193.0,"""",jspsych/neutralFaces/BM03NES.JPG,"""",256,backwardMask,Test,null,100,"""","""","""","""","""","""","""","""",1,4/27/2021 4:50,60.231.48.194,Mozilla/5.0 (Windows NT 6.1; rv:88.0) Gecko/20100101 Firefox/88.0,,Firefox,88,Windows,6.1
171,1,null,"""",html-keyboard-response,194,606405,0.0-194.0,"""","<div style=""font-size:60px;"">+</div>","""",256,fixationBtwnNeutralMaskAndPrompt,Test,null,1000,"""","""","""","""","""","""","""","""",1,4/27/2021 4:50,60.231.48.194,Mozilla/5.0 (Windows NT 6.1; rv:88.0) Gecko/20100101 Firefox/88.0,,Firefox,88,Windows,6.1
171,1,3382,"""",html-button-response,195,609799,0.0-195.0,"""","<img src='jspsych/CFDfaces/CFD-LF-218-072-N.jpg' height=""250px"">,</br><b>Kimberly</b>",1,256,IntactOrRearranged,Test,"""","""","""","""",CFD-BM-002-013-N.jpg,Jacob,1,1,"""","""",1,4/27/2021 4:50,60.231.48.194,Mozilla/5.0 (Windows NT 6.1; rv:88.0) Gecko/20100101 Firefox/88.0,,Firefox,88,Windows,6.1
171,1,1323,"""",html-slider-response,196,611128,0.0-196.0,"""","<img src='jspsych/CFDfaces/CFD-LF-218-072-N.jpg' height=""250px"">,</br><b>Kimberly</b>","""",256,ConfidenceQuery,Test,"""","""","""","""",CFD-BM-002-013-N.jpg,Jacob,1,"""",0,68,1,4/27/2021 4:50,60.231.48.194,Mozilla/5.0 (Windows NT 6.1; rv:88.0) Gecko/20100101 Firefox/88.0,,Firefox,88,Windows,6.1
171,1,null,"""",html-keyboard-response,197,612131,0.0-197.0,"""","<div style=""font-size:60px;"">+</div>","""",256,ITI,Test,null,1000,"""","""","""","""","""","""","""","""",1,4/27/2021 4:50,60.231.48.194,Mozilla/5.0 (Windows NT 6.1; rv:88.0) Gecko/20100101 Firefox/88.0,,Firefox,88,Windows,6.1
171,1,null,"""",image-keyboard-response,198,612387,0.0-198.0,"""",jspsych/scrambledDisgustFaces/scrambledAF13DIS.JPG,"""",256,forwardMask,Test,null,250,"""",d,"""","""","""","""","""","""",1,4/27/2021 4:50,60.231.48.194,Mozilla/5.0 (Windows NT 6.1; rv:88.0) Gecko/20100101 Firefox/88.0,,Firefox,88,Windows,6.1
171,1,null,"""",image-keyboard-response,199,612409,0.0-199.0,"""",jspsych/disgustFaces/AF13DIS.JPG,"""",256,Cue,Test,null,16,"""","""","""","""","""","""","""","""",1,4/27/2021 4:50,60.231.48.194,Mozilla/5.0 (Windows NT 6.1; rv:88.0) Gecko/20100101 Firefox/88.0,,Firefox,88,Windows,6.1
171,1,null,"""",image-keyboard-response,200,612517,0.0-200.0,"""",jspsych/neutralFaces/AF21NES.JPG,"""",256,backwardMask,Test,null,100,"""","""","""","""","""","""","""","""",1,4/27/2021 4:50,60.231.48.194,Mozilla/5.0 (Windows NT 6.1; rv:88.0) Gecko/20100101 Firefox/88.0,,Firefox,88,Windows,6.1
171,1,null,"""",html-keyboard-response,201,613518,0.0-201.0,"""","<div style=""font-size:60px;"">+</div>","""",256,fixationBtwnNeutralMaskAndPrompt,Test,null,1000,"""","""","""","""","""","""","""","""",1,4/27/2021 4:50,60.231.48.194,Mozilla/5.0 (Windows NT 6.1; rv:88.0) Gecko/20100101 Firefox/88.0,,Firefox,88,Windows,6.1
171,1,1655,"""",html-button-response,202,615185,0.0-202.0,"""","<img src='jspsych/CFDfaces/CFD-BF-010-001-N.jpg' height=""250px"">,</br><b>Emily</b>",0,256,IntactOrRearranged,Test,"""","""","""","""",CFD-AM-213-056-N.jpg,Austin,1,0,"""","""",1,4/27/2021 4:50,60.231.48.194,Mozilla/5.0 (Windows NT 6.1; rv:88.0) Gecko/20100101 Firefox/88.0,,Firefox,88,Windows,6.1
171,1,1314,"""",html-slider-response,203,616503,0.0-203.0,"""","<img src='jspsych/CFDfaces/CFD-BF-010-001-N.jpg' height=""250px"">,</br><b>Emily</b>","""",256,ConfidenceQuery,Test,"""","""","""","""",CFD-AM-213-056-N.jpg,Austin,1,"""",0,47,1,4/27/2021 4:50,60.231.48.194,Mozilla/5.0 (Windows NT 6.1; rv:88.0) Gecko/20100101 Firefox/88.0,,Firefox,88,Windows,6.1
171,1,null,"""",html-keyboard-response,204,617506,0.0-204.0,"""","<div style=""font-size:60px;"">+</div>","""",256,ITI,Test,null,1000,"""","""","""","""","""","""","""","""",1,4/27/2021 4:50,60.231.48.194,Mozilla/5.0 (Windows NT 6.1; rv:88.0) Gecko/20100101 Firefox/88.0,,Firefox,88,Windows,6.1
171,1,null,"""",image-keyboard-response,205,617761,0.0-205.0,"""",jspsych/scrambledNeutralFaces/scrambledBM07NES.JPG,"""",256,forwardMask,Test,null,250,"""",n,"""","""","""","""","""","""",1,4/27/2021 4:50,60.231.48.194,Mozilla/5.0 (Windows NT 6.1; rv:88.0) Gecko/20100101 Firefox/88.0,,Firefox,88,Windows,6.1
171,1,null,"""",image-keyboard-response,206,617785,0.0-206.0,"""",jspsych/neutralFaces/BM07NES.JPG,"""",256,Cue,Test,null,16,"""","""","""","""","""","""","""","""",1,4/27/2021 4:50,60.231.48.194,Mozilla/5.0 (Windows NT 6.1; rv:88.0) Gecko/20100101 Firefox/88.0,,Firefox,88,Windows,6.1
171,1,null,"""",image-keyboard-response,207,617892,0.0-207.0,"""",jspsych/neutralFaces/AM17NES.JPG,"""",256,backwardMask,Test,null,100,"""","""","""","""","""","""","""","""",1,4/27/2021 4:50,60.231.48.194,Mozilla/5.0 (Windows NT 6.1; rv:88.0) Gecko/20100101 Firefox/88.0,,Firefox,88,Windows,6.1
171,1,null,"""",html-keyboard-response,208,618893,0.0-208.0,"""","<div style=""font-size:60px;"">+</div>","""",256,fixationBtwnNeutralMaskAndPrompt,Test,null,1000,"""","""","""","""","""","""","""","""",1,4/27/2021 4:50,60.231.48.194,Mozilla/5.0 (Windows NT 6.1; rv:88.0) Gecko/20100101 Firefox/88.0,,Firefox,88,Windows,6.1
171,1,3602,"""",html-button-response,209,622497,0.0-209.0,"""","<img src='jspsych/CFDfaces/CFD-LM-200-045-N.jpg' height=""250px"">,</br><b>Daniel</b>",0,256,IntactOrRearranged,Test,"""","""","""","""",CFD-BF-021-013-N.jpg,Whitney,1,0,"""","""",1,4/27/2021 4:50,60.231.48.194,Mozilla/5.0 (Windows NT 6.1; rv:88.0) Gecko/20100101 Firefox/88.0,,Firefox,88,Windows,6.1
171,1,1581,"""",html-slider-response,210,624095,0.0-210.0,"""","<img src='jspsych/CFDfaces/CFD-LM-200-045-N.jpg' height=""250px"">,</br><b>Daniel</b>","""",256,ConfidenceQuery,Test,"""","""","""","""",CFD-BF-021-013-N.jpg,Whitney,1,"""",0,71,1,4/27/2021 4:50,60.231.48.194,Mozilla/5.0 (Windows NT 6.1; rv:88.0) Gecko/20100101 Firefox/88.0,,Firefox,88,Windows,6.1
171,1,null,"""",html-keyboard-response,211,625098,0.0-211.0,"""","<div style=""font-size:60px;"">+</div>","""",256,ITI,Test,null,1000,"""","""","""","""","""","""","""","""",1,4/27/2021 4:50,60.231.48.194,Mozilla/5.0 (Windows NT 6.1; rv:88.0) Gecko/20100101 Firefox/88.0,,Firefox,88,Windows,6.1
171,1,null,"""",image-keyboard-response,212,625354,0.0-212.0,"""",jspsych/scrambledDisgustFaces/scrambledAM08DIS.JPG,"""",256,forwardMask,Test,null,250,"""",d,"""","""","""","""","""","""",1,4/27/2021 4:50,60.231.48.194,Mozilla/5.0 (Windows NT 6.1; rv:88.0) Gecko/20100101 Firefox/88.0,,Firefox,88,Windows,6.1
171,1,null,"""",image-keyboard-response,213,625379,0.0-213.0,"""",jspsych/disgustFaces/AM08DIS.JPG,"""",256,Cue,Test,null,16,"""","""","""","""","""","""","""","""",1,4/27/2021 4:50,60.231.48.194,Mozilla/5.0 (Windows NT 6.1; rv:88.0) Gecko/20100101 Firefox/88.0,,Firefox,88,Windows,6.1
171,1,null,"""",image-keyboard-response,214,625484,0.0-214.0,"""",jspsych/neutralFaces/BM03NES.JPG,"""",256,backwardMask,Test,null,100,"""","""","""","""","""","""","""","""",1,4/27/2021 4:50,60.231.48.194,Mozilla/5.0 (Windows NT 6.1; rv:88.0) Gecko/20100101 Firefox/88.0,,Firefox,88,Windows,6.1
171,1,null,"""",html-keyboard-response,215,626486,0.0-215.0,"""","<div style=""font-size:60px;"">+</div>","""",256,fixationBtwnNeutralMaskAndPrompt,Test,null,1000,"""","""","""","""","""","""","""","""",1,4/27/2021 4:50,60.231.48.194,Mozilla/5.0 (Windows NT 6.1; rv:88.0) Gecko/20100101 Firefox/88.0,,Firefox,88,Windows,6.1
171,1,2809,"""",html-button-response,216,629295,0.0-216.0,"""","<img src='jspsych/CFDfaces/CFD-BM-205-001-N.jpg' height=""250px"">,</br><b>Jason</b>",1,256,IntactOrRearranged,Test,"""","""","""","""",CFD-WF-016-015-N.jpg,Lindsey,0,1,"""","""",1,4/27/2021 4:50,60.231.48.194,Mozilla/5.0 (Windows NT 6.1; rv:88.0) Gecko/20100101 Firefox/88.0,,Firefox,88,Windows,6.1
171,1,1642,"""",html-slider-response,217,630943,0.0-217.0,"""","<img src='jspsych/CFDfaces/CFD-BM-205-001-N.jpg' height=""250px"">,</br><b>Jason</b>","""",256,ConfidenceQuery,Test,"""","""","""","""",CFD-WF-016-015-N.jpg,Lindsey,0,"""",0,58,1,4/27/2021 4:50,60.231.48.194,Mozilla/5.0 (Windows NT 6.1; rv:88.0) Gecko/20100101 Firefox/88.0,,Firefox,88,Windows,6.1
171,1,null,"""",html-keyboard-response,218,631956,0.0-218.0,"""","<div style=""font-size:60px;"">+</div>","""",256,ITI,Test,null,1000,"""","""","""","""","""","""","""","""",1,4/27/2021 4:50,60.231.48.194,Mozilla/5.0 (Windows NT 6.1; rv:88.0) Gecko/20100101 Firefox/88.0,,Firefox,88,Windows,6.1
171,1,null,"""",image-keyboard-response,219,632212,0.0-219.0,"""",jspsych/scrambledNeutralFaces/scrambledAM35NES.JPG,"""",256,forwardMask,Test,null,250,"""",n,"""","""","""","""","""","""",1,4/27/2021 4:50,60.231.48.194,Mozilla/5.0 (Windows NT 6.1; rv:88.0) Gecko/20100101 Firefox/88.0,,Firefox,88,Windows,6.1
171,1,null,"""",image-keyboard-response,220,632235,0.0-220.0,"""",jspsych/neutralFaces/AM35NES.JPG,"""",256,Cue,Test,null,16,"""","""","""","""","""","""","""","""",1,4/27/2021 4:50,60.231.48.194,Mozilla/5.0 (Windows NT 6.1; rv:88.0) Gecko/20100101 Firefox/88.0,,Firefox,88,Windows,6.1
171,1,null,"""",image-keyboard-response,221,632342,0.0-221.0,"""",jspsych/neutralFaces/BM09NES.JPG,"""",256,backwardMask,Test,null,100,"""","""","""","""","""","""","""","""",1,4/27/2021 4:50,60.231.48.194,Mozilla/5.0 (Windows NT 6.1; rv:88.0) Gecko/20100101 Firefox/88.0,,Firefox,88,Windows,6.1
171,1,null,"""",html-keyboard-response,222,633343,0.0-222.0,"""","<div style=""font-size:60px;"">+</div>","""",256,fixationBtwnNeutralMaskAndPrompt,Test,null,1000,"""","""","""","""","""","""","""","""",1,4/27/2021 4:50,60.231.48.194,Mozilla/5.0 (Windows NT 6.1; rv:88.0) Gecko/20100101 Firefox/88.0,,Firefox,88,Windows,6.1
171,1,3045,"""",html-button-response,223,636390,0.0-223.0,"""","<img src='jspsych/CFDfaces/CFD-WM-017-002-N.jpg' height=""250px"">,</br><b>Robert</b>",1,256,IntactOrRearranged,Test,"""","""","""","""",CFD-WF-202-056-N.jpg,Jordan,0,1,"""","""",1,4/27/2021 4:50,60.231.48.194,Mozilla/5.0 (Windows NT 6.1; rv:88.0) Gecko/20100101 Firefox/88.0,,Firefox,88,Windows,6.1
171,1,1491,"""",html-slider-response,224,637887,0.0-224.0,"""","<img src='jspsych/CFDfaces/CFD-WM-017-002-N.jpg' height=""250px"">,</br><b>Robert</b>","""",256,ConfidenceQuery,Test,"""","""","""","""",CFD-WF-202-056-N.jpg,Jordan,0,"""",0,63,1,4/27/2021 4:50,60.231.48.194,Mozilla/5.0 (Windows NT 6.1; rv:88.0) Gecko/20100101 Firefox/88.0,,Firefox,88,Windows,6.1
171,1,null,"""",html-keyboard-response,225,638889,0.0-225.0,"""","<div style=""font-size:60px;"">+</div>","""",256,ITI,Test,null,1000,"""","""","""","""","""","""","""","""",1,4/27/2021 4:50,60.231.48.194,Mozilla/5.0 (Windows NT 6.1; rv:88.0) Gecko/20100101 Firefox/88.0,,Firefox,88,Windows,6.1
171,1,null,"""",image-keyboard-response,226,639156,0.0-226.0,"""",jspsych/scrambledDisgustFaces/scrambledAM16DIS.JPG,"""",256,forwardMask,Test,null,250,"""",d,"""","""","""","""","""","""",1,4/27/2021 4:50,60.231.48.194,Mozilla/5.0 (Windows NT 6.1; rv:88.0) Gecko/20100101 Firefox/88.0,,Firefox,88,Windows,6.1
171,1,null,"""",image-keyboard-response,227,639178,0.0-227.0,"""",jspsych/disgustFaces/AM16DIS.JPG,"""",256,Cue,Test,null,16,"""","""","""","""","""","""","""","""",1,4/27/2021 4:50,60.231.48.194,Mozilla/5.0 (Windows NT 6.1; rv:88.0) Gecko/20100101 Firefox/88.0,,Firefox,88,Windows,6.1
171,1,null,"""",image-keyboard-response,228,639286,0.0-228.0,"""",jspsych/neutralFaces/BM06NES.JPG,"""",256,backwardMask,Test,null,100,"""","""","""","""","""","""","""","""",1,4/27/2021 4:50,60.231.48.194,Mozilla/5.0 (Windows NT 6.1; rv:88.0) Gecko/20100101 Firefox/88.0,,Firefox,88,Windows,6.1
171,1,null,"""",html-keyboard-response,229,640287,0.0-229.0,"""","<div style=""font-size:60px;"">+</div>","""",256,fixationBtwnNeutralMaskAndPrompt,Test,null,1000,"""","""","""","""","""","""","""","""",1,4/27/2021 4:50,60.231.48.194,Mozilla/5.0 (Windows NT 6.1; rv:88.0) Gecko/20100101 Firefox/88.0,,Firefox,88,Windows,6.1
171,1,3085,"""",html-button-response,230,643374,0.0-230.0,"""","<img src='jspsych/CFDfaces/CFD-BF-019-001-N.jpg' height=""250px"">,</br><b>Brittany</b>",0,256,IntactOrRearranged,Test,"""","""","""","""",CFD-BM-043-071-N.jpg,Kenneth,0,0,"""","""",1,4/27/2021 4:50,60.231.48.194,Mozilla/5.0 (Windows NT 6.1; rv:88.0) Gecko/20100101 Firefox/88.0,,Firefox,88,Windows,6.1
171,1,1554,"""",html-slider-response,231,644934,0.0-231.0,"""","<img src='jspsych/CFDfaces/CFD-BF-019-001-N.jpg' height=""250px"">,</br><b>Brittany</b>","""",256,ConfidenceQuery,Test,"""","""","""","""",CFD-BM-043-071-N.jpg,Kenneth,0,"""",0,67,1,4/27/2021 4:50,60.231.48.194,Mozilla/5.0 (Windows NT 6.1; rv:88.0) Gecko/20100101 Firefox/88.0,,Firefox,88,Windows,6.1
171,1,null,"""",html-keyboard-response,232,645938,0.0-232.0,"""","<div style=""font-size:60px;"">+</div>","""",256,ITI,Test,null,1000,"""","""","""","""","""","""","""","""",1,4/27/2021 4:50,60.231.48.194,Mozilla/5.0 (Windows NT 6.1; rv:88.0) Gecko/20100101 Firefox/88.0,,Firefox,88,Windows,6.1
171,1,null,"""",image-keyboard-response,233,646192,0.0-233.0,"""",jspsych/scrambledNeutralFaces/scrambledAF20NES.JPG,"""",256,forwardMask,Test,null,250,"""",n,"""","""","""","""","""","""",1,4/27/2021 4:50,60.231.48.194,Mozilla/5.0 (Windows NT 6.1; rv:88.0) Gecko/20100101 Firefox/88.0,,Firefox,88,Windows,6.1
171,1,null,"""",image-keyboard-response,234,646230,0.0-234.0,"""",jspsych/neutralFaces/AF20NES.JPG,"""",256,Cue,Test,null,16,"""","""","""","""","""","""","""","""",1,4/27/2021 4:50,60.231.48.194,Mozilla/5.0 (Windows NT 6.1; rv:88.0) Gecko/20100101 Firefox/88.0,,Firefox,88,Windows,6.1
171,1,null,"""",image-keyboard-response,235,646338,0.0-235.0,"""",jspsych/neutralFaces/BF07NES.JPG,"""",256,backwardMask,Test,null,100,"""","""","""","""","""","""","""","""",1,4/27/2021 4:50,60.231.48.194,Mozilla/5.0 (Windows NT 6.1; rv:88.0) Gecko/20100101 Firefox/88.0,,Firefox,88,Windows,6.1
171,1,null,"""",html-keyboard-response,236,647339,0.0-236.0,"""","<div style=""font-size:60px;"">+</div>","""",256,fixationBtwnNeutralMaskAndPrompt,Test,null,1000,"""","""","""","""","""","""","""","""",1,4/27/2021 4:50,60.231.48.194,Mozilla/5.0 (Windows NT 6.1; rv:88.0) Gecko/20100101 Firefox/88.0,,Firefox,88,Windows,6.1
171,1,2633,"""",html-button-response,237,649974,0.0-237.0,"""","<img src='jspsych/CFDfaces/CFD-BM-022-022-N.jpg' height=""250px"">,</br><b>James</b>",1,256,IntactOrRearranged,Test,"""","""","""","""",CFD-LF-215-157-N.jpg,Lauren,1,1,"""","""",1,4/27/2021 4:50,60.231.48.194,Mozilla/5.0 (Windows NT 6.1; rv:88.0) Gecko/20100101 Firefox/88.0,,Firefox,88,Windows,6.1
171,1,1499,"""",html-slider-response,238,651478,0.0-238.0,"""","<img src='jspsych/CFDfaces/CFD-BM-022-022-N.jpg' height=""250px"">,</br><b>James</b>","""",256,ConfidenceQuery,Test,"""","""","""","""",CFD-LF-215-157-N.jpg,Lauren,1,"""",0,66,1,4/27/2021 4:50,60.231.48.194,Mozilla/5.0 (Windows NT 6.1; rv:88.0) Gecko/20100101 Firefox/88.0,,Firefox,88,Windows,6.1
171,1,null,"""",html-keyboard-response,239,652481,0.0-239.0,"""","<div style=""font-size:60px;"">+</div>","""",256,ITI,Test,null,1000,"""","""","""","""","""","""","""","""",1,4/27/2021 4:50,60.231.48.194,Mozilla/5.0 (Windows NT 6.1; rv:88.0) Gecko/20100101 Firefox/88.0,,Firefox,88,Windows,6.1
171,1,null,"""",image-keyboard-response,240,652737,0.0-240.0,"""",jspsych/scrambledDisgustFaces/scrambledAF11DIS.JPG,"""",256,forwardMask,Test,null,250,"""",d,"""","""","""","""","""","""",1,4/27/2021 4:50,60.231.48.194,Mozilla/5.0 (Windows NT 6.1; rv:88.0) Gecko/20100101 Firefox/88.0,,Firefox,88,Windows,6.1
171,1,null,"""",image-keyboard-response,241,652759,0.0-241.0,"""",jspsych/disgustFaces/AF11DIS.JPG,"""",256,Cue,Test,null,16,"""","""","""","""","""","""","""","""",1,4/27/2021 4:50,60.231.48.194,Mozilla/5.0 (Windows NT 6.1; rv:88.0) Gecko/20100101 Firefox/88.0,,Firefox,88,Windows,6.1
171,1,null,"""",image-keyboard-response,242,652867,0.0-242.0,"""",jspsych/neutralFaces/BF15NES.JPG,"""",256,backwardMask,Test,null,100,"""","""","""","""","""","""","""","""",1,4/27/2021 4:50,60.231.48.194,Mozilla/5.0 (Windows NT 6.1; rv:88.0) Gecko/20100101 Firefox/88.0,,Firefox,88,Windows,6.1
171,1,null,"""",html-keyboard-response,243,653869,0.0-243.0,"""","<div style=""font-size:60px;"">+</div>","""",256,fixationBtwnNeutralMaskAndPrompt,Test,null,1000,"""","""","""","""","""","""","""","""",1,4/27/2021 4:50,60.231.48.194,Mozilla/5.0 (Windows NT 6.1; rv:88.0) Gecko/20100101 Firefox/88.0,,Firefox,88,Windows,6.1
171,1,2541,"""",html-button-response,244,656422,0.0-244.0,"""","<img src='jspsych/CFDfaces/CFD-LF-231-260-N.jpg' height=""250px"">,</br><b>Stephanie</b>",0,256,IntactOrRearranged,Test,"""","""","""","""",CFD-LM-225-130-N.jpg,Vincent,0,0,"""","""",1,4/27/2021 4:50,60.231.48.194,Mozilla/5.0 (Windows NT 6.1; rv:88.0) Gecko/20100101 Firefox/88.0,,Firefox,88,Windows,6.1
171,1,1739,"""",html-slider-response,245,658166,0.0-245.0,"""","<img src='jspsych/CFDfaces/CFD-LF-231-260-N.jpg' height=""250px"">,</br><b>Stephanie</b>","""",256,ConfidenceQuery,Test,"""","""","""","""",CFD-LM-225-130-N.jpg,Vincent,0,"""",0,54,1,4/27/2021 4:50,60.231.48.194,Mozilla/5.0 (Windows NT 6.1; rv:88.0) Gecko/20100101 Firefox/88.0,,Firefox,88,Windows,6.1
171,1,null,"""",html-keyboard-response,246,659169,0.0-246.0,"""","<div style=""font-size:60px;"">+</div>","""",256,ITI,Test,null,1000,"""","""","""","""","""","""","""","""",1,4/27/2021 4:50,60.231.48.194,Mozilla/5.0 (Windows NT 6.1; rv:88.0) Gecko/20100101 Firefox/88.0,,Firefox,88,Windows,6.1
171,1,null,"""",image-keyboard-response,247,659425,0.0-247.0,"""",jspsych/scrambledNeutralFaces/scrambledAM29NES.JPG,"""",256,forwardMask,Test,null,250,"""",n,"""","""","""","""","""","""",1,4/27/2021 4:50,60.231.48.194,Mozilla/5.0 (Windows NT 6.1; rv:88.0) Gecko/20100101 Firefox/88.0,,Firefox,88,Windows,6.1
171,1,null,"""",image-keyboard-response,248,659448,0.0-248.0,"""",jspsych/neutralFaces/AM29NES.JPG,"""",256,Cue,Test,null,16,"""","""","""","""","""","""","""","""",1,4/27/2021 4:50,60.231.48.194,Mozilla/5.0 (Windows NT 6.1; rv:88.0) Gecko/20100101 Firefox/88.0,,Firefox,88,Windows,6.1
171,1,null,"""",image-keyboard-response,249,659554,0.0-249.0,"""",jspsych/neutralFaces/AM33NES.JPG,"""",256,backwardMask,Test,null,100,"""","""","""","""","""","""","""","""",1,4/27/2021 4:50,60.231.48.194,Mozilla/5.0 (Windows NT 6.1; rv:88.0) Gecko/20100101 Firefox/88.0,,Firefox,88,Windows,6.1
171,1,null,"""",html-keyboard-response,250,660555,0.0-250.0,"""","<div style=""font-size:60px;"">+</div>","""",256,fixationBtwnNeutralMaskAndPrompt,Test,null,1000,"""","""","""","""","""","""","""","""",1,4/27/2021 4:50,60.231.48.194,Mozilla/5.0 (Windows NT 6.1; rv:88.0) Gecko/20100101 Firefox/88.0,,Firefox,88,Windows,6.1
171,1,2032,"""",html-button-response,251,662590,0.0-251.0,"""","<img src='jspsych/CFDfaces/CFD-BF-047-003-N.jpg' height=""250px"">,</br><b>Vanessa</b>",0,256,IntactOrRearranged,Test,"""","""","""","""",CFD-AM-202-079-N.jpg,Travis,0,0,"""","""",1,4/27/2021 4:50,60.231.48.194,Mozilla/5.0 (Windows NT 6.1; rv:88.0) Gecko/20100101 Firefox/88.0,,Firefox,88,Windows,6.1
171,1,1440,"""",html-slider-response,252,664045,0.0-252.0,"""","<img src='jspsych/CFDfaces/CFD-BF-047-003-N.jpg' height=""250px"">,</br><b>Vanessa</b>","""",256,ConfidenceQuery,Test,"""","""","""","""",CFD-AM-202-079-N.jpg,Travis,0,"""",0,86,1,4/27/2021 4:50,60.231.48.194,Mozilla/5.0 (Windows NT 6.1; rv:88.0) Gecko/20100101 Firefox/88.0,,Firefox,88,Windows,6.1
171,1,null,"""",html-keyboard-response,253,665048,0.0-253.0,"""","<div style=""font-size:60px;"">+</div>","""",256,ITI,Test,null,1000,"""","""","""","""","""","""","""","""",1,4/27/2021 4:50,60.231.48.194,Mozilla/5.0 (Windows NT 6.1; rv:88.0) Gecko/20100101 Firefox/88.0,,Firefox,88,Windows,6.1
171,1,null,"""",image-keyboard-response,254,665302,0.0-254.0,"""",jspsych/scrambledNeutralFaces/scrambledBM01NES.JPG,"""",256,forwardMask,Test,null,250,"""",n,"""","""","""","""","""","""",1,4/27/2021 4:50,60.231.48.194,Mozilla/5.0 (Windows NT 6.1; rv:88.0) Gecko/20100101 Firefox/88.0,,Firefox,88,Windows,6.1
171,1,null,"""",image-keyboard-response,255,665323,0.0-255.0,"""",jspsych/neutralFaces/BM01NES.JPG,"""",256,Cue,Test,null,16,"""","""","""","""","""","""","""","""",1,4/27/2021 4:50,60.231.48.194,Mozilla/5.0 (Windows NT 6.1; rv:88.0) Gecko/20100101 Firefox/88.0,,Firefox,88,Windows,6.1
171,1,null,"""",image-keyboard-response,256,665430,0.0-256.0,"""",jspsych/neutralFaces/AM07NES.JPG,"""",256,backwardMask,Test,null,100,"""","""","""","""","""","""","""","""",1,4/27/2021 4:50,60.231.48.194,Mozilla/5.0 (Windows NT 6.1; rv:88.0) Gecko/20100101 Firefox/88.0,,Firefox,88,Windows,6.1
171,1,null,"""",html-keyboard-response,257,666432,0.0-257.0,"""","<div style=""font-size:60px;"">+</div>","""",256,fixationBtwnNeutralMaskAndPrompt,Test,null,1000,"""","""","""","""","""","""","""","""",1,4/27/2021 4:50,60.231.48.194,Mozilla/5.0 (Windows NT 6.1; rv:88.0) Gecko/20100101 Firefox/88.0,,Firefox,88,Windows,6.1
171,1,2124,"""",html-button-response,258,668557,0.0-258.0,"""","<img src='jspsych/CFDfaces/CFD-AM-234-355-N.jpg' height=""250px"">,</br><b>Ian</b>",1,256,IntactOrRearranged,Test,"""","""","""","""",CFD-LM-252-076-N.jpg,Cameron,0,1,"""","""",1,4/27/2021 4:50,60.231.48.194,Mozilla/5.0 (Windows NT 6.1; rv:88.0) Gecko/20100101 Firefox/88.0,,Firefox,88,Windows,6.1
171,1,1355,"""",html-slider-response,259,669917,0.0-259.0,"""","<img src='jspsych/CFDfaces/CFD-AM-234-355-N.jpg' height=""250px"">,</br><b>Ian</b>","""",256,ConfidenceQuery,Test,"""","""","""","""",CFD-LM-252-076-N.jpg,Cameron,0,"""",0,88,1,4/27/2021 4:50,60.231.48.194,Mozilla/5.0 (Windows NT 6.1; rv:88.0) Gecko/20100101 Firefox/88.0,,Firefox,88,Windows,6.1
171,1,null,"""",html-keyboard-response,260,670931,0.0-260.0,"""","<div style=""font-size:60px;"">+</div>","""",256,ITI,Test,null,1000,"""","""","""","""","""","""","""","""",1,4/27/2021 4:50,60.231.48.194,Mozilla/5.0 (Windows NT 6.1; rv:88.0) Gecko/20100101 Firefox/88.0,,Firefox,88,Windows,6.1
171,1,null,"""",image-keyboard-response,261,671186,0.0-261.0,"""",jspsych/scrambledNeutralFaces/scrambledBM04NES.JPG,"""",256,forwardMask,Test,null,250,"""",n,"""","""","""","""","""","""",1,4/27/2021 4:50,60.231.48.194,Mozilla/5.0 (Windows NT 6.1; rv:88.0) Gecko/20100101 Firefox/88.0,,Firefox,88,Windows,6.1
171,1,null,"""",image-keyboard-response,262,671209,0.0-262.0,"""",jspsych/neutralFaces/BM04NES.JPG,"""",256,Cue,Test,null,16,"""","""","""","""","""","""","""","""",1,4/27/2021 4:50,60.231.48.194,Mozilla/5.0 (Windows NT 6.1; rv:88.0) Gecko/20100101 Firefox/88.0,,Firefox,88,Windows,6.1
171,1,null,"""",image-keyboard-response,263,671316,0.0-263.0,"""",jspsych/neutralFaces/AM11NES.JPG,"""",256,backwardMask,Test,null,100,"""","""","""","""","""","""","""","""",1,4/27/2021 4:50,60.231.48.194,Mozilla/5.0 (Windows NT 6.1; rv:88.0) Gecko/20100101 Firefox/88.0,,Firefox,88,Windows,6.1
171,1,null,"""",html-keyboard-response,264,672318,0.0-264.0,"""","<div style=""font-size:60px;"">+</div>","""",256,fixationBtwnNeutralMaskAndPrompt,Test,null,1000,"""","""","""","""","""","""","""","""",1,4/27/2021 4:50,60.231.48.194,Mozilla/5.0 (Windows NT 6.1; rv:88.0) Gecko/20100101 Firefox/88.0,,Firefox,88,Windows,6.1
171,1,3717,"""",html-button-response,265,676037,0.0-265.0,"""","<img src='jspsych/CFDfaces/CFD-LM-224-162-N.jpg' height=""250px"">,</br><b>Juan</b>",1,256,IntactOrRearranged,Test,"""","""","""","""",CFD-AM-228-214-N.jpg,Jeremy,0,1,"""","""",1,4/27/2021 4:50,60.231.48.194,Mozilla/5.0 (Windows NT 6.1; rv:88.0) Gecko/20100101 Firefox/88.0,,Firefox,88,Windows,6.1
171,1,1348,"""",html-slider-response,266,677389,0.0-266.0,"""","<img src='jspsych/CFDfaces/CFD-LM-224-162-N.jpg' height=""250px"">,</br><b>Juan</b>","""",256,ConfidenceQuery,Test,"""","""","""","""",CFD-AM-228-214-N.jpg,Jeremy,0,"""",0,85,1,4/27/2021 4:50,60.231.48.194,Mozilla/5.0 (Windows NT 6.1; rv:88.0) Gecko/20100101 Firefox/88.0,,Firefox,88,Windows,6.1
171,1,null,"""",html-keyboard-response,267,678404,0.0-267.0,"""","<div style=""font-size:60px;"">+</div>","""",256,ITI,Test,null,1000,"""","""","""","""","""","""","""","""",1,4/27/2021 4:50,60.231.48.194,Mozilla/5.0 (Windows NT 6.1; rv:88.0) Gecko/20100101 Firefox/88.0,,Firefox,88,Windows,6.1
171,1,null,"""",image-keyboard-response,268,678660,0.0-268.0,"""",jspsych/scrambledNeutralFaces/scrambledBM33NES.JPG,"""",256,forwardMask,Test,null,250,"""",n,"""","""","""","""","""","""",1,4/27/2021 4:50,60.231.48.194,Mozilla/5.0 (Windows NT 6.1; rv:88.0) Gecko/20100101 Firefox/88.0,,Firefox,88,Windows,6.1
171,1,null,"""",image-keyboard-response,269,678682,0.0-269.0,"""",jspsych/neutralFaces/BM33NES.JPG,"""",256,Cue,Test,null,16,"""","""","""","""","""","""","""","""",1,4/27/2021 4:50,60.231.48.194,Mozilla/5.0 (Windows NT 6.1; rv:88.0) Gecko/20100101 Firefox/88.0,,Firefox,88,Windows,6.1
171,1,null,"""",image-keyboard-response,270,678787,0.0-270.0,"""",jspsych/neutralFaces/BM09NES.JPG,"""",256,backwardMask,Test,null,100,"""","""","""","""","""","""","""","""",1,4/27/2021 4:50,60.231.48.194,Mozilla/5.0 (Windows NT 6.1; rv:88.0) Gecko/20100101 Firefox/88.0,,Firefox,88,Windows,6.1
171,1,null,"""",html-keyboard-response,271,679788,0.0-271.0,"""","<div style=""font-size:60px;"">+</div>","""",256,fixationBtwnNeutralMaskAndPrompt,Test,null,1000,"""","""","""","""","""","""","""","""",1,4/27/2021 4:50,60.231.48.194,Mozilla/5.0 (Windows NT 6.1; rv:88.0) Gecko/20100101 Firefox/88.0,,Firefox,88,Windows,6.1
171,1,null,"""",html-button-response,272,684790,0.0-272.0,"""","<img src='jspsych/CFDfaces/CFD-AM-230-150-N.jpg' height=""250px"">,</br><b>Brian</b>",null,256,IntactOrRearranged,Test,"""","""","""","""",CFD-BM-018-001-N.jpg,Dustin,0,"""","""","""",1,4/27/2021 4:50,60.231.48.194,Mozilla/5.0 (Windows NT 6.1; rv:88.0) Gecko/20100101 Firefox/88.0,,Firefox,88,Windows,6.1
171,1,null,"""",html-slider-response,273,689809,0.0-273.0,"""","<img src='jspsych/CFDfaces/CFD-AM-230-150-N.jpg' height=""250px"">,</br><b>Brian</b>","""",256,ConfidenceQuery,Test,"""","""","""","""",CFD-BM-018-001-N.jpg,Dustin,0,"""",0,null,1,4/27/2021 4:50,60.231.48.194,Mozilla/5.0 (Windows NT 6.1; rv:88.0) Gecko/20100101 Firefox/88.0,,Firefox,88,Windows,6.1
171,1,null,"""",html-keyboard-response,274,690810,0.0-274.0,"""","<div style=""font-size:60px;"">+</div>","""",256,ITI,Test,null,1000,"""","""","""","""","""","""","""","""",1,4/27/2021 4:50,60.231.48.194,Mozilla/5.0 (Windows NT 6.1; rv:88.0) Gecko/20100101 Firefox/88.0,,Firefox,88,Windows,6.1
171,1,null,"""",image-keyboard-response,275,691065,0.0-275.0,"""",jspsych/scrambledDisgustFaces/scrambledBF32DIS.JPG,"""",256,forwardMask,Test,null,250,"""",d,"""","""","""","""","""","""",1,4/27/2021 4:50,60.231.48.194,Mozilla/5.0 (Windows NT 6.1; rv:88.0) Gecko/20100101 Firefox/88.0,,Firefox,88,Windows,6.1
171,1,null,"""",image-keyboard-response,276,691087,0.0-276.0,"""",jspsych/disgustFaces/BF32DIS.JPG,"""",256,Cue,Test,null,16,"""","""","""","""","""","""","""","""",1,4/27/2021 4:50,60.231.48.194,Mozilla/5.0 (Windows NT 6.1; rv:88.0) Gecko/20100101 Firefox/88.0,,Firefox,88,Windows,6.1
171,1,null,"""",image-keyboard-response,277,691195,0.0-277.0,"""",jspsych/neutralFaces/BF32NES.JPG,"""",256,backwardMask,Test,null,100,"""","""","""","""","""","""","""","""",1,4/27/2021 4:50,60.231.48.194,Mozilla/5.0 (Windows NT 6.1; rv:88.0) Gecko/20100101 Firefox/88.0,,Firefox,88,Windows,6.1
171,1,null,"""",html-keyboard-response,278,692196,0.0-278.0,"""","<div style=""font-size:60px;"">+</div>","""",256,fixationBtwnNeutralMaskAndPrompt,Test,null,1000,"""","""","""","""","""","""","""","""",1,4/27/2021 4:50,60.231.48.194,Mozilla/5.0 (Windows NT 6.1; rv:88.0) Gecko/20100101 Firefox/88.0,,Firefox,88,Windows,6.1
171,1,2258,"""",html-button-response,279,694468,0.0-279.0,"""","<img src='jspsych/CFDfaces/CFD-WM-009-002-N.jpg' height=""250px"">,</br><b>Eric</b>",0,256,IntactOrRearranged,Test,"""","""","""","""",CFD-WM-215-041-N.jpg,Ryan,1,0,"""","""",1,4/27/2021 4:50,60.231.48.194,Mozilla/5.0 (Windows NT 6.1; rv:88.0) Gecko/20100101 Firefox/88.0,,Firefox,88,Windows,6.1
171,1,2635,"""",html-slider-response,280,697108,0.0-280.0,"""","<img src='jspsych/CFDfaces/CFD-WM-009-002-N.jpg' height=""250px"">,</br><b>Eric</b>","""",256,ConfidenceQuery,Test,"""","""","""","""",CFD-WM-215-041-N.jpg,Ryan,1,"""",0,62,1,4/27/2021 4:50,60.231.48.194,Mozilla/5.0 (Windows NT 6.1; rv:88.0) Gecko/20100101 Firefox/88.0,,Firefox,88,Windows,6.1
171,1,null,"""",html-keyboard-response,281,698110,0.0-281.0,"""","<div style=""font-size:60px;"">+</div>","""",256,ITI,Test,null,1000,"""","""","""","""","""","""","""","""",1,4/27/2021 4:50,60.231.48.194,Mozilla/5.0 (Windows NT 6.1; rv:88.0) Gecko/20100101 Firefox/88.0,,Firefox,88,Windows,6.1
171,1,null,"""",image-keyboard-response,282,698367,0.0-282.0,"""",jspsych/scrambledNeutralFaces/scrambledAF16NES.JPG,"""",256,forwardMask,Test,null,250,"""",n,"""","""","""","""","""","""",1,4/27/2021 4:50,60.231.48.194,Mozilla/5.0 (Windows NT 6.1; rv:88.0) Gecko/20100101 Firefox/88.0,,Firefox,88,Windows,6.1
171,1,null,"""",image-keyboard-response,283,698390,0.0-283.0,"""",jspsych/neutralFaces/AF16NES.JPG,"""",256,Cue,Test,null,16,"""","""","""","""","""","""","""","""",1,4/27/2021 4:50,60.231.48.194,Mozilla/5.0 (Windows NT 6.1; rv:88.0) Gecko/20100101 Firefox/88.0,,Firefox,88,Windows,6.1
171,1,null,"""",image-keyboard-response,284,698497,0.0-284.0,"""",jspsych/neutralFaces/AF08NES.JPG,"""",256,backwardMask,Test,null,100,"""","""","""","""","""","""","""","""",1,4/27/2021 4:50,60.231.48.194,Mozilla/5.0 (Windows NT 6.1; rv:88.0) Gecko/20100101 Firefox/88.0,,Firefox,88,Windows,6.1
171,1,null,"""",html-keyboard-response,285,699498,0.0-285.0,"""","<div style=""font-size:60px;"">+</div>","""",256,fixationBtwnNeutralMaskAndPrompt,Test,null,1000,"""","""","""","""","""","""","""","""",1,4/27/2021 4:50,60.231.48.194,Mozilla/5.0 (Windows NT 6.1; rv:88.0) Gecko/20100101 Firefox/88.0,,Firefox,88,Windows,6.1
171,1,3568,"""",html-button-response,286,703069,0.0-286.0,"""","<img src='jspsych/CFDfaces/CFD-AM-220-134-N.jpg' height=""250px"">,</br><b>Brandon</b>",0,256,IntactOrRearranged,Test,"""","""","""","""",CFD-BM-017-021-N.jpg,Steven,0,0,"""","""",1,4/27/2021 4:50,60.231.48.194,Mozilla/5.0 (Windows NT 6.1; rv:88.0) Gecko/20100101 Firefox/88.0,,Firefox,88,Windows,6.1
171,1,1775,"""",html-slider-response,287,704859,0.0-287.0,"""","<img src='jspsych/CFDfaces/CFD-AM-220-134-N.jpg' height=""250px"">,</br><b>Brandon</b>","""",256,ConfidenceQuery,Test,"""","""","""","""",CFD-BM-017-021-N.jpg,Steven,0,"""",0,67,1,4/27/2021 4:50,60.231.48.194,Mozilla/5.0 (Windows NT 6.1; rv:88.0) Gecko/20100101 Firefox/88.0,,Firefox,88,Windows,6.1
171,1,null,"""",html-keyboard-response,288,705862,0.0-288.0,"""","<div style=""font-size:60px;"">+</div>","""",256,ITI,Test,null,1000,"""","""","""","""","""","""","""","""",1,4/27/2021 4:50,60.231.48.194,Mozilla/5.0 (Windows NT 6.1; rv:88.0) Gecko/20100101 Firefox/88.0,,Firefox,88,Windows,6.1
171,1,null,"""",image-keyboard-response,289,706117,0.0-289.0,"""",jspsych/scrambledDisgustFaces/scrambledBM15DIS.JPG,"""",256,forwardMask,Test,null,250,"""",d,"""","""","""","""","""","""",1,4/27/2021 4:50,60.231.48.194,Mozilla/5.0 (Windows NT 6.1; rv:88.0) Gecko/20100101 Firefox/88.0,,Firefox,88,Windows,6.1
171,1,null,"""",image-keyboard-response,290,706140,0.0-290.0,"""",jspsych/disgustFaces/BM16DIS.JPG,"""",256,Cue,Test,null,16,"""","""","""","""","""","""","""","""",1,4/27/2021 4:50,60.231.48.194,Mozilla/5.0 (Windows NT 6.1; rv:88.0) Gecko/20100101 Firefox/88.0,,Firefox,88,Windows,6.1
171,1,null,"""",image-keyboard-response,291,706248,0.0-291.0,"""",jspsych/neutralFaces/AM23NES.JPG,"""",256,backwardMask,Test,null,100,"""","""","""","""","""","""","""","""",1,4/27/2021 4:50,60.231.48.194,Mozilla/5.0 (Windows NT 6.1; rv:88.0) Gecko/20100101 Firefox/88.0,,Firefox,88,Windows,6.1
171,1,null,"""",html-keyboard-response,292,707250,0.0-292.0,"""","<div style=""font-size:60px;"">+</div>","""",256,fixationBtwnNeutralMaskAndPrompt,Test,null,1000,"""","""","""","""","""","""","""","""",1,4/27/2021 4:50,60.231.48.194,Mozilla/5.0 (Windows NT 6.1; rv:88.0) Gecko/20100101 Firefox/88.0,,Firefox,88,Windows,6.1
171,1,3217,"""",html-button-response,293,710467,0.0-293.0,"""","<img src='jspsych/CFDfaces/CFD-WM-003-002-N.jpg' height=""250px"">,</br><b>Joshua</b>",1,256,IntactOrRearranged,Test,"""","""","""","""",CFD-WM-022-001-N.jpg,Luis,1,1,"""","""",1,4/27/2021 4:50,60.231.48.194,Mozilla/5.0 (Windows NT 6.1; rv:88.0) Gecko/20100101 Firefox/88.0,,Firefox,88,Windows,6.1
171,1,1382,"""",html-slider-response,294,711868,0.0-294.0,"""","<img src='jspsych/CFDfaces/CFD-WM-003-002-N.jpg' height=""250px"">,</br><b>Joshua</b>","""",256,ConfidenceQuery,Test,"""","""","""","""",CFD-WM-022-001-N.jpg,Luis,1,"""",0,84,1,4/27/2021 4:50,60.231.48.194,Mozilla/5.0 (Windows NT 6.1; rv:88.0) Gecko/20100101 Firefox/88.0,,Firefox,88,Windows,6.1
171,1,null,"""",html-keyboard-response,295,712871,0.0-295.0,"""","<div style=""font-size:60px;"">+</div>","""",256,ITI,Test,null,1000,"""","""","""","""","""","""","""","""",1,4/27/2021 4:50,60.231.48.194,Mozilla/5.0 (Windows NT 6.1; rv:88.0) Gecko/20100101 Firefox/88.0,,Firefox,88,Windows,6.1
171,1,null,"""",image-keyboard-response,296,713125,0.0-296.0,"""",jspsych/scrambledNeutralFaces/scrambledAM09NES.JPG,"""",256,forwardMask,Test,null,250,"""",n,"""","""","""","""","""","""",1,4/27/2021 4:50,60.231.48.194,Mozilla/5.0 (Windows NT 6.1; rv:88.0) Gecko/20100101 Firefox/88.0,,Firefox,88,Windows,6.1
171,1,null,"""",image-keyboard-response,297,713148,0.0-297.0,"""",jspsych/neutralFaces/AM09NES.JPG,"""",256,Cue,Test,null,16,"""","""","""","""","""","""","""","""",1,4/27/2021 4:50,60.231.48.194,Mozilla/5.0 (Windows NT 6.1; rv:88.0) Gecko/20100101 Firefox/88.0,,Firefox,88,Windows,6.1
171,1,null,"""",image-keyboard-response,298,713253,0.0-298.0,"""",jspsych/neutralFaces/BM33NES.JPG,"""",256,backwardMask,Test,null,100,"""","""","""","""","""","""","""","""",1,4/27/2021 4:50,60.231.48.194,Mozilla/5.0 (Windows NT 6.1; rv:88.0) Gecko/20100101 Firefox/88.0,,Firefox,88,Windows,6.1
171,1,null,"""",html-keyboard-response,299,714254,0.0-299.0,"""","<div style=""font-size:60px;"">+</div>","""",256,fixationBtwnNeutralMaskAndPrompt,Test,null,1000,"""","""","""","""","""","""","""","""",1,4/27/2021 4:50,60.231.48.194,Mozilla/5.0 (Windows NT 6.1; rv:88.0) Gecko/20100101 Firefox/88.0,,Firefox,88,Windows,6.1
171,1,4179,"""",html-button-response,300,718435,0.0-300.0,"""","<img src='jspsych/CFDfaces/CFD-WM-222-057-N.jpg' height=""250px"">,</br><b>Gregory</b>",1,256,IntactOrRearranged,Test,"""","""","""","""",CFD-AF-208-003-N.jpg,Sara,1,1,"""","""",1,4/27/2021 4:50,60.231.48.194,Mozilla/5.0 (Windows NT 6.1; rv:88.0) Gecko/20100101 Firefox/88.0,,Firefox,88,Windows,6.1
171,1,2846,"""",html-slider-response,301,721299,0.0-301.0,"""","<img src='jspsych/CFDfaces/CFD-WM-222-057-N.jpg' height=""250px"">,</br><b>Gregory</b>","""",256,ConfidenceQuery,Test,"""","""","""","""",CFD-AF-208-003-N.jpg,Sara,1,"""",0,78,1,4/27/2021 4:50,60.231.48.194,Mozilla/5.0 (Windows NT 6.1; rv:88.0) Gecko/20100101 Firefox/88.0,,Firefox,88,Windows,6.1
171,1,null,"""",html-keyboard-response,302,722301,0.0-302.0,"""","<div style=""font-size:60px;"">+</div>","""",256,ITI,Test,null,1000,"""","""","""","""","""","""","""","""",1,4/27/2021 4:50,60.231.48.194,Mozilla/5.0 (Windows NT 6.1; rv:88.0) Gecko/20100101 Firefox/88.0,,Firefox,88,Windows,6.1
171,1,null,"""",image-keyboard-response,303,722557,0.0-303.0,"""",jspsych/scrambledNeutralFaces/scrambledBM22NES.JPG,"""",256,forwardMask,Test,null,250,"""",n,"""","""","""","""","""","""",1,4/27/2021 4:50,60.231.48.194,Mozilla/5.0 (Windows NT 6.1; rv:88.0) Gecko/20100101 Firefox/88.0,,Firefox,88,Windows,6.1
171,1,null,"""",image-keyboard-response,304,722579,0.0-304.0,"""",jspsych/neutralFaces/BM22NES.JPG,"""",256,Cue,Test,null,16,"""","""","""","""","""","""","""","""",1,4/27/2021 4:50,60.231.48.194,Mozilla/5.0 (Windows NT 6.1; rv:88.0) Gecko/20100101 Firefox/88.0,,Firefox,88,Windows,6.1
171,1,null,"""",image-keyboard-response,305,722687,0.0-305.0,"""",jspsych/neutralFaces/AM13NES.JPG,"""",256,backwardMask,Test,null,100,"""","""","""","""","""","""","""","""",1,4/27/2021 4:50,60.231.48.194,Mozilla/5.0 (Windows NT 6.1; rv:88.0) Gecko/20100101 Firefox/88.0,,Firefox,88,Windows,6.1
171,1,null,"""",html-keyboard-response,306,723688,0.0-306.0,"""","<div style=""font-size:60px;"">+</div>","""",256,fixationBtwnNeutralMaskAndPrompt,Test,null,1000,"""","""","""","""","""","""","""","""",1,4/27/2021 4:50,60.231.48.194,Mozilla/5.0 (Windows NT 6.1; rv:88.0) Gecko/20100101 Firefox/88.0,,Firefox,88,Windows,6.1
171,1,2625,"""",html-button-response,307,726316,0.0-307.0,"""","<img src='jspsych/CFDfaces/CFD-WF-023-003-N.jpg' height=""250px"">,</br><b>Ashley</b>",1,256,IntactOrRearranged,Test,"""","""","""","""",CFD-BF-023-010-N.jpg,Heather,1,1,"""","""",1,4/27/2021 4:50,60.231.48.194,Mozilla/5.0 (Windows NT 6.1; rv:88.0) Gecko/20100101 Firefox/88.0,,Firefox,88,Windows,6.1
