run_id,condition,rt,responses,trial_type,trial_index,time_elapsed,internal_node_id,question_order,stimulus,button_pressed,iTrial,Phase,ExperimentPhase,key_press,StimulusDurationSetting,CharacterResponse,correctResponse,Face,Name,rearranged,slider_start,response,didSubjectEnterRearranged,Block,recorded_at,ip,user_agent,device,browser,browser_version,platform,platform_version
26,1,17943,"{""Q0"":""A3K146PBRKNZGH""}",survey-text,0,18074,0.0-0.0,"""","""","""","""","""","""","""","""","""","""","""","""","""","""","""","""","""",4/19/2021 4:23,157.51.75.19,Mozilla/5.0 (Windows NT 6.1; Win64; x64; rv:87.0) Gecko/20100101 Firefox/87.0,,Firefox,87,Windows,6.1
26,1,12573,"{""Q0"":""20""}",survey-text,1,30677,0.0-1.0,"""","""","""","""","""","""","""","""","""","""","""","""","""","""","""","""","""",4/19/2021 4:23,157.51.75.19,Mozilla/5.0 (Windows NT 6.1; Win64; x64; rv:87.0) Gecko/20100101 Firefox/87.0,,Firefox,87,Windows,6.1
26,1,213173,"{""Q0"":""female"",""Q1"":""Hispanic/Latino"",""Q2"":""American Indian/Alska Native""}",survey-multi-choice,2,243859,0.0-2.0,"[0,1,2]","""","""","""","""","""","""","""","""","""","""","""","""","""","""","""","""",4/19/2021 4:23,157.51.75.19,Mozilla/5.0 (Windows NT 6.1; Win64; x64; rv:87.0) Gecko/20100101 Firefox/87.0,,Firefox,87,Windows,6.1
26,1,51119,"""",image-button-response,3,297310,0.0-3.0,"""",directionsMemoryAssociation1.JPG,0,1,IntroDirections1,break,"""","""","""","""","""","""","""","""","""","""","""",4/19/2021 4:23,157.51.75.19,Mozilla/5.0 (Windows NT 6.1; Win64; x64; rv:87.0) Gecko/20100101 Firefox/87.0,,Firefox,87,Windows,6.1
26,1,11713,"""",image-button-response,4,309045,0.0-4.0,"""",directionsMemoryAssociation2.JPG,0,1,IntroDirections2,break,"""","""","""","""","""","""","""","""","""","""","""",4/19/2021 4:23,157.51.75.19,Mozilla/5.0 (Windows NT 6.1; Win64; x64; rv:87.0) Gecko/20100101 Firefox/87.0,,Firefox,87,Windows,6.1
26,1,null,"""",html-keyboard-response,5,314056,0.0-5.0,"""","<img src='jspsych/CFDfaces/CFD-BM-211-174-N.jpg' height=""250px"">,</br><b>Marcus</b>","""",1,IntactFace,Practice,null,5000,"""","""","""","""","""","""","""","""","""",4/19/2021 4:23,157.51.75.19,Mozilla/5.0 (Windows NT 6.1; Win64; x64; rv:87.0) Gecko/20100101 Firefox/87.0,,Firefox,87,Windows,6.1
26,1,null,"""",html-keyboard-response,6,314559,0.0-6.0,"""","<div style=""font-size:60px;"">+</div>","""",1,ITI,Practice,null,1000,"""","""","""","""","""","""","""","""","""",4/19/2021 4:23,157.51.75.19,Mozilla/5.0 (Windows NT 6.1; Win64; x64; rv:87.0) Gecko/20100101 Firefox/87.0,,Firefox,87,Windows,6.1
26,1,4528,"""",html-keyboard-response,7,319566,0.0-7.0,"""","<img src='jspsych/CFDfaces/CFD-BF-019-001-N.jpg' height=""250px"">,</br><b>Tara</b>","""",2,IntactFace,Practice,70,5000,f,"""","""","""","""","""","""","""","""",4/19/2021 4:23,157.51.75.19,Mozilla/5.0 (Windows NT 6.1; Win64; x64; rv:87.0) Gecko/20100101 Firefox/87.0,,Firefox,87,Windows,6.1
26,1,null,"""",html-keyboard-response,8,320069,0.0-8.0,"""","<div style=""font-size:60px;"">+</div>","""",2,ITI,Practice,null,1000,"""","""","""","""","""","""","""","""","""",4/19/2021 4:23,157.51.75.19,Mozilla/5.0 (Windows NT 6.1; Win64; x64; rv:87.0) Gecko/20100101 Firefox/87.0,,Firefox,87,Windows,6.1
26,1,3865,"""",html-keyboard-response,9,325076,0.0-9.0,"""","<img src='jspsych/CFDfaces/CFD-BF-025-002-N.jpg' height=""250px"">,</br><b>Shannon</b>","""",3,IntactFace,Practice,70,5000,f,"""","""","""","""","""","""","""","""",4/19/2021 4:23,157.51.75.19,Mozilla/5.0 (Windows NT 6.1; Win64; x64; rv:87.0) Gecko/20100101 Firefox/87.0,,Firefox,87,Windows,6.1
26,1,null,"""",html-keyboard-response,10,325578,0.0-10.0,"""","<div style=""font-size:60px;"">+</div>","""",3,ITI,Practice,null,1000,"""","""","""","""","""","""","""","""","""",4/19/2021 4:23,157.51.75.19,Mozilla/5.0 (Windows NT 6.1; Win64; x64; rv:87.0) Gecko/20100101 Firefox/87.0,,Firefox,87,Windows,6.1
26,1,2209,"""",html-keyboard-response,11,330584,0.0-11.0,"""","<img src='jspsych/CFDfaces/CFD-AM-248-104-N.jpg' height=""250px"">,</br><b>Carlos</b>","""",4,IntactFace,Practice,70,5000,f,"""","""","""","""","""","""","""","""",4/19/2021 4:23,157.51.75.19,Mozilla/5.0 (Windows NT 6.1; Win64; x64; rv:87.0) Gecko/20100101 Firefox/87.0,,Firefox,87,Windows,6.1
26,1,null,"""",html-keyboard-response,12,331087,0.0-12.0,"""","<div style=""font-size:60px;"">+</div>","""",4,ITI,Practice,null,1000,"""","""","""","""","""","""","""","""","""",4/19/2021 4:23,157.51.75.19,Mozilla/5.0 (Windows NT 6.1; Win64; x64; rv:87.0) Gecko/20100101 Firefox/87.0,,Firefox,87,Windows,6.1
26,1,1709,"""",html-keyboard-response,13,336093,0.0-13.0,"""","<img src='jspsych/CFDfaces/CFD-WF-003-003-N.jpg' height=""250px"">,</br><b>Cassandra</b>","""",5,IntactFace,Practice,70,5000,f,"""","""","""","""","""","""","""","""",4/19/2021 4:23,157.51.75.19,Mozilla/5.0 (Windows NT 6.1; Win64; x64; rv:87.0) Gecko/20100101 Firefox/87.0,,Firefox,87,Windows,6.1
26,1,null,"""",html-keyboard-response,14,336595,0.0-14.0,"""","<div style=""font-size:60px;"">+</div>","""",5,ITI,Practice,null,1000,"""","""","""","""","""","""","""","""","""",4/19/2021 4:23,157.51.75.19,Mozilla/5.0 (Windows NT 6.1; Win64; x64; rv:87.0) Gecko/20100101 Firefox/87.0,,Firefox,87,Windows,6.1
26,1,4216,"""",html-keyboard-response,15,341602,0.0-15.0,"""","<img src='jspsych/CFDfaces/CFD-AM-220-134-N.jpg' height=""250px"">,</br><b>Patrick</b>","""",6,IntactFace,Practice,70,5000,f,"""","""","""","""","""","""","""","""",4/19/2021 4:23,157.51.75.19,Mozilla/5.0 (Windows NT 6.1; Win64; x64; rv:87.0) Gecko/20100101 Firefox/87.0,,Firefox,87,Windows,6.1
26,1,null,"""",html-keyboard-response,16,342104,0.0-16.0,"""","<div style=""font-size:60px;"">+</div>","""",6,ITI,Practice,null,1000,"""","""","""","""","""","""","""","""","""",4/19/2021 4:23,157.51.75.19,Mozilla/5.0 (Windows NT 6.1; Win64; x64; rv:87.0) Gecko/20100101 Firefox/87.0,,Firefox,87,Windows,6.1
26,1,890,"""",html-keyboard-response,17,347107,0.0-17.0,"""","<img src='jspsych/CFDfaces/CFD-BM-018-001-N.jpg' height=""250px"">,</br><b>Samuel</b>","""",7,IntactFace,Practice,70,5000,f,"""","""","""","""","""","""","""","""",4/19/2021 4:23,157.51.75.19,Mozilla/5.0 (Windows NT 6.1; Win64; x64; rv:87.0) Gecko/20100101 Firefox/87.0,,Firefox,87,Windows,6.1
26,1,null,"""",html-keyboard-response,18,347653,0.0-18.0,"""","<div style=""font-size:60px;"">+</div>","""",7,ITI,Practice,null,1000,"""","""","""","""","""","""","""","""","""",4/19/2021 4:23,157.51.75.19,Mozilla/5.0 (Windows NT 6.1; Win64; x64; rv:87.0) Gecko/20100101 Firefox/87.0,,Firefox,87,Windows,6.1
26,1,1553,"""",html-keyboard-response,19,352655,0.0-19.0,"""","<img src='jspsych/CFDfaces/CFD-AF-200-228-N.jpg' height=""250px"">,</br><b>Katelyn</b>","""",8,IntactFace,Practice,70,5000,f,"""","""","""","""","""","""","""","""",4/19/2021 4:23,157.51.75.19,Mozilla/5.0 (Windows NT 6.1; Win64; x64; rv:87.0) Gecko/20100101 Firefox/87.0,,Firefox,87,Windows,6.1
26,1,null,"""",html-keyboard-response,20,353160,0.0-20.0,"""","<div style=""font-size:60px;"">+</div>","""",8,ITI,Practice,null,1000,"""","""","""","""","""","""","""","""","""",4/19/2021 4:23,157.51.75.19,Mozilla/5.0 (Windows NT 6.1; Win64; x64; rv:87.0) Gecko/20100101 Firefox/87.0,,Firefox,87,Windows,6.1
26,1,13193,"""",image-button-response,21,366371,0.0-21.0,"""",directionsForTest.JPG,0,1,directionsForTest,break,"""","""","""","""","""","""","""","""","""","""","""",4/19/2021 4:23,157.51.75.19,Mozilla/5.0 (Windows NT 6.1; Win64; x64; rv:87.0) Gecko/20100101 Firefox/87.0,,Firefox,87,Windows,6.1
26,1,15863,"""",image-button-response,22,382259,0.0-22.0,"""",directionsForTest2.JPG,0,1,directionsForTest2,break,"""","""","""","""","""","""","""","""","""","""","""",4/19/2021 4:23,157.51.75.19,Mozilla/5.0 (Windows NT 6.1; Win64; x64; rv:87.0) Gecko/20100101 Firefox/87.0,,Firefox,87,Windows,6.1
26,1,null,"""",html-keyboard-response,23,383263,0.0-23.0,"""","<div style=""font-size:60px;"">+</div>","""",1,ITI,Practice,null,1000,"""","""","""","""","""","""","""","""","""",4/19/2021 4:23,157.51.75.19,Mozilla/5.0 (Windows NT 6.1; Win64; x64; rv:87.0) Gecko/20100101 Firefox/87.0,,Firefox,87,Windows,6.1
26,1,null,"""",image-keyboard-response,24,383534,0.0-24.0,"""",jspsych/scrambledDisgustFaces/scrambledAM08DIS.JPG,"""",1,forwardMask,Practice,null,250,"""",d,"""","""","""","""","""","""","""",4/19/2021 4:23,157.51.75.19,Mozilla/5.0 (Windows NT 6.1; Win64; x64; rv:87.0) Gecko/20100101 Firefox/87.0,,Firefox,87,Windows,6.1
26,1,null,"""",image-keyboard-response,25,383560,0.0-25.0,"""",jspsych/disgustFaces/AM08DIS.JPG,"""",1,Cue,Practice,null,16,"""","""","""","""","""","""","""","""","""",4/19/2021 4:23,157.51.75.19,Mozilla/5.0 (Windows NT 6.1; Win64; x64; rv:87.0) Gecko/20100101 Firefox/87.0,,Firefox,87,Windows,6.1
26,1,null,"""",image-keyboard-response,26,383668,0.0-26.0,"""",jspsych/neutralFaces/BM35NES.JPG,"""",1,backwardMask,Practice,null,100,"""","""","""","""","""","""","""","""","""",4/19/2021 4:23,157.51.75.19,Mozilla/5.0 (Windows NT 6.1; Win64; x64; rv:87.0) Gecko/20100101 Firefox/87.0,,Firefox,87,Windows,6.1
26,1,null,"""",html-keyboard-response,27,384670,0.0-27.0,"""","<div style=""font-size:60px;"">+</div>","""",1,fixationBtwnNeutralMaskAndPrompt,Practice,null,1000,"""","""","""","""","""","""","""","""","""",4/19/2021 4:23,157.51.75.19,Mozilla/5.0 (Windows NT 6.1; Win64; x64; rv:87.0) Gecko/20100101 Firefox/87.0,,Firefox,87,Windows,6.1
26,1,null,"""",html-button-response,28,389673,0.0-28.0,"""","<img src='jspsych/CFDfaces/CFD-BF-025-002-N.jpg'height=""250px""></br><b>Shannon</b>",null,1,IntactOrRearranged,Practice,"""","""","""","""",CFD-BF-025-002-N.jpg,Shannon,0,"""","""","""","""",4/19/2021 4:23,157.51.75.19,Mozilla/5.0 (Windows NT 6.1; Win64; x64; rv:87.0) Gecko/20100101 Firefox/87.0,,Firefox,87,Windows,6.1
26,1,null,"""",html-slider-response,29,394812,0.0-29.0,"""","<img src='jspsych/CFDfaces/CFD-BF-025-002-N.jpg'height=""250px""></br><b>Shannon</b>","""",1,ConfidenceQuery,Practice,"""","""","""","""",CFD-LM-221-216-N.jpg,Travis,0,0,null,"""","""",4/19/2021 4:23,157.51.75.19,Mozilla/5.0 (Windows NT 6.1; Win64; x64; rv:87.0) Gecko/20100101 Firefox/87.0,,Firefox,87,Windows,6.1
26,1,3428,"""",html-button-response,30,398251,0.0-30.0,"""",<p>Please click either button: REARRANGED or INTACT before the 5-second time limit.</p>,0,1,feedback,Practice,"""","""","""","""","""","""","""","""","""","""","""",4/19/2021 4:23,157.51.75.19,Mozilla/5.0 (Windows NT 6.1; Win64; x64; rv:87.0) Gecko/20100101 Firefox/87.0,,Firefox,87,Windows,6.1
26,1,null,"""",html-keyboard-response,31,399258,0.0-31.0,"""","<div style=""font-size:60px;"">+</div>","""",2,ITI,Practice,null,1000,"""","""","""","""","""","""","""","""","""",4/19/2021 4:23,157.51.75.19,Mozilla/5.0 (Windows NT 6.1; Win64; x64; rv:87.0) Gecko/20100101 Firefox/87.0,,Firefox,87,Windows,6.1
26,1,null,"""",image-keyboard-response,32,399514,0.0-32.0,"""",jspsych/scrambledDisgustFaces/scrambledBF35DIS.JPG,"""",2,forwardMask,Practice,null,250,"""",d,"""","""","""","""","""","""","""",4/19/2021 4:23,157.51.75.19,Mozilla/5.0 (Windows NT 6.1; Win64; x64; rv:87.0) Gecko/20100101 Firefox/87.0,,Firefox,87,Windows,6.1
26,1,null,"""",image-keyboard-response,33,399540,0.0-33.0,"""",jspsych/disgustFaces/BF35DIS.JPG,"""",2,Cue,Practice,null,16,"""","""","""","""","""","""","""","""","""",4/19/2021 4:23,157.51.75.19,Mozilla/5.0 (Windows NT 6.1; Win64; x64; rv:87.0) Gecko/20100101 Firefox/87.0,,Firefox,87,Windows,6.1
26,1,null,"""",image-keyboard-response,34,399644,0.0-34.0,"""",jspsych/neutralFaces/BF12NES.JPG,"""",2,backwardMask,Practice,null,100,"""","""","""","""","""","""","""","""","""",4/19/2021 4:23,157.51.75.19,Mozilla/5.0 (Windows NT 6.1; Win64; x64; rv:87.0) Gecko/20100101 Firefox/87.0,,Firefox,87,Windows,6.1
26,1,null,"""",html-keyboard-response,35,400645,0.0-35.0,"""","<div style=""font-size:60px;"">+</div>","""",2,fixationBtwnNeutralMaskAndPrompt,Practice,null,1000,"""","""","""","""","""","""","""","""","""",4/19/2021 4:23,157.51.75.19,Mozilla/5.0 (Windows NT 6.1; Win64; x64; rv:87.0) Gecko/20100101 Firefox/87.0,,Firefox,87,Windows,6.1
26,1,1251,"""",html-button-response,36,401899,0.0-36.0,"""","<img src='jspsych/CFDfaces/CFD-AM-220-134-N.jpg'height=""250px""></br><b>Patrick</b>",0,2,IntactOrRearranged,Practice,"""","""","""","""",CFD-AM-220-134-N.jpg,Patrick,0,"""","""",0,"""",4/19/2021 4:23,157.51.75.19,Mozilla/5.0 (Windows NT 6.1; Win64; x64; rv:87.0) Gecko/20100101 Firefox/87.0,,Firefox,87,Windows,6.1
26,1,2042,"""",html-slider-response,37,403947,0.0-37.0,"""","<img src='jspsych/CFDfaces/CFD-AM-220-134-N.jpg'height=""250px""></br><b>Patrick</b>","""",2,ConfidenceQuery,Practice,"""","""","""","""",CFD-LM-221-216-N.jpg,Travis,0,0,62,"""","""",4/19/2021 4:23,157.51.75.19,Mozilla/5.0 (Windows NT 6.1; Win64; x64; rv:87.0) Gecko/20100101 Firefox/87.0,,Firefox,87,Windows,6.1
26,1,2421,"""",html-button-response,38,406370,0.0-38.0,"""",You are Correct. You called an Intact Pair Intact,0,2,feedback,Practice,"""","""","""","""","""","""","""","""","""","""","""",4/19/2021 4:23,157.51.75.19,Mozilla/5.0 (Windows NT 6.1; Win64; x64; rv:87.0) Gecko/20100101 Firefox/87.0,,Firefox,87,Windows,6.1
26,1,null,"""",html-keyboard-response,39,407386,0.0-39.0,"""","<div style=""font-size:60px;"">+</div>","""",3,ITI,Practice,null,1000,"""","""","""","""","""","""","""","""","""",4/19/2021 4:23,157.51.75.19,Mozilla/5.0 (Windows NT 6.1; Win64; x64; rv:87.0) Gecko/20100101 Firefox/87.0,,Firefox,87,Windows,6.1
26,1,null,"""",image-keyboard-response,40,407643,0.0-40.0,"""",jspsych/scrambledNeutralFaces/scrambledBF12NES.JPG,"""",3,forwardMask,Practice,null,250,"""",n,"""","""","""","""","""","""","""",4/19/2021 4:23,157.51.75.19,Mozilla/5.0 (Windows NT 6.1; Win64; x64; rv:87.0) Gecko/20100101 Firefox/87.0,,Firefox,87,Windows,6.1
26,1,null,"""",image-keyboard-response,41,407663,0.0-41.0,"""",jspsych/neutralFaces/BF12NES.JPG,"""",3,Cue,Practice,null,16,"""","""","""","""","""","""","""","""","""",4/19/2021 4:23,157.51.75.19,Mozilla/5.0 (Windows NT 6.1; Win64; x64; rv:87.0) Gecko/20100101 Firefox/87.0,,Firefox,87,Windows,6.1
26,1,null,"""",image-keyboard-response,42,407772,0.0-42.0,"""",jspsych/neutralFaces/BF32NES.JPG,"""",3,backwardMask,Practice,null,100,"""","""","""","""","""","""","""","""","""",4/19/2021 4:23,157.51.75.19,Mozilla/5.0 (Windows NT 6.1; Win64; x64; rv:87.0) Gecko/20100101 Firefox/87.0,,Firefox,87,Windows,6.1
26,1,null,"""",html-keyboard-response,43,408772,0.0-43.0,"""","<div style=""font-size:60px;"">+</div>","""",3,fixationBtwnNeutralMaskAndPrompt,Practice,null,1000,"""","""","""","""","""","""","""","""","""",4/19/2021 4:23,157.51.75.19,Mozilla/5.0 (Windows NT 6.1; Win64; x64; rv:87.0) Gecko/20100101 Firefox/87.0,,Firefox,87,Windows,6.1
26,1,3982,"""",html-button-response,44,412755,0.0-44.0,"""","<img src='jspsych/CFDfaces/CFD-AM-248-104-N.jpg'height=""250px""></br><b>Marcus</b>",0,3,IntactOrRearranged,Practice,"""","""","""","""",CFD-AM-248-104-N.jpg,Marcus,1,"""","""",0,"""",4/19/2021 4:23,157.51.75.19,Mozilla/5.0 (Windows NT 6.1; Win64; x64; rv:87.0) Gecko/20100101 Firefox/87.0,,Firefox,87,Windows,6.1
26,1,1818,"""",html-slider-response,45,414587,0.0-45.0,"""","<img src='jspsych/CFDfaces/CFD-AM-248-104-N.jpg'height=""250px""></br><b>Marcus</b>","""",3,ConfidenceQuery,Practice,"""","""","""","""",CFD-LM-221-216-N.jpg,Travis,1,0,56,"""","""",4/19/2021 4:23,157.51.75.19,Mozilla/5.0 (Windows NT 6.1; Win64; x64; rv:87.0) Gecko/20100101 Firefox/87.0,,Firefox,87,Windows,6.1
26,1,2220,"""",html-button-response,46,416810,0.0-46.0,"""",You are Incorrect. You called a Rearranged Pair Intact,0,3,feedback,Practice,"""","""","""","""","""","""","""","""","""","""","""",4/19/2021 4:23,157.51.75.19,Mozilla/5.0 (Windows NT 6.1; Win64; x64; rv:87.0) Gecko/20100101 Firefox/87.0,,Firefox,87,Windows,6.1
26,1,null,"""",html-keyboard-response,47,417814,0.0-47.0,"""","<div style=""font-size:60px;"">+</div>","""",4,ITI,Practice,null,1000,"""","""","""","""","""","""","""","""","""",4/19/2021 4:23,157.51.75.19,Mozilla/5.0 (Windows NT 6.1; Win64; x64; rv:87.0) Gecko/20100101 Firefox/87.0,,Firefox,87,Windows,6.1
26,1,null,"""",image-keyboard-response,48,418071,0.0-48.0,"""",jspsych/scrambledDisgustFaces/scrambledBM09DIS.JPG,"""",4,forwardMask,Practice,null,250,"""",d,"""","""","""","""","""","""","""",4/19/2021 4:23,157.51.75.19,Mozilla/5.0 (Windows NT 6.1; Win64; x64; rv:87.0) Gecko/20100101 Firefox/87.0,,Firefox,87,Windows,6.1
26,1,null,"""",image-keyboard-response,49,418094,0.0-49.0,"""",jspsych/disgustFaces/BM10DIS.JPG,"""",4,Cue,Practice,null,16,"""","""","""","""","""","""","""","""","""",4/19/2021 4:23,157.51.75.19,Mozilla/5.0 (Windows NT 6.1; Win64; x64; rv:87.0) Gecko/20100101 Firefox/87.0,,Firefox,87,Windows,6.1
26,1,null,"""",image-keyboard-response,50,418203,0.0-50.0,"""",jspsych/neutralFaces/BM01NES.JPG,"""",4,backwardMask,Practice,null,100,"""","""","""","""","""","""","""","""","""",4/19/2021 4:23,157.51.75.19,Mozilla/5.0 (Windows NT 6.1; Win64; x64; rv:87.0) Gecko/20100101 Firefox/87.0,,Firefox,87,Windows,6.1
26,1,null,"""",html-keyboard-response,51,419204,0.0-51.0,"""","<div style=""font-size:60px;"">+</div>","""",4,fixationBtwnNeutralMaskAndPrompt,Practice,null,1000,"""","""","""","""","""","""","""","""","""",4/19/2021 4:23,157.51.75.19,Mozilla/5.0 (Windows NT 6.1; Win64; x64; rv:87.0) Gecko/20100101 Firefox/87.0,,Firefox,87,Windows,6.1
26,1,1416,"""",html-button-response,52,420627,0.0-52.0,"""","<img src='jspsych/CFDfaces/CFD-AF-200-228-N.jpg'height=""250px""></br><b>Cassandra</b>",1,4,IntactOrRearranged,Practice,"""","""","""","""",CFD-AF-200-228-N.jpg,Cassandra,1,"""","""",1,"""",4/19/2021 4:23,157.51.75.19,Mozilla/5.0 (Windows NT 6.1; Win64; x64; rv:87.0) Gecko/20100101 Firefox/87.0,,Firefox,87,Windows,6.1
26,1,1849,"""",html-slider-response,53,422482,0.0-53.0,"""","<img src='jspsych/CFDfaces/CFD-AF-200-228-N.jpg'height=""250px""></br><b>Cassandra</b>","""",4,ConfidenceQuery,Practice,"""","""","""","""",CFD-LM-221-216-N.jpg,Travis,1,0,59,"""","""",4/19/2021 4:23,157.51.75.19,Mozilla/5.0 (Windows NT 6.1; Win64; x64; rv:87.0) Gecko/20100101 Firefox/87.0,,Firefox,87,Windows,6.1
26,1,1635,"""",html-button-response,54,424121,0.0-54.0,"""",You are Correct. You Called A Rearranged Pair Rearranged,0,4,feedback,Practice,"""","""","""","""","""","""","""","""","""","""","""",4/19/2021 4:23,157.51.75.19,Mozilla/5.0 (Windows NT 6.1; Win64; x64; rv:87.0) Gecko/20100101 Firefox/87.0,,Firefox,87,Windows,6.1
26,1,null,"""",html-keyboard-response,55,425122,0.0-55.0,"""","<div style=""font-size:60px;"">+</div>","""",5,ITI,Practice,null,1000,"""","""","""","""","""","""","""","""","""",4/19/2021 4:23,157.51.75.19,Mozilla/5.0 (Windows NT 6.1; Win64; x64; rv:87.0) Gecko/20100101 Firefox/87.0,,Firefox,87,Windows,6.1
26,1,null,"""",image-keyboard-response,56,425386,0.0-56.0,"""",jspsych/scrambledNeutralFaces/scrambledBM04NES.JPG,"""",5,forwardMask,Practice,null,250,"""",n,"""","""","""","""","""","""","""",4/19/2021 4:23,157.51.75.19,Mozilla/5.0 (Windows NT 6.1; Win64; x64; rv:87.0) Gecko/20100101 Firefox/87.0,,Firefox,87,Windows,6.1
26,1,null,"""",image-keyboard-response,57,425410,0.0-57.0,"""",jspsych/neutralFaces/BM04NES.JPG,"""",5,Cue,Practice,null,16,"""","""","""","""","""","""","""","""","""",4/19/2021 4:23,157.51.75.19,Mozilla/5.0 (Windows NT 6.1; Win64; x64; rv:87.0) Gecko/20100101 Firefox/87.0,,Firefox,87,Windows,6.1
26,1,null,"""",image-keyboard-response,58,425517,0.0-58.0,"""",jspsych/neutralFaces/AM31NES.JPG,"""",5,backwardMask,Practice,null,100,"""","""","""","""","""","""","""","""","""",4/19/2021 4:23,157.51.75.19,Mozilla/5.0 (Windows NT 6.1; Win64; x64; rv:87.0) Gecko/20100101 Firefox/87.0,,Firefox,87,Windows,6.1
26,1,null,"""",html-keyboard-response,59,426519,0.0-59.0,"""","<div style=""font-size:60px;"">+</div>","""",5,fixationBtwnNeutralMaskAndPrompt,Practice,null,1000,"""","""","""","""","""","""","""","""","""",4/19/2021 4:23,157.51.75.19,Mozilla/5.0 (Windows NT 6.1; Win64; x64; rv:87.0) Gecko/20100101 Firefox/87.0,,Firefox,87,Windows,6.1
26,1,3593,"""",html-button-response,60,430114,0.0-60.0,"""","<img src='jspsych/CFDfaces/CFD-WF-003-003-N.jpg'height=""250px""></br><b>Katelyn</b>",1,5,IntactOrRearranged,Practice,"""","""","""","""",CFD-WF-003-003-N.jpg,Katelyn,1,"""","""",1,"""",4/19/2021 4:23,157.51.75.19,Mozilla/5.0 (Windows NT 6.1; Win64; x64; rv:87.0) Gecko/20100101 Firefox/87.0,,Firefox,87,Windows,6.1
26,1,1722,"""",html-slider-response,61,431841,0.0-61.0,"""","<img src='jspsych/CFDfaces/CFD-WF-003-003-N.jpg'height=""250px""></br><b>Katelyn</b>","""",5,ConfidenceQuery,Practice,"""","""","""","""",CFD-LM-221-216-N.jpg,Travis,1,0,69,"""","""",4/19/2021 4:23,157.51.75.19,Mozilla/5.0 (Windows NT 6.1; Win64; x64; rv:87.0) Gecko/20100101 Firefox/87.0,,Firefox,87,Windows,6.1
26,1,1183,"""",html-button-response,62,433034,0.0-62.0,"""",You are Correct. You Called A Rearranged Pair Rearranged,0,5,feedback,Practice,"""","""","""","""","""","""","""","""","""","""","""",4/19/2021 4:23,157.51.75.19,Mozilla/5.0 (Windows NT 6.1; Win64; x64; rv:87.0) Gecko/20100101 Firefox/87.0,,Firefox,87,Windows,6.1
26,1,null,"""",html-keyboard-response,63,434037,0.0-63.0,"""","<div style=""font-size:60px;"">+</div>","""",6,ITI,Practice,null,1000,"""","""","""","""","""","""","""","""","""",4/19/2021 4:23,157.51.75.19,Mozilla/5.0 (Windows NT 6.1; Win64; x64; rv:87.0) Gecko/20100101 Firefox/87.0,,Firefox,87,Windows,6.1
26,1,null,"""",image-keyboard-response,64,434297,0.0-64.0,"""",jspsych/scrambledDisgustFaces/scrambledBF27DIS.JPG,"""",6,forwardMask,Practice,null,250,"""",d,"""","""","""","""","""","""","""",4/19/2021 4:23,157.51.75.19,Mozilla/5.0 (Windows NT 6.1; Win64; x64; rv:87.0) Gecko/20100101 Firefox/87.0,,Firefox,87,Windows,6.1
26,1,null,"""",image-keyboard-response,65,434321,0.0-65.0,"""",jspsych/disgustFaces/BF27DIS.JPG,"""",6,Cue,Practice,null,16,"""","""","""","""","""","""","""","""","""",4/19/2021 4:23,157.51.75.19,Mozilla/5.0 (Windows NT 6.1; Win64; x64; rv:87.0) Gecko/20100101 Firefox/87.0,,Firefox,87,Windows,6.1
26,1,null,"""",image-keyboard-response,66,434429,0.0-66.0,"""",jspsych/neutralFaces/BF03NES.JPG,"""",6,backwardMask,Practice,null,100,"""","""","""","""","""","""","""","""","""",4/19/2021 4:23,157.51.75.19,Mozilla/5.0 (Windows NT 6.1; Win64; x64; rv:87.0) Gecko/20100101 Firefox/87.0,,Firefox,87,Windows,6.1
26,1,null,"""",html-keyboard-response,67,435432,0.0-67.0,"""","<div style=""font-size:60px;"">+</div>","""",6,fixationBtwnNeutralMaskAndPrompt,Practice,null,1000,"""","""","""","""","""","""","""","""","""",4/19/2021 4:23,157.51.75.19,Mozilla/5.0 (Windows NT 6.1; Win64; x64; rv:87.0) Gecko/20100101 Firefox/87.0,,Firefox,87,Windows,6.1
26,1,1833,"""",html-button-response,68,437266,0.0-68.0,"""","<img src='jspsych/CFDfaces/CFD-BM-018-001-N.jpg'height=""250px""></br><b>Samuel</b>",1,6,IntactOrRearranged,Practice,"""","""","""","""",CFD-BM-018-001-N.jpg,Samuel,0,"""","""",1,"""",4/19/2021 4:23,157.51.75.19,Mozilla/5.0 (Windows NT 6.1; Win64; x64; rv:87.0) Gecko/20100101 Firefox/87.0,,Firefox,87,Windows,6.1
26,1,1666,"""",html-slider-response,69,438938,0.0-69.0,"""","<img src='jspsych/CFDfaces/CFD-BM-018-001-N.jpg'height=""250px""></br><b>Samuel</b>","""",6,ConfidenceQuery,Practice,"""","""","""","""",CFD-LM-221-216-N.jpg,Travis,0,0,61,"""","""",4/19/2021 4:23,157.51.75.19,Mozilla/5.0 (Windows NT 6.1; Win64; x64; rv:87.0) Gecko/20100101 Firefox/87.0,,Firefox,87,Windows,6.1
26,1,1147,"""",html-button-response,70,440089,0.0-70.0,"""",You are Incorrect. You Called an Intact Pair Rearranged,0,6,feedback,Practice,"""","""","""","""","""","""","""","""","""","""","""",4/19/2021 4:23,157.51.75.19,Mozilla/5.0 (Windows NT 6.1; Win64; x64; rv:87.0) Gecko/20100101 Firefox/87.0,,Firefox,87,Windows,6.1
26,1,null,"""",html-keyboard-response,71,441093,0.0-71.0,"""","<div style=""font-size:60px;"">+</div>","""",7,ITI,Practice,null,1000,"""","""","""","""","""","""","""","""","""",4/19/2021 4:23,157.51.75.19,Mozilla/5.0 (Windows NT 6.1; Win64; x64; rv:87.0) Gecko/20100101 Firefox/87.0,,Firefox,87,Windows,6.1
26,1,null,"""",image-keyboard-response,72,441349,0.0-72.0,"""",jspsych/scrambledDisgustFaces/scrambledAF21DIS.JPG,"""",7,forwardMask,Practice,null,250,"""",d,"""","""","""","""","""","""","""",4/19/2021 4:23,157.51.75.19,Mozilla/5.0 (Windows NT 6.1; Win64; x64; rv:87.0) Gecko/20100101 Firefox/87.0,,Firefox,87,Windows,6.1
26,1,null,"""",image-keyboard-response,73,441374,0.0-73.0,"""",jspsych/disgustFaces/AF21DIS.JPG,"""",7,Cue,Practice,null,16,"""","""","""","""","""","""","""","""","""",4/19/2021 4:23,157.51.75.19,Mozilla/5.0 (Windows NT 6.1; Win64; x64; rv:87.0) Gecko/20100101 Firefox/87.0,,Firefox,87,Windows,6.1
26,1,null,"""",image-keyboard-response,74,441483,0.0-74.0,"""",jspsych/neutralFaces/BF02NES.JPG,"""",7,backwardMask,Practice,null,100,"""","""","""","""","""","""","""","""","""",4/19/2021 4:23,157.51.75.19,Mozilla/5.0 (Windows NT 6.1; Win64; x64; rv:87.0) Gecko/20100101 Firefox/87.0,,Firefox,87,Windows,6.1
26,1,null,"""",html-keyboard-response,75,442483,0.0-75.0,"""","<div style=""font-size:60px;"">+</div>","""",7,fixationBtwnNeutralMaskAndPrompt,Practice,null,1000,"""","""","""","""","""","""","""","""","""",4/19/2021 4:23,157.51.75.19,Mozilla/5.0 (Windows NT 6.1; Win64; x64; rv:87.0) Gecko/20100101 Firefox/87.0,,Firefox,87,Windows,6.1
26,1,3276,"""",html-button-response,76,445761,0.0-76.0,"""","<img src='jspsych/CFDfaces/CFD-BF-019-001-N.jpg'height=""250px""></br><b>Tara</b>",0,7,IntactOrRearranged,Practice,"""","""","""","""",CFD-BF-019-001-N.jpg,Tara,0,"""","""",0,"""",4/19/2021 4:23,157.51.75.19,Mozilla/5.0 (Windows NT 6.1; Win64; x64; rv:87.0) Gecko/20100101 Firefox/87.0,,Firefox,87,Windows,6.1
26,1,1580,"""",html-slider-response,77,447354,0.0-77.0,"""","<img src='jspsych/CFDfaces/CFD-BF-019-001-N.jpg'height=""250px""></br><b>Tara</b>","""",7,ConfidenceQuery,Practice,"""","""","""","""",CFD-LM-221-216-N.jpg,Travis,0,0,59,"""","""",4/19/2021 4:23,157.51.75.19,Mozilla/5.0 (Windows NT 6.1; Win64; x64; rv:87.0) Gecko/20100101 Firefox/87.0,,Firefox,87,Windows,6.1
26,1,1506,"""",html-button-response,78,448865,0.0-78.0,"""",You are Correct. You called an Intact Pair Intact,0,7,feedback,Practice,"""","""","""","""","""","""","""","""","""","""","""",4/19/2021 4:23,157.51.75.19,Mozilla/5.0 (Windows NT 6.1; Win64; x64; rv:87.0) Gecko/20100101 Firefox/87.0,,Firefox,87,Windows,6.1
26,1,null,"""",html-keyboard-response,79,449868,0.0-79.0,"""","<div style=""font-size:60px;"">+</div>","""",8,ITI,Practice,null,1000,"""","""","""","""","""","""","""","""","""",4/19/2021 4:23,157.51.75.19,Mozilla/5.0 (Windows NT 6.1; Win64; x64; rv:87.0) Gecko/20100101 Firefox/87.0,,Firefox,87,Windows,6.1
26,1,null,"""",image-keyboard-response,80,450130,0.0-80.0,"""",jspsych/scrambledNeutralFaces/scrambledBM02NES.JPG,"""",8,forwardMask,Practice,null,250,"""",n,"""","""","""","""","""","""","""",4/19/2021 4:23,157.51.75.19,Mozilla/5.0 (Windows NT 6.1; Win64; x64; rv:87.0) Gecko/20100101 Firefox/87.0,,Firefox,87,Windows,6.1
26,1,null,"""",image-keyboard-response,81,450154,0.0-81.0,"""",jspsych/neutralFaces/BM02NES.JPG,"""",8,Cue,Practice,null,16,"""","""","""","""","""","""","""","""","""",4/19/2021 4:23,157.51.75.19,Mozilla/5.0 (Windows NT 6.1; Win64; x64; rv:87.0) Gecko/20100101 Firefox/87.0,,Firefox,87,Windows,6.1
26,1,null,"""",image-keyboard-response,82,450263,0.0-82.0,"""",jspsych/neutralFaces/BM14NES.JPG,"""",8,backwardMask,Practice,null,100,"""","""","""","""","""","""","""","""","""",4/19/2021 4:23,157.51.75.19,Mozilla/5.0 (Windows NT 6.1; Win64; x64; rv:87.0) Gecko/20100101 Firefox/87.0,,Firefox,87,Windows,6.1
26,1,null,"""",html-keyboard-response,83,451265,0.0-83.0,"""","<div style=""font-size:60px;"">+</div>","""",8,fixationBtwnNeutralMaskAndPrompt,Practice,null,1000,"""","""","""","""","""","""","""","""","""",4/19/2021 4:23,157.51.75.19,Mozilla/5.0 (Windows NT 6.1; Win64; x64; rv:87.0) Gecko/20100101 Firefox/87.0,,Firefox,87,Windows,6.1
26,1,1967,"""",html-button-response,84,453234,0.0-84.0,"""","<img src='jspsych/CFDfaces/CFD-BM-211-174-N.jpg'height=""250px""></br><b>Carlos</b>",0,8,IntactOrRearranged,Practice,"""","""","""","""",CFD-BM-211-174-N.jpg,Carlos,1,"""","""",0,"""",4/19/2021 4:23,157.51.75.19,Mozilla/5.0 (Windows NT 6.1; Win64; x64; rv:87.0) Gecko/20100101 Firefox/87.0,,Firefox,87,Windows,6.1
26,1,1561,"""",html-slider-response,85,454812,0.0-85.0,"""","<img src='jspsych/CFDfaces/CFD-BM-211-174-N.jpg'height=""250px""></br><b>Carlos</b>","""",8,ConfidenceQuery,Practice,"""","""","""","""",CFD-LM-221-216-N.jpg,Travis,1,0,67,"""","""",4/19/2021 4:23,157.51.75.19,Mozilla/5.0 (Windows NT 6.1; Win64; x64; rv:87.0) Gecko/20100101 Firefox/87.0,,Firefox,87,Windows,6.1
26,1,1240,"""",html-button-response,86,456057,0.0-86.0,"""",You are Incorrect. You called a Rearranged Pair Intact,0,8,feedback,Practice,"""","""","""","""","""","""","""","""","""","""","""",4/19/2021 4:23,157.51.75.19,Mozilla/5.0 (Windows NT 6.1; Win64; x64; rv:87.0) Gecko/20100101 Firefox/87.0,,Firefox,87,Windows,6.1
26,1,12727,"""",image-button-response,87,468809,0.0-87.0,"""",directionsMemoryAssociation3.JPG,0,128,DirectionsBeforeActualTEst,Break,"""","""","""","""","""","""","""","""","""","""","""",4/19/2021 4:23,157.51.75.19,Mozilla/5.0 (Windows NT 6.1; Win64; x64; rv:87.0) Gecko/20100101 Firefox/87.0,,Firefox,87,Windows,6.1
26,1,13397,"""",image-button-response,88,482224,0.0-88.0,"""",directionsForTest2.JPG,0,1,directionsForTest2,break,"""","""","""","""","""","""","""","""","""","""","""",4/19/2021 4:23,157.51.75.19,Mozilla/5.0 (Windows NT 6.1; Win64; x64; rv:87.0) Gecko/20100101 Firefox/87.0,,Firefox,87,Windows,6.1
26,1,5955,"""",html-button-response,89,488224,0.0-89.0,"""","<p>You will be asked to memorize and then recall four sets of face-name pairs. </p> <p> Each set will have 32 pairs. </p> <p>After the fourth set, there will be a brief follow-up experiment (<40 min alltogether)</p>",0,"""","""","""","""","""","""","""","""","""","""","""","""","""","""",4/19/2021 4:23,157.51.75.19,Mozilla/5.0 (Windows NT 6.1; Win64; x64; rv:87.0) Gecko/20100101 Firefox/87.0,,Firefox,87,Windows,6.1
26,1,null,"""",html-keyboard-response,90,493234,0.0-90.0,"""","<img src='jspsych/CFDfaces/CFD-LF-213-079-N.jpg' height=""250px""></br><b>Stephanie</b>","""",256,IntactFace,Memorization,null,5000,"""","""",CFD-WM-022-001-N.jpg,Justin,0,"""","""","""",1,4/19/2021 4:23,157.51.75.19,Mozilla/5.0 (Windows NT 6.1; Win64; x64; rv:87.0) Gecko/20100101 Firefox/87.0,,Firefox,87,Windows,6.1
26,1,null,"""",html-keyboard-response,91,493737,0.0-91.0,"""","<div style=""font-size:60px;"">+</div>","""",256,fixation,Memorization,null,500,"""","""","""","""","""","""","""","""",1,4/19/2021 4:23,157.51.75.19,Mozilla/5.0 (Windows NT 6.1; Win64; x64; rv:87.0) Gecko/20100101 Firefox/87.0,,Firefox,87,Windows,6.1
26,1,1475,"""",html-keyboard-response,92,498740,0.0-92.0,"""","<img src='jspsych/CFDfaces/CFD-BM-210-148-N.jpg' height=""250px""></br><b>Christian</b>","""",256,IntactFace,Memorization,70,5000,f,"""",CFD-LM-246-087-N.jpg,Luis,0,"""","""","""",1,4/19/2021 4:23,157.51.75.19,Mozilla/5.0 (Windows NT 6.1; Win64; x64; rv:87.0) Gecko/20100101 Firefox/87.0,,Firefox,87,Windows,6.1
26,1,null,"""",html-keyboard-response,93,499248,0.0-93.0,"""","<div style=""font-size:60px;"">+</div>","""",256,fixation,Memorization,null,500,"""","""","""","""","""","""","""","""",1,4/19/2021 4:23,157.51.75.19,Mozilla/5.0 (Windows NT 6.1; Win64; x64; rv:87.0) Gecko/20100101 Firefox/87.0,,Firefox,87,Windows,6.1
26,1,1621,"""",html-keyboard-response,94,504251,0.0-94.0,"""","<img src='jspsych/CFDfaces/CFD-BF-218-207-N.jpg' height=""250px""></br><b>Victoria</b>","""",256,IntactFace,Memorization,70,5000,f,"""",CFD-WM-215-041-N.jpg,Ryan,0,"""","""","""",1,4/19/2021 4:23,157.51.75.19,Mozilla/5.0 (Windows NT 6.1; Win64; x64; rv:87.0) Gecko/20100101 Firefox/87.0,,Firefox,87,Windows,6.1
26,1,null,"""",html-keyboard-response,95,504753,0.0-95.0,"""","<div style=""font-size:60px;"">+</div>","""",256,fixation,Memorization,null,500,"""","""","""","""","""","""","""","""",1,4/19/2021 4:23,157.51.75.19,Mozilla/5.0 (Windows NT 6.1; Win64; x64; rv:87.0) Gecko/20100101 Firefox/87.0,,Firefox,87,Windows,6.1
26,1,1105,"""",html-keyboard-response,96,509756,0.0-96.0,"""","<img src='jspsych/CFDfaces/CFD-AM-243-212-N.jpg' height=""250px""></br><b>Jeffrey</b>","""",256,IntactFace,Memorization,70,5000,f,"""",CFD-LF-220-120-N.jpg,Erin,0,"""","""","""",1,4/19/2021 4:23,157.51.75.19,Mozilla/5.0 (Windows NT 6.1; Win64; x64; rv:87.0) Gecko/20100101 Firefox/87.0,,Firefox,87,Windows,6.1
26,1,null,"""",html-keyboard-response,97,510265,0.0-97.0,"""","<div style=""font-size:60px;"">+</div>","""",256,fixation,Memorization,null,500,"""","""","""","""","""","""","""","""",1,4/19/2021 4:23,157.51.75.19,Mozilla/5.0 (Windows NT 6.1; Win64; x64; rv:87.0) Gecko/20100101 Firefox/87.0,,Firefox,87,Windows,6.1
26,1,1984,"""",html-keyboard-response,98,515267,0.0-98.0,"""","<img src='jspsych/CFDfaces/CFD-AM-214-168-N.jpg' height=""250px""></br><b>Daniel</b>","""",256,IntactFace,Memorization,70,5000,f,"""",CFD-LF-205-100-N.jpg,Angela,0,"""","""","""",1,4/19/2021 4:23,157.51.75.19,Mozilla/5.0 (Windows NT 6.1; Win64; x64; rv:87.0) Gecko/20100101 Firefox/87.0,,Firefox,87,Windows,6.1
26,1,null,"""",html-keyboard-response,99,515769,0.0-99.0,"""","<div style=""font-size:60px;"">+</div>","""",256,fixation,Memorization,null,500,"""","""","""","""","""","""","""","""",1,4/19/2021 4:23,157.51.75.19,Mozilla/5.0 (Windows NT 6.1; Win64; x64; rv:87.0) Gecko/20100101 Firefox/87.0,,Firefox,87,Windows,6.1
26,1,202,"""",html-keyboard-response,100,520772,0.0-100.0,"""","<img src='jspsych/CFDfaces/CFD-AF-201-060-N.jpg' height=""250px""></br><b>Brittany</b>","""",256,IntactFace,Memorization,70,5000,f,"""",CFD-BF-008-001-N.jpg,Laura,0,"""","""","""",1,4/19/2021 4:23,157.51.75.19,Mozilla/5.0 (Windows NT 6.1; Win64; x64; rv:87.0) Gecko/20100101 Firefox/87.0,,Firefox,87,Windows,6.1
26,1,null,"""",html-keyboard-response,101,521281,0.0-101.0,"""","<div style=""font-size:60px;"">+</div>","""",256,fixation,Memorization,null,500,"""","""","""","""","""","""","""","""",1,4/19/2021 4:23,157.51.75.19,Mozilla/5.0 (Windows NT 6.1; Win64; x64; rv:87.0) Gecko/20100101 Firefox/87.0,,Firefox,87,Windows,6.1
26,1,2802,"""",html-keyboard-response,102,526283,0.0-102.0,"""","<img src='jspsych/CFDfaces/CFD-LF-208-127-N.jpg' height=""250px""></br><b>Meghan</b>","""",256,IntactFace,Memorization,78,5000,n,"""",CFD-AM-221-184-N.jpg,Timothy,0,"""","""","""",1,4/19/2021 4:23,157.51.75.19,Mozilla/5.0 (Windows NT 6.1; Win64; x64; rv:87.0) Gecko/20100101 Firefox/87.0,,Firefox,87,Windows,6.1
26,1,null,"""",html-keyboard-response,103,526785,0.0-103.0,"""","<div style=""font-size:60px;"">+</div>","""",256,fixation,Memorization,null,500,"""","""","""","""","""","""","""","""",1,4/19/2021 4:23,157.51.75.19,Mozilla/5.0 (Windows NT 6.1; Win64; x64; rv:87.0) Gecko/20100101 Firefox/87.0,,Firefox,87,Windows,6.1
26,1,1218,"""",html-keyboard-response,104,531788,0.0-104.0,"""","<img src='jspsych/CFDfaces/CFD-AM-230-150-N.jpg' height=""250px""></br><b>Eric</b>","""",256,IntactFace,Memorization,70,5000,f,"""",CFD-AM-229-224-N.jpg,Austin,0,"""","""","""",1,4/19/2021 4:23,157.51.75.19,Mozilla/5.0 (Windows NT 6.1; Win64; x64; rv:87.0) Gecko/20100101 Firefox/87.0,,Firefox,87,Windows,6.1
26,1,null,"""",html-keyboard-response,105,532293,0.0-105.0,"""","<div style=""font-size:60px;"">+</div>","""",256,fixation,Memorization,null,500,"""","""","""","""","""","""","""","""",1,4/19/2021 4:23,157.51.75.19,Mozilla/5.0 (Windows NT 6.1; Win64; x64; rv:87.0) Gecko/20100101 Firefox/87.0,,Firefox,87,Windows,6.1
26,1,1365,"""",html-keyboard-response,106,537295,0.0-106.0,"""","<img src='jspsych/CFDfaces/CFD-WM-207-048-N.jpg' height=""250px""></br><b>James</b>","""",256,IntactFace,Memorization,70,5000,f,"""",CFD-LF-231-260-N.jpg,Lauren,0,"""","""","""",1,4/19/2021 4:23,157.51.75.19,Mozilla/5.0 (Windows NT 6.1; Win64; x64; rv:87.0) Gecko/20100101 Firefox/87.0,,Firefox,87,Windows,6.1
26,1,null,"""",html-keyboard-response,107,537798,0.0-107.0,"""","<div style=""font-size:60px;"">+</div>","""",256,fixation,Memorization,null,500,"""","""","""","""","""","""","""","""",1,4/19/2021 4:23,157.51.75.19,Mozilla/5.0 (Windows NT 6.1; Win64; x64; rv:87.0) Gecko/20100101 Firefox/87.0,,Firefox,87,Windows,6.1
26,1,1493,"""",html-keyboard-response,108,542800,0.0-108.0,"""","<img src='jspsych/CFDfaces/CFD-WF-204-038-N.jpg' height=""250px""></br><b>Emily</b>","""",256,IntactFace,Memorization,70,5000,f,"""",CFD-WM-019-003-N.jpg,Steven,0,"""","""","""",1,4/19/2021 4:23,157.51.75.19,Mozilla/5.0 (Windows NT 6.1; Win64; x64; rv:87.0) Gecko/20100101 Firefox/87.0,,Firefox,87,Windows,6.1
26,1,null,"""",html-keyboard-response,109,543310,0.0-109.0,"""","<div style=""font-size:60px;"">+</div>","""",256,fixation,Memorization,null,500,"""","""","""","""","""","""","""","""",1,4/19/2021 4:23,157.51.75.19,Mozilla/5.0 (Windows NT 6.1; Win64; x64; rv:87.0) Gecko/20100101 Firefox/87.0,,Firefox,87,Windows,6.1
26,1,2085,"""",html-keyboard-response,110,548312,0.0-110.0,"""","<img src='jspsych/CFDfaces/CFD-LF-215-157-N.jpg' height=""250px""></br><b>Ashley</b>","""",256,IntactFace,Memorization,70,5000,f,"""",CFD-AM-213-056-N.jpg,Cameron,0,"""","""","""",1,4/19/2021 4:23,157.51.75.19,Mozilla/5.0 (Windows NT 6.1; Win64; x64; rv:87.0) Gecko/20100101 Firefox/87.0,,Firefox,87,Windows,6.1
26,1,null,"""",html-keyboard-response,111,548814,0.0-111.0,"""","<div style=""font-size:60px;"">+</div>","""",256,fixation,Memorization,null,500,"""","""","""","""","""","""","""","""",1,4/19/2021 4:23,157.51.75.19,Mozilla/5.0 (Windows NT 6.1; Win64; x64; rv:87.0) Gecko/20100101 Firefox/87.0,,Firefox,87,Windows,6.1
26,1,1373,"""",html-keyboard-response,112,553816,0.0-112.0,"""","<img src='jspsych/CFDfaces/CFD-LF-200-058-N.jpg' height=""250px""></br><b>Julie</b>","""",256,IntactFace,Memorization,70,5000,f,"""",CFD-LM-221-216-N.jpg,Travis,0,"""","""","""",1,4/19/2021 4:23,157.51.75.19,Mozilla/5.0 (Windows NT 6.1; Win64; x64; rv:87.0) Gecko/20100101 Firefox/87.0,,Firefox,87,Windows,6.1
26,1,null,"""",html-keyboard-response,113,554325,0.0-113.0,"""","<div style=""font-size:60px;"">+</div>","""",256,fixation,Memorization,null,500,"""","""","""","""","""","""","""","""",1,4/19/2021 4:23,157.51.75.19,Mozilla/5.0 (Windows NT 6.1; Win64; x64; rv:87.0) Gecko/20100101 Firefox/87.0,,Firefox,87,Windows,6.1
26,1,2428,"""",html-keyboard-response,114,559328,0.0-114.0,"""","<img src='jspsych/CFDfaces/CFD-WM-015-002-N.jpg' height=""250px""></br><b>Joshua</b>","""",256,IntactFace,Memorization,70,5000,f,"""",CFD-AF-222-134-N.jpg,Taylor,0,"""","""","""",1,4/19/2021 4:23,157.51.75.19,Mozilla/5.0 (Windows NT 6.1; Win64; x64; rv:87.0) Gecko/20100101 Firefox/87.0,,Firefox,87,Windows,6.1
26,1,null,"""",html-keyboard-response,115,559830,0.0-115.0,"""","<div style=""font-size:60px;"">+</div>","""",256,fixation,Memorization,null,500,"""","""","""","""","""","""","""","""",1,4/19/2021 4:23,157.51.75.19,Mozilla/5.0 (Windows NT 6.1; Win64; x64; rv:87.0) Gecko/20100101 Firefox/87.0,,Firefox,87,Windows,6.1
26,1,1299,"""",html-keyboard-response,116,564834,0.0-116.0,"""","<img src='jspsych/CFDfaces/CFD-WM-216-061-N.jpg' height=""250px""></br><b>Ian</b>","""",256,IntactFace,Memorization,70,5000,f,"""",CFD-WM-017-002-N.jpg,Jeremy,0,"""","""","""",1,4/19/2021 4:23,157.51.75.19,Mozilla/5.0 (Windows NT 6.1; Win64; x64; rv:87.0) Gecko/20100101 Firefox/87.0,,Firefox,87,Windows,6.1
26,1,null,"""",html-keyboard-response,117,565344,0.0-117.0,"""","<div style=""font-size:60px;"">+</div>","""",256,fixation,Memorization,null,500,"""","""","""","""","""","""","""","""",1,4/19/2021 4:23,157.51.75.19,Mozilla/5.0 (Windows NT 6.1; Win64; x64; rv:87.0) Gecko/20100101 Firefox/87.0,,Firefox,87,Windows,6.1
26,1,1114,"""",html-keyboard-response,118,570346,0.0-118.0,"""","<img src='jspsych/CFDfaces/CFD-WF-029-002-N.jpg' height=""250px""></br><b>Elizabeth</b>","""",256,IntactFace,Memorization,70,5000,f,"""",CFD-AM-205-153-N.jpg,Jacob,0,"""","""","""",1,4/19/2021 4:23,157.51.75.19,Mozilla/5.0 (Windows NT 6.1; Win64; x64; rv:87.0) Gecko/20100101 Firefox/87.0,,Firefox,87,Windows,6.1
26,1,null,"""",html-keyboard-response,119,570848,0.0-119.0,"""","<div style=""font-size:60px;"">+</div>","""",256,fixation,Memorization,null,500,"""","""","""","""","""","""","""","""",1,4/19/2021 4:23,157.51.75.19,Mozilla/5.0 (Windows NT 6.1; Win64; x64; rv:87.0) Gecko/20100101 Firefox/87.0,,Firefox,87,Windows,6.1
26,1,1523,"""",html-keyboard-response,120,575857,0.0-120.0,"""","<img src='jspsych/CFDfaces/CFD-AF-235-170-N.jpg' height=""250px""></br><b>Kimberly</b>","""",256,IntactFace,Memorization,70,5000,f,"""",CFD-WF-024-003-N.jpg,Sara,0,"""","""","""",1,4/19/2021 4:23,157.51.75.19,Mozilla/5.0 (Windows NT 6.1; Win64; x64; rv:87.0) Gecko/20100101 Firefox/87.0,,Firefox,87,Windows,6.1
26,1,null,"""",html-keyboard-response,121,576359,0.0-121.0,"""","<div style=""font-size:60px;"">+</div>","""",256,fixation,Memorization,null,500,"""","""","""","""","""","""","""","""",1,4/19/2021 4:23,157.51.75.19,Mozilla/5.0 (Windows NT 6.1; Win64; x64; rv:87.0) Gecko/20100101 Firefox/87.0,,Firefox,87,Windows,6.1
26,1,2714,"""",html-keyboard-response,122,581362,0.0-122.0,"""","<img src='jspsych/CFDfaces/CFD-AF-214-139-N.jpg' height=""250px""></br><b>Michelle</b>","""",256,IntactFace,Memorization,78,5000,n,"""",CFD-LM-213-061-N.jpg,Kenneth,0,"""","""","""",1,4/19/2021 4:23,157.51.75.19,Mozilla/5.0 (Windows NT 6.1; Win64; x64; rv:87.0) Gecko/20100101 Firefox/87.0,,Firefox,87,Windows,6.1
26,1,null,"""",html-keyboard-response,123,581873,0.0-123.0,"""","<div style=""font-size:60px;"">+</div>","""",256,fixation,Memorization,null,500,"""","""","""","""","""","""","""","""",1,4/19/2021 4:23,157.51.75.19,Mozilla/5.0 (Windows NT 6.1; Win64; x64; rv:87.0) Gecko/20100101 Firefox/87.0,,Firefox,87,Windows,6.1
26,1,1537,"""",html-keyboard-response,124,586875,0.0-124.0,"""","<img src='jspsych/CFDfaces/CFD-LM-200-045-N.jpg' height=""250px""></br><b>Gregory</b>","""",256,IntactFace,Memorization,70,5000,f,"""",CFD-WM-041-021-N.jpg,Mark,0,"""","""","""",1,4/19/2021 4:23,157.51.75.19,Mozilla/5.0 (Windows NT 6.1; Win64; x64; rv:87.0) Gecko/20100101 Firefox/87.0,,Firefox,87,Windows,6.1
26,1,null,"""",html-keyboard-response,125,587377,0.0-125.0,"""","<div style=""font-size:60px;"">+</div>","""",256,fixation,Memorization,null,500,"""","""","""","""","""","""","""","""",1,4/19/2021 4:23,157.51.75.19,Mozilla/5.0 (Windows NT 6.1; Win64; x64; rv:87.0) Gecko/20100101 Firefox/87.0,,Firefox,87,Windows,6.1
26,1,1216,"""",html-keyboard-response,126,592380,0.0-126.0,"""","<img src='jspsych/CFDfaces/CFD-WF-023-003-N.jpg' height=""250px""></br><b>Amanda</b>","""",256,IntactFace,Memorization,70,5000,f,"""",CFD-WF-218-087-N.jpg,Lindsey,0,"""","""","""",1,4/19/2021 4:23,157.51.75.19,Mozilla/5.0 (Windows NT 6.1; Win64; x64; rv:87.0) Gecko/20100101 Firefox/87.0,,Firefox,87,Windows,6.1
26,1,null,"""",html-keyboard-response,127,592891,0.0-127.0,"""","<div style=""font-size:60px;"">+</div>","""",256,fixation,Memorization,null,500,"""","""","""","""","""","""","""","""",1,4/19/2021 4:23,157.51.75.19,Mozilla/5.0 (Windows NT 6.1; Win64; x64; rv:87.0) Gecko/20100101 Firefox/87.0,,Firefox,87,Windows,6.1
26,1,1447,"""",html-keyboard-response,128,597893,0.0-128.0,"""","<img src='jspsych/CFDfaces/CFD-BM-032-024-N.jpg' height=""250px""></br><b>Peter</b>","""",256,IntactFace,Memorization,70,5000,f,"""",CFD-AF-241-141-N.jpg,Amy,0,"""","""","""",1,4/19/2021 4:23,157.51.75.19,Mozilla/5.0 (Windows NT 6.1; Win64; x64; rv:87.0) Gecko/20100101 Firefox/87.0,,Firefox,87,Windows,6.1
26,1,null,"""",html-keyboard-response,129,598394,0.0-129.0,"""","<div style=""font-size:60px;"">+</div>","""",256,fixation,Memorization,null,500,"""","""","""","""","""","""","""","""",1,4/19/2021 4:23,157.51.75.19,Mozilla/5.0 (Windows NT 6.1; Win64; x64; rv:87.0) Gecko/20100101 Firefox/87.0,,Firefox,87,Windows,6.1
26,1,1062,"""",html-keyboard-response,130,603397,0.0-130.0,"""","<img src='jspsych/CFDfaces/CFD-WM-237-052-N.jpg' height=""250px""></br><b>Robert</b>","""",256,IntactFace,Memorization,70,5000,f,"""",CFD-BM-002-013-N.jpg,Sean,0,"""","""","""",1,4/19/2021 4:23,157.51.75.19,Mozilla/5.0 (Windows NT 6.1; Win64; x64; rv:87.0) Gecko/20100101 Firefox/87.0,,Firefox,87,Windows,6.1
26,1,null,"""",html-keyboard-response,131,603907,0.0-131.0,"""","<div style=""font-size:60px;"">+</div>","""",256,fixation,Memorization,null,500,"""","""","""","""","""","""","""","""",1,4/19/2021 4:23,157.51.75.19,Mozilla/5.0 (Windows NT 6.1; Win64; x64; rv:87.0) Gecko/20100101 Firefox/87.0,,Firefox,87,Windows,6.1
26,1,1478,"""",html-keyboard-response,132,608910,0.0-132.0,"""","<img src='jspsych/CFDfaces/CFD-WF-207-014-N.jpg' height=""250px""></br><b>Samantha</b>","""",256,IntactFace,Memorization,70,5000,f,"""",CFD-WF-200-099-N.jpg,Jasmine,0,"""","""","""",1,4/19/2021 4:23,157.51.75.19,Mozilla/5.0 (Windows NT 6.1; Win64; x64; rv:87.0) Gecko/20100101 Firefox/87.0,,Firefox,87,Windows,6.1
26,1,null,"""",html-keyboard-response,133,609411,0.0-133.0,"""","<div style=""font-size:60px;"">+</div>","""",256,fixation,Memorization,null,500,"""","""","""","""","""","""","""","""",1,4/19/2021 4:23,157.51.75.19,Mozilla/5.0 (Windows NT 6.1; Win64; x64; rv:87.0) Gecko/20100101 Firefox/87.0,,Firefox,87,Windows,6.1
26,1,1014,"""",html-keyboard-response,134,614413,0.0-134.0,"""","<img src='jspsych/CFDfaces/CFD-AM-228-214-N.jpg' height=""250px""></br><b>Nicholas</b>","""",256,IntactFace,Memorization,70,5000,f,"""",CFD-WF-019-005-N.jpg,Tiffany,0,"""","""","""",1,4/19/2021 4:23,157.51.75.19,Mozilla/5.0 (Windows NT 6.1; Win64; x64; rv:87.0) Gecko/20100101 Firefox/87.0,,Firefox,87,Windows,6.1
26,1,null,"""",html-keyboard-response,135,614924,0.0-135.0,"""","<div style=""font-size:60px;"">+</div>","""",256,fixation,Memorization,null,500,"""","""","""","""","""","""","""","""",1,4/19/2021 4:23,157.51.75.19,Mozilla/5.0 (Windows NT 6.1; Win64; x64; rv:87.0) Gecko/20100101 Firefox/87.0,,Firefox,87,Windows,6.1
26,1,1068,"""",html-keyboard-response,136,619927,0.0-136.0,"""","<img src='jspsych/CFDfaces/CFD-LM-217-162-N.jpg' height=""250px""></br><b>Brian</b>","""",256,IntactFace,Memorization,70,5000,f,"""",CFD-BM-010-003-N.jpg,Jesse,0,"""","""","""",1,4/19/2021 4:23,157.51.75.19,Mozilla/5.0 (Windows NT 6.1; Win64; x64; rv:87.0) Gecko/20100101 Firefox/87.0,,Firefox,87,Windows,6.1
26,1,null,"""",html-keyboard-response,137,620428,0.0-137.0,"""","<div style=""font-size:60px;"">+</div>","""",256,fixation,Memorization,null,500,"""","""","""","""","""","""","""","""",1,4/19/2021 4:23,157.51.75.19,Mozilla/5.0 (Windows NT 6.1; Win64; x64; rv:87.0) Gecko/20100101 Firefox/87.0,,Firefox,87,Windows,6.1
26,1,1244,"""",html-keyboard-response,138,625431,0.0-138.0,"""","<img src='jspsych/CFDfaces/CFD-LF-232-199-N.jpg' height=""250px""></br><b>Kayla</b>","""",256,IntactFace,Memorization,78,5000,n,"""",CFD-WF-223-133-N.jpg,Melissa,0,"""","""","""",1,4/19/2021 4:23,157.51.75.19,Mozilla/5.0 (Windows NT 6.1; Win64; x64; rv:87.0) Gecko/20100101 Firefox/87.0,,Firefox,87,Windows,6.1
26,1,null,"""",html-keyboard-response,139,625941,0.0-139.0,"""","<div style=""font-size:60px;"">+</div>","""",256,fixation,Memorization,null,500,"""","""","""","""","""","""","""","""",1,4/19/2021 4:23,157.51.75.19,Mozilla/5.0 (Windows NT 6.1; Win64; x64; rv:87.0) Gecko/20100101 Firefox/87.0,,Firefox,87,Windows,6.1
26,1,1146,"""",html-keyboard-response,140,630945,0.0-140.0,"""","<img src='jspsych/CFDfaces/CFD-AM-207-108-N.jpg' height=""250px""></br><b>Richard</b>","""",256,IntactFace,Memorization,70,5000,f,"""",CFD-AM-242-176-N.jpg,Vincent,0,"""","""","""",1,4/19/2021 4:23,157.51.75.19,Mozilla/5.0 (Windows NT 6.1; Win64; x64; rv:87.0) Gecko/20100101 Firefox/87.0,,Firefox,87,Windows,6.1
26,1,null,"""",html-keyboard-response,141,631447,0.0-141.0,"""","<div style=""font-size:60px;"">+</div>","""",256,fixation,Memorization,null,500,"""","""","""","""","""","""","""","""",1,4/19/2021 4:23,157.51.75.19,Mozilla/5.0 (Windows NT 6.1; Win64; x64; rv:87.0) Gecko/20100101 Firefox/87.0,,Firefox,87,Windows,6.1
26,1,1176,"""",html-keyboard-response,142,636450,0.0-142.0,"""","<img src='jspsych/CFDfaces/CFD-AF-209-006-N.jpg' height=""250px""></br><b>Andrea</b>","""",256,IntactFace,Memorization,70,5000,f,"""",CFD-LF-239-148-N.jpg,Heather,0,"""","""","""",1,4/19/2021 4:23,157.51.75.19,Mozilla/5.0 (Windows NT 6.1; Win64; x64; rv:87.0) Gecko/20100101 Firefox/87.0,,Firefox,87,Windows,6.1
26,1,null,"""",html-keyboard-response,143,636961,0.0-143.0,"""","<div style=""font-size:60px;"">+</div>","""",256,fixation,Memorization,null,500,"""","""","""","""","""","""","""","""",1,4/19/2021 4:23,157.51.75.19,Mozilla/5.0 (Windows NT 6.1; Win64; x64; rv:87.0) Gecko/20100101 Firefox/87.0,,Firefox,87,Windows,6.1
26,1,1535,"""",html-keyboard-response,144,641964,0.0-144.0,"""","<img src='jspsych/CFDfaces/CFD-WM-011-002-N.jpg' height=""250px""></br><b>Juan</b>","""",256,IntactFace,Memorization,70,5000,f,"""",CFD-WF-220-101-N.jpg,Rebecca,0,"""","""","""",1,4/19/2021 4:23,157.51.75.19,Mozilla/5.0 (Windows NT 6.1; Win64; x64; rv:87.0) Gecko/20100101 Firefox/87.0,,Firefox,87,Windows,6.1
26,1,null,"""",html-keyboard-response,145,642465,0.0-145.0,"""","<div style=""font-size:60px;"">+</div>","""",256,fixation,Memorization,null,500,"""","""","""","""","""","""","""","""",1,4/19/2021 4:23,157.51.75.19,Mozilla/5.0 (Windows NT 6.1; Win64; x64; rv:87.0) Gecko/20100101 Firefox/87.0,,Firefox,87,Windows,6.1
26,1,2663,"""",html-keyboard-response,146,647476,0.0-146.0,"""","<img src='jspsych/CFDfaces/CFD-BM-203-001-N.jpg' height=""250px""></br><b>Jason</b>","""",256,IntactFace,Memorization,70,5000,f,"""",CFD-BF-212-315-N.jpg,Jordan,0,"""","""","""",1,4/19/2021 4:23,157.51.75.19,Mozilla/5.0 (Windows NT 6.1; Win64; x64; rv:87.0) Gecko/20100101 Firefox/87.0,,Firefox,87,Windows,6.1
26,1,null,"""",html-keyboard-response,147,647978,0.0-147.0,"""","<div style=""font-size:60px;"">+</div>","""",256,fixation,Memorization,null,500,"""","""","""","""","""","""","""","""",1,4/19/2021 4:23,157.51.75.19,Mozilla/5.0 (Windows NT 6.1; Win64; x64; rv:87.0) Gecko/20100101 Firefox/87.0,,Firefox,87,Windows,6.1
26,1,2053,"""",html-keyboard-response,148,652981,0.0-148.0,"""","<img src='jspsych/CFDfaces/CFD-AF-237-223-N.jpg' height=""250px""></br><b>Christina</b>","""",256,IntactFace,Memorization,70,5000,f,"""",CFD-LF-202-065-N.jpg,Jenna,0,"""","""","""",1,4/19/2021 4:23,157.51.75.19,Mozilla/5.0 (Windows NT 6.1; Win64; x64; rv:87.0) Gecko/20100101 Firefox/87.0,,Firefox,87,Windows,6.1
26,1,null,"""",html-keyboard-response,149,653493,0.0-149.0,"""","<div style=""font-size:60px;"">+</div>","""",256,fixation,Memorization,null,500,"""","""","""","""","""","""","""","""",1,4/19/2021 4:23,157.51.75.19,Mozilla/5.0 (Windows NT 6.1; Win64; x64; rv:87.0) Gecko/20100101 Firefox/87.0,,Firefox,87,Windows,6.1
26,1,1738,"""",html-keyboard-response,150,658495,0.0-150.0,"""","<img src='jspsych/CFDfaces/CFD-LM-201-057-N.jpg' height=""250px""></br><b>Brandon</b>","""",256,IntactFace,Memorization,70,5000,f,"""",CFD-LF-210-220-N.jpg,Whitney,0,"""","""","""",1,4/19/2021 4:23,157.51.75.19,Mozilla/5.0 (Windows NT 6.1; Win64; x64; rv:87.0) Gecko/20100101 Firefox/87.0,,Firefox,87,Windows,6.1
26,1,null,"""",html-keyboard-response,151,658997,0.0-151.0,"""","<div style=""font-size:60px;"">+</div>","""",256,fixation,Memorization,null,500,"""","""","""","""","""","""","""","""",1,4/19/2021 4:23,157.51.75.19,Mozilla/5.0 (Windows NT 6.1; Win64; x64; rv:87.0) Gecko/20100101 Firefox/87.0,,Firefox,87,Windows,6.1
26,1,1138,"""",html-keyboard-response,152,664001,0.0-152.0,"""","<img src='jspsych/CFDfaces/CFD-WF-016-015-N.jpg' height=""250px""></br><b>Vanessa</b>","""",256,IntactFace,Memorization,78,5000,n,"""",CFD-AM-202-079-N.jpg,Dustin,0,"""","""","""",1,4/19/2021 4:23,157.51.75.19,Mozilla/5.0 (Windows NT 6.1; Win64; x64; rv:87.0) Gecko/20100101 Firefox/87.0,,Firefox,87,Windows,6.1
26,1,null,"""",html-keyboard-response,153,664513,0.0-153.0,"""","<div style=""font-size:60px;"">+</div>","""",256,fixation,Memorization,null,500,"""","""","""","""","""","""","""","""",1,4/19/2021 4:23,157.51.75.19,Mozilla/5.0 (Windows NT 6.1; Win64; x64; rv:87.0) Gecko/20100101 Firefox/87.0,,Firefox,87,Windows,6.1
26,1,4119,"""",html-keyboard-response,154,668634,0.0-154.0,"""",Press Any Key to Begin Memory Test,"""",1,welcomeScreen,Break,70,"""","""","""","""","""","""","""","""","""",1,4/19/2021 4:23,157.51.75.19,Mozilla/5.0 (Windows NT 6.1; Win64; x64; rv:87.0) Gecko/20100101 Firefox/87.0,,Firefox,87,Windows,6.1
26,1,null,"""",html-keyboard-response,155,669636,0.0-155.0,"""","<div style=""font-size:60px;"">+</div>","""",256,ITI,Test,null,1000,"""","""","""","""","""","""","""","""",1,4/19/2021 4:23,157.51.75.19,Mozilla/5.0 (Windows NT 6.1; Win64; x64; rv:87.0) Gecko/20100101 Firefox/87.0,,Firefox,87,Windows,6.1
26,1,null,"""",image-keyboard-response,156,669893,0.0-156.0,"""",jspsych/scrambledDisgustFaces/scrambledAM08DIS.JPG,"""",256,forwardMask,Test,null,250,"""",d,"""","""","""","""","""","""",1,4/19/2021 4:23,157.51.75.19,Mozilla/5.0 (Windows NT 6.1; Win64; x64; rv:87.0) Gecko/20100101 Firefox/87.0,,Firefox,87,Windows,6.1
26,1,null,"""",image-keyboard-response,157,669917,0.0-157.0,"""",jspsych/disgustFaces/AM08DIS.JPG,"""",256,Cue,Test,null,16,"""","""","""","""","""","""","""","""",1,4/19/2021 4:23,157.51.75.19,Mozilla/5.0 (Windows NT 6.1; Win64; x64; rv:87.0) Gecko/20100101 Firefox/87.0,,Firefox,87,Windows,6.1
26,1,null,"""",image-keyboard-response,158,670026,0.0-158.0,"""",jspsych/neutralFaces/BM35NES.JPG,"""",256,backwardMask,Test,null,100,"""","""","""","""","""","""","""","""",1,4/19/2021 4:23,157.51.75.19,Mozilla/5.0 (Windows NT 6.1; Win64; x64; rv:87.0) Gecko/20100101 Firefox/87.0,,Firefox,87,Windows,6.1
26,1,null,"""",html-keyboard-response,159,671028,0.0-159.0,"""","<div style=""font-size:60px;"">+</div>","""",256,fixationBtwnNeutralMaskAndPrompt,Test,null,1000,"""","""","""","""","""","""","""","""",1,4/19/2021 4:23,157.51.75.19,Mozilla/5.0 (Windows NT 6.1; Win64; x64; rv:87.0) Gecko/20100101 Firefox/87.0,,Firefox,87,Windows,6.1
26,1,2702,"""",html-button-response,160,673733,0.0-160.0,"""","<img src='jspsych/CFDfaces/CFD-AF-201-060-N.jpg' height=""250px"">,</br><b>Brittany</b>",0,256,IntactOrRearranged,Test,"""","""","""","""",CFD-LF-210-220-N.jpg,Whitney,0,"""","""",0,1,4/19/2021 4:23,157.51.75.19,Mozilla/5.0 (Windows NT 6.1; Win64; x64; rv:87.0) Gecko/20100101 Firefox/87.0,,Firefox,87,Windows,6.1
26,1,2125,"""",html-slider-response,161,675886,0.0-161.0,"""","<img src='jspsych/CFDfaces/CFD-AF-201-060-N.jpg' height=""250px"">,</br><b>Brittany</b>","""",256,ConfidenceQuery,Test,"""","""","""","""",CFD-LF-210-220-N.jpg,Whitney,0,0,49,"""",1,4/19/2021 4:23,157.51.75.19,Mozilla/5.0 (Windows NT 6.1; Win64; x64; rv:87.0) Gecko/20100101 Firefox/87.0,,Firefox,87,Windows,6.1
26,1,null,"""",html-keyboard-response,162,676889,0.0-162.0,"""","<div style=""font-size:60px;"">+</div>","""",256,ITI,Test,null,1000,"""","""","""","""","""","""","""","""",1,4/19/2021 4:23,157.51.75.19,Mozilla/5.0 (Windows NT 6.1; Win64; x64; rv:87.0) Gecko/20100101 Firefox/87.0,,Firefox,87,Windows,6.1
26,1,null,"""",image-keyboard-response,163,677147,0.0-163.0,"""",jspsych/scrambledDisgustFaces/scrambledBF35DIS.JPG,"""",256,forwardMask,Test,null,250,"""",d,"""","""","""","""","""","""",1,4/19/2021 4:23,157.51.75.19,Mozilla/5.0 (Windows NT 6.1; Win64; x64; rv:87.0) Gecko/20100101 Firefox/87.0,,Firefox,87,Windows,6.1
26,1,null,"""",image-keyboard-response,164,677171,0.0-164.0,"""",jspsych/disgustFaces/BF35DIS.JPG,"""",256,Cue,Test,null,16,"""","""","""","""","""","""","""","""",1,4/19/2021 4:23,157.51.75.19,Mozilla/5.0 (Windows NT 6.1; Win64; x64; rv:87.0) Gecko/20100101 Firefox/87.0,,Firefox,87,Windows,6.1
26,1,null,"""",image-keyboard-response,165,677279,0.0-165.0,"""",jspsych/neutralFaces/BF12NES.JPG,"""",256,backwardMask,Test,null,100,"""","""","""","""","""","""","""","""",1,4/19/2021 4:23,157.51.75.19,Mozilla/5.0 (Windows NT 6.1; Win64; x64; rv:87.0) Gecko/20100101 Firefox/87.0,,Firefox,87,Windows,6.1
26,1,null,"""",html-keyboard-response,166,678280,0.0-166.0,"""","<div style=""font-size:60px;"">+</div>","""",256,fixationBtwnNeutralMaskAndPrompt,Test,null,1000,"""","""","""","""","""","""","""","""",1,4/19/2021 4:23,157.51.75.19,Mozilla/5.0 (Windows NT 6.1; Win64; x64; rv:87.0) Gecko/20100101 Firefox/87.0,,Firefox,87,Windows,6.1
26,1,2089,"""",html-button-response,167,680372,0.0-167.0,"""","<img src='jspsych/CFDfaces/CFD-WM-015-002-N.jpg' height=""250px"">,</br><b>Eric</b>",0,256,IntactOrRearranged,Test,"""","""","""","""",CFD-WM-019-003-N.jpg,Steven,1,"""","""",0,1,4/19/2021 4:23,157.51.75.19,Mozilla/5.0 (Windows NT 6.1; Win64; x64; rv:87.0) Gecko/20100101 Firefox/87.0,,Firefox,87,Windows,6.1
26,1,2163,"""",html-slider-response,168,682541,0.0-168.0,"""","<img src='jspsych/CFDfaces/CFD-WM-015-002-N.jpg' height=""250px"">,</br><b>Eric</b>","""",256,ConfidenceQuery,Test,"""","""","""","""",CFD-WM-019-003-N.jpg,Steven,1,0,61,"""",1,4/19/2021 4:23,157.51.75.19,Mozilla/5.0 (Windows NT 6.1; Win64; x64; rv:87.0) Gecko/20100101 Firefox/87.0,,Firefox,87,Windows,6.1
26,1,null,"""",html-keyboard-response,169,683553,0.0-169.0,"""","<div style=""font-size:60px;"">+</div>","""",256,ITI,Test,null,1000,"""","""","""","""","""","""","""","""",1,4/19/2021 4:23,157.51.75.19,Mozilla/5.0 (Windows NT 6.1; Win64; x64; rv:87.0) Gecko/20100101 Firefox/87.0,,Firefox,87,Windows,6.1
26,1,null,"""",image-keyboard-response,170,683809,0.0-170.0,"""",jspsych/scrambledNeutralFaces/scrambledBF12NES.JPG,"""",256,forwardMask,Test,null,250,"""",n,"""","""","""","""","""","""",1,4/19/2021 4:23,157.51.75.19,Mozilla/5.0 (Windows NT 6.1; Win64; x64; rv:87.0) Gecko/20100101 Firefox/87.0,,Firefox,87,Windows,6.1
26,1,null,"""",image-keyboard-response,171,683830,0.0-171.0,"""",jspsych/neutralFaces/BF12NES.JPG,"""",256,Cue,Test,null,16,"""","""","""","""","""","""","""","""",1,4/19/2021 4:23,157.51.75.19,Mozilla/5.0 (Windows NT 6.1; Win64; x64; rv:87.0) Gecko/20100101 Firefox/87.0,,Firefox,87,Windows,6.1
26,1,null,"""",image-keyboard-response,172,683938,0.0-172.0,"""",jspsych/neutralFaces/BF32NES.JPG,"""",256,backwardMask,Test,null,100,"""","""","""","""","""","""","""","""",1,4/19/2021 4:23,157.51.75.19,Mozilla/5.0 (Windows NT 6.1; Win64; x64; rv:87.0) Gecko/20100101 Firefox/87.0,,Firefox,87,Windows,6.1
26,1,null,"""",html-keyboard-response,173,684940,0.0-173.0,"""","<div style=""font-size:60px;"">+</div>","""",256,fixationBtwnNeutralMaskAndPrompt,Test,null,1000,"""","""","""","""","""","""","""","""",1,4/19/2021 4:23,157.51.75.19,Mozilla/5.0 (Windows NT 6.1; Win64; x64; rv:87.0) Gecko/20100101 Firefox/87.0,,Firefox,87,Windows,6.1
26,1,3398,"""",html-button-response,174,688339,0.0-174.0,"""","<img src='jspsych/CFDfaces/CFD-WF-029-002-N.jpg' height=""250px"">,</br><b>Kimberly</b>",0,256,IntactOrRearranged,Test,"""","""","""","""",CFD-WM-215-041-N.jpg,Cameron,1,"""","""",0,1,4/19/2021 4:23,157.51.75.19,Mozilla/5.0 (Windows NT 6.1; Win64; x64; rv:87.0) Gecko/20100101 Firefox/87.0,,Firefox,87,Windows,6.1
26,1,1714,"""",html-slider-response,175,690060,0.0-175.0,"""","<img src='jspsych/CFDfaces/CFD-WF-029-002-N.jpg' height=""250px"">,</br><b>Kimberly</b>","""",256,ConfidenceQuery,Test,"""","""","""","""",CFD-WM-215-041-N.jpg,Cameron,1,0,54,"""",1,4/19/2021 4:23,157.51.75.19,Mozilla/5.0 (Windows NT 6.1; Win64; x64; rv:87.0) Gecko/20100101 Firefox/87.0,,Firefox,87,Windows,6.1
26,1,null,"""",html-keyboard-response,176,691073,0.0-176.0,"""","<div style=""font-size:60px;"">+</div>","""",256,ITI,Test,null,1000,"""","""","""","""","""","""","""","""",1,4/19/2021 4:23,157.51.75.19,Mozilla/5.0 (Windows NT 6.1; Win64; x64; rv:87.0) Gecko/20100101 Firefox/87.0,,Firefox,87,Windows,6.1
26,1,null,"""",image-keyboard-response,177,691330,0.0-177.0,"""",jspsych/scrambledDisgustFaces/scrambledBM09DIS.JPG,"""",256,forwardMask,Test,null,250,"""",d,"""","""","""","""","""","""",1,4/19/2021 4:23,157.51.75.19,Mozilla/5.0 (Windows NT 6.1; Win64; x64; rv:87.0) Gecko/20100101 Firefox/87.0,,Firefox,87,Windows,6.1
26,1,null,"""",image-keyboard-response,178,691354,0.0-178.0,"""",jspsych/disgustFaces/BM10DIS.JPG,"""",256,Cue,Test,null,16,"""","""","""","""","""","""","""","""",1,4/19/2021 4:23,157.51.75.19,Mozilla/5.0 (Windows NT 6.1; Win64; x64; rv:87.0) Gecko/20100101 Firefox/87.0,,Firefox,87,Windows,6.1
26,1,null,"""",image-keyboard-response,179,691462,0.0-179.0,"""",jspsych/neutralFaces/BM01NES.JPG,"""",256,backwardMask,Test,null,100,"""","""","""","""","""","""","""","""",1,4/19/2021 4:23,157.51.75.19,Mozilla/5.0 (Windows NT 6.1; Win64; x64; rv:87.0) Gecko/20100101 Firefox/87.0,,Firefox,87,Windows,6.1
26,1,null,"""",html-keyboard-response,180,692464,0.0-180.0,"""","<div style=""font-size:60px;"">+</div>","""",256,fixationBtwnNeutralMaskAndPrompt,Test,null,1000,"""","""","""","""","""","""","""","""",1,4/19/2021 4:23,157.51.75.19,Mozilla/5.0 (Windows NT 6.1; Win64; x64; rv:87.0) Gecko/20100101 Firefox/87.0,,Firefox,87,Windows,6.1
26,1,1146,"""",html-button-response,181,693612,0.0-181.0,"""","<img src='jspsych/CFDfaces/CFD-LF-232-199-N.jpg' height=""250px"">,</br><b>Kayla</b>",1,256,IntactOrRearranged,Test,"""","""","""","""",CFD-LF-205-100-N.jpg,Erin,0,"""","""",1,1,4/19/2021 4:23,157.51.75.19,Mozilla/5.0 (Windows NT 6.1; Win64; x64; rv:87.0) Gecko/20100101 Firefox/87.0,,Firefox,87,Windows,6.1
26,1,1523,"""",html-slider-response,182,695140,0.0-182.0,"""","<img src='jspsych/CFDfaces/CFD-LF-232-199-N.jpg' height=""250px"">,</br><b>Kayla</b>","""",256,ConfidenceQuery,Test,"""","""","""","""",CFD-LF-205-100-N.jpg,Erin,0,0,57,"""",1,4/19/2021 4:23,157.51.75.19,Mozilla/5.0 (Windows NT 6.1; Win64; x64; rv:87.0) Gecko/20100101 Firefox/87.0,,Firefox,87,Windows,6.1
26,1,null,"""",html-keyboard-response,183,696143,0.0-183.0,"""","<div style=""font-size:60px;"">+</div>","""",256,ITI,Test,null,1000,"""","""","""","""","""","""","""","""",1,4/19/2021 4:23,157.51.75.19,Mozilla/5.0 (Windows NT 6.1; Win64; x64; rv:87.0) Gecko/20100101 Firefox/87.0,,Firefox,87,Windows,6.1
26,1,null,"""",image-keyboard-response,184,696399,0.0-184.0,"""",jspsych/scrambledNeutralFaces/scrambledBM04NES.JPG,"""",256,forwardMask,Test,null,250,"""",n,"""","""","""","""","""","""",1,4/19/2021 4:23,157.51.75.19,Mozilla/5.0 (Windows NT 6.1; Win64; x64; rv:87.0) Gecko/20100101 Firefox/87.0,,Firefox,87,Windows,6.1
26,1,null,"""",image-keyboard-response,185,696423,0.0-185.0,"""",jspsych/neutralFaces/BM04NES.JPG,"""",256,Cue,Test,null,16,"""","""","""","""","""","""","""","""",1,4/19/2021 4:23,157.51.75.19,Mozilla/5.0 (Windows NT 6.1; Win64; x64; rv:87.0) Gecko/20100101 Firefox/87.0,,Firefox,87,Windows,6.1
26,1,null,"""",image-keyboard-response,186,696530,0.0-186.0,"""",jspsych/neutralFaces/AM31NES.JPG,"""",256,backwardMask,Test,null,100,"""","""","""","""","""","""","""","""",1,4/19/2021 4:23,157.51.75.19,Mozilla/5.0 (Windows NT 6.1; Win64; x64; rv:87.0) Gecko/20100101 Firefox/87.0,,Firefox,87,Windows,6.1
26,1,null,"""",html-keyboard-response,187,697532,0.0-187.0,"""","<div style=""font-size:60px;"">+</div>","""",256,fixationBtwnNeutralMaskAndPrompt,Test,null,1000,"""","""","""","""","""","""","""","""",1,4/19/2021 4:23,157.51.75.19,Mozilla/5.0 (Windows NT 6.1; Win64; x64; rv:87.0) Gecko/20100101 Firefox/87.0,,Firefox,87,Windows,6.1
26,1,2179,"""",html-button-response,188,699723,0.0-188.0,"""","<img src='jspsych/CFDfaces/CFD-BM-203-001-N.jpg' height=""250px"">,</br><b>Jason</b>",0,256,IntactOrRearranged,Test,"""","""","""","""",CFD-WM-017-002-N.jpg,Ryan,0,"""","""",0,1,4/19/2021 4:23,157.51.75.19,Mozilla/5.0 (Windows NT 6.1; Win64; x64; rv:87.0) Gecko/20100101 Firefox/87.0,,Firefox,87,Windows,6.1
26,1,1673,"""",html-slider-response,189,701404,0.0-189.0,"""","<img src='jspsych/CFDfaces/CFD-BM-203-001-N.jpg' height=""250px"">,</br><b>Jason</b>","""",256,ConfidenceQuery,Test,"""","""","""","""",CFD-WM-017-002-N.jpg,Ryan,0,0,61,"""",1,4/19/2021 4:23,157.51.75.19,Mozilla/5.0 (Windows NT 6.1; Win64; x64; rv:87.0) Gecko/20100101 Firefox/87.0,,Firefox,87,Windows,6.1
26,1,null,"""",html-keyboard-response,190,702408,0.0-190.0,"""","<div style=""font-size:60px;"">+</div>","""",256,ITI,Test,null,1000,"""","""","""","""","""","""","""","""",1,4/19/2021 4:23,157.51.75.19,Mozilla/5.0 (Windows NT 6.1; Win64; x64; rv:87.0) Gecko/20100101 Firefox/87.0,,Firefox,87,Windows,6.1
26,1,null,"""",image-keyboard-response,191,702663,0.0-191.0,"""",jspsych/scrambledDisgustFaces/scrambledBF27DIS.JPG,"""",256,forwardMask,Test,null,250,"""",d,"""","""","""","""","""","""",1,4/19/2021 4:23,157.51.75.19,Mozilla/5.0 (Windows NT 6.1; Win64; x64; rv:87.0) Gecko/20100101 Firefox/87.0,,Firefox,87,Windows,6.1
26,1,null,"""",image-keyboard-response,192,702694,0.0-192.0,"""",jspsych/disgustFaces/BF27DIS.JPG,"""",256,Cue,Test,null,16,"""","""","""","""","""","""","""","""",1,4/19/2021 4:23,157.51.75.19,Mozilla/5.0 (Windows NT 6.1; Win64; x64; rv:87.0) Gecko/20100101 Firefox/87.0,,Firefox,87,Windows,6.1
26,1,null,"""",image-keyboard-response,193,702802,0.0-193.0,"""",jspsych/neutralFaces/BF03NES.JPG,"""",256,backwardMask,Test,null,100,"""","""","""","""","""","""","""","""",1,4/19/2021 4:23,157.51.75.19,Mozilla/5.0 (Windows NT 6.1; Win64; x64; rv:87.0) Gecko/20100101 Firefox/87.0,,Firefox,87,Windows,6.1
26,1,null,"""",html-keyboard-response,194,703804,0.0-194.0,"""","<div style=""font-size:60px;"">+</div>","""",256,fixationBtwnNeutralMaskAndPrompt,Test,null,1000,"""","""","""","""","""","""","""","""",1,4/19/2021 4:23,157.51.75.19,Mozilla/5.0 (Windows NT 6.1; Win64; x64; rv:87.0) Gecko/20100101 Firefox/87.0,,Firefox,87,Windows,6.1
26,1,2166,"""",html-button-response,195,705971,0.0-195.0,"""","<img src='jspsych/CFDfaces/CFD-AF-237-223-N.jpg' height=""250px"">,</br><b>Victoria</b>",0,256,IntactOrRearranged,Test,"""","""","""","""",CFD-LM-213-061-N.jpg,Jeremy,1,"""","""",0,1,4/19/2021 4:23,157.51.75.19,Mozilla/5.0 (Windows NT 6.1; Win64; x64; rv:87.0) Gecko/20100101 Firefox/87.0,,Firefox,87,Windows,6.1
26,1,1910,"""",html-slider-response,196,707899,0.0-196.0,"""","<img src='jspsych/CFDfaces/CFD-AF-237-223-N.jpg' height=""250px"">,</br><b>Victoria</b>","""",256,ConfidenceQuery,Test,"""","""","""","""",CFD-LM-213-061-N.jpg,Jeremy,1,0,66,"""",1,4/19/2021 4:23,157.51.75.19,Mozilla/5.0 (Windows NT 6.1; Win64; x64; rv:87.0) Gecko/20100101 Firefox/87.0,,Firefox,87,Windows,6.1
26,1,null,"""",html-keyboard-response,197,708903,0.0-197.0,"""","<div style=""font-size:60px;"">+</div>","""",256,ITI,Test,null,1000,"""","""","""","""","""","""","""","""",1,4/19/2021 4:23,157.51.75.19,Mozilla/5.0 (Windows NT 6.1; Win64; x64; rv:87.0) Gecko/20100101 Firefox/87.0,,Firefox,87,Windows,6.1
26,1,null,"""",image-keyboard-response,198,709161,0.0-198.0,"""",jspsych/scrambledDisgustFaces/scrambledAF21DIS.JPG,"""",256,forwardMask,Test,null,250,"""",d,"""","""","""","""","""","""",1,4/19/2021 4:23,157.51.75.19,Mozilla/5.0 (Windows NT 6.1; Win64; x64; rv:87.0) Gecko/20100101 Firefox/87.0,,Firefox,87,Windows,6.1
26,1,null,"""",image-keyboard-response,199,709184,0.0-199.0,"""",jspsych/disgustFaces/AF21DIS.JPG,"""",256,Cue,Test,null,16,"""","""","""","""","""","""","""","""",1,4/19/2021 4:23,157.51.75.19,Mozilla/5.0 (Windows NT 6.1; Win64; x64; rv:87.0) Gecko/20100101 Firefox/87.0,,Firefox,87,Windows,6.1
26,1,null,"""",image-keyboard-response,200,709293,0.0-200.0,"""",jspsych/neutralFaces/BF02NES.JPG,"""",256,backwardMask,Test,null,100,"""","""","""","""","""","""","""","""",1,4/19/2021 4:23,157.51.75.19,Mozilla/5.0 (Windows NT 6.1; Win64; x64; rv:87.0) Gecko/20100101 Firefox/87.0,,Firefox,87,Windows,6.1
26,1,null,"""",html-keyboard-response,201,710294,0.0-201.0,"""","<div style=""font-size:60px;"">+</div>","""",256,fixationBtwnNeutralMaskAndPrompt,Test,null,1000,"""","""","""","""","""","""","""","""",1,4/19/2021 4:23,157.51.75.19,Mozilla/5.0 (Windows NT 6.1; Win64; x64; rv:87.0) Gecko/20100101 Firefox/87.0,,Firefox,87,Windows,6.1
26,1,1052,"""",html-button-response,202,711348,0.0-202.0,"""","<img src='jspsych/CFDfaces/CFD-AF-235-170-N.jpg' height=""250px"">,</br><b>Emily</b>",0,256,IntactOrRearranged,Test,"""","""","""","""",CFD-AM-202-079-N.jpg,Dustin,1,"""","""",0,1,4/19/2021 4:23,157.51.75.19,Mozilla/5.0 (Windows NT 6.1; Win64; x64; rv:87.0) Gecko/20100101 Firefox/87.0,,Firefox,87,Windows,6.1
26,1,1538,"""",html-slider-response,203,712892,0.0-203.0,"""","<img src='jspsych/CFDfaces/CFD-AF-235-170-N.jpg' height=""250px"">,</br><b>Emily</b>","""",256,ConfidenceQuery,Test,"""","""","""","""",CFD-AM-202-079-N.jpg,Dustin,1,0,57,"""",1,4/19/2021 4:23,157.51.75.19,Mozilla/5.0 (Windows NT 6.1; Win64; x64; rv:87.0) Gecko/20100101 Firefox/87.0,,Firefox,87,Windows,6.1
26,1,null,"""",html-keyboard-response,204,713908,0.0-204.0,"""","<div style=""font-size:60px;"">+</div>","""",256,ITI,Test,null,1000,"""","""","""","""","""","""","""","""",1,4/19/2021 4:23,157.51.75.19,Mozilla/5.0 (Windows NT 6.1; Win64; x64; rv:87.0) Gecko/20100101 Firefox/87.0,,Firefox,87,Windows,6.1
26,1,null,"""",image-keyboard-response,205,714164,0.0-205.0,"""",jspsych/scrambledNeutralFaces/scrambledBM02NES.JPG,"""",256,forwardMask,Test,null,250,"""",n,"""","""","""","""","""","""",1,4/19/2021 4:23,157.51.75.19,Mozilla/5.0 (Windows NT 6.1; Win64; x64; rv:87.0) Gecko/20100101 Firefox/87.0,,Firefox,87,Windows,6.1
26,1,null,"""",image-keyboard-response,206,714188,0.0-206.0,"""",jspsych/neutralFaces/BM02NES.JPG,"""",256,Cue,Test,null,16,"""","""","""","""","""","""","""","""",1,4/19/2021 4:23,157.51.75.19,Mozilla/5.0 (Windows NT 6.1; Win64; x64; rv:87.0) Gecko/20100101 Firefox/87.0,,Firefox,87,Windows,6.1
26,1,null,"""",image-keyboard-response,207,714297,0.0-207.0,"""",jspsych/neutralFaces/BM14NES.JPG,"""",256,backwardMask,Test,null,100,"""","""","""","""","""","""","""","""",1,4/19/2021 4:23,157.51.75.19,Mozilla/5.0 (Windows NT 6.1; Win64; x64; rv:87.0) Gecko/20100101 Firefox/87.0,,Firefox,87,Windows,6.1
26,1,null,"""",html-keyboard-response,208,715298,0.0-208.0,"""","<div style=""font-size:60px;"">+</div>","""",256,fixationBtwnNeutralMaskAndPrompt,Test,null,1000,"""","""","""","""","""","""","""","""",1,4/19/2021 4:23,157.51.75.19,Mozilla/5.0 (Windows NT 6.1; Win64; x64; rv:87.0) Gecko/20100101 Firefox/87.0,,Firefox,87,Windows,6.1
26,1,1072,"""",html-button-response,209,716371,0.0-209.0,"""","<img src='jspsych/CFDfaces/CFD-AM-228-214-N.jpg' height=""250px"">,</br><b>Nicholas</b>",0,256,IntactOrRearranged,Test,"""","""","""","""",CFD-WF-223-133-N.jpg,Melissa,0,"""","""",0,1,4/19/2021 4:23,157.51.75.19,Mozilla/5.0 (Windows NT 6.1; Win64; x64; rv:87.0) Gecko/20100101 Firefox/87.0,,Firefox,87,Windows,6.1
26,1,1929,"""",html-slider-response,210,718308,0.0-210.0,"""","<img src='jspsych/CFDfaces/CFD-AM-228-214-N.jpg' height=""250px"">,</br><b>Nicholas</b>","""",256,ConfidenceQuery,Test,"""","""","""","""",CFD-WF-223-133-N.jpg,Melissa,0,0,63,"""",1,4/19/2021 4:23,157.51.75.19,Mozilla/5.0 (Windows NT 6.1; Win64; x64; rv:87.0) Gecko/20100101 Firefox/87.0,,Firefox,87,Windows,6.1
26,1,null,"""",html-keyboard-response,211,719311,0.0-211.0,"""","<div style=""font-size:60px;"">+</div>","""",256,ITI,Test,null,1000,"""","""","""","""","""","""","""","""",1,4/19/2021 4:23,157.51.75.19,Mozilla/5.0 (Windows NT 6.1; Win64; x64; rv:87.0) Gecko/20100101 Firefox/87.0,,Firefox,87,Windows,6.1
26,1,null,"""",image-keyboard-response,212,719581,0.0-212.0,"""",jspsych/scrambledDisgustFaces/scrambledBF31DIS.JPG,"""",256,forwardMask,Test,null,250,"""",d,"""","""","""","""","""","""",1,4/19/2021 4:23,157.51.75.19,Mozilla/5.0 (Windows NT 6.1; Win64; x64; rv:87.0) Gecko/20100101 Firefox/87.0,,Firefox,87,Windows,6.1
26,1,null,"""",image-keyboard-response,213,719605,0.0-213.0,"""",jspsych/disgustFaces/BF31DIS.JPG,"""",256,Cue,Test,null,16,"""","""","""","""","""","""","""","""",1,4/19/2021 4:23,157.51.75.19,Mozilla/5.0 (Windows NT 6.1; Win64; x64; rv:87.0) Gecko/20100101 Firefox/87.0,,Firefox,87,Windows,6.1
26,1,null,"""",image-keyboard-response,214,719713,0.0-214.0,"""",jspsych/neutralFaces/BF13NES.JPG,"""",256,backwardMask,Test,null,100,"""","""","""","""","""","""","""","""",1,4/19/2021 4:23,157.51.75.19,Mozilla/5.0 (Windows NT 6.1; Win64; x64; rv:87.0) Gecko/20100101 Firefox/87.0,,Firefox,87,Windows,6.1
26,1,null,"""",html-keyboard-response,215,720715,0.0-215.0,"""","<div style=""font-size:60px;"">+</div>","""",256,fixationBtwnNeutralMaskAndPrompt,Test,null,1000,"""","""","""","""","""","""","""","""",1,4/19/2021 4:23,157.51.75.19,Mozilla/5.0 (Windows NT 6.1; Win64; x64; rv:87.0) Gecko/20100101 Firefox/87.0,,Firefox,87,Windows,6.1
26,1,975,"""",html-button-response,216,721691,0.0-216.0,"""","<img src='jspsych/CFDfaces/CFD-WF-204-038-N.jpg' height=""250px"">,</br><b>Andrea</b>",0,256,IntactOrRearranged,Test,"""","""","""","""",CFD-AM-229-224-N.jpg,Mark,1,"""","""",0,1,4/19/2021 4:23,157.51.75.19,Mozilla/5.0 (Windows NT 6.1; Win64; x64; rv:87.0) Gecko/20100101 Firefox/87.0,,Firefox,87,Windows,6.1
26,1,1531,"""",html-slider-response,217,723227,0.0-217.0,"""","<img src='jspsych/CFDfaces/CFD-WF-204-038-N.jpg' height=""250px"">,</br><b>Andrea</b>","""",256,ConfidenceQuery,Test,"""","""","""","""",CFD-AM-229-224-N.jpg,Mark,1,0,59,"""",1,4/19/2021 4:23,157.51.75.19,Mozilla/5.0 (Windows NT 6.1; Win64; x64; rv:87.0) Gecko/20100101 Firefox/87.0,,Firefox,87,Windows,6.1
26,1,null,"""",html-keyboard-response,218,724230,0.0-218.0,"""","<div style=""font-size:60px;"">+</div>","""",256,ITI,Test,null,1000,"""","""","""","""","""","""","""","""",1,4/19/2021 4:23,157.51.75.19,Mozilla/5.0 (Windows NT 6.1; Win64; x64; rv:87.0) Gecko/20100101 Firefox/87.0,,Firefox,87,Windows,6.1
26,1,null,"""",image-keyboard-response,219,724487,0.0-219.0,"""",jspsych/scrambledDisgustFaces/scrambledBM18DIS.JPG,"""",256,forwardMask,Test,null,250,"""",d,"""","""","""","""","""","""",1,4/19/2021 4:23,157.51.75.19,Mozilla/5.0 (Windows NT 6.1; Win64; x64; rv:87.0) Gecko/20100101 Firefox/87.0,,Firefox,87,Windows,6.1
26,1,null,"""",image-keyboard-response,220,724512,0.0-220.0,"""",jspsych/disgustFaces/BM19DIS.JPG,"""",256,Cue,Test,null,16,"""","""","""","""","""","""","""","""",1,4/19/2021 4:23,157.51.75.19,Mozilla/5.0 (Windows NT 6.1; Win64; x64; rv:87.0) Gecko/20100101 Firefox/87.0,,Firefox,87,Windows,6.1
26,1,null,"""",image-keyboard-response,221,724619,0.0-221.0,"""",jspsych/neutralFaces/BM02NES.JPG,"""",256,backwardMask,Test,null,100,"""","""","""","""","""","""","""","""",1,4/19/2021 4:23,157.51.75.19,Mozilla/5.0 (Windows NT 6.1; Win64; x64; rv:87.0) Gecko/20100101 Firefox/87.0,,Firefox,87,Windows,6.1
26,1,null,"""",html-keyboard-response,222,725620,0.0-222.0,"""","<div style=""font-size:60px;"">+</div>","""",256,fixationBtwnNeutralMaskAndPrompt,Test,null,1000,"""","""","""","""","""","""","""","""",1,4/19/2021 4:23,157.51.75.19,Mozilla/5.0 (Windows NT 6.1; Win64; x64; rv:87.0) Gecko/20100101 Firefox/87.0,,Firefox,87,Windows,6.1
26,1,950,"""",html-button-response,223,726571,0.0-223.0,"""","<img src='jspsych/CFDfaces/CFD-LM-201-057-N.jpg' height=""250px"">,</br><b>Brandon</b>",1,256,IntactOrRearranged,Test,"""","""","""","""",CFD-AM-221-184-N.jpg,Austin,0,"""","""",1,1,4/19/2021 4:23,157.51.75.19,Mozilla/5.0 (Windows NT 6.1; Win64; x64; rv:87.0) Gecko/20100101 Firefox/87.0,,Firefox,87,Windows,6.1
26,1,1422,"""",html-slider-response,224,728012,0.0-224.0,"""","<img src='jspsych/CFDfaces/CFD-LM-201-057-N.jpg' height=""250px"">,</br><b>Brandon</b>","""",256,ConfidenceQuery,Test,"""","""","""","""",CFD-AM-221-184-N.jpg,Austin,0,0,58,"""",1,4/19/2021 4:23,157.51.75.19,Mozilla/5.0 (Windows NT 6.1; Win64; x64; rv:87.0) Gecko/20100101 Firefox/87.0,,Firefox,87,Windows,6.1
26,1,null,"""",html-keyboard-response,225,729015,0.0-225.0,"""","<div style=""font-size:60px;"">+</div>","""",256,ITI,Test,null,1000,"""","""","""","""","""","""","""","""",1,4/19/2021 4:23,157.51.75.19,Mozilla/5.0 (Windows NT 6.1; Win64; x64; rv:87.0) Gecko/20100101 Firefox/87.0,,Firefox,87,Windows,6.1
26,1,null,"""",image-keyboard-response,226,729272,0.0-226.0,"""",jspsych/scrambledNeutralFaces/scrambledAM14NES.JPG,"""",256,forwardMask,Test,null,250,"""",n,"""","""","""","""","""","""",1,4/19/2021 4:23,157.51.75.19,Mozilla/5.0 (Windows NT 6.1; Win64; x64; rv:87.0) Gecko/20100101 Firefox/87.0,,Firefox,87,Windows,6.1
26,1,null,"""",image-keyboard-response,227,729296,0.0-227.0,"""",jspsych/neutralFaces/AM14NES.JPG,"""",256,Cue,Test,null,16,"""","""","""","""","""","""","""","""",1,4/19/2021 4:23,157.51.75.19,Mozilla/5.0 (Windows NT 6.1; Win64; x64; rv:87.0) Gecko/20100101 Firefox/87.0,,Firefox,87,Windows,6.1
26,1,null,"""",image-keyboard-response,228,729404,0.0-228.0,"""",jspsych/neutralFaces/BM12NES.JPG,"""",256,backwardMask,Test,null,100,"""","""","""","""","""","""","""","""",1,4/19/2021 4:23,157.51.75.19,Mozilla/5.0 (Windows NT 6.1; Win64; x64; rv:87.0) Gecko/20100101 Firefox/87.0,,Firefox,87,Windows,6.1
26,1,null,"""",html-keyboard-response,229,730407,0.0-229.0,"""","<div style=""font-size:60px;"">+</div>","""",256,fixationBtwnNeutralMaskAndPrompt,Test,null,1000,"""","""","""","""","""","""","""","""",1,4/19/2021 4:23,157.51.75.19,Mozilla/5.0 (Windows NT 6.1; Win64; x64; rv:87.0) Gecko/20100101 Firefox/87.0,,Firefox,87,Windows,6.1
26,1,1322,"""",html-button-response,230,731731,0.0-230.0,"""","<img src='jspsych/CFDfaces/CFD-LM-200-045-N.jpg' height=""250px"">,</br><b>Daniel</b>",0,256,IntactOrRearranged,Test,"""","""","""","""",CFD-LF-239-148-N.jpg,Heather,1,"""","""",0,1,4/19/2021 4:23,157.51.75.19,Mozilla/5.0 (Windows NT 6.1; Win64; x64; rv:87.0) Gecko/20100101 Firefox/87.0,,Firefox,87,Windows,6.1
26,1,1418,"""",html-slider-response,231,733155,0.0-231.0,"""","<img src='jspsych/CFDfaces/CFD-LM-200-045-N.jpg' height=""250px"">,</br><b>Daniel</b>","""",256,ConfidenceQuery,Test,"""","""","""","""",CFD-LF-239-148-N.jpg,Heather,1,0,62,"""",1,4/19/2021 4:23,157.51.75.19,Mozilla/5.0 (Windows NT 6.1; Win64; x64; rv:87.0) Gecko/20100101 Firefox/87.0,,Firefox,87,Windows,6.1
26,1,null,"""",html-keyboard-response,232,734159,0.0-232.0,"""","<div style=""font-size:60px;"">+</div>","""",256,ITI,Test,null,1000,"""","""","""","""","""","""","""","""",1,4/19/2021 4:23,157.51.75.19,Mozilla/5.0 (Windows NT 6.1; Win64; x64; rv:87.0) Gecko/20100101 Firefox/87.0,,Firefox,87,Windows,6.1
26,1,null,"""",image-keyboard-response,233,734433,0.0-233.0,"""",jspsych/scrambledNeutralFaces/scrambledBF16NES.JPG,"""",256,forwardMask,Test,null,250,"""",n,"""","""","""","""","""","""",1,4/19/2021 4:23,157.51.75.19,Mozilla/5.0 (Windows NT 6.1; Win64; x64; rv:87.0) Gecko/20100101 Firefox/87.0,,Firefox,87,Windows,6.1
26,1,null,"""",image-keyboard-response,234,734457,0.0-234.0,"""",jspsych/neutralFaces/BF16NES.JPG,"""",256,Cue,Test,null,16,"""","""","""","""","""","""","""","""",1,4/19/2021 4:23,157.51.75.19,Mozilla/5.0 (Windows NT 6.1; Win64; x64; rv:87.0) Gecko/20100101 Firefox/87.0,,Firefox,87,Windows,6.1
26,1,null,"""",image-keyboard-response,235,734565,0.0-235.0,"""",jspsych/neutralFaces/AF02NES.JPG,"""",256,backwardMask,Test,null,100,"""","""","""","""","""","""","""","""",1,4/19/2021 4:23,157.51.75.19,Mozilla/5.0 (Windows NT 6.1; Win64; x64; rv:87.0) Gecko/20100101 Firefox/87.0,,Firefox,87,Windows,6.1
26,1,null,"""",html-keyboard-response,236,735567,0.0-236.0,"""","<div style=""font-size:60px;"">+</div>","""",256,fixationBtwnNeutralMaskAndPrompt,Test,null,1000,"""","""","""","""","""","""","""","""",1,4/19/2021 4:23,157.51.75.19,Mozilla/5.0 (Windows NT 6.1; Win64; x64; rv:87.0) Gecko/20100101 Firefox/87.0,,Firefox,87,Windows,6.1
26,1,858,"""",html-button-response,237,736427,0.0-237.0,"""","<img src='jspsych/CFDfaces/CFD-BM-032-024-N.jpg' height=""250px"">,</br><b>Peter</b>",1,256,IntactOrRearranged,Test,"""","""","""","""",CFD-AF-222-134-N.jpg,Taylor,0,"""","""",1,1,4/19/2021 4:23,157.51.75.19,Mozilla/5.0 (Windows NT 6.1; Win64; x64; rv:87.0) Gecko/20100101 Firefox/87.0,,Firefox,87,Windows,6.1
26,1,1537,"""",html-slider-response,238,737971,0.0-238.0,"""","<img src='jspsych/CFDfaces/CFD-BM-032-024-N.jpg' height=""250px"">,</br><b>Peter</b>","""",256,ConfidenceQuery,Test,"""","""","""","""",CFD-AF-222-134-N.jpg,Taylor,0,0,60,"""",1,4/19/2021 4:23,157.51.75.19,Mozilla/5.0 (Windows NT 6.1; Win64; x64; rv:87.0) Gecko/20100101 Firefox/87.0,,Firefox,87,Windows,6.1
26,1,null,"""",html-keyboard-response,239,738974,0.0-239.0,"""","<div style=""font-size:60px;"">+</div>","""",256,ITI,Test,null,1000,"""","""","""","""","""","""","""","""",1,4/19/2021 4:23,157.51.75.19,Mozilla/5.0 (Windows NT 6.1; Win64; x64; rv:87.0) Gecko/20100101 Firefox/87.0,,Firefox,87,Windows,6.1
26,1,null,"""",image-keyboard-response,240,739232,0.0-240.0,"""",jspsych/scrambledNeutralFaces/scrambledBF22NES.JPG,"""",256,forwardMask,Test,null,250,"""",n,"""","""","""","""","""","""",1,4/19/2021 4:23,157.51.75.19,Mozilla/5.0 (Windows NT 6.1; Win64; x64; rv:87.0) Gecko/20100101 Firefox/87.0,,Firefox,87,Windows,6.1
26,1,null,"""",image-keyboard-response,241,739256,0.0-241.0,"""",jspsych/neutralFaces/BF22NES.JPG,"""",256,Cue,Test,null,16,"""","""","""","""","""","""","""","""",1,4/19/2021 4:23,157.51.75.19,Mozilla/5.0 (Windows NT 6.1; Win64; x64; rv:87.0) Gecko/20100101 Firefox/87.0,,Firefox,87,Windows,6.1
26,1,null,"""",image-keyboard-response,242,739364,0.0-242.0,"""",jspsych/neutralFaces/BF05NES.JPG,"""",256,backwardMask,Test,null,100,"""","""","""","""","""","""","""","""",1,4/19/2021 4:23,157.51.75.19,Mozilla/5.0 (Windows NT 6.1; Win64; x64; rv:87.0) Gecko/20100101 Firefox/87.0,,Firefox,87,Windows,6.1
26,1,null,"""",html-keyboard-response,243,740365,0.0-243.0,"""","<div style=""font-size:60px;"">+</div>","""",256,fixationBtwnNeutralMaskAndPrompt,Test,null,1000,"""","""","""","""","""","""","""","""",1,4/19/2021 4:23,157.51.75.19,Mozilla/5.0 (Windows NT 6.1; Win64; x64; rv:87.0) Gecko/20100101 Firefox/87.0,,Firefox,87,Windows,6.1
26,1,1139,"""",html-button-response,244,741507,0.0-244.0,"""","<img src='jspsych/CFDfaces/CFD-AF-209-006-N.jpg' height=""250px"">,</br><b>Amanda</b>",0,256,IntactOrRearranged,Test,"""","""","""","""",CFD-WF-200-099-N.jpg,Angela,1,"""","""",0,1,4/19/2021 4:23,157.51.75.19,Mozilla/5.0 (Windows NT 6.1; Win64; x64; rv:87.0) Gecko/20100101 Firefox/87.0,,Firefox,87,Windows,6.1
26,1,2642,"""",html-slider-response,245,744171,0.0-245.0,"""","<img src='jspsych/CFDfaces/CFD-AF-209-006-N.jpg' height=""250px"">,</br><b>Amanda</b>","""",256,ConfidenceQuery,Test,"""","""","""","""",CFD-WF-200-099-N.jpg,Angela,1,0,63,"""",1,4/19/2021 4:23,157.51.75.19,Mozilla/5.0 (Windows NT 6.1; Win64; x64; rv:87.0) Gecko/20100101 Firefox/87.0,,Firefox,87,Windows,6.1
26,1,null,"""",html-keyboard-response,246,745174,0.0-246.0,"""","<div style=""font-size:60px;"">+</div>","""",256,ITI,Test,null,1000,"""","""","""","""","""","""","""","""",1,4/19/2021 4:23,157.51.75.19,Mozilla/5.0 (Windows NT 6.1; Win64; x64; rv:87.0) Gecko/20100101 Firefox/87.0,,Firefox,87,Windows,6.1
26,1,null,"""",image-keyboard-response,247,745429,0.0-247.0,"""",jspsych/scrambledNeutralFaces/scrambledAM14NES.JPG,"""",256,forwardMask,Test,null,250,"""",n,"""","""","""","""","""","""",1,4/19/2021 4:23,157.51.75.19,Mozilla/5.0 (Windows NT 6.1; Win64; x64; rv:87.0) Gecko/20100101 Firefox/87.0,,Firefox,87,Windows,6.1
26,1,null,"""",image-keyboard-response,248,745451,0.0-248.0,"""",jspsych/neutralFaces/AM14NES.JPG,"""",256,Cue,Test,null,16,"""","""","""","""","""","""","""","""",1,4/19/2021 4:23,157.51.75.19,Mozilla/5.0 (Windows NT 6.1; Win64; x64; rv:87.0) Gecko/20100101 Firefox/87.0,,Firefox,87,Windows,6.1
26,1,null,"""",image-keyboard-response,249,745561,0.0-249.0,"""",jspsych/neutralFaces/AM34NES.JPG,"""",256,backwardMask,Test,null,100,"""","""","""","""","""","""","""","""",1,4/19/2021 4:23,157.51.75.19,Mozilla/5.0 (Windows NT 6.1; Win64; x64; rv:87.0) Gecko/20100101 Firefox/87.0,,Firefox,87,Windows,6.1
26,1,null,"""",html-keyboard-response,250,746561,0.0-250.0,"""","<div style=""font-size:60px;"">+</div>","""",256,fixationBtwnNeutralMaskAndPrompt,Test,null,1000,"""","""","""","""","""","""","""","""",1,4/19/2021 4:23,157.51.75.19,Mozilla/5.0 (Windows NT 6.1; Win64; x64; rv:87.0) Gecko/20100101 Firefox/87.0,,Firefox,87,Windows,6.1
26,1,896,"""",html-button-response,251,747458,0.0-251.0,"""","<img src='jspsych/CFDfaces/CFD-WM-011-002-N.jpg' height=""250px"">,</br><b>Juan</b>",0,256,IntactOrRearranged,Test,"""","""","""","""",CFD-AF-241-141-N.jpg,Amy,0,"""","""",0,1,4/19/2021 4:23,157.51.75.19,Mozilla/5.0 (Windows NT 6.1; Win64; x64; rv:87.0) Gecko/20100101 Firefox/87.0,,Firefox,87,Windows,6.1
26,1,1721,"""",html-slider-response,252,749187,0.0-252.0,"""","<img src='jspsych/CFDfaces/CFD-WM-011-002-N.jpg' height=""250px"">,</br><b>Juan</b>","""",256,ConfidenceQuery,Test,"""","""","""","""",CFD-AF-241-141-N.jpg,Amy,0,0,63,"""",1,4/19/2021 4:23,157.51.75.19,Mozilla/5.0 (Windows NT 6.1; Win64; x64; rv:87.0) Gecko/20100101 Firefox/87.0,,Firefox,87,Windows,6.1
26,1,null,"""",html-keyboard-response,253,750191,0.0-253.0,"""","<div style=""font-size:60px;"">+</div>","""",256,ITI,Test,null,1000,"""","""","""","""","""","""","""","""",1,4/19/2021 4:23,157.51.75.19,Mozilla/5.0 (Windows NT 6.1; Win64; x64; rv:87.0) Gecko/20100101 Firefox/87.0,,Firefox,87,Windows,6.1
26,1,null,"""",image-keyboard-response,254,750465,0.0-254.0,"""",jspsych/scrambledDisgustFaces/scrambledAM13DIS.JPG,"""",256,forwardMask,Test,null,250,"""",d,"""","""","""","""","""","""",1,4/19/2021 4:23,157.51.75.19,Mozilla/5.0 (Windows NT 6.1; Win64; x64; rv:87.0) Gecko/20100101 Firefox/87.0,,Firefox,87,Windows,6.1
26,1,null,"""",image-keyboard-response,255,750490,0.0-255.0,"""",jspsych/disgustFaces/AM13DIS.JPG,"""",256,Cue,Test,null,16,"""","""","""","""","""","""","""","""",1,4/19/2021 4:23,157.51.75.19,Mozilla/5.0 (Windows NT 6.1; Win64; x64; rv:87.0) Gecko/20100101 Firefox/87.0,,Firefox,87,Windows,6.1
26,1,null,"""",image-keyboard-response,256,750597,0.0-256.0,"""",jspsych/neutralFaces/AM14NES.JPG,"""",256,backwardMask,Test,null,100,"""","""","""","""","""","""","""","""",1,4/19/2021 4:23,157.51.75.19,Mozilla/5.0 (Windows NT 6.1; Win64; x64; rv:87.0) Gecko/20100101 Firefox/87.0,,Firefox,87,Windows,6.1
26,1,null,"""",html-keyboard-response,257,751598,0.0-257.0,"""","<div style=""font-size:60px;"">+</div>","""",256,fixationBtwnNeutralMaskAndPrompt,Test,null,1000,"""","""","""","""","""","""","""","""",1,4/19/2021 4:23,157.51.75.19,Mozilla/5.0 (Windows NT 6.1; Win64; x64; rv:87.0) Gecko/20100101 Firefox/87.0,,Firefox,87,Windows,6.1
26,1,916,"""",html-button-response,258,752515,0.0-258.0,"""","<img src='jspsych/CFDfaces/CFD-LM-217-162-N.jpg' height=""250px"">,</br><b>Brian</b>",0,256,IntactOrRearranged,Test,"""","""","""","""",CFD-LF-231-260-N.jpg,Jordan,0,"""","""",0,1,4/19/2021 4:23,157.51.75.19,Mozilla/5.0 (Windows NT 6.1; Win64; x64; rv:87.0) Gecko/20100101 Firefox/87.0,,Firefox,87,Windows,6.1
26,1,1760,"""",html-slider-response,259,754283,0.0-259.0,"""","<img src='jspsych/CFDfaces/CFD-LM-217-162-N.jpg' height=""250px"">,</br><b>Brian</b>","""",256,ConfidenceQuery,Test,"""","""","""","""",CFD-LF-231-260-N.jpg,Jordan,0,0,61,"""",1,4/19/2021 4:23,157.51.75.19,Mozilla/5.0 (Windows NT 6.1; Win64; x64; rv:87.0) Gecko/20100101 Firefox/87.0,,Firefox,87,Windows,6.1
26,1,null,"""",html-keyboard-response,260,755285,0.0-260.0,"""","<div style=""font-size:60px;"">+</div>","""",256,ITI,Test,null,1000,"""","""","""","""","""","""","""","""",1,4/19/2021 4:23,157.51.75.19,Mozilla/5.0 (Windows NT 6.1; Win64; x64; rv:87.0) Gecko/20100101 Firefox/87.0,,Firefox,87,Windows,6.1
26,1,null,"""",image-keyboard-response,261,755542,0.0-261.0,"""",jspsych/scrambledDisgustFaces/scrambledAF29DIS.JPG,"""",256,forwardMask,Test,null,250,"""",d,"""","""","""","""","""","""",1,4/19/2021 4:23,157.51.75.19,Mozilla/5.0 (Windows NT 6.1; Win64; x64; rv:87.0) Gecko/20100101 Firefox/87.0,,Firefox,87,Windows,6.1
26,1,null,"""",image-keyboard-response,262,755573,0.0-262.0,"""",jspsych/disgustFaces/AF29DIS.JPG,"""",256,Cue,Test,null,16,"""","""","""","""","""","""","""","""",1,4/19/2021 4:23,157.51.75.19,Mozilla/5.0 (Windows NT 6.1; Win64; x64; rv:87.0) Gecko/20100101 Firefox/87.0,,Firefox,87,Windows,6.1
26,1,null,"""",image-keyboard-response,263,755678,0.0-263.0,"""",jspsych/neutralFaces/BF15NES.JPG,"""",256,backwardMask,Test,null,100,"""","""","""","""","""","""","""","""",1,4/19/2021 4:23,157.51.75.19,Mozilla/5.0 (Windows NT 6.1; Win64; x64; rv:87.0) Gecko/20100101 Firefox/87.0,,Firefox,87,Windows,6.1
26,1,null,"""",html-keyboard-response,264,756679,0.0-264.0,"""","<div style=""font-size:60px;"">+</div>","""",256,fixationBtwnNeutralMaskAndPrompt,Test,null,1000,"""","""","""","""","""","""","""","""",1,4/19/2021 4:23,157.51.75.19,Mozilla/5.0 (Windows NT 6.1; Win64; x64; rv:87.0) Gecko/20100101 Firefox/87.0,,Firefox,87,Windows,6.1
26,1,1225,"""",html-button-response,265,757907,0.0-265.0,"""","<img src='jspsych/CFDfaces/CFD-BF-218-207-N.jpg' height=""250px"">,</br><b>Ashley</b>",1,256,IntactOrRearranged,Test,"""","""","""","""",CFD-BM-010-003-N.jpg,Kenneth,1,"""","""",1,1,4/19/2021 4:23,157.51.75.19,Mozilla/5.0 (Windows NT 6.1; Win64; x64; rv:87.0) Gecko/20100101 Firefox/87.0,,Firefox,87,Windows,6.1
26,1,1553,"""",html-slider-response,266,759466,0.0-266.0,"""","<img src='jspsych/CFDfaces/CFD-BF-218-207-N.jpg' height=""250px"">,</br><b>Ashley</b>","""",256,ConfidenceQuery,Test,"""","""","""","""",CFD-BM-010-003-N.jpg,Kenneth,1,0,60,"""",1,4/19/2021 4:23,157.51.75.19,Mozilla/5.0 (Windows NT 6.1; Win64; x64; rv:87.0) Gecko/20100101 Firefox/87.0,,Firefox,87,Windows,6.1
26,1,null,"""",html-keyboard-response,267,760471,0.0-267.0,"""","<div style=""font-size:60px;"">+</div>","""",256,ITI,Test,null,1000,"""","""","""","""","""","""","""","""",1,4/19/2021 4:23,157.51.75.19,Mozilla/5.0 (Windows NT 6.1; Win64; x64; rv:87.0) Gecko/20100101 Firefox/87.0,,Firefox,87,Windows,6.1
26,1,null,"""",image-keyboard-response,268,760772,0.0-268.0,"""",jspsych/scrambledNeutralFaces/scrambledAF34NES.JPG,"""",256,forwardMask,Test,null,250,"""",n,"""","""","""","""","""","""",1,4/19/2021 4:23,157.51.75.19,Mozilla/5.0 (Windows NT 6.1; Win64; x64; rv:87.0) Gecko/20100101 Firefox/87.0,,Firefox,87,Windows,6.1
26,1,null,"""",image-keyboard-response,269,760799,0.0-269.0,"""",jspsych/neutralFaces/AF34NES.JPG,"""",256,Cue,Test,null,16,"""","""","""","""","""","""","""","""",1,4/19/2021 4:23,157.51.75.19,Mozilla/5.0 (Windows NT 6.1; Win64; x64; rv:87.0) Gecko/20100101 Firefox/87.0,,Firefox,87,Windows,6.1
26,1,null,"""",image-keyboard-response,270,760907,0.0-270.0,"""",jspsych/neutralFaces/AF28NES.JPG,"""",256,backwardMask,Test,null,100,"""","""","""","""","""","""","""","""",1,4/19/2021 4:23,157.51.75.19,Mozilla/5.0 (Windows NT 6.1; Win64; x64; rv:87.0) Gecko/20100101 Firefox/87.0,,Firefox,87,Windows,6.1
26,1,null,"""",html-keyboard-response,271,761909,0.0-271.0,"""","<div style=""font-size:60px;"">+</div>","""",256,fixationBtwnNeutralMaskAndPrompt,Test,null,1000,"""","""","""","""","""","""","""","""",1,4/19/2021 4:23,157.51.75.19,Mozilla/5.0 (Windows NT 6.1; Win64; x64; rv:87.0) Gecko/20100101 Firefox/87.0,,Firefox,87,Windows,6.1
26,1,1011,"""",html-button-response,272,762923,0.0-272.0,"""","<img src='jspsych/CFDfaces/CFD-LF-208-127-N.jpg' height=""250px"">,</br><b>Meghan</b>",0,256,IntactOrRearranged,Test,"""","""","""","""",CFD-WF-024-003-N.jpg,Lauren,0,"""","""",0,1,4/19/2021 4:23,157.51.75.19,Mozilla/5.0 (Windows NT 6.1; Win64; x64; rv:87.0) Gecko/20100101 Firefox/87.0,,Firefox,87,Windows,6.1
26,1,2528,"""",html-slider-response,273,765459,0.0-273.0,"""","<img src='jspsych/CFDfaces/CFD-LF-208-127-N.jpg' height=""250px"">,</br><b>Meghan</b>","""",256,ConfidenceQuery,Test,"""","""","""","""",CFD-WF-024-003-N.jpg,Lauren,0,0,56,"""",1,4/19/2021 4:23,157.51.75.19,Mozilla/5.0 (Windows NT 6.1; Win64; x64; rv:87.0) Gecko/20100101 Firefox/87.0,,Firefox,87,Windows,6.1
26,1,null,"""",html-keyboard-response,274,766465,0.0-274.0,"""","<div style=""font-size:60px;"">+</div>","""",256,ITI,Test,null,1000,"""","""","""","""","""","""","""","""",1,4/19/2021 4:23,157.51.75.19,Mozilla/5.0 (Windows NT 6.1; Win64; x64; rv:87.0) Gecko/20100101 Firefox/87.0,,Firefox,87,Windows,6.1
26,1,null,"""",image-keyboard-response,275,766723,0.0-275.0,"""",jspsych/scrambledDisgustFaces/scrambledAM25DIS.JPG,"""",256,forwardMask,Test,null,250,"""",d,"""","""","""","""","""","""",1,4/19/2021 4:23,157.51.75.19,Mozilla/5.0 (Windows NT 6.1; Win64; x64; rv:87.0) Gecko/20100101 Firefox/87.0,,Firefox,87,Windows,6.1
26,1,null,"""",image-keyboard-response,276,766747,0.0-276.0,"""",jspsych/disgustFaces/AM25DIS.JPG,"""",256,Cue,Test,null,16,"""","""","""","""","""","""","""","""",1,4/19/2021 4:23,157.51.75.19,Mozilla/5.0 (Windows NT 6.1; Win64; x64; rv:87.0) Gecko/20100101 Firefox/87.0,,Firefox,87,Windows,6.1
26,1,null,"""",image-keyboard-response,277,766855,0.0-277.0,"""",jspsych/neutralFaces/AM23NES.JPG,"""",256,backwardMask,Test,null,100,"""","""","""","""","""","""","""","""",1,4/19/2021 4:23,157.51.75.19,Mozilla/5.0 (Windows NT 6.1; Win64; x64; rv:87.0) Gecko/20100101 Firefox/87.0,,Firefox,87,Windows,6.1
26,1,null,"""",html-keyboard-response,278,767859,0.0-278.0,"""","<div style=""font-size:60px;"">+</div>","""",256,fixationBtwnNeutralMaskAndPrompt,Test,null,1000,"""","""","""","""","""","""","""","""",1,4/19/2021 4:23,157.51.75.19,Mozilla/5.0 (Windows NT 6.1; Win64; x64; rv:87.0) Gecko/20100101 Firefox/87.0,,Firefox,87,Windows,6.1
26,1,1757,"""",html-button-response,279,769618,0.0-279.0,"""","<img src='jspsych/CFDfaces/CFD-AM-230-150-N.jpg' height=""250px"">,</br><b>Gregory</b>",1,256,IntactOrRearranged,Test,"""","""","""","""",CFD-AM-242-176-N.jpg,Vincent,1,"""","""",1,1,4/19/2021 4:23,157.51.75.19,Mozilla/5.0 (Windows NT 6.1; Win64; x64; rv:87.0) Gecko/20100101 Firefox/87.0,,Firefox,87,Windows,6.1
26,1,1425,"""",html-slider-response,280,771050,0.0-280.0,"""","<img src='jspsych/CFDfaces/CFD-AM-230-150-N.jpg' height=""250px"">,</br><b>Gregory</b>","""",256,ConfidenceQuery,Test,"""","""","""","""",CFD-AM-242-176-N.jpg,Vincent,1,0,54,"""",1,4/19/2021 4:23,157.51.75.19,Mozilla/5.0 (Windows NT 6.1; Win64; x64; rv:87.0) Gecko/20100101 Firefox/87.0,,Firefox,87,Windows,6.1
26,1,null,"""",html-keyboard-response,281,772054,0.0-281.0,"""","<div style=""font-size:60px;"">+</div>","""",256,ITI,Test,null,1000,"""","""","""","""","""","""","""","""",1,4/19/2021 4:23,157.51.75.19,Mozilla/5.0 (Windows NT 6.1; Win64; x64; rv:87.0) Gecko/20100101 Firefox/87.0,,Firefox,87,Windows,6.1
26,1,null,"""",image-keyboard-response,282,772332,0.0-282.0,"""",jspsych/scrambledDisgustFaces/scrambledBF22DIS.JPG,"""",256,forwardMask,Test,null,250,"""",d,"""","""","""","""","""","""",1,4/19/2021 4:23,157.51.75.19,Mozilla/5.0 (Windows NT 6.1; Win64; x64; rv:87.0) Gecko/20100101 Firefox/87.0,,Firefox,87,Windows,6.1
26,1,null,"""",image-keyboard-response,283,772356,0.0-283.0,"""",jspsych/disgustFaces/BF22DIS.JPG,"""",256,Cue,Test,null,16,"""","""","""","""","""","""","""","""",1,4/19/2021 4:23,157.51.75.19,Mozilla/5.0 (Windows NT 6.1; Win64; x64; rv:87.0) Gecko/20100101 Firefox/87.0,,Firefox,87,Windows,6.1
26,1,null,"""",image-keyboard-response,284,772465,0.0-284.0,"""",jspsych/neutralFaces/AF13NES.JPG,"""",256,backwardMask,Test,null,100,"""","""","""","""","""","""","""","""",1,4/19/2021 4:23,157.51.75.19,Mozilla/5.0 (Windows NT 6.1; Win64; x64; rv:87.0) Gecko/20100101 Firefox/87.0,,Firefox,87,Windows,6.1
26,1,null,"""",html-keyboard-response,285,773466,0.0-285.0,"""","<div style=""font-size:60px;"">+</div>","""",256,fixationBtwnNeutralMaskAndPrompt,Test,null,1000,"""","""","""","""","""","""","""","""",1,4/19/2021 4:23,157.51.75.19,Mozilla/5.0 (Windows NT 6.1; Win64; x64; rv:87.0) Gecko/20100101 Firefox/87.0,,Firefox,87,Windows,6.1
26,1,1501,"""",html-button-response,286,774970,0.0-286.0,"""","<img src='jspsych/CFDfaces/CFD-WM-216-061-N.jpg' height=""250px"">,</br><b>Ian</b>",1,256,IntactOrRearranged,Test,"""","""","""","""",CFD-BF-008-001-N.jpg,Sara,0,"""","""",1,1,4/19/2021 4:23,157.51.75.19,Mozilla/5.0 (Windows NT 6.1; Win64; x64; rv:87.0) Gecko/20100101 Firefox/87.0,,Firefox,87,Windows,6.1
26,1,1458,"""",html-slider-response,287,776434,0.0-287.0,"""","<img src='jspsych/CFDfaces/CFD-WM-216-061-N.jpg' height=""250px"">,</br><b>Ian</b>","""",256,ConfidenceQuery,Test,"""","""","""","""",CFD-BF-008-001-N.jpg,Sara,0,0,57,"""",1,4/19/2021 4:23,157.51.75.19,Mozilla/5.0 (Windows NT 6.1; Win64; x64; rv:87.0) Gecko/20100101 Firefox/87.0,,Firefox,87,Windows,6.1
26,1,null,"""",html-keyboard-response,288,777439,0.0-288.0,"""","<div style=""font-size:60px;"">+</div>","""",256,ITI,Test,null,1000,"""","""","""","""","""","""","""","""",1,4/19/2021 4:23,157.51.75.19,Mozilla/5.0 (Windows NT 6.1; Win64; x64; rv:87.0) Gecko/20100101 Firefox/87.0,,Firefox,87,Windows,6.1
26,1,null,"""",image-keyboard-response,289,777694,0.0-289.0,"""",jspsych/scrambledDisgustFaces/scrambledBM25DIS.JPG,"""",256,forwardMask,Test,null,250,"""",d,"""","""","""","""","""","""",1,4/19/2021 4:23,157.51.75.19,Mozilla/5.0 (Windows NT 6.1; Win64; x64; rv:87.0) Gecko/20100101 Firefox/87.0,,Firefox,87,Windows,6.1
26,1,null,"""",image-keyboard-response,290,777720,0.0-290.0,"""",jspsych/disgustFaces/BM26DIS.JPG,"""",256,Cue,Test,null,16,"""","""","""","""","""","""","""","""",1,4/19/2021 4:23,157.51.75.19,Mozilla/5.0 (Windows NT 6.1; Win64; x64; rv:87.0) Gecko/20100101 Firefox/87.0,,Firefox,87,Windows,6.1
26,1,null,"""",image-keyboard-response,291,777825,0.0-291.0,"""",jspsych/neutralFaces/BM12NES.JPG,"""",256,backwardMask,Test,null,100,"""","""","""","""","""","""","""","""",1,4/19/2021 4:23,157.51.75.19,Mozilla/5.0 (Windows NT 6.1; Win64; x64; rv:87.0) Gecko/20100101 Firefox/87.0,,Firefox,87,Windows,6.1
26,1,null,"""",html-keyboard-response,292,778827,0.0-292.0,"""","<div style=""font-size:60px;"">+</div>","""",256,fixationBtwnNeutralMaskAndPrompt,Test,null,1000,"""","""","""","""","""","""","""","""",1,4/19/2021 4:23,157.51.75.19,Mozilla/5.0 (Windows NT 6.1; Win64; x64; rv:87.0) Gecko/20100101 Firefox/87.0,,Firefox,87,Windows,6.1
26,1,1356,"""",html-button-response,293,780186,0.0-293.0,"""","<img src='jspsych/CFDfaces/CFD-BM-210-148-N.jpg' height=""250px"">,</br><b>Joshua</b>",0,256,IntactOrRearranged,Test,"""","""","""","""",CFD-LF-202-065-N.jpg,Jasmine,1,"""","""",0,1,4/19/2021 4:23,157.51.75.19,Mozilla/5.0 (Windows NT 6.1; Win64; x64; rv:87.0) Gecko/20100101 Firefox/87.0,,Firefox,87,Windows,6.1
26,1,2382,"""",html-slider-response,294,782594,0.0-294.0,"""","<img src='jspsych/CFDfaces/CFD-BM-210-148-N.jpg' height=""250px"">,</br><b>Joshua</b>","""",256,ConfidenceQuery,Test,"""","""","""","""",CFD-LF-202-065-N.jpg,Jasmine,1,0,54,"""",1,4/19/2021 4:23,157.51.75.19,Mozilla/5.0 (Windows NT 6.1; Win64; x64; rv:87.0) Gecko/20100101 Firefox/87.0,,Firefox,87,Windows,6.1
26,1,null,"""",html-keyboard-response,295,783597,0.0-295.0,"""","<div style=""font-size:60px;"">+</div>","""",256,ITI,Test,null,1000,"""","""","""","""","""","""","""","""",1,4/19/2021 4:23,157.51.75.19,Mozilla/5.0 (Windows NT 6.1; Win64; x64; rv:87.0) Gecko/20100101 Firefox/87.0,,Firefox,87,Windows,6.1
26,1,null,"""",image-keyboard-response,296,783854,0.0-296.0,"""",jspsych/scrambledNeutralFaces/scrambledAF13NES.JPG,"""",256,forwardMask,Test,null,250,"""",n,"""","""","""","""","""","""",1,4/19/2021 4:23,157.51.75.19,Mozilla/5.0 (Windows NT 6.1; Win64; x64; rv:87.0) Gecko/20100101 Firefox/87.0,,Firefox,87,Windows,6.1
26,1,null,"""",image-keyboard-response,297,783876,0.0-297.0,"""",jspsych/neutralFaces/AF13NES.JPG,"""",256,Cue,Test,null,16,"""","""","""","""","""","""","""","""",1,4/19/2021 4:23,157.51.75.19,Mozilla/5.0 (Windows NT 6.1; Win64; x64; rv:87.0) Gecko/20100101 Firefox/87.0,,Firefox,87,Windows,6.1
26,1,null,"""",image-keyboard-response,298,783985,0.0-298.0,"""",jspsych/neutralFaces/AF22NES.JPG,"""",256,backwardMask,Test,null,100,"""","""","""","""","""","""","""","""",1,4/19/2021 4:23,157.51.75.19,Mozilla/5.0 (Windows NT 6.1; Win64; x64; rv:87.0) Gecko/20100101 Firefox/87.0,,Firefox,87,Windows,6.1
