run_id,condition,rt,responses,trial_type,trial_index,time_elapsed,internal_node_id,stimulus,button_pressed,key_press,StimulusDurationSetting,iTrial,Phase,correctResponse,CharacterResponse,recorded_at,ip,user_agent,device,browser,browser_version,platform,platform_version
41,1,74742.455,"{""Q0"":""dryrun2""}",survey-text,0,74754,0.0-0.0,"""","""","""","""","""","""","""","""",11/10/2020 2:01,69.125.145.27,"Mozilla/5.0 (Windows NT 10.0; Win64; x64) AppleWebKit/537.36 (KHTML, like Gecko) Chrome/86.0.4240.183 Safari/537.36",WebKit,Chrome,86.0.4240.183,Windows,10
41,1,17535.58,"""",video-button-response,1,92308,0.0-1.0,"""",0,"""","""","""","""","""","""",11/10/2020 2:01,69.125.145.27,"Mozilla/5.0 (Windows NT 10.0; Win64; x64) AppleWebKit/537.36 (KHTML, like Gecko) Chrome/86.0.4240.183 Safari/537.36",WebKit,Chrome,86.0.4240.183,Windows,10
41,1,null,"""",html-keyboard-response,2,93323,0.0-2.0,"<div style=""font-size:60px;"">+</div>","""",null,1000,1,ITI,"""","""",11/10/2020 2:01,69.125.145.27,"Mozilla/5.0 (Windows NT 10.0; Win64; x64) AppleWebKit/537.36 (KHTML, like Gecko) Chrome/86.0.4240.183 Safari/537.36",WebKit,Chrome,86.0.4240.183,Windows,10
41,1,null,"""",image-keyboard-response,3,93583,0.0-3.0,jspsych/scrambledDisgustFaces/scrambledAM25DIS.JPG,"""",null,250,1,forwardMask,d,"""",11/10/2020 2:01,69.125.145.27,"Mozilla/5.0 (Windows NT 10.0; Win64; x64) AppleWebKit/537.36 (KHTML, like Gecko) Chrome/86.0.4240.183 Safari/537.36",WebKit,Chrome,86.0.4240.183,Windows,10
41,1,null,"""",image-keyboard-response,4,93711,0.0-4.0,jspsych/disgustFaces/AM25DIS.JPG,"""",null,122,1,Cue,"""","""",11/10/2020 2:01,69.125.145.27,"Mozilla/5.0 (Windows NT 10.0; Win64; x64) AppleWebKit/537.36 (KHTML, like Gecko) Chrome/86.0.4240.183 Safari/537.36",WebKit,Chrome,86.0.4240.183,Windows,10
41,1,null,"""",image-keyboard-response,5,93823,0.0-5.0,jspsych/neutralFaces/AM25NES.JPG,"""",null,100,1,backwardMask,"""","""",11/10/2020 2:01,69.125.145.27,"Mozilla/5.0 (Windows NT 10.0; Win64; x64) AppleWebKit/537.36 (KHTML, like Gecko) Chrome/86.0.4240.183 Safari/537.36",WebKit,Chrome,86.0.4240.183,Windows,10
41,1,null,"""",html-keyboard-response,6,94033,0.0-6.0,"<div style=""font-size:60px;"">+</div>","""",null,200,1,fixationBtwnNeutralMaskAndPrompt,"""","""",11/10/2020 2:01,69.125.145.27,"Mozilla/5.0 (Windows NT 10.0; Win64; x64) AppleWebKit/537.36 (KHTML, like Gecko) Chrome/86.0.4240.183 Safari/537.36",WebKit,Chrome,86.0.4240.183,Windows,10
41,1,951.125,"""",html-keyboard-response,7,94986,0.0-7.0,"<p> What was the emotion of the hidden face? <br> Press, <b>d</b> for <i>disgust face</i> or <b>n</b> for <i>neutral face</i></p>","""",68,"""",1,Query,"""",d,11/10/2020 2:01,69.125.145.27,"Mozilla/5.0 (Windows NT 10.0; Win64; x64) AppleWebKit/537.36 (KHTML, like Gecko) Chrome/86.0.4240.183 Safari/537.36",WebKit,Chrome,86.0.4240.183,Windows,10
41,1,null,"""",html-keyboard-response,8,95990,0.0-8.0,"<div style=""font-size:60px;"">+</div>","""",null,1000,2,ITI,"""","""",11/10/2020 2:01,69.125.145.27,"Mozilla/5.0 (Windows NT 10.0; Win64; x64) AppleWebKit/537.36 (KHTML, like Gecko) Chrome/86.0.4240.183 Safari/537.36",WebKit,Chrome,86.0.4240.183,Windows,10
41,1,null,"""",image-keyboard-response,9,96243,0.0-9.0,jspsych/scrambledNeutralFaces/scrambledAM08NES.JPG,"""",null,250,2,forwardMask,n,"""",11/10/2020 2:01,69.125.145.27,"Mozilla/5.0 (Windows NT 10.0; Win64; x64) AppleWebKit/537.36 (KHTML, like Gecko) Chrome/86.0.4240.183 Safari/537.36",WebKit,Chrome,86.0.4240.183,Windows,10
41,1,null,"""",image-keyboard-response,10,96290,0.0-10.0,jspsych/neutralFaces/AM08NES.JPG,"""",null,38,2,Cue,"""","""",11/10/2020 2:01,69.125.145.27,"Mozilla/5.0 (Windows NT 10.0; Win64; x64) AppleWebKit/537.36 (KHTML, like Gecko) Chrome/86.0.4240.183 Safari/537.36",WebKit,Chrome,86.0.4240.183,Windows,10
41,1,null,"""",image-keyboard-response,11,96394,0.0-11.0,jspsych/neutralFaces/BM35NES.JPG,"""",null,100,2,backwardMask,"""","""",11/10/2020 2:01,69.125.145.27,"Mozilla/5.0 (Windows NT 10.0; Win64; x64) AppleWebKit/537.36 (KHTML, like Gecko) Chrome/86.0.4240.183 Safari/537.36",WebKit,Chrome,86.0.4240.183,Windows,10
41,1,null,"""",html-keyboard-response,12,96599,0.0-12.0,"<div style=""font-size:60px;"">+</div>","""",null,200,2,fixationBtwnNeutralMaskAndPrompt,"""","""",11/10/2020 2:01,69.125.145.27,"Mozilla/5.0 (Windows NT 10.0; Win64; x64) AppleWebKit/537.36 (KHTML, like Gecko) Chrome/86.0.4240.183 Safari/537.36",WebKit,Chrome,86.0.4240.183,Windows,10
41,1,590.31,"""",html-keyboard-response,13,97191,0.0-13.0,"<p> What was the emotion of the hidden face? <br> Press, <b>d</b> for <i>disgust face</i> or <b>n</b> for <i>neutral face</i></p>","""",78,"""",2,Query,"""",n,11/10/2020 2:01,69.125.145.27,"Mozilla/5.0 (Windows NT 10.0; Win64; x64) AppleWebKit/537.36 (KHTML, like Gecko) Chrome/86.0.4240.183 Safari/537.36",WebKit,Chrome,86.0.4240.183,Windows,10
41,1,null,"""",html-keyboard-response,14,98193,0.0-14.0,"<div style=""font-size:60px;"">+</div>","""",null,1000,3,ITI,"""","""",11/10/2020 2:01,69.125.145.27,"Mozilla/5.0 (Windows NT 10.0; Win64; x64) AppleWebKit/537.36 (KHTML, like Gecko) Chrome/86.0.4240.183 Safari/537.36",WebKit,Chrome,86.0.4240.183,Windows,10
41,1,null,"""",image-keyboard-response,15,98449,0.0-15.0,jspsych/scrambledNeutralFaces/scrambledBF11NES.JPG,"""",null,250,3,forwardMask,n,"""",11/10/2020 2:01,69.125.145.27,"Mozilla/5.0 (Windows NT 10.0; Win64; x64) AppleWebKit/537.36 (KHTML, like Gecko) Chrome/86.0.4240.183 Safari/537.36",WebKit,Chrome,86.0.4240.183,Windows,10
41,1,null,"""",image-keyboard-response,16,98513,0.0-16.0,jspsych/neutralFaces/BF11NES.JPG,"""",null,60,3,Cue,"""","""",11/10/2020 2:01,69.125.145.27,"Mozilla/5.0 (Windows NT 10.0; Win64; x64) AppleWebKit/537.36 (KHTML, like Gecko) Chrome/86.0.4240.183 Safari/537.36",WebKit,Chrome,86.0.4240.183,Windows,10
41,1,null,"""",image-keyboard-response,17,98616,0.0-17.0,jspsych/neutralFaces/BF01NES.JPG,"""",null,100,3,backwardMask,"""","""",11/10/2020 2:01,69.125.145.27,"Mozilla/5.0 (Windows NT 10.0; Win64; x64) AppleWebKit/537.36 (KHTML, like Gecko) Chrome/86.0.4240.183 Safari/537.36",WebKit,Chrome,86.0.4240.183,Windows,10
41,1,null,"""",html-keyboard-response,18,98819,0.0-18.0,"<div style=""font-size:60px;"">+</div>","""",null,200,3,fixationBtwnNeutralMaskAndPrompt,"""","""",11/10/2020 2:01,69.125.145.27,"Mozilla/5.0 (Windows NT 10.0; Win64; x64) AppleWebKit/537.36 (KHTML, like Gecko) Chrome/86.0.4240.183 Safari/537.36",WebKit,Chrome,86.0.4240.183,Windows,10
41,1,347.28,"""",html-keyboard-response,19,99167,0.0-19.0,"<p> What was the emotion of the hidden face? <br> Press, <b>d</b> for <i>disgust face</i> or <b>n</b> for <i>neutral face</i></p>","""",78,"""",3,Query,"""",n,11/10/2020 2:01,69.125.145.27,"Mozilla/5.0 (Windows NT 10.0; Win64; x64) AppleWebKit/537.36 (KHTML, like Gecko) Chrome/86.0.4240.183 Safari/537.36",WebKit,Chrome,86.0.4240.183,Windows,10
41,1,null,"""",html-keyboard-response,20,100173,0.0-20.0,"<div style=""font-size:60px;"">+</div>","""",null,1000,4,ITI,"""","""",11/10/2020 2:01,69.125.145.27,"Mozilla/5.0 (Windows NT 10.0; Win64; x64) AppleWebKit/537.36 (KHTML, like Gecko) Chrome/86.0.4240.183 Safari/537.36",WebKit,Chrome,86.0.4240.183,Windows,10
41,1,null,"""",image-keyboard-response,21,100433,0.0-21.0,jspsych/scrambledNeutralFaces/scrambledBM05NES.JPG,"""",null,250,4,forwardMask,n,"""",11/10/2020 2:01,69.125.145.27,"Mozilla/5.0 (Windows NT 10.0; Win64; x64) AppleWebKit/537.36 (KHTML, like Gecko) Chrome/86.0.4240.183 Safari/537.36",WebKit,Chrome,86.0.4240.183,Windows,10
41,1,null,"""",image-keyboard-response,22,100560,0.0-22.0,jspsych/neutralFaces/BM05NES.JPG,"""",null,122,4,Cue,"""","""",11/10/2020 2:01,69.125.145.27,"Mozilla/5.0 (Windows NT 10.0; Win64; x64) AppleWebKit/537.36 (KHTML, like Gecko) Chrome/86.0.4240.183 Safari/537.36",WebKit,Chrome,86.0.4240.183,Windows,10
41,1,null,"""",image-keyboard-response,23,100663,0.0-23.0,jspsych/neutralFaces/BF29NES.JPG,"""",null,100,4,backwardMask,"""","""",11/10/2020 2:01,69.125.145.27,"Mozilla/5.0 (Windows NT 10.0; Win64; x64) AppleWebKit/537.36 (KHTML, like Gecko) Chrome/86.0.4240.183 Safari/537.36",WebKit,Chrome,86.0.4240.183,Windows,10
41,1,null,"""",html-keyboard-response,24,100873,0.0-24.0,"<div style=""font-size:60px;"">+</div>","""",null,200,4,fixationBtwnNeutralMaskAndPrompt,"""","""",11/10/2020 2:01,69.125.145.27,"Mozilla/5.0 (Windows NT 10.0; Win64; x64) AppleWebKit/537.36 (KHTML, like Gecko) Chrome/86.0.4240.183 Safari/537.36",WebKit,Chrome,86.0.4240.183,Windows,10
41,1,479.04,"""",html-keyboard-response,25,101353,0.0-25.0,"<p> What was the emotion of the hidden face? <br> Press, <b>d</b> for <i>disgust face</i> or <b>n</b> for <i>neutral face</i></p>","""",78,"""",4,Query,"""",n,11/10/2020 2:01,69.125.145.27,"Mozilla/5.0 (Windows NT 10.0; Win64; x64) AppleWebKit/537.36 (KHTML, like Gecko) Chrome/86.0.4240.183 Safari/537.36",WebKit,Chrome,86.0.4240.183,Windows,10
41,1,null,"""",html-keyboard-response,26,102363,0.0-26.0,"<div style=""font-size:60px;"">+</div>","""",null,1000,5,ITI,"""","""",11/10/2020 2:01,69.125.145.27,"Mozilla/5.0 (Windows NT 10.0; Win64; x64) AppleWebKit/537.36 (KHTML, like Gecko) Chrome/86.0.4240.183 Safari/537.36",WebKit,Chrome,86.0.4240.183,Windows,10
41,1,null,"""",image-keyboard-response,27,102623,0.0-27.0,jspsych/scrambledDisgustFaces/scrambledAF28DIS.JPG,"""",null,250,5,forwardMask,d,"""",11/10/2020 2:01,69.125.145.27,"Mozilla/5.0 (Windows NT 10.0; Win64; x64) AppleWebKit/537.36 (KHTML, like Gecko) Chrome/86.0.4240.183 Safari/537.36",WebKit,Chrome,86.0.4240.183,Windows,10
41,1,null,"""",image-keyboard-response,28,102753,0.0-28.0,jspsych/disgustFaces/AF28DIS.JPG,"""",null,122,5,Cue,"""","""",11/10/2020 2:01,69.125.145.27,"Mozilla/5.0 (Windows NT 10.0; Win64; x64) AppleWebKit/537.36 (KHTML, like Gecko) Chrome/86.0.4240.183 Safari/537.36",WebKit,Chrome,86.0.4240.183,Windows,10
41,1,null,"""",image-keyboard-response,29,102861,0.0-29.0,jspsych/neutralFaces/AF35NES.JPG,"""",null,100,5,backwardMask,"""","""",11/10/2020 2:01,69.125.145.27,"Mozilla/5.0 (Windows NT 10.0; Win64; x64) AppleWebKit/537.36 (KHTML, like Gecko) Chrome/86.0.4240.183 Safari/537.36",WebKit,Chrome,86.0.4240.183,Windows,10
41,1,null,"""",html-keyboard-response,30,103066,0.0-30.0,"<div style=""font-size:60px;"">+</div>","""",null,200,5,fixationBtwnNeutralMaskAndPrompt,"""","""",11/10/2020 2:01,69.125.145.27,"Mozilla/5.0 (Windows NT 10.0; Win64; x64) AppleWebKit/537.36 (KHTML, like Gecko) Chrome/86.0.4240.183 Safari/537.36",WebKit,Chrome,86.0.4240.183,Windows,10
41,1,216.12,"""",html-keyboard-response,31,103284,0.0-31.0,"<p> What was the emotion of the hidden face? <br> Press, <b>d</b> for <i>disgust face</i> or <b>n</b> for <i>neutral face</i></p>","""",68,"""",5,Query,"""",d,11/10/2020 2:01,69.125.145.27,"Mozilla/5.0 (Windows NT 10.0; Win64; x64) AppleWebKit/537.36 (KHTML, like Gecko) Chrome/86.0.4240.183 Safari/537.36",WebKit,Chrome,86.0.4240.183,Windows,10
41,1,null,"""",html-keyboard-response,32,104286,0.0-32.0,"<div style=""font-size:60px;"">+</div>","""",null,1000,6,ITI,"""","""",11/10/2020 2:01,69.125.145.27,"Mozilla/5.0 (Windows NT 10.0; Win64; x64) AppleWebKit/537.36 (KHTML, like Gecko) Chrome/86.0.4240.183 Safari/537.36",WebKit,Chrome,86.0.4240.183,Windows,10
41,1,null,"""",image-keyboard-response,33,104540,0.0-33.0,jspsych/scrambledDisgustFaces/scrambledAM29DIS.JPG,"""",null,250,6,forwardMask,d,"""",11/10/2020 2:01,69.125.145.27,"Mozilla/5.0 (Windows NT 10.0; Win64; x64) AppleWebKit/537.36 (KHTML, like Gecko) Chrome/86.0.4240.183 Safari/537.36",WebKit,Chrome,86.0.4240.183,Windows,10
41,1,null,"""",image-keyboard-response,34,104584,0.0-34.0,jspsych/disgustFaces/AM29DIS.JPG,"""",null,38,6,Cue,"""","""",11/10/2020 2:01,69.125.145.27,"Mozilla/5.0 (Windows NT 10.0; Win64; x64) AppleWebKit/537.36 (KHTML, like Gecko) Chrome/86.0.4240.183 Safari/537.36",WebKit,Chrome,86.0.4240.183,Windows,10
41,1,null,"""",image-keyboard-response,35,104689,0.0-35.0,jspsych/neutralFaces/BM04NES.JPG,"""",null,100,6,backwardMask,"""","""",11/10/2020 2:01,69.125.145.27,"Mozilla/5.0 (Windows NT 10.0; Win64; x64) AppleWebKit/537.36 (KHTML, like Gecko) Chrome/86.0.4240.183 Safari/537.36",WebKit,Chrome,86.0.4240.183,Windows,10
41,1,null,"""",html-keyboard-response,36,104892,0.0-36.0,"<div style=""font-size:60px;"">+</div>","""",null,200,6,fixationBtwnNeutralMaskAndPrompt,"""","""",11/10/2020 2:01,69.125.145.27,"Mozilla/5.0 (Windows NT 10.0; Win64; x64) AppleWebKit/537.36 (KHTML, like Gecko) Chrome/86.0.4240.183 Safari/537.36",WebKit,Chrome,86.0.4240.183,Windows,10
41,1,425.615,"""",html-keyboard-response,37,105319,0.0-37.0,"<p> What was the emotion of the hidden face? <br> Press, <b>d</b> for <i>disgust face</i> or <b>n</b> for <i>neutral face</i></p>","""",78,"""",6,Query,"""",n,11/10/2020 2:01,69.125.145.27,"Mozilla/5.0 (Windows NT 10.0; Win64; x64) AppleWebKit/537.36 (KHTML, like Gecko) Chrome/86.0.4240.183 Safari/537.36",WebKit,Chrome,86.0.4240.183,Windows,10
41,1,null,"""",html-keyboard-response,38,106324,0.0-38.0,"<div style=""font-size:60px;"">+</div>","""",null,1000,7,ITI,"""","""",11/10/2020 2:01,69.125.145.27,"Mozilla/5.0 (Windows NT 10.0; Win64; x64) AppleWebKit/537.36 (KHTML, like Gecko) Chrome/86.0.4240.183 Safari/537.36",WebKit,Chrome,86.0.4240.183,Windows,10
41,1,null,"""",image-keyboard-response,39,106579,0.0-39.0,jspsych/scrambledDisgustFaces/scrambledAF03DIS.JPG,"""",null,250,7,forwardMask,d,"""",11/10/2020 2:01,69.125.145.27,"Mozilla/5.0 (Windows NT 10.0; Win64; x64) AppleWebKit/537.36 (KHTML, like Gecko) Chrome/86.0.4240.183 Safari/537.36",WebKit,Chrome,86.0.4240.183,Windows,10
41,1,null,"""",image-keyboard-response,40,106610,0.0-40.0,jspsych/disgustFaces/AF03DIS.JPG,"""",null,26,7,Cue,"""","""",11/10/2020 2:01,69.125.145.27,"Mozilla/5.0 (Windows NT 10.0; Win64; x64) AppleWebKit/537.36 (KHTML, like Gecko) Chrome/86.0.4240.183 Safari/537.36",WebKit,Chrome,86.0.4240.183,Windows,10
41,1,null,"""",image-keyboard-response,41,106713,0.0-41.0,jspsych/neutralFaces/AF27NES.JPG,"""",null,100,7,backwardMask,"""","""",11/10/2020 2:01,69.125.145.27,"Mozilla/5.0 (Windows NT 10.0; Win64; x64) AppleWebKit/537.36 (KHTML, like Gecko) Chrome/86.0.4240.183 Safari/537.36",WebKit,Chrome,86.0.4240.183,Windows,10
41,1,null,"""",html-keyboard-response,42,106918,0.0-42.0,"<div style=""font-size:60px;"">+</div>","""",null,200,7,fixationBtwnNeutralMaskAndPrompt,"""","""",11/10/2020 2:01,69.125.145.27,"Mozilla/5.0 (Windows NT 10.0; Win64; x64) AppleWebKit/537.36 (KHTML, like Gecko) Chrome/86.0.4240.183 Safari/537.36",WebKit,Chrome,86.0.4240.183,Windows,10
41,1,410.22,"""",html-keyboard-response,43,107329,0.0-43.0,"<p> What was the emotion of the hidden face? <br> Press, <b>d</b> for <i>disgust face</i> or <b>n</b> for <i>neutral face</i></p>","""",68,"""",7,Query,"""",d,11/10/2020 2:01,69.125.145.27,"Mozilla/5.0 (Windows NT 10.0; Win64; x64) AppleWebKit/537.36 (KHTML, like Gecko) Chrome/86.0.4240.183 Safari/537.36",WebKit,Chrome,86.0.4240.183,Windows,10
41,1,null,"""",html-keyboard-response,44,108338,0.0-44.0,"<div style=""font-size:60px;"">+</div>","""",null,1000,8,ITI,"""","""",11/10/2020 2:01,69.125.145.27,"Mozilla/5.0 (Windows NT 10.0; Win64; x64) AppleWebKit/537.36 (KHTML, like Gecko) Chrome/86.0.4240.183 Safari/537.36",WebKit,Chrome,86.0.4240.183,Windows,10
41,1,null,"""",image-keyboard-response,45,108598,0.0-45.0,jspsych/scrambledNeutralFaces/scrambledBM32NES.JPG,"""",null,250,8,forwardMask,n,"""",11/10/2020 2:01,69.125.145.27,"Mozilla/5.0 (Windows NT 10.0; Win64; x64) AppleWebKit/537.36 (KHTML, like Gecko) Chrome/86.0.4240.183 Safari/537.36",WebKit,Chrome,86.0.4240.183,Windows,10
41,1,null,"""",image-keyboard-response,46,108631,0.0-46.0,jspsych/neutralFaces/BM32NES.JPG,"""",null,26,8,Cue,"""","""",11/10/2020 2:01,69.125.145.27,"Mozilla/5.0 (Windows NT 10.0; Win64; x64) AppleWebKit/537.36 (KHTML, like Gecko) Chrome/86.0.4240.183 Safari/537.36",WebKit,Chrome,86.0.4240.183,Windows,10
41,1,null,"""",image-keyboard-response,47,108743,0.0-47.0,jspsych/neutralFaces/BF05NES.JPG,"""",null,100,8,backwardMask,"""","""",11/10/2020 2:01,69.125.145.27,"Mozilla/5.0 (Windows NT 10.0; Win64; x64) AppleWebKit/537.36 (KHTML, like Gecko) Chrome/86.0.4240.183 Safari/537.36",WebKit,Chrome,86.0.4240.183,Windows,10
41,1,null,"""",html-keyboard-response,48,108948,0.0-48.0,"<div style=""font-size:60px;"">+</div>","""",null,200,8,fixationBtwnNeutralMaskAndPrompt,"""","""",11/10/2020 2:01,69.125.145.27,"Mozilla/5.0 (Windows NT 10.0; Win64; x64) AppleWebKit/537.36 (KHTML, like Gecko) Chrome/86.0.4240.183 Safari/537.36",WebKit,Chrome,86.0.4240.183,Windows,10
41,1,396.5,"""",html-keyboard-response,49,109346,0.0-49.0,"<p> What was the emotion of the hidden face? <br> Press, <b>d</b> for <i>disgust face</i> or <b>n</b> for <i>neutral face</i></p>","""",68,"""",8,Query,"""",d,11/10/2020 2:01,69.125.145.27,"Mozilla/5.0 (Windows NT 10.0; Win64; x64) AppleWebKit/537.36 (KHTML, like Gecko) Chrome/86.0.4240.183 Safari/537.36",WebKit,Chrome,86.0.4240.183,Windows,10
41,1,null,"""",html-keyboard-response,50,110348,0.0-50.0,"<div style=""font-size:60px;"">+</div>","""",null,1000,9,ITI,"""","""",11/10/2020 2:01,69.125.145.27,"Mozilla/5.0 (Windows NT 10.0; Win64; x64) AppleWebKit/537.36 (KHTML, like Gecko) Chrome/86.0.4240.183 Safari/537.36",WebKit,Chrome,86.0.4240.183,Windows,10
41,1,null,"""",image-keyboard-response,51,110605,0.0-51.0,jspsych/scrambledDisgustFaces/scrambledAM30DIS.JPG,"""",null,250,9,forwardMask,d,"""",11/10/2020 2:01,69.125.145.27,"Mozilla/5.0 (Windows NT 10.0; Win64; x64) AppleWebKit/537.36 (KHTML, like Gecko) Chrome/86.0.4240.183 Safari/537.36",WebKit,Chrome,86.0.4240.183,Windows,10
41,1,null,"""",image-keyboard-response,52,110675,0.0-52.0,jspsych/disgustFaces/AM30DIS.JPG,"""",null,60,9,Cue,"""","""",11/10/2020 2:01,69.125.145.27,"Mozilla/5.0 (Windows NT 10.0; Win64; x64) AppleWebKit/537.36 (KHTML, like Gecko) Chrome/86.0.4240.183 Safari/537.36",WebKit,Chrome,86.0.4240.183,Windows,10
41,1,null,"""",image-keyboard-response,53,110781,0.0-53.0,jspsych/neutralFaces/BM31NES.JPG,"""",null,100,9,backwardMask,"""","""",11/10/2020 2:01,69.125.145.27,"Mozilla/5.0 (Windows NT 10.0; Win64; x64) AppleWebKit/537.36 (KHTML, like Gecko) Chrome/86.0.4240.183 Safari/537.36",WebKit,Chrome,86.0.4240.183,Windows,10
41,1,null,"""",html-keyboard-response,54,110990,0.0-54.0,"<div style=""font-size:60px;"">+</div>","""",null,200,9,fixationBtwnNeutralMaskAndPrompt,"""","""",11/10/2020 2:01,69.125.145.27,"Mozilla/5.0 (Windows NT 10.0; Win64; x64) AppleWebKit/537.36 (KHTML, like Gecko) Chrome/86.0.4240.183 Safari/537.36",WebKit,Chrome,86.0.4240.183,Windows,10
41,1,338.55,"""",html-keyboard-response,55,111330,0.0-55.0,"<p> What was the emotion of the hidden face? <br> Press, <b>d</b> for <i>disgust face</i> or <b>n</b> for <i>neutral face</i></p>","""",68,"""",9,Query,"""",d,11/10/2020 2:01,69.125.145.27,"Mozilla/5.0 (Windows NT 10.0; Win64; x64) AppleWebKit/537.36 (KHTML, like Gecko) Chrome/86.0.4240.183 Safari/537.36",WebKit,Chrome,86.0.4240.183,Windows,10
41,1,null,"""",html-keyboard-response,56,112338,0.0-56.0,"<div style=""font-size:60px;"">+</div>","""",null,1000,10,ITI,"""","""",11/10/2020 2:01,69.125.145.27,"Mozilla/5.0 (Windows NT 10.0; Win64; x64) AppleWebKit/537.36 (KHTML, like Gecko) Chrome/86.0.4240.183 Safari/537.36",WebKit,Chrome,86.0.4240.183,Windows,10
41,1,null,"""",image-keyboard-response,57,112590,0.0-57.0,jspsych/scrambledDisgustFaces/scrambledBM05DIS.JPG,"""",null,250,10,forwardMask,d,"""",11/10/2020 2:01,69.125.145.27,"Mozilla/5.0 (Windows NT 10.0; Win64; x64) AppleWebKit/537.36 (KHTML, like Gecko) Chrome/86.0.4240.183 Safari/537.36",WebKit,Chrome,86.0.4240.183,Windows,10
41,1,null,"""",image-keyboard-response,58,112656,0.0-58.0,jspsych/disgustFaces/BM05DIS.JPG,"""",null,60,10,Cue,"""","""",11/10/2020 2:01,69.125.145.27,"Mozilla/5.0 (Windows NT 10.0; Win64; x64) AppleWebKit/537.36 (KHTML, like Gecko) Chrome/86.0.4240.183 Safari/537.36",WebKit,Chrome,86.0.4240.183,Windows,10
41,1,null,"""",image-keyboard-response,59,112764,0.0-59.0,jspsych/neutralFaces/BF03NES.JPG,"""",null,100,10,backwardMask,"""","""",11/10/2020 2:01,69.125.145.27,"Mozilla/5.0 (Windows NT 10.0; Win64; x64) AppleWebKit/537.36 (KHTML, like Gecko) Chrome/86.0.4240.183 Safari/537.36",WebKit,Chrome,86.0.4240.183,Windows,10
41,1,null,"""",html-keyboard-response,60,112972,0.0-60.0,"<div style=""font-size:60px;"">+</div>","""",null,200,10,fixationBtwnNeutralMaskAndPrompt,"""","""",11/10/2020 2:01,69.125.145.27,"Mozilla/5.0 (Windows NT 10.0; Win64; x64) AppleWebKit/537.36 (KHTML, like Gecko) Chrome/86.0.4240.183 Safari/537.36",WebKit,Chrome,86.0.4240.183,Windows,10
41,1,170.42,"""",html-keyboard-response,61,113144,0.0-61.0,"<p> What was the emotion of the hidden face? <br> Press, <b>d</b> for <i>disgust face</i> or <b>n</b> for <i>neutral face</i></p>","""",68,"""",10,Query,"""",d,11/10/2020 2:01,69.125.145.27,"Mozilla/5.0 (Windows NT 10.0; Win64; x64) AppleWebKit/537.36 (KHTML, like Gecko) Chrome/86.0.4240.183 Safari/537.36",WebKit,Chrome,86.0.4240.183,Windows,10
41,1,null,"""",html-keyboard-response,62,114152,0.0-62.0,"<div style=""font-size:60px;"">+</div>","""",null,1000,11,ITI,"""","""",11/10/2020 2:01,69.125.145.27,"Mozilla/5.0 (Windows NT 10.0; Win64; x64) AppleWebKit/537.36 (KHTML, like Gecko) Chrome/86.0.4240.183 Safari/537.36",WebKit,Chrome,86.0.4240.183,Windows,10
41,1,null,"""",image-keyboard-response,63,114417,0.0-63.0,jspsych/scrambledDisgustFaces/scrambledAM17DIS.JPG,"""",null,250,11,forwardMask,d,"""",11/10/2020 2:01,69.125.145.27,"Mozilla/5.0 (Windows NT 10.0; Win64; x64) AppleWebKit/537.36 (KHTML, like Gecko) Chrome/86.0.4240.183 Safari/537.36",WebKit,Chrome,86.0.4240.183,Windows,10
41,1,null,"""",image-keyboard-response,64,114436,0.0-64.0,jspsych/disgustFaces/AM17DIS.JPG,"""",null,9,11,Cue,"""","""",11/10/2020 2:01,69.125.145.27,"Mozilla/5.0 (Windows NT 10.0; Win64; x64) AppleWebKit/537.36 (KHTML, like Gecko) Chrome/86.0.4240.183 Safari/537.36",WebKit,Chrome,86.0.4240.183,Windows,10
41,1,null,"""",image-keyboard-response,65,114547,0.0-65.0,jspsych/neutralFaces/AM08NES.JPG,"""",null,100,11,backwardMask,"""","""",11/10/2020 2:01,69.125.145.27,"Mozilla/5.0 (Windows NT 10.0; Win64; x64) AppleWebKit/537.36 (KHTML, like Gecko) Chrome/86.0.4240.183 Safari/537.36",WebKit,Chrome,86.0.4240.183,Windows,10
41,1,null,"""",html-keyboard-response,66,114757,0.0-66.0,"<div style=""font-size:60px;"">+</div>","""",null,200,11,fixationBtwnNeutralMaskAndPrompt,"""","""",11/10/2020 2:01,69.125.145.27,"Mozilla/5.0 (Windows NT 10.0; Win64; x64) AppleWebKit/537.36 (KHTML, like Gecko) Chrome/86.0.4240.183 Safari/537.36",WebKit,Chrome,86.0.4240.183,Windows,10
41,1,299.37,"""",html-keyboard-response,67,115058,0.0-67.0,"<p> What was the emotion of the hidden face? <br> Press, <b>d</b> for <i>disgust face</i> or <b>n</b> for <i>neutral face</i></p>","""",78,"""",11,Query,"""",n,11/10/2020 2:01,69.125.145.27,"Mozilla/5.0 (Windows NT 10.0; Win64; x64) AppleWebKit/537.36 (KHTML, like Gecko) Chrome/86.0.4240.183 Safari/537.36",WebKit,Chrome,86.0.4240.183,Windows,10
41,1,null,"""",html-keyboard-response,68,116066,0.0-68.0,"<div style=""font-size:60px;"">+</div>","""",null,1000,12,ITI,"""","""",11/10/2020 2:01,69.125.145.27,"Mozilla/5.0 (Windows NT 10.0; Win64; x64) AppleWebKit/537.36 (KHTML, like Gecko) Chrome/86.0.4240.183 Safari/537.36",WebKit,Chrome,86.0.4240.183,Windows,10
41,1,null,"""",image-keyboard-response,69,116327,0.0-69.0,jspsych/scrambledNeutralFaces/scrambledBM09NES.JPG,"""",null,250,12,forwardMask,n,"""",11/10/2020 2:01,69.125.145.27,"Mozilla/5.0 (Windows NT 10.0; Win64; x64) AppleWebKit/537.36 (KHTML, like Gecko) Chrome/86.0.4240.183 Safari/537.36",WebKit,Chrome,86.0.4240.183,Windows,10
41,1,null,"""",image-keyboard-response,70,116459,0.0-70.0,jspsych/neutralFaces/BM09NES.JPG,"""",null,122,12,Cue,"""","""",11/10/2020 2:01,69.125.145.27,"Mozilla/5.0 (Windows NT 10.0; Win64; x64) AppleWebKit/537.36 (KHTML, like Gecko) Chrome/86.0.4240.183 Safari/537.36",WebKit,Chrome,86.0.4240.183,Windows,10
41,1,null,"""",image-keyboard-response,71,116564,0.0-71.0,jspsych/neutralFaces/AM11NES.JPG,"""",null,100,12,backwardMask,"""","""",11/10/2020 2:01,69.125.145.27,"Mozilla/5.0 (Windows NT 10.0; Win64; x64) AppleWebKit/537.36 (KHTML, like Gecko) Chrome/86.0.4240.183 Safari/537.36",WebKit,Chrome,86.0.4240.183,Windows,10
41,1,null,"""",html-keyboard-response,72,116770,0.0-72.0,"<div style=""font-size:60px;"">+</div>","""",null,200,12,fixationBtwnNeutralMaskAndPrompt,"""","""",11/10/2020 2:01,69.125.145.27,"Mozilla/5.0 (Windows NT 10.0; Win64; x64) AppleWebKit/537.36 (KHTML, like Gecko) Chrome/86.0.4240.183 Safari/537.36",WebKit,Chrome,86.0.4240.183,Windows,10
41,1,248.285,"""",html-keyboard-response,73,117020,0.0-73.0,"<p> What was the emotion of the hidden face? <br> Press, <b>d</b> for <i>disgust face</i> or <b>n</b> for <i>neutral face</i></p>","""",78,"""",12,Query,"""",n,11/10/2020 2:01,69.125.145.27,"Mozilla/5.0 (Windows NT 10.0; Win64; x64) AppleWebKit/537.36 (KHTML, like Gecko) Chrome/86.0.4240.183 Safari/537.36",WebKit,Chrome,86.0.4240.183,Windows,10
41,1,null,"""",html-keyboard-response,74,118033,0.0-74.0,"<div style=""font-size:60px;"">+</div>","""",null,1000,13,ITI,"""","""",11/10/2020 2:01,69.125.145.27,"Mozilla/5.0 (Windows NT 10.0; Win64; x64) AppleWebKit/537.36 (KHTML, like Gecko) Chrome/86.0.4240.183 Safari/537.36",WebKit,Chrome,86.0.4240.183,Windows,10
41,1,null,"""",image-keyboard-response,75,118292,0.0-75.0,jspsych/scrambledDisgustFaces/scrambledAF26DIS.JPG,"""",null,250,13,forwardMask,d,"""",11/10/2020 2:01,69.125.145.27,"Mozilla/5.0 (Windows NT 10.0; Win64; x64) AppleWebKit/537.36 (KHTML, like Gecko) Chrome/86.0.4240.183 Safari/537.36",WebKit,Chrome,86.0.4240.183,Windows,10
41,1,null,"""",image-keyboard-response,76,118418,0.0-76.0,jspsych/disgustFaces/AF26DIS.JPG,"""",null,122,13,Cue,"""","""",11/10/2020 2:01,69.125.145.27,"Mozilla/5.0 (Windows NT 10.0; Win64; x64) AppleWebKit/537.36 (KHTML, like Gecko) Chrome/86.0.4240.183 Safari/537.36",WebKit,Chrome,86.0.4240.183,Windows,10
41,1,null,"""",image-keyboard-response,77,118528,0.0-77.0,jspsych/neutralFaces/AF04NES.JPG,"""",null,100,13,backwardMask,"""","""",11/10/2020 2:01,69.125.145.27,"Mozilla/5.0 (Windows NT 10.0; Win64; x64) AppleWebKit/537.36 (KHTML, like Gecko) Chrome/86.0.4240.183 Safari/537.36",WebKit,Chrome,86.0.4240.183,Windows,10
41,1,null,"""",html-keyboard-response,78,118731,0.0-78.0,"<div style=""font-size:60px;"">+</div>","""",null,200,13,fixationBtwnNeutralMaskAndPrompt,"""","""",11/10/2020 2:01,69.125.145.27,"Mozilla/5.0 (Windows NT 10.0; Win64; x64) AppleWebKit/537.36 (KHTML, like Gecko) Chrome/86.0.4240.183 Safari/537.36",WebKit,Chrome,86.0.4240.183,Windows,10
41,1,73.55500001,"""",html-keyboard-response,79,118805,0.0-79.0,"<p> What was the emotion of the hidden face? <br> Press, <b>d</b> for <i>disgust face</i> or <b>n</b> for <i>neutral face</i></p>","""",68,"""",13,Query,"""",d,11/10/2020 2:01,69.125.145.27,"Mozilla/5.0 (Windows NT 10.0; Win64; x64) AppleWebKit/537.36 (KHTML, like Gecko) Chrome/86.0.4240.183 Safari/537.36",WebKit,Chrome,86.0.4240.183,Windows,10
41,1,null,"""",html-keyboard-response,80,119808,0.0-80.0,"<div style=""font-size:60px;"">+</div>","""",null,1000,14,ITI,"""","""",11/10/2020 2:01,69.125.145.27,"Mozilla/5.0 (Windows NT 10.0; Win64; x64) AppleWebKit/537.36 (KHTML, like Gecko) Chrome/86.0.4240.183 Safari/537.36",WebKit,Chrome,86.0.4240.183,Windows,10
41,1,null,"""",image-keyboard-response,81,120065,0.0-81.0,jspsych/scrambledNeutralFaces/scrambledAM14NES.JPG,"""",null,250,14,forwardMask,n,"""",11/10/2020 2:01,69.125.145.27,"Mozilla/5.0 (Windows NT 10.0; Win64; x64) AppleWebKit/537.36 (KHTML, like Gecko) Chrome/86.0.4240.183 Safari/537.36",WebKit,Chrome,86.0.4240.183,Windows,10
41,1,null,"""",image-keyboard-response,82,120131,0.0-82.0,jspsych/neutralFaces/AM14NES.JPG,"""",null,60,14,Cue,"""","""",11/10/2020 2:01,69.125.145.27,"Mozilla/5.0 (Windows NT 10.0; Win64; x64) AppleWebKit/537.36 (KHTML, like Gecko) Chrome/86.0.4240.183 Safari/537.36",WebKit,Chrome,86.0.4240.183,Windows,10
41,1,null,"""",image-keyboard-response,83,120234,0.0-83.0,jspsych/neutralFaces/BM25NES.JPG,"""",null,100,14,backwardMask,"""","""",11/10/2020 2:01,69.125.145.27,"Mozilla/5.0 (Windows NT 10.0; Win64; x64) AppleWebKit/537.36 (KHTML, like Gecko) Chrome/86.0.4240.183 Safari/537.36",WebKit,Chrome,86.0.4240.183,Windows,10
41,1,null,"""",html-keyboard-response,84,120436,0.0-84.0,"<div style=""font-size:60px;"">+</div>","""",null,200,14,fixationBtwnNeutralMaskAndPrompt,"""","""",11/10/2020 2:01,69.125.145.27,"Mozilla/5.0 (Windows NT 10.0; Win64; x64) AppleWebKit/537.36 (KHTML, like Gecko) Chrome/86.0.4240.183 Safari/537.36",WebKit,Chrome,86.0.4240.183,Windows,10
41,1,184.875,"""",html-keyboard-response,85,120622,0.0-85.0,"<p> What was the emotion of the hidden face? <br> Press, <b>d</b> for <i>disgust face</i> or <b>n</b> for <i>neutral face</i></p>","""",78,"""",14,Query,"""",n,11/10/2020 2:01,69.125.145.27,"Mozilla/5.0 (Windows NT 10.0; Win64; x64) AppleWebKit/537.36 (KHTML, like Gecko) Chrome/86.0.4240.183 Safari/537.36",WebKit,Chrome,86.0.4240.183,Windows,10
41,1,null,"""",html-keyboard-response,86,121624,0.0-86.0,"<div style=""font-size:60px;"">+</div>","""",null,1000,15,ITI,"""","""",11/10/2020 2:01,69.125.145.27,"Mozilla/5.0 (Windows NT 10.0; Win64; x64) AppleWebKit/537.36 (KHTML, like Gecko) Chrome/86.0.4240.183 Safari/537.36",WebKit,Chrome,86.0.4240.183,Windows,10
41,1,null,"""",image-keyboard-response,87,121877,0.0-87.0,jspsych/scrambledNeutralFaces/scrambledAM08NES.JPG,"""",null,250,15,forwardMask,n,"""",11/10/2020 2:01,69.125.145.27,"Mozilla/5.0 (Windows NT 10.0; Win64; x64) AppleWebKit/537.36 (KHTML, like Gecko) Chrome/86.0.4240.183 Safari/537.36",WebKit,Chrome,86.0.4240.183,Windows,10
41,1,null,"""",image-keyboard-response,88,121979,0.0-88.0,jspsych/neutralFaces/AM08NES.JPG,"""",null,92,15,Cue,"""","""",11/10/2020 2:01,69.125.145.27,"Mozilla/5.0 (Windows NT 10.0; Win64; x64) AppleWebKit/537.36 (KHTML, like Gecko) Chrome/86.0.4240.183 Safari/537.36",WebKit,Chrome,86.0.4240.183,Windows,10
41,1,null,"""",image-keyboard-response,89,122086,0.0-89.0,jspsych/neutralFaces/BM22NES.JPG,"""",null,100,15,backwardMask,"""","""",11/10/2020 2:01,69.125.145.27,"Mozilla/5.0 (Windows NT 10.0; Win64; x64) AppleWebKit/537.36 (KHTML, like Gecko) Chrome/86.0.4240.183 Safari/537.36",WebKit,Chrome,86.0.4240.183,Windows,10
41,1,null,"""",html-keyboard-response,90,122288,0.0-90.0,"<div style=""font-size:60px;"">+</div>","""",null,200,15,fixationBtwnNeutralMaskAndPrompt,"""","""",11/10/2020 2:01,69.125.145.27,"Mozilla/5.0 (Windows NT 10.0; Win64; x64) AppleWebKit/537.36 (KHTML, like Gecko) Chrome/86.0.4240.183 Safari/537.36",WebKit,Chrome,86.0.4240.183,Windows,10
41,1,266.36,"""",html-keyboard-response,91,122555,0.0-91.0,"<p> What was the emotion of the hidden face? <br> Press, <b>d</b> for <i>disgust face</i> or <b>n</b> for <i>neutral face</i></p>","""",78,"""",15,Query,"""",n,11/10/2020 2:01,69.125.145.27,"Mozilla/5.0 (Windows NT 10.0; Win64; x64) AppleWebKit/537.36 (KHTML, like Gecko) Chrome/86.0.4240.183 Safari/537.36",WebKit,Chrome,86.0.4240.183,Windows,10
41,1,null,"""",html-keyboard-response,92,123559,0.0-92.0,"<div style=""font-size:60px;"">+</div>","""",null,1000,16,ITI,"""","""",11/10/2020 2:01,69.125.145.27,"Mozilla/5.0 (Windows NT 10.0; Win64; x64) AppleWebKit/537.36 (KHTML, like Gecko) Chrome/86.0.4240.183 Safari/537.36",WebKit,Chrome,86.0.4240.183,Windows,10
41,1,null,"""",image-keyboard-response,93,123818,0.0-93.0,jspsych/scrambledDisgustFaces/scrambledAM09DIS.JPG,"""",null,250,16,forwardMask,d,"""",11/10/2020 2:01,69.125.145.27,"Mozilla/5.0 (Windows NT 10.0; Win64; x64) AppleWebKit/537.36 (KHTML, like Gecko) Chrome/86.0.4240.183 Safari/537.36",WebKit,Chrome,86.0.4240.183,Windows,10
41,1,null,"""",image-keyboard-response,94,123914,0.0-94.0,jspsych/disgustFaces/AM09DIS.JPG,"""",null,92,16,Cue,"""","""",11/10/2020 2:01,69.125.145.27,"Mozilla/5.0 (Windows NT 10.0; Win64; x64) AppleWebKit/537.36 (KHTML, like Gecko) Chrome/86.0.4240.183 Safari/537.36",WebKit,Chrome,86.0.4240.183,Windows,10
41,1,null,"""",image-keyboard-response,95,124020,0.0-95.0,jspsych/neutralFaces/AF26NES.JPG,"""",null,100,16,backwardMask,"""","""",11/10/2020 2:01,69.125.145.27,"Mozilla/5.0 (Windows NT 10.0; Win64; x64) AppleWebKit/537.36 (KHTML, like Gecko) Chrome/86.0.4240.183 Safari/537.36",WebKit,Chrome,86.0.4240.183,Windows,10
41,1,null,"""",html-keyboard-response,96,124222,0.0-96.0,"<div style=""font-size:60px;"">+</div>","""",null,200,16,fixationBtwnNeutralMaskAndPrompt,"""","""",11/10/2020 2:01,69.125.145.27,"Mozilla/5.0 (Windows NT 10.0; Win64; x64) AppleWebKit/537.36 (KHTML, like Gecko) Chrome/86.0.4240.183 Safari/537.36",WebKit,Chrome,86.0.4240.183,Windows,10
41,1,142.535,"""",html-keyboard-response,97,124366,0.0-97.0,"<p> What was the emotion of the hidden face? <br> Press, <b>d</b> for <i>disgust face</i> or <b>n</b> for <i>neutral face</i></p>","""",68,"""",16,Query,"""",d,11/10/2020 2:01,69.125.145.27,"Mozilla/5.0 (Windows NT 10.0; Win64; x64) AppleWebKit/537.36 (KHTML, like Gecko) Chrome/86.0.4240.183 Safari/537.36",WebKit,Chrome,86.0.4240.183,Windows,10
41,1,null,"""",html-keyboard-response,98,125373,0.0-98.0,"<div style=""font-size:60px;"">+</div>","""",null,1000,17,ITI,"""","""",11/10/2020 2:01,69.125.145.27,"Mozilla/5.0 (Windows NT 10.0; Win64; x64) AppleWebKit/537.36 (KHTML, like Gecko) Chrome/86.0.4240.183 Safari/537.36",WebKit,Chrome,86.0.4240.183,Windows,10
41,1,null,"""",image-keyboard-response,99,125626,0.0-99.0,jspsych/scrambledNeutralFaces/scrambledBF22NES.JPG,"""",null,250,17,forwardMask,n,"""",11/10/2020 2:01,69.125.145.27,"Mozilla/5.0 (Windows NT 10.0; Win64; x64) AppleWebKit/537.36 (KHTML, like Gecko) Chrome/86.0.4240.183 Safari/537.36",WebKit,Chrome,86.0.4240.183,Windows,10
41,1,null,"""",image-keyboard-response,100,125669,0.0-100.0,jspsych/neutralFaces/BF22NES.JPG,"""",null,38,17,Cue,"""","""",11/10/2020 2:01,69.125.145.27,"Mozilla/5.0 (Windows NT 10.0; Win64; x64) AppleWebKit/537.36 (KHTML, like Gecko) Chrome/86.0.4240.183 Safari/537.36",WebKit,Chrome,86.0.4240.183,Windows,10
41,1,null,"""",image-keyboard-response,101,125772,0.0-101.0,jspsych/neutralFaces/BF17NES.JPG,"""",null,100,17,backwardMask,"""","""",11/10/2020 2:01,69.125.145.27,"Mozilla/5.0 (Windows NT 10.0; Win64; x64) AppleWebKit/537.36 (KHTML, like Gecko) Chrome/86.0.4240.183 Safari/537.36",WebKit,Chrome,86.0.4240.183,Windows,10
41,1,null,"""",html-keyboard-response,102,125975,0.0-102.0,"<div style=""font-size:60px;"">+</div>","""",null,200,17,fixationBtwnNeutralMaskAndPrompt,"""","""",11/10/2020 2:01,69.125.145.27,"Mozilla/5.0 (Windows NT 10.0; Win64; x64) AppleWebKit/537.36 (KHTML, like Gecko) Chrome/86.0.4240.183 Safari/537.36",WebKit,Chrome,86.0.4240.183,Windows,10
41,1,354.1,"""",html-keyboard-response,103,126330,0.0-103.0,"<p> What was the emotion of the hidden face? <br> Press, <b>d</b> for <i>disgust face</i> or <b>n</b> for <i>neutral face</i></p>","""",78,"""",17,Query,"""",n,11/10/2020 2:01,69.125.145.27,"Mozilla/5.0 (Windows NT 10.0; Win64; x64) AppleWebKit/537.36 (KHTML, like Gecko) Chrome/86.0.4240.183 Safari/537.36",WebKit,Chrome,86.0.4240.183,Windows,10
41,1,null,"""",html-keyboard-response,104,127336,0.0-104.0,"<div style=""font-size:60px;"">+</div>","""",null,1000,18,ITI,"""","""",11/10/2020 2:01,69.125.145.27,"Mozilla/5.0 (Windows NT 10.0; Win64; x64) AppleWebKit/537.36 (KHTML, like Gecko) Chrome/86.0.4240.183 Safari/537.36",WebKit,Chrome,86.0.4240.183,Windows,10
41,1,null,"""",image-keyboard-response,105,127604,0.0-105.0,jspsych/scrambledDisgustFaces/scrambledBM21DIS.JPG,"""",null,250,18,forwardMask,d,"""",11/10/2020 2:01,69.125.145.27,"Mozilla/5.0 (Windows NT 10.0; Win64; x64) AppleWebKit/537.36 (KHTML, like Gecko) Chrome/86.0.4240.183 Safari/537.36",WebKit,Chrome,86.0.4240.183,Windows,10
41,1,null,"""",image-keyboard-response,106,127638,0.0-106.0,jspsych/disgustFaces/BM21DIS.JPG,"""",null,26,18,Cue,"""","""",11/10/2020 2:01,69.125.145.27,"Mozilla/5.0 (Windows NT 10.0; Win64; x64) AppleWebKit/537.36 (KHTML, like Gecko) Chrome/86.0.4240.183 Safari/537.36",WebKit,Chrome,86.0.4240.183,Windows,10
41,1,null,"""",image-keyboard-response,107,127746,0.0-107.0,jspsych/neutralFaces/AM03NES.JPG,"""",null,100,18,backwardMask,"""","""",11/10/2020 2:01,69.125.145.27,"Mozilla/5.0 (Windows NT 10.0; Win64; x64) AppleWebKit/537.36 (KHTML, like Gecko) Chrome/86.0.4240.183 Safari/537.36",WebKit,Chrome,86.0.4240.183,Windows,10
41,1,null,"""",html-keyboard-response,108,127949,0.0-108.0,"<div style=""font-size:60px;"">+</div>","""",null,200,18,fixationBtwnNeutralMaskAndPrompt,"""","""",11/10/2020 2:01,69.125.145.27,"Mozilla/5.0 (Windows NT 10.0; Win64; x64) AppleWebKit/537.36 (KHTML, like Gecko) Chrome/86.0.4240.183 Safari/537.36",WebKit,Chrome,86.0.4240.183,Windows,10
41,1,283.09,"""",html-keyboard-response,109,128233,0.0-109.0,"<p> What was the emotion of the hidden face? <br> Press, <b>d</b> for <i>disgust face</i> or <b>n</b> for <i>neutral face</i></p>","""",78,"""",18,Query,"""",n,11/10/2020 2:01,69.125.145.27,"Mozilla/5.0 (Windows NT 10.0; Win64; x64) AppleWebKit/537.36 (KHTML, like Gecko) Chrome/86.0.4240.183 Safari/537.36",WebKit,Chrome,86.0.4240.183,Windows,10
41,1,null,"""",html-keyboard-response,110,129242,0.0-110.0,"<div style=""font-size:60px;"">+</div>","""",null,1000,19,ITI,"""","""",11/10/2020 2:01,69.125.145.27,"Mozilla/5.0 (Windows NT 10.0; Win64; x64) AppleWebKit/537.36 (KHTML, like Gecko) Chrome/86.0.4240.183 Safari/537.36",WebKit,Chrome,86.0.4240.183,Windows,10
41,1,null,"""",image-keyboard-response,111,129502,0.0-111.0,jspsych/scrambledNeutralFaces/scrambledBM12NES.JPG,"""",null,250,19,forwardMask,n,"""",11/10/2020 2:01,69.125.145.27,"Mozilla/5.0 (Windows NT 10.0; Win64; x64) AppleWebKit/537.36 (KHTML, like Gecko) Chrome/86.0.4240.183 Safari/537.36",WebKit,Chrome,86.0.4240.183,Windows,10
41,1,null,"""",image-keyboard-response,112,129565,0.0-112.0,jspsych/neutralFaces/BM12NES.JPG,"""",null,60,19,Cue,"""","""",11/10/2020 2:01,69.125.145.27,"Mozilla/5.0 (Windows NT 10.0; Win64; x64) AppleWebKit/537.36 (KHTML, like Gecko) Chrome/86.0.4240.183 Safari/537.36",WebKit,Chrome,86.0.4240.183,Windows,10
41,1,null,"""",image-keyboard-response,113,129667,0.0-113.0,jspsych/neutralFaces/BF26NES.JPG,"""",null,100,19,backwardMask,"""","""",11/10/2020 2:01,69.125.145.27,"Mozilla/5.0 (Windows NT 10.0; Win64; x64) AppleWebKit/537.36 (KHTML, like Gecko) Chrome/86.0.4240.183 Safari/537.36",WebKit,Chrome,86.0.4240.183,Windows,10
41,1,null,"""",html-keyboard-response,114,129875,0.0-114.0,"<div style=""font-size:60px;"">+</div>","""",null,200,19,fixationBtwnNeutralMaskAndPrompt,"""","""",11/10/2020 2:01,69.125.145.27,"Mozilla/5.0 (Windows NT 10.0; Win64; x64) AppleWebKit/537.36 (KHTML, like Gecko) Chrome/86.0.4240.183 Safari/537.36",WebKit,Chrome,86.0.4240.183,Windows,10
41,1,236.515,"""",html-keyboard-response,115,130113,0.0-115.0,"<p> What was the emotion of the hidden face? <br> Press, <b>d</b> for <i>disgust face</i> or <b>n</b> for <i>neutral face</i></p>","""",68,"""",19,Query,"""",d,11/10/2020 2:01,69.125.145.27,"Mozilla/5.0 (Windows NT 10.0; Win64; x64) AppleWebKit/537.36 (KHTML, like Gecko) Chrome/86.0.4240.183 Safari/537.36",WebKit,Chrome,86.0.4240.183,Windows,10
41,1,null,"""",html-keyboard-response,116,131119,0.0-116.0,"<div style=""font-size:60px;"">+</div>","""",null,1000,20,ITI,"""","""",11/10/2020 2:01,69.125.145.27,"Mozilla/5.0 (Windows NT 10.0; Win64; x64) AppleWebKit/537.36 (KHTML, like Gecko) Chrome/86.0.4240.183 Safari/537.36",WebKit,Chrome,86.0.4240.183,Windows,10
41,1,null,"""",image-keyboard-response,117,131376,0.0-117.0,jspsych/scrambledNeutralFaces/scrambledBF32NES.JPG,"""",null,250,20,forwardMask,n,"""",11/10/2020 2:01,69.125.145.27,"Mozilla/5.0 (Windows NT 10.0; Win64; x64) AppleWebKit/537.36 (KHTML, like Gecko) Chrome/86.0.4240.183 Safari/537.36",WebKit,Chrome,86.0.4240.183,Windows,10
41,1,null,"""",image-keyboard-response,118,131474,0.0-118.0,jspsych/neutralFaces/BF32NES.JPG,"""",null,92,20,Cue,"""","""",11/10/2020 2:01,69.125.145.27,"Mozilla/5.0 (Windows NT 10.0; Win64; x64) AppleWebKit/537.36 (KHTML, like Gecko) Chrome/86.0.4240.183 Safari/537.36",WebKit,Chrome,86.0.4240.183,Windows,10
41,1,null,"""",image-keyboard-response,119,131577,0.0-119.0,jspsych/neutralFaces/BF03NES.JPG,"""",null,100,20,backwardMask,"""","""",11/10/2020 2:01,69.125.145.27,"Mozilla/5.0 (Windows NT 10.0; Win64; x64) AppleWebKit/537.36 (KHTML, like Gecko) Chrome/86.0.4240.183 Safari/537.36",WebKit,Chrome,86.0.4240.183,Windows,10
41,1,null,"""",html-keyboard-response,120,131782,0.0-120.0,"<div style=""font-size:60px;"">+</div>","""",null,200,20,fixationBtwnNeutralMaskAndPrompt,"""","""",11/10/2020 2:01,69.125.145.27,"Mozilla/5.0 (Windows NT 10.0; Win64; x64) AppleWebKit/537.36 (KHTML, like Gecko) Chrome/86.0.4240.183 Safari/537.36",WebKit,Chrome,86.0.4240.183,Windows,10
41,1,321.275,"""",html-keyboard-response,121,132104,0.0-121.0,"<p> What was the emotion of the hidden face? <br> Press, <b>d</b> for <i>disgust face</i> or <b>n</b> for <i>neutral face</i></p>","""",78,"""",20,Query,"""",n,11/10/2020 2:01,69.125.145.27,"Mozilla/5.0 (Windows NT 10.0; Win64; x64) AppleWebKit/537.36 (KHTML, like Gecko) Chrome/86.0.4240.183 Safari/537.36",WebKit,Chrome,86.0.4240.183,Windows,10
41,1,null,"""",html-keyboard-response,122,133106,0.0-122.0,"<div style=""font-size:60px;"">+</div>","""",null,1000,21,ITI,"""","""",11/10/2020 2:01,69.125.145.27,"Mozilla/5.0 (Windows NT 10.0; Win64; x64) AppleWebKit/537.36 (KHTML, like Gecko) Chrome/86.0.4240.183 Safari/537.36",WebKit,Chrome,86.0.4240.183,Windows,10
41,1,null,"""",image-keyboard-response,123,133363,0.0-123.0,jspsych/scrambledNeutralFaces/scrambledAF22NES.JPG,"""",null,250,21,forwardMask,n,"""",11/10/2020 2:01,69.125.145.27,"Mozilla/5.0 (Windows NT 10.0; Win64; x64) AppleWebKit/537.36 (KHTML, like Gecko) Chrome/86.0.4240.183 Safari/537.36",WebKit,Chrome,86.0.4240.183,Windows,10
41,1,null,"""",image-keyboard-response,124,133375,0.0-124.0,jspsych/neutralFaces/AF22NES.JPG,"""",null,9,21,Cue,"""","""",11/10/2020 2:01,69.125.145.27,"Mozilla/5.0 (Windows NT 10.0; Win64; x64) AppleWebKit/537.36 (KHTML, like Gecko) Chrome/86.0.4240.183 Safari/537.36",WebKit,Chrome,86.0.4240.183,Windows,10
41,1,null,"""",image-keyboard-response,125,133480,0.0-125.0,jspsych/neutralFaces/BM32NES.JPG,"""",null,100,21,backwardMask,"""","""",11/10/2020 2:01,69.125.145.27,"Mozilla/5.0 (Windows NT 10.0; Win64; x64) AppleWebKit/537.36 (KHTML, like Gecko) Chrome/86.0.4240.183 Safari/537.36",WebKit,Chrome,86.0.4240.183,Windows,10
41,1,null,"""",html-keyboard-response,126,133683,0.0-126.0,"<div style=""font-size:60px;"">+</div>","""",null,200,21,fixationBtwnNeutralMaskAndPrompt,"""","""",11/10/2020 2:01,69.125.145.27,"Mozilla/5.0 (Windows NT 10.0; Win64; x64) AppleWebKit/537.36 (KHTML, like Gecko) Chrome/86.0.4240.183 Safari/537.36",WebKit,Chrome,86.0.4240.183,Windows,10
41,1,398.33,"""",html-keyboard-response,127,134083,0.0-127.0,"<p> What was the emotion of the hidden face? <br> Press, <b>d</b> for <i>disgust face</i> or <b>n</b> for <i>neutral face</i></p>","""",78,"""",21,Query,"""",n,11/10/2020 2:01,69.125.145.27,"Mozilla/5.0 (Windows NT 10.0; Win64; x64) AppleWebKit/537.36 (KHTML, like Gecko) Chrome/86.0.4240.183 Safari/537.36",WebKit,Chrome,86.0.4240.183,Windows,10
41,1,null,"""",html-keyboard-response,128,135087,0.0-128.0,"<div style=""font-size:60px;"">+</div>","""",null,1000,22,ITI,"""","""",11/10/2020 2:01,69.125.145.27,"Mozilla/5.0 (Windows NT 10.0; Win64; x64) AppleWebKit/537.36 (KHTML, like Gecko) Chrome/86.0.4240.183 Safari/537.36",WebKit,Chrome,86.0.4240.183,Windows,10
41,1,null,"""",image-keyboard-response,129,135339,0.0-129.0,jspsych/scrambledDisgustFaces/scrambledBF10DIS.JPG,"""",null,250,22,forwardMask,d,"""",11/10/2020 2:01,69.125.145.27,"Mozilla/5.0 (Windows NT 10.0; Win64; x64) AppleWebKit/537.36 (KHTML, like Gecko) Chrome/86.0.4240.183 Safari/537.36",WebKit,Chrome,86.0.4240.183,Windows,10
41,1,null,"""",image-keyboard-response,130,135464,0.0-130.0,jspsych/disgustFaces/BF10DIS.JPG,"""",null,122,22,Cue,"""","""",11/10/2020 2:01,69.125.145.27,"Mozilla/5.0 (Windows NT 10.0; Win64; x64) AppleWebKit/537.36 (KHTML, like Gecko) Chrome/86.0.4240.183 Safari/537.36",WebKit,Chrome,86.0.4240.183,Windows,10
41,1,null,"""",image-keyboard-response,131,135573,0.0-131.0,jspsych/neutralFaces/BF10NES.JPG,"""",null,100,22,backwardMask,"""","""",11/10/2020 2:01,69.125.145.27,"Mozilla/5.0 (Windows NT 10.0; Win64; x64) AppleWebKit/537.36 (KHTML, like Gecko) Chrome/86.0.4240.183 Safari/537.36",WebKit,Chrome,86.0.4240.183,Windows,10
41,1,null,"""",html-keyboard-response,132,135779,0.0-132.0,"<div style=""font-size:60px;"">+</div>","""",null,200,22,fixationBtwnNeutralMaskAndPrompt,"""","""",11/10/2020 2:01,69.125.145.27,"Mozilla/5.0 (Windows NT 10.0; Win64; x64) AppleWebKit/537.36 (KHTML, like Gecko) Chrome/86.0.4240.183 Safari/537.36",WebKit,Chrome,86.0.4240.183,Windows,10
41,1,214.505,"""",html-keyboard-response,133,135995,0.0-133.0,"<p> What was the emotion of the hidden face? <br> Press, <b>d</b> for <i>disgust face</i> or <b>n</b> for <i>neutral face</i></p>","""",68,"""",22,Query,"""",d,11/10/2020 2:01,69.125.145.27,"Mozilla/5.0 (Windows NT 10.0; Win64; x64) AppleWebKit/537.36 (KHTML, like Gecko) Chrome/86.0.4240.183 Safari/537.36",WebKit,Chrome,86.0.4240.183,Windows,10
41,1,null,"""",html-keyboard-response,134,136997,0.0-134.0,"<div style=""font-size:60px;"">+</div>","""",null,1000,23,ITI,"""","""",11/10/2020 2:01,69.125.145.27,"Mozilla/5.0 (Windows NT 10.0; Win64; x64) AppleWebKit/537.36 (KHTML, like Gecko) Chrome/86.0.4240.183 Safari/537.36",WebKit,Chrome,86.0.4240.183,Windows,10
41,1,null,"""",image-keyboard-response,135,137254,0.0-135.0,jspsych/scrambledNeutralFaces/scrambledBF28NES.JPG,"""",null,250,23,forwardMask,n,"""",11/10/2020 2:01,69.125.145.27,"Mozilla/5.0 (Windows NT 10.0; Win64; x64) AppleWebKit/537.36 (KHTML, like Gecko) Chrome/86.0.4240.183 Safari/537.36",WebKit,Chrome,86.0.4240.183,Windows,10
41,1,null,"""",image-keyboard-response,136,137286,0.0-136.0,jspsych/neutralFaces/BF28NES.JPG,"""",null,26,23,Cue,"""","""",11/10/2020 2:01,69.125.145.27,"Mozilla/5.0 (Windows NT 10.0; Win64; x64) AppleWebKit/537.36 (KHTML, like Gecko) Chrome/86.0.4240.183 Safari/537.36",WebKit,Chrome,86.0.4240.183,Windows,10
41,1,null,"""",image-keyboard-response,137,137390,0.0-137.0,jspsych/neutralFaces/BF30NES.JPG,"""",null,100,23,backwardMask,"""","""",11/10/2020 2:01,69.125.145.27,"Mozilla/5.0 (Windows NT 10.0; Win64; x64) AppleWebKit/537.36 (KHTML, like Gecko) Chrome/86.0.4240.183 Safari/537.36",WebKit,Chrome,86.0.4240.183,Windows,10
41,1,null,"""",html-keyboard-response,138,137592,0.0-138.0,"<div style=""font-size:60px;"">+</div>","""",null,200,23,fixationBtwnNeutralMaskAndPrompt,"""","""",11/10/2020 2:01,69.125.145.27,"Mozilla/5.0 (Windows NT 10.0; Win64; x64) AppleWebKit/537.36 (KHTML, like Gecko) Chrome/86.0.4240.183 Safari/537.36",WebKit,Chrome,86.0.4240.183,Windows,10
41,1,373.79,"""",html-keyboard-response,139,137967,0.0-139.0,"<p> What was the emotion of the hidden face? <br> Press, <b>d</b> for <i>disgust face</i> or <b>n</b> for <i>neutral face</i></p>","""",78,"""",23,Query,"""",n,11/10/2020 2:01,69.125.145.27,"Mozilla/5.0 (Windows NT 10.0; Win64; x64) AppleWebKit/537.36 (KHTML, like Gecko) Chrome/86.0.4240.183 Safari/537.36",WebKit,Chrome,86.0.4240.183,Windows,10
41,1,null,"""",html-keyboard-response,140,138973,0.0-140.0,"<div style=""font-size:60px;"">+</div>","""",null,1000,24,ITI,"""","""",11/10/2020 2:01,69.125.145.27,"Mozilla/5.0 (Windows NT 10.0; Win64; x64) AppleWebKit/537.36 (KHTML, like Gecko) Chrome/86.0.4240.183 Safari/537.36",WebKit,Chrome,86.0.4240.183,Windows,10
41,1,null,"""",image-keyboard-response,141,139226,0.0-141.0,jspsych/scrambledNeutralFaces/scrambledBF33NES.JPG,"""",null,250,24,forwardMask,n,"""",11/10/2020 2:01,69.125.145.27,"Mozilla/5.0 (Windows NT 10.0; Win64; x64) AppleWebKit/537.36 (KHTML, like Gecko) Chrome/86.0.4240.183 Safari/537.36",WebKit,Chrome,86.0.4240.183,Windows,10
41,1,null,"""",image-keyboard-response,142,139241,0.0-142.0,jspsych/neutralFaces/BF33NES.JPG,"""",null,9,24,Cue,"""","""",11/10/2020 2:01,69.125.145.27,"Mozilla/5.0 (Windows NT 10.0; Win64; x64) AppleWebKit/537.36 (KHTML, like Gecko) Chrome/86.0.4240.183 Safari/537.36",WebKit,Chrome,86.0.4240.183,Windows,10
41,1,null,"""",image-keyboard-response,143,139346,0.0-143.0,jspsych/neutralFaces/BF21NES.JPG,"""",null,100,24,backwardMask,"""","""",11/10/2020 2:01,69.125.145.27,"Mozilla/5.0 (Windows NT 10.0; Win64; x64) AppleWebKit/537.36 (KHTML, like Gecko) Chrome/86.0.4240.183 Safari/537.36",WebKit,Chrome,86.0.4240.183,Windows,10
41,1,null,"""",html-keyboard-response,144,139553,0.0-144.0,"<div style=""font-size:60px;"">+</div>","""",null,200,24,fixationBtwnNeutralMaskAndPrompt,"""","""",11/10/2020 2:01,69.125.145.27,"Mozilla/5.0 (Windows NT 10.0; Win64; x64) AppleWebKit/537.36 (KHTML, like Gecko) Chrome/86.0.4240.183 Safari/537.36",WebKit,Chrome,86.0.4240.183,Windows,10
41,1,201.6,"""",html-keyboard-response,145,139756,0.0-145.0,"<p> What was the emotion of the hidden face? <br> Press, <b>d</b> for <i>disgust face</i> or <b>n</b> for <i>neutral face</i></p>","""",78,"""",24,Query,"""",n,11/10/2020 2:01,69.125.145.27,"Mozilla/5.0 (Windows NT 10.0; Win64; x64) AppleWebKit/537.36 (KHTML, like Gecko) Chrome/86.0.4240.183 Safari/537.36",WebKit,Chrome,86.0.4240.183,Windows,10
41,1,null,"""",html-keyboard-response,146,140766,0.0-146.0,"<div style=""font-size:60px;"">+</div>","""",null,1000,25,ITI,"""","""",11/10/2020 2:01,69.125.145.27,"Mozilla/5.0 (Windows NT 10.0; Win64; x64) AppleWebKit/537.36 (KHTML, like Gecko) Chrome/86.0.4240.183 Safari/537.36",WebKit,Chrome,86.0.4240.183,Windows,10
41,1,null,"""",image-keyboard-response,147,141030,0.0-147.0,jspsych/scrambledDisgustFaces/scrambledBM02DIS.JPG,"""",null,250,25,forwardMask,d,"""",11/10/2020 2:01,69.125.145.27,"Mozilla/5.0 (Windows NT 10.0; Win64; x64) AppleWebKit/537.36 (KHTML, like Gecko) Chrome/86.0.4240.183 Safari/537.36",WebKit,Chrome,86.0.4240.183,Windows,10
41,1,null,"""",image-keyboard-response,148,141127,0.0-148.0,jspsych/disgustFaces/BM02DIS.JPG,"""",null,92,25,Cue,"""","""",11/10/2020 2:01,69.125.145.27,"Mozilla/5.0 (Windows NT 10.0; Win64; x64) AppleWebKit/537.36 (KHTML, like Gecko) Chrome/86.0.4240.183 Safari/537.36",WebKit,Chrome,86.0.4240.183,Windows,10
41,1,null,"""",image-keyboard-response,149,141230,0.0-149.0,jspsych/neutralFaces/AM07NES.JPG,"""",null,100,25,backwardMask,"""","""",11/10/2020 2:01,69.125.145.27,"Mozilla/5.0 (Windows NT 10.0; Win64; x64) AppleWebKit/537.36 (KHTML, like Gecko) Chrome/86.0.4240.183 Safari/537.36",WebKit,Chrome,86.0.4240.183,Windows,10
41,1,null,"""",html-keyboard-response,150,141440,0.0-150.0,"<div style=""font-size:60px;"">+</div>","""",null,200,25,fixationBtwnNeutralMaskAndPrompt,"""","""",11/10/2020 2:01,69.125.145.27,"Mozilla/5.0 (Windows NT 10.0; Win64; x64) AppleWebKit/537.36 (KHTML, like Gecko) Chrome/86.0.4240.183 Safari/537.36",WebKit,Chrome,86.0.4240.183,Windows,10
41,1,113.78,"""",html-keyboard-response,151,141554,0.0-151.0,"<p> What was the emotion of the hidden face? <br> Press, <b>d</b> for <i>disgust face</i> or <b>n</b> for <i>neutral face</i></p>","""",68,"""",25,Query,"""",d,11/10/2020 2:01,69.125.145.27,"Mozilla/5.0 (Windows NT 10.0; Win64; x64) AppleWebKit/537.36 (KHTML, like Gecko) Chrome/86.0.4240.183 Safari/537.36",WebKit,Chrome,86.0.4240.183,Windows,10
41,1,null,"""",html-keyboard-response,152,143563,0.0-152.0,Good job! 25% Done,"""",null,2000,26,encouragement,"""","""",11/10/2020 2:01,69.125.145.27,"Mozilla/5.0 (Windows NT 10.0; Win64; x64) AppleWebKit/537.36 (KHTML, like Gecko) Chrome/86.0.4240.183 Safari/537.36",WebKit,Chrome,86.0.4240.183,Windows,10
41,1,null,"""",html-keyboard-response,153,144573,0.0-153.0,"<div style=""font-size:60px;"">+</div>","""",null,1000,26,ITI,"""","""",11/10/2020 2:01,69.125.145.27,"Mozilla/5.0 (Windows NT 10.0; Win64; x64) AppleWebKit/537.36 (KHTML, like Gecko) Chrome/86.0.4240.183 Safari/537.36",WebKit,Chrome,86.0.4240.183,Windows,10
41,1,null,"""",image-keyboard-response,154,144826,0.0-154.0,jspsych/scrambledDisgustFaces/scrambledAF23DIS.JPG,"""",null,250,26,forwardMask,d,"""",11/10/2020 2:01,69.125.145.27,"Mozilla/5.0 (Windows NT 10.0; Win64; x64) AppleWebKit/537.36 (KHTML, like Gecko) Chrome/86.0.4240.183 Safari/537.36",WebKit,Chrome,86.0.4240.183,Windows,10
41,1,null,"""",image-keyboard-response,155,144893,0.0-155.0,jspsych/disgustFaces/AF23DIS.JPG,"""",null,60,26,Cue,"""","""",11/10/2020 2:01,69.125.145.27,"Mozilla/5.0 (Windows NT 10.0; Win64; x64) AppleWebKit/537.36 (KHTML, like Gecko) Chrome/86.0.4240.183 Safari/537.36",WebKit,Chrome,86.0.4240.183,Windows,10
41,1,null,"""",image-keyboard-response,156,144995,0.0-156.0,jspsych/neutralFaces/AF32NES.JPG,"""",null,100,26,backwardMask,"""","""",11/10/2020 2:01,69.125.145.27,"Mozilla/5.0 (Windows NT 10.0; Win64; x64) AppleWebKit/537.36 (KHTML, like Gecko) Chrome/86.0.4240.183 Safari/537.36",WebKit,Chrome,86.0.4240.183,Windows,10
41,1,null,"""",html-keyboard-response,157,145202,0.0-157.0,"<div style=""font-size:60px;"">+</div>","""",null,200,26,fixationBtwnNeutralMaskAndPrompt,"""","""",11/10/2020 2:01,69.125.145.27,"Mozilla/5.0 (Windows NT 10.0; Win64; x64) AppleWebKit/537.36 (KHTML, like Gecko) Chrome/86.0.4240.183 Safari/537.36",WebKit,Chrome,86.0.4240.183,Windows,10
41,1,1533.26,"""",html-keyboard-response,158,146736,0.0-158.0,"<p> What was the emotion of the hidden face? <br> Press, <b>d</b> for <i>disgust face</i> or <b>n</b> for <i>neutral face</i></p>","""",78,"""",26,Query,"""",n,11/10/2020 2:01,69.125.145.27,"Mozilla/5.0 (Windows NT 10.0; Win64; x64) AppleWebKit/537.36 (KHTML, like Gecko) Chrome/86.0.4240.183 Safari/537.36",WebKit,Chrome,86.0.4240.183,Windows,10
41,1,null,"""",html-keyboard-response,159,147742,0.0-159.0,"<div style=""font-size:60px;"">+</div>","""",null,1000,27,ITI,"""","""",11/10/2020 2:01,69.125.145.27,"Mozilla/5.0 (Windows NT 10.0; Win64; x64) AppleWebKit/537.36 (KHTML, like Gecko) Chrome/86.0.4240.183 Safari/537.36",WebKit,Chrome,86.0.4240.183,Windows,10
41,1,null,"""",image-keyboard-response,160,148003,0.0-160.0,jspsych/scrambledDisgustFaces/scrambledBF16DIS.JPG,"""",null,250,27,forwardMask,d,"""",11/10/2020 2:01,69.125.145.27,"Mozilla/5.0 (Windows NT 10.0; Win64; x64) AppleWebKit/537.36 (KHTML, like Gecko) Chrome/86.0.4240.183 Safari/537.36",WebKit,Chrome,86.0.4240.183,Windows,10
41,1,null,"""",image-keyboard-response,161,148043,0.0-161.0,jspsych/disgustFaces/BF16DIS.JPG,"""",null,38,27,Cue,"""","""",11/10/2020 2:01,69.125.145.27,"Mozilla/5.0 (Windows NT 10.0; Win64; x64) AppleWebKit/537.36 (KHTML, like Gecko) Chrome/86.0.4240.183 Safari/537.36",WebKit,Chrome,86.0.4240.183,Windows,10
41,1,null,"""",image-keyboard-response,162,148151,0.0-162.0,jspsych/neutralFaces/BF19NES.JPG,"""",null,100,27,backwardMask,"""","""",11/10/2020 2:01,69.125.145.27,"Mozilla/5.0 (Windows NT 10.0; Win64; x64) AppleWebKit/537.36 (KHTML, like Gecko) Chrome/86.0.4240.183 Safari/537.36",WebKit,Chrome,86.0.4240.183,Windows,10
41,1,null,"""",html-keyboard-response,163,148354,0.0-163.0,"<div style=""font-size:60px;"">+</div>","""",null,200,27,fixationBtwnNeutralMaskAndPrompt,"""","""",11/10/2020 2:01,69.125.145.27,"Mozilla/5.0 (Windows NT 10.0; Win64; x64) AppleWebKit/537.36 (KHTML, like Gecko) Chrome/86.0.4240.183 Safari/537.36",WebKit,Chrome,86.0.4240.183,Windows,10
41,1,475.825,"""",html-keyboard-response,164,148831,0.0-164.0,"<p> What was the emotion of the hidden face? <br> Press, <b>d</b> for <i>disgust face</i> or <b>n</b> for <i>neutral face</i></p>","""",78,"""",27,Query,"""",n,11/10/2020 2:01,69.125.145.27,"Mozilla/5.0 (Windows NT 10.0; Win64; x64) AppleWebKit/537.36 (KHTML, like Gecko) Chrome/86.0.4240.183 Safari/537.36",WebKit,Chrome,86.0.4240.183,Windows,10
41,1,null,"""",html-keyboard-response,165,149842,0.0-165.0,"<div style=""font-size:60px;"">+</div>","""",null,1000,28,ITI,"""","""",11/10/2020 2:01,69.125.145.27,"Mozilla/5.0 (Windows NT 10.0; Win64; x64) AppleWebKit/537.36 (KHTML, like Gecko) Chrome/86.0.4240.183 Safari/537.36",WebKit,Chrome,86.0.4240.183,Windows,10
41,1,null,"""",image-keyboard-response,166,150100,0.0-166.0,jspsych/scrambledNeutralFaces/scrambledAF28NES.JPG,"""",null,250,28,forwardMask,n,"""",11/10/2020 2:01,69.125.145.27,"Mozilla/5.0 (Windows NT 10.0; Win64; x64) AppleWebKit/537.36 (KHTML, like Gecko) Chrome/86.0.4240.183 Safari/537.36",WebKit,Chrome,86.0.4240.183,Windows,10
41,1,null,"""",image-keyboard-response,167,150121,0.0-167.0,jspsych/neutralFaces/AF28NES.JPG,"""",null,9,28,Cue,"""","""",11/10/2020 2:01,69.125.145.27,"Mozilla/5.0 (Windows NT 10.0; Win64; x64) AppleWebKit/537.36 (KHTML, like Gecko) Chrome/86.0.4240.183 Safari/537.36",WebKit,Chrome,86.0.4240.183,Windows,10
41,1,null,"""",image-keyboard-response,168,150229,0.0-168.0,jspsych/neutralFaces/BM07NES.JPG,"""",null,100,28,backwardMask,"""","""",11/10/2020 2:01,69.125.145.27,"Mozilla/5.0 (Windows NT 10.0; Win64; x64) AppleWebKit/537.36 (KHTML, like Gecko) Chrome/86.0.4240.183 Safari/537.36",WebKit,Chrome,86.0.4240.183,Windows,10
41,1,null,"""",html-keyboard-response,169,150439,0.0-169.0,"<div style=""font-size:60px;"">+</div>","""",null,200,28,fixationBtwnNeutralMaskAndPrompt,"""","""",11/10/2020 2:01,69.125.145.27,"Mozilla/5.0 (Windows NT 10.0; Win64; x64) AppleWebKit/537.36 (KHTML, like Gecko) Chrome/86.0.4240.183 Safari/537.36",WebKit,Chrome,86.0.4240.183,Windows,10
41,1,283.925,"""",html-keyboard-response,170,150724,0.0-170.0,"<p> What was the emotion of the hidden face? <br> Press, <b>d</b> for <i>disgust face</i> or <b>n</b> for <i>neutral face</i></p>","""",78,"""",28,Query,"""",n,11/10/2020 2:01,69.125.145.27,"Mozilla/5.0 (Windows NT 10.0; Win64; x64) AppleWebKit/537.36 (KHTML, like Gecko) Chrome/86.0.4240.183 Safari/537.36",WebKit,Chrome,86.0.4240.183,Windows,10
41,1,null,"""",html-keyboard-response,171,151725,0.0-171.0,"<div style=""font-size:60px;"">+</div>","""",null,1000,29,ITI,"""","""",11/10/2020 2:01,69.125.145.27,"Mozilla/5.0 (Windows NT 10.0; Win64; x64) AppleWebKit/537.36 (KHTML, like Gecko) Chrome/86.0.4240.183 Safari/537.36",WebKit,Chrome,86.0.4240.183,Windows,10
41,1,null,"""",image-keyboard-response,172,151981,0.0-172.0,jspsych/scrambledDisgustFaces/scrambledBM33DIS.JPG,"""",null,250,29,forwardMask,d,"""",11/10/2020 2:01,69.125.145.27,"Mozilla/5.0 (Windows NT 10.0; Win64; x64) AppleWebKit/537.36 (KHTML, like Gecko) Chrome/86.0.4240.183 Safari/537.36",WebKit,Chrome,86.0.4240.183,Windows,10
41,1,null,"""",image-keyboard-response,173,152078,0.0-173.0,jspsych/disgustFaces/BM33DIS.JPG,"""",null,92,29,Cue,"""","""",11/10/2020 2:01,69.125.145.27,"Mozilla/5.0 (Windows NT 10.0; Win64; x64) AppleWebKit/537.36 (KHTML, like Gecko) Chrome/86.0.4240.183 Safari/537.36",WebKit,Chrome,86.0.4240.183,Windows,10
41,1,null,"""",image-keyboard-response,174,152182,0.0-174.0,jspsych/neutralFaces/BF33NES.JPG,"""",null,100,29,backwardMask,"""","""",11/10/2020 2:01,69.125.145.27,"Mozilla/5.0 (Windows NT 10.0; Win64; x64) AppleWebKit/537.36 (KHTML, like Gecko) Chrome/86.0.4240.183 Safari/537.36",WebKit,Chrome,86.0.4240.183,Windows,10
41,1,null,"""",html-keyboard-response,175,152385,0.0-175.0,"<div style=""font-size:60px;"">+</div>","""",null,200,29,fixationBtwnNeutralMaskAndPrompt,"""","""",11/10/2020 2:01,69.125.145.27,"Mozilla/5.0 (Windows NT 10.0; Win64; x64) AppleWebKit/537.36 (KHTML, like Gecko) Chrome/86.0.4240.183 Safari/537.36",WebKit,Chrome,86.0.4240.183,Windows,10
41,1,780.405,"""",html-keyboard-response,176,153167,0.0-176.0,"<p> What was the emotion of the hidden face? <br> Press, <b>d</b> for <i>disgust face</i> or <b>n</b> for <i>neutral face</i></p>","""",78,"""",29,Query,"""",n,11/10/2020 2:01,69.125.145.27,"Mozilla/5.0 (Windows NT 10.0; Win64; x64) AppleWebKit/537.36 (KHTML, like Gecko) Chrome/86.0.4240.183 Safari/537.36",WebKit,Chrome,86.0.4240.183,Windows,10
41,1,null,"""",html-keyboard-response,177,154174,0.0-177.0,"<div style=""font-size:60px;"">+</div>","""",null,1000,30,ITI,"""","""",11/10/2020 2:01,69.125.145.27,"Mozilla/5.0 (Windows NT 10.0; Win64; x64) AppleWebKit/537.36 (KHTML, like Gecko) Chrome/86.0.4240.183 Safari/537.36",WebKit,Chrome,86.0.4240.183,Windows,10
41,1,null,"""",image-keyboard-response,178,154426,0.0-178.0,jspsych/scrambledNeutralFaces/scrambledBM02NES.JPG,"""",null,250,30,forwardMask,n,"""",11/10/2020 2:01,69.125.145.27,"Mozilla/5.0 (Windows NT 10.0; Win64; x64) AppleWebKit/537.36 (KHTML, like Gecko) Chrome/86.0.4240.183 Safari/537.36",WebKit,Chrome,86.0.4240.183,Windows,10
41,1,null,"""",image-keyboard-response,179,154438,0.0-179.0,jspsych/neutralFaces/BM02NES.JPG,"""",null,9,30,Cue,"""","""",11/10/2020 2:01,69.125.145.27,"Mozilla/5.0 (Windows NT 10.0; Win64; x64) AppleWebKit/537.36 (KHTML, like Gecko) Chrome/86.0.4240.183 Safari/537.36",WebKit,Chrome,86.0.4240.183,Windows,10
41,1,null,"""",image-keyboard-response,180,154543,0.0-180.0,jspsych/neutralFaces/BF06NES.JPG,"""",null,100,30,backwardMask,"""","""",11/10/2020 2:01,69.125.145.27,"Mozilla/5.0 (Windows NT 10.0; Win64; x64) AppleWebKit/537.36 (KHTML, like Gecko) Chrome/86.0.4240.183 Safari/537.36",WebKit,Chrome,86.0.4240.183,Windows,10
41,1,null,"""",html-keyboard-response,181,154746,0.0-181.0,"<div style=""font-size:60px;"">+</div>","""",null,200,30,fixationBtwnNeutralMaskAndPrompt,"""","""",11/10/2020 2:01,69.125.145.27,"Mozilla/5.0 (Windows NT 10.0; Win64; x64) AppleWebKit/537.36 (KHTML, like Gecko) Chrome/86.0.4240.183 Safari/537.36",WebKit,Chrome,86.0.4240.183,Windows,10
41,1,755.48,"""",html-keyboard-response,182,155502,0.0-182.0,"<p> What was the emotion of the hidden face? <br> Press, <b>d</b> for <i>disgust face</i> or <b>n</b> for <i>neutral face</i></p>","""",78,"""",30,Query,"""",n,11/10/2020 2:01,69.125.145.27,"Mozilla/5.0 (Windows NT 10.0; Win64; x64) AppleWebKit/537.36 (KHTML, like Gecko) Chrome/86.0.4240.183 Safari/537.36",WebKit,Chrome,86.0.4240.183,Windows,10
41,1,null,"""",html-keyboard-response,183,156510,0.0-183.0,"<div style=""font-size:60px;"">+</div>","""",null,1000,31,ITI,"""","""",11/10/2020 2:01,69.125.145.27,"Mozilla/5.0 (Windows NT 10.0; Win64; x64) AppleWebKit/537.36 (KHTML, like Gecko) Chrome/86.0.4240.183 Safari/537.36",WebKit,Chrome,86.0.4240.183,Windows,10
41,1,null,"""",image-keyboard-response,184,156766,0.0-184.0,jspsych/scrambledNeutralFaces/scrambledBM32NES.JPG,"""",null,250,31,forwardMask,n,"""",11/10/2020 2:01,69.125.145.27,"Mozilla/5.0 (Windows NT 10.0; Win64; x64) AppleWebKit/537.36 (KHTML, like Gecko) Chrome/86.0.4240.183 Safari/537.36",WebKit,Chrome,86.0.4240.183,Windows,10
41,1,null,"""",image-keyboard-response,185,156811,0.0-185.0,jspsych/neutralFaces/BM32NES.JPG,"""",null,38,31,Cue,"""","""",11/10/2020 2:01,69.125.145.27,"Mozilla/5.0 (Windows NT 10.0; Win64; x64) AppleWebKit/537.36 (KHTML, like Gecko) Chrome/86.0.4240.183 Safari/537.36",WebKit,Chrome,86.0.4240.183,Windows,10
41,1,null,"""",image-keyboard-response,186,156921,0.0-186.0,jspsych/neutralFaces/BM07NES.JPG,"""",null,100,31,backwardMask,"""","""",11/10/2020 2:01,69.125.145.27,"Mozilla/5.0 (Windows NT 10.0; Win64; x64) AppleWebKit/537.36 (KHTML, like Gecko) Chrome/86.0.4240.183 Safari/537.36",WebKit,Chrome,86.0.4240.183,Windows,10
41,1,null,"""",html-keyboard-response,187,157130,0.0-187.0,"<div style=""font-size:60px;"">+</div>","""",null,200,31,fixationBtwnNeutralMaskAndPrompt,"""","""",11/10/2020 2:01,69.125.145.27,"Mozilla/5.0 (Windows NT 10.0; Win64; x64) AppleWebKit/537.36 (KHTML, like Gecko) Chrome/86.0.4240.183 Safari/537.36",WebKit,Chrome,86.0.4240.183,Windows,10
41,1,951.945,"""",html-keyboard-response,188,158083,0.0-188.0,"<p> What was the emotion of the hidden face? <br> Press, <b>d</b> for <i>disgust face</i> or <b>n</b> for <i>neutral face</i></p>","""",78,"""",31,Query,"""",n,11/10/2020 2:01,69.125.145.27,"Mozilla/5.0 (Windows NT 10.0; Win64; x64) AppleWebKit/537.36 (KHTML, like Gecko) Chrome/86.0.4240.183 Safari/537.36",WebKit,Chrome,86.0.4240.183,Windows,10
41,1,null,"""",html-keyboard-response,189,159089,0.0-189.0,"<div style=""font-size:60px;"">+</div>","""",null,1000,32,ITI,"""","""",11/10/2020 2:01,69.125.145.27,"Mozilla/5.0 (Windows NT 10.0; Win64; x64) AppleWebKit/537.36 (KHTML, like Gecko) Chrome/86.0.4240.183 Safari/537.36",WebKit,Chrome,86.0.4240.183,Windows,10
41,1,null,"""",image-keyboard-response,190,159343,0.0-190.0,jspsych/scrambledNeutralFaces/scrambledBM14NES.JPG,"""",null,250,32,forwardMask,n,"""",11/10/2020 2:01,69.125.145.27,"Mozilla/5.0 (Windows NT 10.0; Win64; x64) AppleWebKit/537.36 (KHTML, like Gecko) Chrome/86.0.4240.183 Safari/537.36",WebKit,Chrome,86.0.4240.183,Windows,10
41,1,null,"""",image-keyboard-response,191,159375,0.0-191.0,jspsych/neutralFaces/BM14NES.JPG,"""",null,26,32,Cue,"""","""",11/10/2020 2:01,69.125.145.27,"Mozilla/5.0 (Windows NT 10.0; Win64; x64) AppleWebKit/537.36 (KHTML, like Gecko) Chrome/86.0.4240.183 Safari/537.36",WebKit,Chrome,86.0.4240.183,Windows,10
41,1,null,"""",image-keyboard-response,192,159477,0.0-192.0,jspsych/neutralFaces/BF04NES.JPG,"""",null,100,32,backwardMask,"""","""",11/10/2020 2:01,69.125.145.27,"Mozilla/5.0 (Windows NT 10.0; Win64; x64) AppleWebKit/537.36 (KHTML, like Gecko) Chrome/86.0.4240.183 Safari/537.36",WebKit,Chrome,86.0.4240.183,Windows,10
41,1,null,"""",html-keyboard-response,193,159682,0.0-193.0,"<div style=""font-size:60px;"">+</div>","""",null,200,32,fixationBtwnNeutralMaskAndPrompt,"""","""",11/10/2020 2:01,69.125.145.27,"Mozilla/5.0 (Windows NT 10.0; Win64; x64) AppleWebKit/537.36 (KHTML, like Gecko) Chrome/86.0.4240.183 Safari/537.36",WebKit,Chrome,86.0.4240.183,Windows,10
41,1,686.365,"""",html-keyboard-response,194,160370,0.0-194.0,"<p> What was the emotion of the hidden face? <br> Press, <b>d</b> for <i>disgust face</i> or <b>n</b> for <i>neutral face</i></p>","""",78,"""",32,Query,"""",n,11/10/2020 2:01,69.125.145.27,"Mozilla/5.0 (Windows NT 10.0; Win64; x64) AppleWebKit/537.36 (KHTML, like Gecko) Chrome/86.0.4240.183 Safari/537.36",WebKit,Chrome,86.0.4240.183,Windows,10
41,1,null,"""",html-keyboard-response,195,161373,0.0-195.0,"<div style=""font-size:60px;"">+</div>","""",null,1000,33,ITI,"""","""",11/10/2020 2:01,69.125.145.27,"Mozilla/5.0 (Windows NT 10.0; Win64; x64) AppleWebKit/537.36 (KHTML, like Gecko) Chrome/86.0.4240.183 Safari/537.36",WebKit,Chrome,86.0.4240.183,Windows,10
41,1,null,"""",image-keyboard-response,196,161628,0.0-196.0,jspsych/scrambledDisgustFaces/scrambledAF19DIS.JPG,"""",null,250,33,forwardMask,d,"""",11/10/2020 2:01,69.125.145.27,"Mozilla/5.0 (Windows NT 10.0; Win64; x64) AppleWebKit/537.36 (KHTML, like Gecko) Chrome/86.0.4240.183 Safari/537.36",WebKit,Chrome,86.0.4240.183,Windows,10
41,1,null,"""",image-keyboard-response,197,161754,0.0-197.0,jspsych/disgustFaces/AF19DIS.JPG,"""",null,122,33,Cue,"""","""",11/10/2020 2:01,69.125.145.27,"Mozilla/5.0 (Windows NT 10.0; Win64; x64) AppleWebKit/537.36 (KHTML, like Gecko) Chrome/86.0.4240.183 Safari/537.36",WebKit,Chrome,86.0.4240.183,Windows,10
41,1,null,"""",image-keyboard-response,198,161863,0.0-198.0,jspsych/neutralFaces/AF33NES.JPG,"""",null,100,33,backwardMask,"""","""",11/10/2020 2:01,69.125.145.27,"Mozilla/5.0 (Windows NT 10.0; Win64; x64) AppleWebKit/537.36 (KHTML, like Gecko) Chrome/86.0.4240.183 Safari/537.36",WebKit,Chrome,86.0.4240.183,Windows,10
41,1,null,"""",html-keyboard-response,199,162071,0.0-199.0,"<div style=""font-size:60px;"">+</div>","""",null,200,33,fixationBtwnNeutralMaskAndPrompt,"""","""",11/10/2020 2:01,69.125.145.27,"Mozilla/5.0 (Windows NT 10.0; Win64; x64) AppleWebKit/537.36 (KHTML, like Gecko) Chrome/86.0.4240.183 Safari/537.36",WebKit,Chrome,86.0.4240.183,Windows,10
41,1,414.025,"""",html-keyboard-response,200,162486,0.0-200.0,"<p> What was the emotion of the hidden face? <br> Press, <b>d</b> for <i>disgust face</i> or <b>n</b> for <i>neutral face</i></p>","""",78,"""",33,Query,"""",n,11/10/2020 2:01,69.125.145.27,"Mozilla/5.0 (Windows NT 10.0; Win64; x64) AppleWebKit/537.36 (KHTML, like Gecko) Chrome/86.0.4240.183 Safari/537.36",WebKit,Chrome,86.0.4240.183,Windows,10
41,1,null,"""",html-keyboard-response,201,163494,0.0-201.0,"<div style=""font-size:60px;"">+</div>","""",null,1000,34,ITI,"""","""",11/10/2020 2:01,69.125.145.27,"Mozilla/5.0 (Windows NT 10.0; Win64; x64) AppleWebKit/537.36 (KHTML, like Gecko) Chrome/86.0.4240.183 Safari/537.36",WebKit,Chrome,86.0.4240.183,Windows,10
41,1,null,"""",image-keyboard-response,202,163750,0.0-202.0,jspsych/scrambledNeutralFaces/scrambledAM22NES.JPG,"""",null,250,34,forwardMask,n,"""",11/10/2020 2:01,69.125.145.27,"Mozilla/5.0 (Windows NT 10.0; Win64; x64) AppleWebKit/537.36 (KHTML, like Gecko) Chrome/86.0.4240.183 Safari/537.36",WebKit,Chrome,86.0.4240.183,Windows,10
41,1,null,"""",image-keyboard-response,203,163793,0.0-203.0,jspsych/neutralFaces/AM22NES.JPG,"""",null,38,34,Cue,"""","""",11/10/2020 2:01,69.125.145.27,"Mozilla/5.0 (Windows NT 10.0; Win64; x64) AppleWebKit/537.36 (KHTML, like Gecko) Chrome/86.0.4240.183 Safari/537.36",WebKit,Chrome,86.0.4240.183,Windows,10
41,1,null,"""",image-keyboard-response,204,163896,0.0-204.0,jspsych/neutralFaces/AF32NES.JPG,"""",null,100,34,backwardMask,"""","""",11/10/2020 2:01,69.125.145.27,"Mozilla/5.0 (Windows NT 10.0; Win64; x64) AppleWebKit/537.36 (KHTML, like Gecko) Chrome/86.0.4240.183 Safari/537.36",WebKit,Chrome,86.0.4240.183,Windows,10
41,1,null,"""",html-keyboard-response,205,164102,0.0-205.0,"<div style=""font-size:60px;"">+</div>","""",null,200,34,fixationBtwnNeutralMaskAndPrompt,"""","""",11/10/2020 2:01,69.125.145.27,"Mozilla/5.0 (Windows NT 10.0; Win64; x64) AppleWebKit/537.36 (KHTML, like Gecko) Chrome/86.0.4240.183 Safari/537.36",WebKit,Chrome,86.0.4240.183,Windows,10
41,1,536.8,"""",html-keyboard-response,206,164639,0.0-206.0,"<p> What was the emotion of the hidden face? <br> Press, <b>d</b> for <i>disgust face</i> or <b>n</b> for <i>neutral face</i></p>","""",78,"""",34,Query,"""",n,11/10/2020 2:01,69.125.145.27,"Mozilla/5.0 (Windows NT 10.0; Win64; x64) AppleWebKit/537.36 (KHTML, like Gecko) Chrome/86.0.4240.183 Safari/537.36",WebKit,Chrome,86.0.4240.183,Windows,10
41,1,null,"""",html-keyboard-response,207,165643,0.0-207.0,"<div style=""font-size:60px;"">+</div>","""",null,1000,35,ITI,"""","""",11/10/2020 2:01,69.125.145.27,"Mozilla/5.0 (Windows NT 10.0; Win64; x64) AppleWebKit/537.36 (KHTML, like Gecko) Chrome/86.0.4240.183 Safari/537.36",WebKit,Chrome,86.0.4240.183,Windows,10
41,1,null,"""",image-keyboard-response,208,165900,0.0-208.0,jspsych/scrambledDisgustFaces/scrambledBF17DIS.JPG,"""",null,250,35,forwardMask,d,"""",11/10/2020 2:01,69.125.145.27,"Mozilla/5.0 (Windows NT 10.0; Win64; x64) AppleWebKit/537.36 (KHTML, like Gecko) Chrome/86.0.4240.183 Safari/537.36",WebKit,Chrome,86.0.4240.183,Windows,10
41,1,null,"""",image-keyboard-response,209,165968,0.0-209.0,jspsych/disgustFaces/BF17DIS.JPG,"""",null,60,35,Cue,"""","""",11/10/2020 2:01,69.125.145.27,"Mozilla/5.0 (Windows NT 10.0; Win64; x64) AppleWebKit/537.36 (KHTML, like Gecko) Chrome/86.0.4240.183 Safari/537.36",WebKit,Chrome,86.0.4240.183,Windows,10
41,1,null,"""",image-keyboard-response,210,166070,0.0-210.0,jspsych/neutralFaces/AM17NES.JPG,"""",null,100,35,backwardMask,"""","""",11/10/2020 2:01,69.125.145.27,"Mozilla/5.0 (Windows NT 10.0; Win64; x64) AppleWebKit/537.36 (KHTML, like Gecko) Chrome/86.0.4240.183 Safari/537.36",WebKit,Chrome,86.0.4240.183,Windows,10
41,1,null,"""",html-keyboard-response,211,166275,0.0-211.0,"<div style=""font-size:60px;"">+</div>","""",null,200,35,fixationBtwnNeutralMaskAndPrompt,"""","""",11/10/2020 2:01,69.125.145.27,"Mozilla/5.0 (Windows NT 10.0; Win64; x64) AppleWebKit/537.36 (KHTML, like Gecko) Chrome/86.0.4240.183 Safari/537.36",WebKit,Chrome,86.0.4240.183,Windows,10
41,1,459.315,"""",html-keyboard-response,212,166735,0.0-212.0,"<p> What was the emotion of the hidden face? <br> Press, <b>d</b> for <i>disgust face</i> or <b>n</b> for <i>neutral face</i></p>","""",78,"""",35,Query,"""",n,11/10/2020 2:01,69.125.145.27,"Mozilla/5.0 (Windows NT 10.0; Win64; x64) AppleWebKit/537.36 (KHTML, like Gecko) Chrome/86.0.4240.183 Safari/537.36",WebKit,Chrome,86.0.4240.183,Windows,10
41,1,null,"""",html-keyboard-response,213,167742,0.0-213.0,"<div style=""font-size:60px;"">+</div>","""",null,1000,36,ITI,"""","""",11/10/2020 2:01,69.125.145.27,"Mozilla/5.0 (Windows NT 10.0; Win64; x64) AppleWebKit/537.36 (KHTML, like Gecko) Chrome/86.0.4240.183 Safari/537.36",WebKit,Chrome,86.0.4240.183,Windows,10
41,1,null,"""",image-keyboard-response,214,167996,0.0-214.0,jspsych/scrambledNeutralFaces/scrambledBF28NES.JPG,"""",null,250,36,forwardMask,n,"""",11/10/2020 2:01,69.125.145.27,"Mozilla/5.0 (Windows NT 10.0; Win64; x64) AppleWebKit/537.36 (KHTML, like Gecko) Chrome/86.0.4240.183 Safari/537.36",WebKit,Chrome,86.0.4240.183,Windows,10
41,1,null,"""",image-keyboard-response,215,168092,0.0-215.0,jspsych/neutralFaces/BF28NES.JPG,"""",null,92,36,Cue,"""","""",11/10/2020 2:01,69.125.145.27,"Mozilla/5.0 (Windows NT 10.0; Win64; x64) AppleWebKit/537.36 (KHTML, like Gecko) Chrome/86.0.4240.183 Safari/537.36",WebKit,Chrome,86.0.4240.183,Windows,10
41,1,null,"""",image-keyboard-response,216,168200,0.0-216.0,jspsych/neutralFaces/BF24NES.JPG,"""",null,100,36,backwardMask,"""","""",11/10/2020 2:01,69.125.145.27,"Mozilla/5.0 (Windows NT 10.0; Win64; x64) AppleWebKit/537.36 (KHTML, like Gecko) Chrome/86.0.4240.183 Safari/537.36",WebKit,Chrome,86.0.4240.183,Windows,10
41,1,null,"""",html-keyboard-response,217,168403,0.0-217.0,"<div style=""font-size:60px;"">+</div>","""",null,200,36,fixationBtwnNeutralMaskAndPrompt,"""","""",11/10/2020 2:01,69.125.145.27,"Mozilla/5.0 (Windows NT 10.0; Win64; x64) AppleWebKit/537.36 (KHTML, like Gecko) Chrome/86.0.4240.183 Safari/537.36",WebKit,Chrome,86.0.4240.183,Windows,10
41,1,195.84,"""",html-keyboard-response,218,168605,0.0-218.0,"<p> What was the emotion of the hidden face? <br> Press, <b>d</b> for <i>disgust face</i> or <b>n</b> for <i>neutral face</i></p>","""",78,"""",36,Query,"""",n,11/10/2020 2:01,69.125.145.27,"Mozilla/5.0 (Windows NT 10.0; Win64; x64) AppleWebKit/537.36 (KHTML, like Gecko) Chrome/86.0.4240.183 Safari/537.36",WebKit,Chrome,86.0.4240.183,Windows,10
41,1,null,"""",html-keyboard-response,219,169613,0.0-219.0,"<div style=""font-size:60px;"">+</div>","""",null,1000,37,ITI,"""","""",11/10/2020 2:01,69.125.145.27,"Mozilla/5.0 (Windows NT 10.0; Win64; x64) AppleWebKit/537.36 (KHTML, like Gecko) Chrome/86.0.4240.183 Safari/537.36",WebKit,Chrome,86.0.4240.183,Windows,10
41,1,null,"""",image-keyboard-response,220,169874,0.0-220.0,jspsych/scrambledNeutralFaces/scrambledBF26NES.JPG,"""",null,250,37,forwardMask,n,"""",11/10/2020 2:01,69.125.145.27,"Mozilla/5.0 (Windows NT 10.0; Win64; x64) AppleWebKit/537.36 (KHTML, like Gecko) Chrome/86.0.4240.183 Safari/537.36",WebKit,Chrome,86.0.4240.183,Windows,10
41,1,null,"""",image-keyboard-response,221,169904,0.0-221.0,jspsych/neutralFaces/BF26NES.JPG,"""",null,26,37,Cue,"""","""",11/10/2020 2:01,69.125.145.27,"Mozilla/5.0 (Windows NT 10.0; Win64; x64) AppleWebKit/537.36 (KHTML, like Gecko) Chrome/86.0.4240.183 Safari/537.36",WebKit,Chrome,86.0.4240.183,Windows,10
41,1,null,"""",image-keyboard-response,222,170013,0.0-222.0,jspsych/neutralFaces/BM04NES.JPG,"""",null,100,37,backwardMask,"""","""",11/10/2020 2:01,69.125.145.27,"Mozilla/5.0 (Windows NT 10.0; Win64; x64) AppleWebKit/537.36 (KHTML, like Gecko) Chrome/86.0.4240.183 Safari/537.36",WebKit,Chrome,86.0.4240.183,Windows,10
41,1,null,"""",html-keyboard-response,223,170222,0.0-223.0,"<div style=""font-size:60px;"">+</div>","""",null,200,37,fixationBtwnNeutralMaskAndPrompt,"""","""",11/10/2020 2:01,69.125.145.27,"Mozilla/5.0 (Windows NT 10.0; Win64; x64) AppleWebKit/537.36 (KHTML, like Gecko) Chrome/86.0.4240.183 Safari/537.36",WebKit,Chrome,86.0.4240.183,Windows,10
41,1,355.285,"""",html-keyboard-response,224,170579,0.0-224.0,"<p> What was the emotion of the hidden face? <br> Press, <b>d</b> for <i>disgust face</i> or <b>n</b> for <i>neutral face</i></p>","""",78,"""",37,Query,"""",n,11/10/2020 2:01,69.125.145.27,"Mozilla/5.0 (Windows NT 10.0; Win64; x64) AppleWebKit/537.36 (KHTML, like Gecko) Chrome/86.0.4240.183 Safari/537.36",WebKit,Chrome,86.0.4240.183,Windows,10
41,1,null,"""",html-keyboard-response,225,171588,0.0-225.0,"<div style=""font-size:60px;"">+</div>","""",null,1000,38,ITI,"""","""",11/10/2020 2:01,69.125.145.27,"Mozilla/5.0 (Windows NT 10.0; Win64; x64) AppleWebKit/537.36 (KHTML, like Gecko) Chrome/86.0.4240.183 Safari/537.36",WebKit,Chrome,86.0.4240.183,Windows,10
41,1,null,"""",image-keyboard-response,226,171844,0.0-226.0,jspsych/scrambledNeutralFaces/scrambledAM18NES.JPG,"""",null,250,38,forwardMask,n,"""",11/10/2020 2:01,69.125.145.27,"Mozilla/5.0 (Windows NT 10.0; Win64; x64) AppleWebKit/537.36 (KHTML, like Gecko) Chrome/86.0.4240.183 Safari/537.36",WebKit,Chrome,86.0.4240.183,Windows,10
41,1,null,"""",image-keyboard-response,227,171906,0.0-227.0,jspsych/neutralFaces/AM18NES.JPG,"""",null,60,38,Cue,"""","""",11/10/2020 2:01,69.125.145.27,"Mozilla/5.0 (Windows NT 10.0; Win64; x64) AppleWebKit/537.36 (KHTML, like Gecko) Chrome/86.0.4240.183 Safari/537.36",WebKit,Chrome,86.0.4240.183,Windows,10
41,1,null,"""",image-keyboard-response,228,172011,0.0-228.0,jspsych/neutralFaces/AF20NES.JPG,"""",null,100,38,backwardMask,"""","""",11/10/2020 2:01,69.125.145.27,"Mozilla/5.0 (Windows NT 10.0; Win64; x64) AppleWebKit/537.36 (KHTML, like Gecko) Chrome/86.0.4240.183 Safari/537.36",WebKit,Chrome,86.0.4240.183,Windows,10
41,1,null,"""",html-keyboard-response,229,172217,0.0-229.0,"<div style=""font-size:60px;"">+</div>","""",null,200,38,fixationBtwnNeutralMaskAndPrompt,"""","""",11/10/2020 2:01,69.125.145.27,"Mozilla/5.0 (Windows NT 10.0; Win64; x64) AppleWebKit/537.36 (KHTML, like Gecko) Chrome/86.0.4240.183 Safari/537.36",WebKit,Chrome,86.0.4240.183,Windows,10
41,1,1073.585,"""",html-keyboard-response,230,173292,0.0-230.0,"<p> What was the emotion of the hidden face? <br> Press, <b>d</b> for <i>disgust face</i> or <b>n</b> for <i>neutral face</i></p>","""",78,"""",38,Query,"""",n,11/10/2020 2:01,69.125.145.27,"Mozilla/5.0 (Windows NT 10.0; Win64; x64) AppleWebKit/537.36 (KHTML, like Gecko) Chrome/86.0.4240.183 Safari/537.36",WebKit,Chrome,86.0.4240.183,Windows,10
41,1,null,"""",html-keyboard-response,231,174296,0.0-231.0,"<div style=""font-size:60px;"">+</div>","""",null,1000,39,ITI,"""","""",11/10/2020 2:01,69.125.145.27,"Mozilla/5.0 (Windows NT 10.0; Win64; x64) AppleWebKit/537.36 (KHTML, like Gecko) Chrome/86.0.4240.183 Safari/537.36",WebKit,Chrome,86.0.4240.183,Windows,10
41,1,null,"""",image-keyboard-response,232,174549,0.0-232.0,jspsych/scrambledDisgustFaces/scrambledAF20DIS.JPG,"""",null,250,39,forwardMask,d,"""",11/10/2020 2:01,69.125.145.27,"Mozilla/5.0 (Windows NT 10.0; Win64; x64) AppleWebKit/537.36 (KHTML, like Gecko) Chrome/86.0.4240.183 Safari/537.36",WebKit,Chrome,86.0.4240.183,Windows,10
41,1,null,"""",image-keyboard-response,233,174595,0.0-233.0,jspsych/disgustFaces/AF20DIS.JPG,"""",null,38,39,Cue,"""","""",11/10/2020 2:01,69.125.145.27,"Mozilla/5.0 (Windows NT 10.0; Win64; x64) AppleWebKit/537.36 (KHTML, like Gecko) Chrome/86.0.4240.183 Safari/537.36",WebKit,Chrome,86.0.4240.183,Windows,10
41,1,null,"""",image-keyboard-response,234,174697,0.0-234.0,jspsych/neutralFaces/BF27NES.JPG,"""",null,100,39,backwardMask,"""","""",11/10/2020 2:01,69.125.145.27,"Mozilla/5.0 (Windows NT 10.0; Win64; x64) AppleWebKit/537.36 (KHTML, like Gecko) Chrome/86.0.4240.183 Safari/537.36",WebKit,Chrome,86.0.4240.183,Windows,10
41,1,null,"""",html-keyboard-response,235,174902,0.0-235.0,"<div style=""font-size:60px;"">+</div>","""",null,200,39,fixationBtwnNeutralMaskAndPrompt,"""","""",11/10/2020 2:01,69.125.145.27,"Mozilla/5.0 (Windows NT 10.0; Win64; x64) AppleWebKit/537.36 (KHTML, like Gecko) Chrome/86.0.4240.183 Safari/537.36",WebKit,Chrome,86.0.4240.183,Windows,10
41,1,2051.86,"""",html-keyboard-response,236,176955,0.0-236.0,"<p> What was the emotion of the hidden face? <br> Press, <b>d</b> for <i>disgust face</i> or <b>n</b> for <i>neutral face</i></p>","""",78,"""",39,Query,"""",n,11/10/2020 2:01,69.125.145.27,"Mozilla/5.0 (Windows NT 10.0; Win64; x64) AppleWebKit/537.36 (KHTML, like Gecko) Chrome/86.0.4240.183 Safari/537.36",WebKit,Chrome,86.0.4240.183,Windows,10
41,1,null,"""",html-keyboard-response,237,177969,0.0-237.0,"<div style=""font-size:60px;"">+</div>","""",null,1000,40,ITI,"""","""",11/10/2020 2:01,69.125.145.27,"Mozilla/5.0 (Windows NT 10.0; Win64; x64) AppleWebKit/537.36 (KHTML, like Gecko) Chrome/86.0.4240.183 Safari/537.36",WebKit,Chrome,86.0.4240.183,Windows,10
41,1,null,"""",image-keyboard-response,238,178226,0.0-238.0,jspsych/scrambledNeutralFaces/scrambledAM17NES.JPG,"""",null,250,40,forwardMask,n,"""",11/10/2020 2:01,69.125.145.27,"Mozilla/5.0 (Windows NT 10.0; Win64; x64) AppleWebKit/537.36 (KHTML, like Gecko) Chrome/86.0.4240.183 Safari/537.36",WebKit,Chrome,86.0.4240.183,Windows,10
41,1,null,"""",image-keyboard-response,239,178273,0.0-239.0,jspsych/neutralFaces/AM17NES.JPG,"""",null,38,40,Cue,"""","""",11/10/2020 2:01,69.125.145.27,"Mozilla/5.0 (Windows NT 10.0; Win64; x64) AppleWebKit/537.36 (KHTML, like Gecko) Chrome/86.0.4240.183 Safari/537.36",WebKit,Chrome,86.0.4240.183,Windows,10
41,1,null,"""",image-keyboard-response,240,178382,0.0-240.0,jspsych/neutralFaces/BF03NES.JPG,"""",null,100,40,backwardMask,"""","""",11/10/2020 2:01,69.125.145.27,"Mozilla/5.0 (Windows NT 10.0; Win64; x64) AppleWebKit/537.36 (KHTML, like Gecko) Chrome/86.0.4240.183 Safari/537.36",WebKit,Chrome,86.0.4240.183,Windows,10
41,1,null,"""",html-keyboard-response,241,178590,0.0-241.0,"<div style=""font-size:60px;"">+</div>","""",null,200,40,fixationBtwnNeutralMaskAndPrompt,"""","""",11/10/2020 2:01,69.125.145.27,"Mozilla/5.0 (Windows NT 10.0; Win64; x64) AppleWebKit/537.36 (KHTML, like Gecko) Chrome/86.0.4240.183 Safari/537.36",WebKit,Chrome,86.0.4240.183,Windows,10
41,1,237.255,"""",html-keyboard-response,242,178829,0.0-242.0,"<p> What was the emotion of the hidden face? <br> Press, <b>d</b> for <i>disgust face</i> or <b>n</b> for <i>neutral face</i></p>","""",78,"""",40,Query,"""",n,11/10/2020 2:01,69.125.145.27,"Mozilla/5.0 (Windows NT 10.0; Win64; x64) AppleWebKit/537.36 (KHTML, like Gecko) Chrome/86.0.4240.183 Safari/537.36",WebKit,Chrome,86.0.4240.183,Windows,10
41,1,null,"""",html-keyboard-response,243,179832,0.0-243.0,"<div style=""font-size:60px;"">+</div>","""",null,1000,41,ITI,"""","""",11/10/2020 2:01,69.125.145.27,"Mozilla/5.0 (Windows NT 10.0; Win64; x64) AppleWebKit/537.36 (KHTML, like Gecko) Chrome/86.0.4240.183 Safari/537.36",WebKit,Chrome,86.0.4240.183,Windows,10
41,1,null,"""",image-keyboard-response,244,180087,0.0-244.0,jspsych/scrambledNeutralFaces/scrambledAM34NES.JPG,"""",null,250,41,forwardMask,n,"""",11/10/2020 2:01,69.125.145.27,"Mozilla/5.0 (Windows NT 10.0; Win64; x64) AppleWebKit/537.36 (KHTML, like Gecko) Chrome/86.0.4240.183 Safari/537.36",WebKit,Chrome,86.0.4240.183,Windows,10
41,1,null,"""",image-keyboard-response,245,180116,0.0-245.0,jspsych/neutralFaces/AM34NES.JPG,"""",null,26,41,Cue,"""","""",11/10/2020 2:01,69.125.145.27,"Mozilla/5.0 (Windows NT 10.0; Win64; x64) AppleWebKit/537.36 (KHTML, like Gecko) Chrome/86.0.4240.183 Safari/537.36",WebKit,Chrome,86.0.4240.183,Windows,10
41,1,null,"""",image-keyboard-response,246,180218,0.0-246.0,jspsych/neutralFaces/AM31NES.JPG,"""",null,100,41,backwardMask,"""","""",11/10/2020 2:01,69.125.145.27,"Mozilla/5.0 (Windows NT 10.0; Win64; x64) AppleWebKit/537.36 (KHTML, like Gecko) Chrome/86.0.4240.183 Safari/537.36",WebKit,Chrome,86.0.4240.183,Windows,10
41,1,null,"""",html-keyboard-response,247,180422,0.0-247.0,"<div style=""font-size:60px;"">+</div>","""",null,200,41,fixationBtwnNeutralMaskAndPrompt,"""","""",11/10/2020 2:01,69.125.145.27,"Mozilla/5.0 (Windows NT 10.0; Win64; x64) AppleWebKit/537.36 (KHTML, like Gecko) Chrome/86.0.4240.183 Safari/537.36",WebKit,Chrome,86.0.4240.183,Windows,10
41,1,183.515,"""",html-keyboard-response,248,180606,0.0-248.0,"<p> What was the emotion of the hidden face? <br> Press, <b>d</b> for <i>disgust face</i> or <b>n</b> for <i>neutral face</i></p>","""",78,"""",41,Query,"""",n,11/10/2020 2:01,69.125.145.27,"Mozilla/5.0 (Windows NT 10.0; Win64; x64) AppleWebKit/537.36 (KHTML, like Gecko) Chrome/86.0.4240.183 Safari/537.36",WebKit,Chrome,86.0.4240.183,Windows,10
41,1,null,"""",html-keyboard-response,249,181611,0.0-249.0,"<div style=""font-size:60px;"">+</div>","""",null,1000,42,ITI,"""","""",11/10/2020 2:01,69.125.145.27,"Mozilla/5.0 (Windows NT 10.0; Win64; x64) AppleWebKit/537.36 (KHTML, like Gecko) Chrome/86.0.4240.183 Safari/537.36",WebKit,Chrome,86.0.4240.183,Windows,10
41,1,null,"""",image-keyboard-response,250,181867,0.0-250.0,jspsych/scrambledDisgustFaces/scrambledAF19DIS.JPG,"""",null,250,42,forwardMask,d,"""",11/10/2020 2:01,69.125.145.27,"Mozilla/5.0 (Windows NT 10.0; Win64; x64) AppleWebKit/537.36 (KHTML, like Gecko) Chrome/86.0.4240.183 Safari/537.36",WebKit,Chrome,86.0.4240.183,Windows,10
41,1,null,"""",image-keyboard-response,251,181962,0.0-251.0,jspsych/disgustFaces/AF19DIS.JPG,"""",null,92,42,Cue,"""","""",11/10/2020 2:01,69.125.145.27,"Mozilla/5.0 (Windows NT 10.0; Win64; x64) AppleWebKit/537.36 (KHTML, like Gecko) Chrome/86.0.4240.183 Safari/537.36",WebKit,Chrome,86.0.4240.183,Windows,10
41,1,null,"""",image-keyboard-response,252,182066,0.0-252.0,jspsych/neutralFaces/BF06NES.JPG,"""",null,100,42,backwardMask,"""","""",11/10/2020 2:01,69.125.145.27,"Mozilla/5.0 (Windows NT 10.0; Win64; x64) AppleWebKit/537.36 (KHTML, like Gecko) Chrome/86.0.4240.183 Safari/537.36",WebKit,Chrome,86.0.4240.183,Windows,10
41,1,null,"""",html-keyboard-response,253,182267,0.0-253.0,"<div style=""font-size:60px;"">+</div>","""",null,200,42,fixationBtwnNeutralMaskAndPrompt,"""","""",11/10/2020 2:01,69.125.145.27,"Mozilla/5.0 (Windows NT 10.0; Win64; x64) AppleWebKit/537.36 (KHTML, like Gecko) Chrome/86.0.4240.183 Safari/537.36",WebKit,Chrome,86.0.4240.183,Windows,10
41,1,50.385,"""",html-keyboard-response,254,182319,0.0-254.0,"<p> What was the emotion of the hidden face? <br> Press, <b>d</b> for <i>disgust face</i> or <b>n</b> for <i>neutral face</i></p>","""",68,"""",42,Query,"""",d,11/10/2020 2:01,69.125.145.27,"Mozilla/5.0 (Windows NT 10.0; Win64; x64) AppleWebKit/537.36 (KHTML, like Gecko) Chrome/86.0.4240.183 Safari/537.36",WebKit,Chrome,86.0.4240.183,Windows,10
41,1,null,"""",html-keyboard-response,255,183327,0.0-255.0,"<div style=""font-size:60px;"">+</div>","""",null,1000,43,ITI,"""","""",11/10/2020 2:01,69.125.145.27,"Mozilla/5.0 (Windows NT 10.0; Win64; x64) AppleWebKit/537.36 (KHTML, like Gecko) Chrome/86.0.4240.183 Safari/537.36",WebKit,Chrome,86.0.4240.183,Windows,10
41,1,null,"""",image-keyboard-response,256,183581,0.0-256.0,jspsych/scrambledNeutralFaces/scrambledBM06NES.JPG,"""",null,250,43,forwardMask,n,"""",11/10/2020 2:01,69.125.145.27,"Mozilla/5.0 (Windows NT 10.0; Win64; x64) AppleWebKit/537.36 (KHTML, like Gecko) Chrome/86.0.4240.183 Safari/537.36",WebKit,Chrome,86.0.4240.183,Windows,10
41,1,null,"""",image-keyboard-response,257,183617,0.0-257.0,jspsych/neutralFaces/BM06NES.JPG,"""",null,26,43,Cue,"""","""",11/10/2020 2:01,69.125.145.27,"Mozilla/5.0 (Windows NT 10.0; Win64; x64) AppleWebKit/537.36 (KHTML, like Gecko) Chrome/86.0.4240.183 Safari/537.36",WebKit,Chrome,86.0.4240.183,Windows,10
41,1,null,"""",image-keyboard-response,258,183719,0.0-258.0,jspsych/neutralFaces/BF12NES.JPG,"""",null,100,43,backwardMask,"""","""",11/10/2020 2:01,69.125.145.27,"Mozilla/5.0 (Windows NT 10.0; Win64; x64) AppleWebKit/537.36 (KHTML, like Gecko) Chrome/86.0.4240.183 Safari/537.36",WebKit,Chrome,86.0.4240.183,Windows,10
41,1,null,"""",html-keyboard-response,259,183927,0.0-259.0,"<div style=""font-size:60px;"">+</div>","""",null,200,43,fixationBtwnNeutralMaskAndPrompt,"""","""",11/10/2020 2:01,69.125.145.27,"Mozilla/5.0 (Windows NT 10.0; Win64; x64) AppleWebKit/537.36 (KHTML, like Gecko) Chrome/86.0.4240.183 Safari/537.36",WebKit,Chrome,86.0.4240.183,Windows,10
41,1,425.465,"""",html-keyboard-response,260,184354,0.0-260.0,"<p> What was the emotion of the hidden face? <br> Press, <b>d</b> for <i>disgust face</i> or <b>n</b> for <i>neutral face</i></p>","""",78,"""",43,Query,"""",n,11/10/2020 2:01,69.125.145.27,"Mozilla/5.0 (Windows NT 10.0; Win64; x64) AppleWebKit/537.36 (KHTML, like Gecko) Chrome/86.0.4240.183 Safari/537.36",WebKit,Chrome,86.0.4240.183,Windows,10
41,1,null,"""",html-keyboard-response,261,185358,0.0-261.0,"<div style=""font-size:60px;"">+</div>","""",null,1000,44,ITI,"""","""",11/10/2020 2:01,69.125.145.27,"Mozilla/5.0 (Windows NT 10.0; Win64; x64) AppleWebKit/537.36 (KHTML, like Gecko) Chrome/86.0.4240.183 Safari/537.36",WebKit,Chrome,86.0.4240.183,Windows,10
41,1,null,"""",image-keyboard-response,262,185619,0.0-262.0,jspsych/scrambledNeutralFaces/scrambledAM35NES.JPG,"""",null,250,44,forwardMask,n,"""",11/10/2020 2:01,69.125.145.27,"Mozilla/5.0 (Windows NT 10.0; Win64; x64) AppleWebKit/537.36 (KHTML, like Gecko) Chrome/86.0.4240.183 Safari/537.36",WebKit,Chrome,86.0.4240.183,Windows,10
41,1,null,"""",image-keyboard-response,263,185639,0.0-263.0,jspsych/neutralFaces/AM35NES.JPG,"""",null,9,44,Cue,"""","""",11/10/2020 2:01,69.125.145.27,"Mozilla/5.0 (Windows NT 10.0; Win64; x64) AppleWebKit/537.36 (KHTML, like Gecko) Chrome/86.0.4240.183 Safari/537.36",WebKit,Chrome,86.0.4240.183,Windows,10
41,1,null,"""",image-keyboard-response,264,185744,0.0-264.0,jspsych/neutralFaces/AM22NES.JPG,"""",null,100,44,backwardMask,"""","""",11/10/2020 2:01,69.125.145.27,"Mozilla/5.0 (Windows NT 10.0; Win64; x64) AppleWebKit/537.36 (KHTML, like Gecko) Chrome/86.0.4240.183 Safari/537.36",WebKit,Chrome,86.0.4240.183,Windows,10
41,1,null,"""",html-keyboard-response,265,185948,0.0-265.0,"<div style=""font-size:60px;"">+</div>","""",null,200,44,fixationBtwnNeutralMaskAndPrompt,"""","""",11/10/2020 2:01,69.125.145.27,"Mozilla/5.0 (Windows NT 10.0; Win64; x64) AppleWebKit/537.36 (KHTML, like Gecko) Chrome/86.0.4240.183 Safari/537.36",WebKit,Chrome,86.0.4240.183,Windows,10
41,1,193.095,"""",html-keyboard-response,266,186143,0.0-266.0,"<p> What was the emotion of the hidden face? <br> Press, <b>d</b> for <i>disgust face</i> or <b>n</b> for <i>neutral face</i></p>","""",78,"""",44,Query,"""",n,11/10/2020 2:01,69.125.145.27,"Mozilla/5.0 (Windows NT 10.0; Win64; x64) AppleWebKit/537.36 (KHTML, like Gecko) Chrome/86.0.4240.183 Safari/537.36",WebKit,Chrome,86.0.4240.183,Windows,10
41,1,null,"""",html-keyboard-response,267,187146,0.0-267.0,"<div style=""font-size:60px;"">+</div>","""",null,1000,45,ITI,"""","""",11/10/2020 2:01,69.125.145.27,"Mozilla/5.0 (Windows NT 10.0; Win64; x64) AppleWebKit/537.36 (KHTML, like Gecko) Chrome/86.0.4240.183 Safari/537.36",WebKit,Chrome,86.0.4240.183,Windows,10
41,1,null,"""",image-keyboard-response,268,187404,0.0-268.0,jspsych/scrambledDisgustFaces/scrambledAM18DIS.JPG,"""",null,250,45,forwardMask,d,"""",11/10/2020 2:01,69.125.145.27,"Mozilla/5.0 (Windows NT 10.0; Win64; x64) AppleWebKit/537.36 (KHTML, like Gecko) Chrome/86.0.4240.183 Safari/537.36",WebKit,Chrome,86.0.4240.183,Windows,10
41,1,null,"""",image-keyboard-response,269,187417,0.0-269.0,jspsych/disgustFaces/AM18DIS.JPG,"""",null,9,45,Cue,"""","""",11/10/2020 2:01,69.125.145.27,"Mozilla/5.0 (Windows NT 10.0; Win64; x64) AppleWebKit/537.36 (KHTML, like Gecko) Chrome/86.0.4240.183 Safari/537.36",WebKit,Chrome,86.0.4240.183,Windows,10
41,1,null,"""",image-keyboard-response,270,187524,0.0-270.0,jspsych/neutralFaces/BF28NES.JPG,"""",null,100,45,backwardMask,"""","""",11/10/2020 2:01,69.125.145.27,"Mozilla/5.0 (Windows NT 10.0; Win64; x64) AppleWebKit/537.36 (KHTML, like Gecko) Chrome/86.0.4240.183 Safari/537.36",WebKit,Chrome,86.0.4240.183,Windows,10
41,1,null,"""",html-keyboard-response,271,187728,0.0-271.0,"<div style=""font-size:60px;"">+</div>","""",null,200,45,fixationBtwnNeutralMaskAndPrompt,"""","""",11/10/2020 2:01,69.125.145.27,"Mozilla/5.0 (Windows NT 10.0; Win64; x64) AppleWebKit/537.36 (KHTML, like Gecko) Chrome/86.0.4240.183 Safari/537.36",WebKit,Chrome,86.0.4240.183,Windows,10
41,1,256.325,"""",html-keyboard-response,272,187986,0.0-272.0,"<p> What was the emotion of the hidden face? <br> Press, <b>d</b> for <i>disgust face</i> or <b>n</b> for <i>neutral face</i></p>","""",78,"""",45,Query,"""",n,11/10/2020 2:01,69.125.145.27,"Mozilla/5.0 (Windows NT 10.0; Win64; x64) AppleWebKit/537.36 (KHTML, like Gecko) Chrome/86.0.4240.183 Safari/537.36",WebKit,Chrome,86.0.4240.183,Windows,10
41,1,null,"""",html-keyboard-response,273,188992,0.0-273.0,"<div style=""font-size:60px;"">+</div>","""",null,1000,46,ITI,"""","""",11/10/2020 2:01,69.125.145.27,"Mozilla/5.0 (Windows NT 10.0; Win64; x64) AppleWebKit/537.36 (KHTML, like Gecko) Chrome/86.0.4240.183 Safari/537.36",WebKit,Chrome,86.0.4240.183,Windows,10
41,1,null,"""",image-keyboard-response,274,189253,0.0-274.0,jspsych/scrambledDisgustFaces/scrambledBF06DIS.JPG,"""",null,250,46,forwardMask,d,"""",11/10/2020 2:01,69.125.145.27,"Mozilla/5.0 (Windows NT 10.0; Win64; x64) AppleWebKit/537.36 (KHTML, like Gecko) Chrome/86.0.4240.183 Safari/537.36",WebKit,Chrome,86.0.4240.183,Windows,10
41,1,null,"""",image-keyboard-response,275,189265,0.0-275.0,jspsych/disgustFaces/BF06DIS.JPG,"""",null,9,46,Cue,"""","""",11/10/2020 2:01,69.125.145.27,"Mozilla/5.0 (Windows NT 10.0; Win64; x64) AppleWebKit/537.36 (KHTML, like Gecko) Chrome/86.0.4240.183 Safari/537.36",WebKit,Chrome,86.0.4240.183,Windows,10
41,1,null,"""",image-keyboard-response,276,189368,0.0-276.0,jspsych/neutralFaces/AF06NES.JPG,"""",null,100,46,backwardMask,"""","""",11/10/2020 2:01,69.125.145.27,"Mozilla/5.0 (Windows NT 10.0; Win64; x64) AppleWebKit/537.36 (KHTML, like Gecko) Chrome/86.0.4240.183 Safari/537.36",WebKit,Chrome,86.0.4240.183,Windows,10
41,1,null,"""",html-keyboard-response,277,189570,0.0-277.0,"<div style=""font-size:60px;"">+</div>","""",null,200,46,fixationBtwnNeutralMaskAndPrompt,"""","""",11/10/2020 2:01,69.125.145.27,"Mozilla/5.0 (Windows NT 10.0; Win64; x64) AppleWebKit/537.36 (KHTML, like Gecko) Chrome/86.0.4240.183 Safari/537.36",WebKit,Chrome,86.0.4240.183,Windows,10
41,1,307.18,"""",html-keyboard-response,278,189878,0.0-278.0,"<p> What was the emotion of the hidden face? <br> Press, <b>d</b> for <i>disgust face</i> or <b>n</b> for <i>neutral face</i></p>","""",78,"""",46,Query,"""",n,11/10/2020 2:01,69.125.145.27,"Mozilla/5.0 (Windows NT 10.0; Win64; x64) AppleWebKit/537.36 (KHTML, like Gecko) Chrome/86.0.4240.183 Safari/537.36",WebKit,Chrome,86.0.4240.183,Windows,10
41,1,null,"""",html-keyboard-response,279,190889,0.0-279.0,"<div style=""font-size:60px;"">+</div>","""",null,1000,47,ITI,"""","""",11/10/2020 2:01,69.125.145.27,"Mozilla/5.0 (Windows NT 10.0; Win64; x64) AppleWebKit/537.36 (KHTML, like Gecko) Chrome/86.0.4240.183 Safari/537.36",WebKit,Chrome,86.0.4240.183,Windows,10
41,1,null,"""",image-keyboard-response,280,191147,0.0-280.0,jspsych/scrambledDisgustFaces/scrambledAF13DIS.JPG,"""",null,250,47,forwardMask,d,"""",11/10/2020 2:01,69.125.145.27,"Mozilla/5.0 (Windows NT 10.0; Win64; x64) AppleWebKit/537.36 (KHTML, like Gecko) Chrome/86.0.4240.183 Safari/537.36",WebKit,Chrome,86.0.4240.183,Windows,10
41,1,null,"""",image-keyboard-response,281,191277,0.0-281.0,jspsych/disgustFaces/AF13DIS.JPG,"""",null,122,47,Cue,"""","""",11/10/2020 2:01,69.125.145.27,"Mozilla/5.0 (Windows NT 10.0; Win64; x64) AppleWebKit/537.36 (KHTML, like Gecko) Chrome/86.0.4240.183 Safari/537.36",WebKit,Chrome,86.0.4240.183,Windows,10
41,1,null,"""",image-keyboard-response,282,191382,0.0-282.0,jspsych/neutralFaces/BF19NES.JPG,"""",null,100,47,backwardMask,"""","""",11/10/2020 2:01,69.125.145.27,"Mozilla/5.0 (Windows NT 10.0; Win64; x64) AppleWebKit/537.36 (KHTML, like Gecko) Chrome/86.0.4240.183 Safari/537.36",WebKit,Chrome,86.0.4240.183,Windows,10
41,1,null,"""",html-keyboard-response,283,191591,0.0-283.0,"<div style=""font-size:60px;"">+</div>","""",null,200,47,fixationBtwnNeutralMaskAndPrompt,"""","""",11/10/2020 2:01,69.125.145.27,"Mozilla/5.0 (Windows NT 10.0; Win64; x64) AppleWebKit/537.36 (KHTML, like Gecko) Chrome/86.0.4240.183 Safari/537.36",WebKit,Chrome,86.0.4240.183,Windows,10
41,1,132.89,"""",html-keyboard-response,284,191725,0.0-284.0,"<p> What was the emotion of the hidden face? <br> Press, <b>d</b> for <i>disgust face</i> or <b>n</b> for <i>neutral face</i></p>","""",68,"""",47,Query,"""",d,11/10/2020 2:01,69.125.145.27,"Mozilla/5.0 (Windows NT 10.0; Win64; x64) AppleWebKit/537.36 (KHTML, like Gecko) Chrome/86.0.4240.183 Safari/537.36",WebKit,Chrome,86.0.4240.183,Windows,10
41,1,null,"""",html-keyboard-response,285,192730,0.0-285.0,"<div style=""font-size:60px;"">+</div>","""",null,1000,48,ITI,"""","""",11/10/2020 2:01,69.125.145.27,"Mozilla/5.0 (Windows NT 10.0; Win64; x64) AppleWebKit/537.36 (KHTML, like Gecko) Chrome/86.0.4240.183 Safari/537.36",WebKit,Chrome,86.0.4240.183,Windows,10
41,1,null,"""",image-keyboard-response,286,192993,0.0-286.0,jspsych/scrambledNeutralFaces/scrambledBF06NES.JPG,"""",null,250,48,forwardMask,n,"""",11/10/2020 2:01,69.125.145.27,"Mozilla/5.0 (Windows NT 10.0; Win64; x64) AppleWebKit/537.36 (KHTML, like Gecko) Chrome/86.0.4240.183 Safari/537.36",WebKit,Chrome,86.0.4240.183,Windows,10
41,1,null,"""",image-keyboard-response,287,193032,0.0-287.0,jspsych/neutralFaces/BF06NES.JPG,"""",null,38,48,Cue,"""","""",11/10/2020 2:01,69.125.145.27,"Mozilla/5.0 (Windows NT 10.0; Win64; x64) AppleWebKit/537.36 (KHTML, like Gecko) Chrome/86.0.4240.183 Safari/537.36",WebKit,Chrome,86.0.4240.183,Windows,10
41,1,null,"""",image-keyboard-response,288,193135,0.0-288.0,jspsych/neutralFaces/BF24NES.JPG,"""",null,100,48,backwardMask,"""","""",11/10/2020 2:01,69.125.145.27,"Mozilla/5.0 (Windows NT 10.0; Win64; x64) AppleWebKit/537.36 (KHTML, like Gecko) Chrome/86.0.4240.183 Safari/537.36",WebKit,Chrome,86.0.4240.183,Windows,10
41,1,null,"""",html-keyboard-response,289,193340,0.0-289.0,"<div style=""font-size:60px;"">+</div>","""",null,200,48,fixationBtwnNeutralMaskAndPrompt,"""","""",11/10/2020 2:01,69.125.145.27,"Mozilla/5.0 (Windows NT 10.0; Win64; x64) AppleWebKit/537.36 (KHTML, like Gecko) Chrome/86.0.4240.183 Safari/537.36",WebKit,Chrome,86.0.4240.183,Windows,10
41,1,224.355,"""",html-keyboard-response,290,193566,0.0-290.0,"<p> What was the emotion of the hidden face? <br> Press, <b>d</b> for <i>disgust face</i> or <b>n</b> for <i>neutral face</i></p>","""",78,"""",48,Query,"""",n,11/10/2020 2:01,69.125.145.27,"Mozilla/5.0 (Windows NT 10.0; Win64; x64) AppleWebKit/537.36 (KHTML, like Gecko) Chrome/86.0.4240.183 Safari/537.36",WebKit,Chrome,86.0.4240.183,Windows,10
41,1,null,"""",html-keyboard-response,291,194569,0.0-291.0,"<div style=""font-size:60px;"">+</div>","""",null,1000,49,ITI,"""","""",11/10/2020 2:01,69.125.145.27,"Mozilla/5.0 (Windows NT 10.0; Win64; x64) AppleWebKit/537.36 (KHTML, like Gecko) Chrome/86.0.4240.183 Safari/537.36",WebKit,Chrome,86.0.4240.183,Windows,10
41,1,null,"""",image-keyboard-response,292,194825,0.0-292.0,jspsych/scrambledDisgustFaces/scrambledBM27DIS.JPG,"""",null,250,49,forwardMask,d,"""",11/10/2020 2:01,69.125.145.27,"Mozilla/5.0 (Windows NT 10.0; Win64; x64) AppleWebKit/537.36 (KHTML, like Gecko) Chrome/86.0.4240.183 Safari/537.36",WebKit,Chrome,86.0.4240.183,Windows,10
41,1,null,"""",image-keyboard-response,293,194954,0.0-293.0,jspsych/disgustFaces/BM27DIS.JPG,"""",null,122,49,Cue,"""","""",11/10/2020 2:01,69.125.145.27,"Mozilla/5.0 (Windows NT 10.0; Win64; x64) AppleWebKit/537.36 (KHTML, like Gecko) Chrome/86.0.4240.183 Safari/537.36",WebKit,Chrome,86.0.4240.183,Windows,10
