run_id,condition,rt,stimulus,key_press,trial_type,trial_index,time_elapsed,internal_node_id,iTrial,Phase,StimulusDurationSetting,correctResponse,recorded_at,ip,user_agent,device,browser,browser_version,platform,platform_version
45,1,839.535,Press Key to Begin Experiment,77,html-keyboard-response,0,841,0.0-0.0,1,welcomeScreen,"""","""",10/28/2020 6:13,69.125.145.27,"Mozilla/5.0 (Windows NT 10.0; Win64; x64) AppleWebKit/537.36 (KHTML, like Gecko) Chrome/86.0.4240.111 Safari/537.36",WebKit,Chrome,86.0.4240.111,Windows,10
45,1,null,"<div style=""font-size:60px;"">+</div>",null,html-keyboard-response,1,932,0.0-1.0,1,ITI,50,"""",10/28/2020 6:13,69.125.145.27,"Mozilla/5.0 (Windows NT 10.0; Win64; x64) AppleWebKit/537.36 (KHTML, like Gecko) Chrome/86.0.4240.111 Safari/537.36",WebKit,Chrome,86.0.4240.111,Windows,10
45,1,null,jspsych/allScrambledFaces/scrambledBF04DIS.JPG,null,image-keyboard-response,2,991,0.0-2.0,1,forwardMask,50,d,10/28/2020 6:13,69.125.145.27,"Mozilla/5.0 (Windows NT 10.0; Win64; x64) AppleWebKit/537.36 (KHTML, like Gecko) Chrome/86.0.4240.111 Safari/537.36",WebKit,Chrome,86.0.4240.111,Windows,10
45,1,null,jspsych/allFaces/BF04DIS.JPG,null,image-keyboard-response,3,1046,0.0-3.0,1,Cue,"function(){
        return jsPsych.randomization.sampleWithoutReplacement(cueDuration, 1)[0]}","""",10/28/2020 6:13,69.125.145.27,"Mozilla/5.0 (Windows NT 10.0; Win64; x64) AppleWebKit/537.36 (KHTML, like Gecko) Chrome/86.0.4240.111 Safari/537.36",WebKit,Chrome,86.0.4240.111,Windows,10
45,1,null,jspsych/allFaces/BF16NES.JPG,null,image-keyboard-response,4,1120,0.0-4.0,1,backwardMask,50,"""",10/28/2020 6:13,69.125.145.27,"Mozilla/5.0 (Windows NT 10.0; Win64; x64) AppleWebKit/537.36 (KHTML, like Gecko) Chrome/86.0.4240.111 Safari/537.36",WebKit,Chrome,86.0.4240.111,Windows,10
45,1,null,"<div style=""font-size:60px;"">+</div>",null,html-keyboard-response,5,1175,0.0-5.0,1,fixationBtwnNeutralMaskAndPrompt,50,"""",10/28/2020 6:13,69.125.145.27,"Mozilla/5.0 (Windows NT 10.0; Win64; x64) AppleWebKit/537.36 (KHTML, like Gecko) Chrome/86.0.4240.111 Safari/537.36",WebKit,Chrome,86.0.4240.111,Windows,10
45,1,null,"<div style=""font-size:60px;"">+</div>",null,html-keyboard-response,6,1235,0.0-6.0,2,ITI,50,"""",10/28/2020 6:13,69.125.145.27,"Mozilla/5.0 (Windows NT 10.0; Win64; x64) AppleWebKit/537.36 (KHTML, like Gecko) Chrome/86.0.4240.111 Safari/537.36",WebKit,Chrome,86.0.4240.111,Windows,10
45,1,null,jspsych/allScrambledFaces/scrambledAF29DIS.JPG,null,image-keyboard-response,7,1297,0.0-7.0,2,forwardMask,50,d,10/28/2020 6:13,69.125.145.27,"Mozilla/5.0 (Windows NT 10.0; Win64; x64) AppleWebKit/537.36 (KHTML, like Gecko) Chrome/86.0.4240.111 Safari/537.36",WebKit,Chrome,86.0.4240.111,Windows,10
45,1,null,jspsych/allFaces/AF29DIS.JPG,null,image-keyboard-response,8,1358,0.0-8.0,2,Cue,"function(){
        return jsPsych.randomization.sampleWithoutReplacement(cueDuration, 1)[0]}","""",10/28/2020 6:13,69.125.145.27,"Mozilla/5.0 (Windows NT 10.0; Win64; x64) AppleWebKit/537.36 (KHTML, like Gecko) Chrome/86.0.4240.111 Safari/537.36",WebKit,Chrome,86.0.4240.111,Windows,10
45,1,null,jspsych/allFaces/BF14NES.JPG,null,image-keyboard-response,9,1412,0.0-9.0,2,backwardMask,50,"""",10/28/2020 6:13,69.125.145.27,"Mozilla/5.0 (Windows NT 10.0; Win64; x64) AppleWebKit/537.36 (KHTML, like Gecko) Chrome/86.0.4240.111 Safari/537.36",WebKit,Chrome,86.0.4240.111,Windows,10
45,1,null,"<div style=""font-size:60px;"">+</div>",null,html-keyboard-response,10,1465,0.0-10.0,2,fixationBtwnNeutralMaskAndPrompt,50,"""",10/28/2020 6:13,69.125.145.27,"Mozilla/5.0 (Windows NT 10.0; Win64; x64) AppleWebKit/537.36 (KHTML, like Gecko) Chrome/86.0.4240.111 Safari/537.36",WebKit,Chrome,86.0.4240.111,Windows,10
45,1,null,"<div style=""font-size:60px;"">+</div>",null,html-keyboard-response,11,1576,0.0-11.0,3,ITI,50,"""",10/28/2020 6:13,69.125.145.27,"Mozilla/5.0 (Windows NT 10.0; Win64; x64) AppleWebKit/537.36 (KHTML, like Gecko) Chrome/86.0.4240.111 Safari/537.36",WebKit,Chrome,86.0.4240.111,Windows,10
45,1,null,jspsych/allScrambledFaces/scrambledAF17DIS.JPG,null,image-keyboard-response,12,1699,0.0-12.0,3,forwardMask,50,d,10/28/2020 6:13,69.125.145.27,"Mozilla/5.0 (Windows NT 10.0; Win64; x64) AppleWebKit/537.36 (KHTML, like Gecko) Chrome/86.0.4240.111 Safari/537.36",WebKit,Chrome,86.0.4240.111,Windows,10
45,1,null,jspsych/allFaces/AF17DIS.JPG,null,image-keyboard-response,13,1788,0.0-13.0,3,Cue,"function(){
        return jsPsych.randomization.sampleWithoutReplacement(cueDuration, 1)[0]}","""",10/28/2020 6:13,69.125.145.27,"Mozilla/5.0 (Windows NT 10.0; Win64; x64) AppleWebKit/537.36 (KHTML, like Gecko) Chrome/86.0.4240.111 Safari/537.36",WebKit,Chrome,86.0.4240.111,Windows,10
45,1,null,jspsych/allFaces/BF32NES.JPG,null,image-keyboard-response,14,1843,0.0-14.0,3,backwardMask,50,"""",10/28/2020 6:13,69.125.145.27,"Mozilla/5.0 (Windows NT 10.0; Win64; x64) AppleWebKit/537.36 (KHTML, like Gecko) Chrome/86.0.4240.111 Safari/537.36",WebKit,Chrome,86.0.4240.111,Windows,10
45,1,null,"<div style=""font-size:60px;"">+</div>",null,html-keyboard-response,15,1896,0.0-15.0,3,fixationBtwnNeutralMaskAndPrompt,50,"""",10/28/2020 6:13,69.125.145.27,"Mozilla/5.0 (Windows NT 10.0; Win64; x64) AppleWebKit/537.36 (KHTML, like Gecko) Chrome/86.0.4240.111 Safari/537.36",WebKit,Chrome,86.0.4240.111,Windows,10
45,1,null,"<div style=""font-size:60px;"">+</div>",null,html-keyboard-response,16,1950,0.0-16.0,4,ITI,50,"""",10/28/2020 6:13,69.125.145.27,"Mozilla/5.0 (Windows NT 10.0; Win64; x64) AppleWebKit/537.36 (KHTML, like Gecko) Chrome/86.0.4240.111 Safari/537.36",WebKit,Chrome,86.0.4240.111,Windows,10
45,1,null,jspsych/allScrambledFaces/scrambledAM27DIS.JPG,null,image-keyboard-response,17,2008,0.0-17.0,4,forwardMask,50,d,10/28/2020 6:13,69.125.145.27,"Mozilla/5.0 (Windows NT 10.0; Win64; x64) AppleWebKit/537.36 (KHTML, like Gecko) Chrome/86.0.4240.111 Safari/537.36",WebKit,Chrome,86.0.4240.111,Windows,10
45,1,null,jspsych/allFaces/AM27DIS.JPG,null,image-keyboard-response,18,2061,0.0-18.0,4,Cue,"function(){
        return jsPsych.randomization.sampleWithoutReplacement(cueDuration, 1)[0]}","""",10/28/2020 6:13,69.125.145.27,"Mozilla/5.0 (Windows NT 10.0; Win64; x64) AppleWebKit/537.36 (KHTML, like Gecko) Chrome/86.0.4240.111 Safari/537.36",WebKit,Chrome,86.0.4240.111,Windows,10
45,1,null,jspsych/allFaces/BF12NES.JPG,null,image-keyboard-response,19,2117,0.0-19.0,4,backwardMask,50,"""",10/28/2020 6:13,69.125.145.27,"Mozilla/5.0 (Windows NT 10.0; Win64; x64) AppleWebKit/537.36 (KHTML, like Gecko) Chrome/86.0.4240.111 Safari/537.36",WebKit,Chrome,86.0.4240.111,Windows,10
45,1,null,"<div style=""font-size:60px;"">+</div>",null,html-keyboard-response,20,2170,0.0-20.0,4,fixationBtwnNeutralMaskAndPrompt,50,"""",10/28/2020 6:13,69.125.145.27,"Mozilla/5.0 (Windows NT 10.0; Win64; x64) AppleWebKit/537.36 (KHTML, like Gecko) Chrome/86.0.4240.111 Safari/537.36",WebKit,Chrome,86.0.4240.111,Windows,10
45,1,null,"<div style=""font-size:60px;"">+</div>",null,html-keyboard-response,21,2226,0.0-21.0,5,ITI,50,"""",10/28/2020 6:13,69.125.145.27,"Mozilla/5.0 (Windows NT 10.0; Win64; x64) AppleWebKit/537.36 (KHTML, like Gecko) Chrome/86.0.4240.111 Safari/537.36",WebKit,Chrome,86.0.4240.111,Windows,10
45,1,null,jspsych/allScrambledFaces/scrambledAF30DIS.JPG,null,image-keyboard-response,22,2282,0.0-22.0,5,forwardMask,50,d,10/28/2020 6:13,69.125.145.27,"Mozilla/5.0 (Windows NT 10.0; Win64; x64) AppleWebKit/537.36 (KHTML, like Gecko) Chrome/86.0.4240.111 Safari/537.36",WebKit,Chrome,86.0.4240.111,Windows,10
45,1,null,jspsych/allFaces/AF30DIS.JPG,null,image-keyboard-response,23,2338,0.0-23.0,5,Cue,"function(){
        return jsPsych.randomization.sampleWithoutReplacement(cueDuration, 1)[0]}","""",10/28/2020 6:13,69.125.145.27,"Mozilla/5.0 (Windows NT 10.0; Win64; x64) AppleWebKit/537.36 (KHTML, like Gecko) Chrome/86.0.4240.111 Safari/537.36",WebKit,Chrome,86.0.4240.111,Windows,10
45,1,null,jspsych/allFaces/BF30NES.JPG,null,image-keyboard-response,24,2395,0.0-24.0,5,backwardMask,50,"""",10/28/2020 6:13,69.125.145.27,"Mozilla/5.0 (Windows NT 10.0; Win64; x64) AppleWebKit/537.36 (KHTML, like Gecko) Chrome/86.0.4240.111 Safari/537.36",WebKit,Chrome,86.0.4240.111,Windows,10
45,1,null,"<div style=""font-size:60px;"">+</div>",null,html-keyboard-response,25,2449,0.0-25.0,5,fixationBtwnNeutralMaskAndPrompt,50,"""",10/28/2020 6:13,69.125.145.27,"Mozilla/5.0 (Windows NT 10.0; Win64; x64) AppleWebKit/537.36 (KHTML, like Gecko) Chrome/86.0.4240.111 Safari/537.36",WebKit,Chrome,86.0.4240.111,Windows,10
45,1,null,"<div style=""font-size:60px;"">+</div>",null,html-keyboard-response,26,2545,0.0-26.0,6,ITI,50,"""",10/28/2020 6:13,69.125.145.27,"Mozilla/5.0 (Windows NT 10.0; Win64; x64) AppleWebKit/537.36 (KHTML, like Gecko) Chrome/86.0.4240.111 Safari/537.36",WebKit,Chrome,86.0.4240.111,Windows,10
45,1,null,jspsych/allScrambledFaces/scrambledBM09NES.JPG,null,image-keyboard-response,27,2610,0.0-27.0,6,forwardMask,50,n,10/28/2020 6:13,69.125.145.27,"Mozilla/5.0 (Windows NT 10.0; Win64; x64) AppleWebKit/537.36 (KHTML, like Gecko) Chrome/86.0.4240.111 Safari/537.36",WebKit,Chrome,86.0.4240.111,Windows,10
45,1,null,jspsych/allFaces/BM09NES.JPG,null,image-keyboard-response,28,2670,0.0-28.0,6,Cue,"function(){
        return jsPsych.randomization.sampleWithoutReplacement(cueDuration, 1)[0]}","""",10/28/2020 6:13,69.125.145.27,"Mozilla/5.0 (Windows NT 10.0; Win64; x64) AppleWebKit/537.36 (KHTML, like Gecko) Chrome/86.0.4240.111 Safari/537.36",WebKit,Chrome,86.0.4240.111,Windows,10
45,1,null,jspsych/allFaces/BF31NES.JPG,null,image-keyboard-response,29,2736,0.0-29.0,6,backwardMask,50,"""",10/28/2020 6:13,69.125.145.27,"Mozilla/5.0 (Windows NT 10.0; Win64; x64) AppleWebKit/537.36 (KHTML, like Gecko) Chrome/86.0.4240.111 Safari/537.36",WebKit,Chrome,86.0.4240.111,Windows,10
45,1,null,"<div style=""font-size:60px;"">+</div>",null,html-keyboard-response,30,2789,0.0-30.0,6,fixationBtwnNeutralMaskAndPrompt,50,"""",10/28/2020 6:13,69.125.145.27,"Mozilla/5.0 (Windows NT 10.0; Win64; x64) AppleWebKit/537.36 (KHTML, like Gecko) Chrome/86.0.4240.111 Safari/537.36",WebKit,Chrome,86.0.4240.111,Windows,10
45,1,null,"<div style=""font-size:60px;"">+</div>",null,html-keyboard-response,31,2870,0.0-31.0,7,ITI,50,"""",10/28/2020 6:13,69.125.145.27,"Mozilla/5.0 (Windows NT 10.0; Win64; x64) AppleWebKit/537.36 (KHTML, like Gecko) Chrome/86.0.4240.111 Safari/537.36",WebKit,Chrome,86.0.4240.111,Windows,10
45,1,null,jspsych/allScrambledFaces/scrambledBM25NES.JPG,null,image-keyboard-response,32,2924,0.0-32.0,7,forwardMask,50,n,10/28/2020 6:13,69.125.145.27,"Mozilla/5.0 (Windows NT 10.0; Win64; x64) AppleWebKit/537.36 (KHTML, like Gecko) Chrome/86.0.4240.111 Safari/537.36",WebKit,Chrome,86.0.4240.111,Windows,10
45,1,null,jspsych/allFaces/BM25NES.JPG,null,image-keyboard-response,33,2977,0.0-33.0,7,Cue,"function(){
        return jsPsych.randomization.sampleWithoutReplacement(cueDuration, 1)[0]}","""",10/28/2020 6:13,69.125.145.27,"Mozilla/5.0 (Windows NT 10.0; Win64; x64) AppleWebKit/537.36 (KHTML, like Gecko) Chrome/86.0.4240.111 Safari/537.36",WebKit,Chrome,86.0.4240.111,Windows,10
45,1,null,jspsych/allFaces/BM22NES.JPG,null,image-keyboard-response,34,3039,0.0-34.0,7,backwardMask,50,"""",10/28/2020 6:13,69.125.145.27,"Mozilla/5.0 (Windows NT 10.0; Win64; x64) AppleWebKit/537.36 (KHTML, like Gecko) Chrome/86.0.4240.111 Safari/537.36",WebKit,Chrome,86.0.4240.111,Windows,10
45,1,null,"<div style=""font-size:60px;"">+</div>",null,html-keyboard-response,35,3094,0.0-35.0,7,fixationBtwnNeutralMaskAndPrompt,50,"""",10/28/2020 6:13,69.125.145.27,"Mozilla/5.0 (Windows NT 10.0; Win64; x64) AppleWebKit/537.36 (KHTML, like Gecko) Chrome/86.0.4240.111 Safari/537.36",WebKit,Chrome,86.0.4240.111,Windows,10
45,1,null,"<div style=""font-size:60px;"">+</div>",null,html-keyboard-response,36,3147,0.0-36.0,8,ITI,50,"""",10/28/2020 6:13,69.125.145.27,"Mozilla/5.0 (Windows NT 10.0; Win64; x64) AppleWebKit/537.36 (KHTML, like Gecko) Chrome/86.0.4240.111 Safari/537.36",WebKit,Chrome,86.0.4240.111,Windows,10
45,1,null,jspsych/allScrambledFaces/scrambledAF03DIS.JPG,null,image-keyboard-response,37,3201,0.0-37.0,8,forwardMask,50,d,10/28/2020 6:13,69.125.145.27,"Mozilla/5.0 (Windows NT 10.0; Win64; x64) AppleWebKit/537.36 (KHTML, like Gecko) Chrome/86.0.4240.111 Safari/537.36",WebKit,Chrome,86.0.4240.111,Windows,10
45,1,null,jspsych/allFaces/AF03DIS.JPG,null,image-keyboard-response,38,3255,0.0-38.0,8,Cue,"function(){
        return jsPsych.randomization.sampleWithoutReplacement(cueDuration, 1)[0]}","""",10/28/2020 6:13,69.125.145.27,"Mozilla/5.0 (Windows NT 10.0; Win64; x64) AppleWebKit/537.36 (KHTML, like Gecko) Chrome/86.0.4240.111 Safari/537.36",WebKit,Chrome,86.0.4240.111,Windows,10
45,1,null,jspsych/allFaces/AM18NES.JPG,null,image-keyboard-response,39,3310,0.0-39.0,8,backwardMask,50,"""",10/28/2020 6:13,69.125.145.27,"Mozilla/5.0 (Windows NT 10.0; Win64; x64) AppleWebKit/537.36 (KHTML, like Gecko) Chrome/86.0.4240.111 Safari/537.36",WebKit,Chrome,86.0.4240.111,Windows,10
45,1,null,"<div style=""font-size:60px;"">+</div>",null,html-keyboard-response,40,3361,0.0-40.0,8,fixationBtwnNeutralMaskAndPrompt,50,"""",10/28/2020 6:13,69.125.145.27,"Mozilla/5.0 (Windows NT 10.0; Win64; x64) AppleWebKit/537.36 (KHTML, like Gecko) Chrome/86.0.4240.111 Safari/537.36",WebKit,Chrome,86.0.4240.111,Windows,10
45,1,null,"<div style=""font-size:60px;"">+</div>",null,html-keyboard-response,41,3418,0.0-41.0,9,ITI,50,"""",10/28/2020 6:13,69.125.145.27,"Mozilla/5.0 (Windows NT 10.0; Win64; x64) AppleWebKit/537.36 (KHTML, like Gecko) Chrome/86.0.4240.111 Safari/537.36",WebKit,Chrome,86.0.4240.111,Windows,10
45,1,null,jspsych/allScrambledFaces/scrambledAM08NES.JPG,null,image-keyboard-response,42,3474,0.0-42.0,9,forwardMask,50,n,10/28/2020 6:13,69.125.145.27,"Mozilla/5.0 (Windows NT 10.0; Win64; x64) AppleWebKit/537.36 (KHTML, like Gecko) Chrome/86.0.4240.111 Safari/537.36",WebKit,Chrome,86.0.4240.111,Windows,10
45,1,null,jspsych/allFaces/AM08NES.JPG,null,image-keyboard-response,43,3532,0.0-43.0,9,Cue,"function(){
        return jsPsych.randomization.sampleWithoutReplacement(cueDuration, 1)[0]}","""",10/28/2020 6:13,69.125.145.27,"Mozilla/5.0 (Windows NT 10.0; Win64; x64) AppleWebKit/537.36 (KHTML, like Gecko) Chrome/86.0.4240.111 Safari/537.36",WebKit,Chrome,86.0.4240.111,Windows,10
45,1,null,jspsych/allFaces/AM27NES.JPG,null,image-keyboard-response,44,3597,0.0-44.0,9,backwardMask,50,"""",10/28/2020 6:13,69.125.145.27,"Mozilla/5.0 (Windows NT 10.0; Win64; x64) AppleWebKit/537.36 (KHTML, like Gecko) Chrome/86.0.4240.111 Safari/537.36",WebKit,Chrome,86.0.4240.111,Windows,10
45,1,null,"<div style=""font-size:60px;"">+</div>",null,html-keyboard-response,45,3660,0.0-45.0,9,fixationBtwnNeutralMaskAndPrompt,50,"""",10/28/2020 6:13,69.125.145.27,"Mozilla/5.0 (Windows NT 10.0; Win64; x64) AppleWebKit/537.36 (KHTML, like Gecko) Chrome/86.0.4240.111 Safari/537.36",WebKit,Chrome,86.0.4240.111,Windows,10
45,1,null,"<div style=""font-size:60px;"">+</div>",null,html-keyboard-response,46,3714,0.0-46.0,10,ITI,50,"""",10/28/2020 6:13,69.125.145.27,"Mozilla/5.0 (Windows NT 10.0; Win64; x64) AppleWebKit/537.36 (KHTML, like Gecko) Chrome/86.0.4240.111 Safari/537.36",WebKit,Chrome,86.0.4240.111,Windows,10
45,1,null,jspsych/allScrambledFaces/scrambledAF09DIS.JPG,null,image-keyboard-response,47,3789,0.0-47.0,10,forwardMask,50,d,10/28/2020 6:13,69.125.145.27,"Mozilla/5.0 (Windows NT 10.0; Win64; x64) AppleWebKit/537.36 (KHTML, like Gecko) Chrome/86.0.4240.111 Safari/537.36",WebKit,Chrome,86.0.4240.111,Windows,10
45,1,null,jspsych/allFaces/AF09DIS.JPG,null,image-keyboard-response,48,3845,0.0-48.0,10,Cue,"function(){
        return jsPsych.randomization.sampleWithoutReplacement(cueDuration, 1)[0]}","""",10/28/2020 6:13,69.125.145.27,"Mozilla/5.0 (Windows NT 10.0; Win64; x64) AppleWebKit/537.36 (KHTML, like Gecko) Chrome/86.0.4240.111 Safari/537.36",WebKit,Chrome,86.0.4240.111,Windows,10
45,1,null,jspsych/allFaces/AF08NES.JPG,null,image-keyboard-response,49,3902,0.0-49.0,10,backwardMask,50,"""",10/28/2020 6:13,69.125.145.27,"Mozilla/5.0 (Windows NT 10.0; Win64; x64) AppleWebKit/537.36 (KHTML, like Gecko) Chrome/86.0.4240.111 Safari/537.36",WebKit,Chrome,86.0.4240.111,Windows,10
45,1,null,"<div style=""font-size:60px;"">+</div>",null,html-keyboard-response,50,3955,0.0-50.0,10,fixationBtwnNeutralMaskAndPrompt,50,"""",10/28/2020 6:13,69.125.145.27,"Mozilla/5.0 (Windows NT 10.0; Win64; x64) AppleWebKit/537.36 (KHTML, like Gecko) Chrome/86.0.4240.111 Safari/537.36",WebKit,Chrome,86.0.4240.111,Windows,10
45,1,null,"<div style=""font-size:60px;"">+</div>",null,html-keyboard-response,51,4013,0.0-51.0,11,ITI,50,"""",10/28/2020 6:13,69.125.145.27,"Mozilla/5.0 (Windows NT 10.0; Win64; x64) AppleWebKit/537.36 (KHTML, like Gecko) Chrome/86.0.4240.111 Safari/537.36",WebKit,Chrome,86.0.4240.111,Windows,10
45,1,null,jspsych/allScrambledFaces/scrambledAM23DIS.JPG,null,image-keyboard-response,52,4069,0.0-52.0,11,forwardMask,50,d,10/28/2020 6:13,69.125.145.27,"Mozilla/5.0 (Windows NT 10.0; Win64; x64) AppleWebKit/537.36 (KHTML, like Gecko) Chrome/86.0.4240.111 Safari/537.36",WebKit,Chrome,86.0.4240.111,Windows,10
45,1,null,jspsych/allFaces/AM23DIS.JPG,null,image-keyboard-response,53,4123,0.0-53.0,11,Cue,"function(){
        return jsPsych.randomization.sampleWithoutReplacement(cueDuration, 1)[0]}","""",10/28/2020 6:13,69.125.145.27,"Mozilla/5.0 (Windows NT 10.0; Win64; x64) AppleWebKit/537.36 (KHTML, like Gecko) Chrome/86.0.4240.111 Safari/537.36",WebKit,Chrome,86.0.4240.111,Windows,10
45,1,null,jspsych/allFaces/AM03NES.JPG,null,image-keyboard-response,54,4176,0.0-54.0,11,backwardMask,50,"""",10/28/2020 6:13,69.125.145.27,"Mozilla/5.0 (Windows NT 10.0; Win64; x64) AppleWebKit/537.36 (KHTML, like Gecko) Chrome/86.0.4240.111 Safari/537.36",WebKit,Chrome,86.0.4240.111,Windows,10
45,1,null,"<div style=""font-size:60px;"">+</div>",null,html-keyboard-response,55,4231,0.0-55.0,11,fixationBtwnNeutralMaskAndPrompt,50,"""",10/28/2020 6:13,69.125.145.27,"Mozilla/5.0 (Windows NT 10.0; Win64; x64) AppleWebKit/537.36 (KHTML, like Gecko) Chrome/86.0.4240.111 Safari/537.36",WebKit,Chrome,86.0.4240.111,Windows,10
45,1,null,"<div style=""font-size:60px;"">+</div>",null,html-keyboard-response,56,4282,0.0-56.0,12,ITI,50,"""",10/28/2020 6:13,69.125.145.27,"Mozilla/5.0 (Windows NT 10.0; Win64; x64) AppleWebKit/537.36 (KHTML, like Gecko) Chrome/86.0.4240.111 Safari/537.36",WebKit,Chrome,86.0.4240.111,Windows,10
45,1,null,jspsych/allScrambledFaces/scrambledAF14DIS.JPG,null,image-keyboard-response,57,4341,0.0-57.0,12,forwardMask,50,d,10/28/2020 6:13,69.125.145.27,"Mozilla/5.0 (Windows NT 10.0; Win64; x64) AppleWebKit/537.36 (KHTML, like Gecko) Chrome/86.0.4240.111 Safari/537.36",WebKit,Chrome,86.0.4240.111,Windows,10
45,1,null,jspsych/allFaces/AF14DIS.JPG,null,image-keyboard-response,58,4398,0.0-58.0,12,Cue,"function(){
        return jsPsych.randomization.sampleWithoutReplacement(cueDuration, 1)[0]}","""",10/28/2020 6:13,69.125.145.27,"Mozilla/5.0 (Windows NT 10.0; Win64; x64) AppleWebKit/537.36 (KHTML, like Gecko) Chrome/86.0.4240.111 Safari/537.36",WebKit,Chrome,86.0.4240.111,Windows,10
45,1,null,jspsych/allFaces/BF10NES.JPG,null,image-keyboard-response,59,4452,0.0-59.0,12,backwardMask,50,"""",10/28/2020 6:13,69.125.145.27,"Mozilla/5.0 (Windows NT 10.0; Win64; x64) AppleWebKit/537.36 (KHTML, like Gecko) Chrome/86.0.4240.111 Safari/537.36",WebKit,Chrome,86.0.4240.111,Windows,10
45,1,null,"<div style=""font-size:60px;"">+</div>",null,html-keyboard-response,60,4504,0.0-60.0,12,fixationBtwnNeutralMaskAndPrompt,50,"""",10/28/2020 6:13,69.125.145.27,"Mozilla/5.0 (Windows NT 10.0; Win64; x64) AppleWebKit/537.36 (KHTML, like Gecko) Chrome/86.0.4240.111 Safari/537.36",WebKit,Chrome,86.0.4240.111,Windows,10
45,1,null,"<div style=""font-size:60px;"">+</div>",null,html-keyboard-response,61,4567,0.0-61.0,13,ITI,50,"""",10/28/2020 6:13,69.125.145.27,"Mozilla/5.0 (Windows NT 10.0; Win64; x64) AppleWebKit/537.36 (KHTML, like Gecko) Chrome/86.0.4240.111 Safari/537.36",WebKit,Chrome,86.0.4240.111,Windows,10
45,1,null,jspsych/allScrambledFaces/scrambledAF03NES.JPG,null,image-keyboard-response,62,4628,0.0-62.0,13,forwardMask,50,n,10/28/2020 6:13,69.125.145.27,"Mozilla/5.0 (Windows NT 10.0; Win64; x64) AppleWebKit/537.36 (KHTML, like Gecko) Chrome/86.0.4240.111 Safari/537.36",WebKit,Chrome,86.0.4240.111,Windows,10
45,1,null,jspsych/allFaces/AF03NES.JPG,null,image-keyboard-response,63,4684,0.0-63.0,13,Cue,"function(){
        return jsPsych.randomization.sampleWithoutReplacement(cueDuration, 1)[0]}","""",10/28/2020 6:13,69.125.145.27,"Mozilla/5.0 (Windows NT 10.0; Win64; x64) AppleWebKit/537.36 (KHTML, like Gecko) Chrome/86.0.4240.111 Safari/537.36",WebKit,Chrome,86.0.4240.111,Windows,10
45,1,null,jspsych/allFaces/BF25NES.JPG,null,image-keyboard-response,64,4744,0.0-64.0,13,backwardMask,50,"""",10/28/2020 6:13,69.125.145.27,"Mozilla/5.0 (Windows NT 10.0; Win64; x64) AppleWebKit/537.36 (KHTML, like Gecko) Chrome/86.0.4240.111 Safari/537.36",WebKit,Chrome,86.0.4240.111,Windows,10
45,1,null,"<div style=""font-size:60px;"">+</div>",null,html-keyboard-response,65,4799,0.0-65.0,13,fixationBtwnNeutralMaskAndPrompt,50,"""",10/28/2020 6:13,69.125.145.27,"Mozilla/5.0 (Windows NT 10.0; Win64; x64) AppleWebKit/537.36 (KHTML, like Gecko) Chrome/86.0.4240.111 Safari/537.36",WebKit,Chrome,86.0.4240.111,Windows,10
45,1,null,"<div style=""font-size:60px;"">+</div>",null,html-keyboard-response,66,4861,0.0-66.0,14,ITI,50,"""",10/28/2020 6:13,69.125.145.27,"Mozilla/5.0 (Windows NT 10.0; Win64; x64) AppleWebKit/537.36 (KHTML, like Gecko) Chrome/86.0.4240.111 Safari/537.36",WebKit,Chrome,86.0.4240.111,Windows,10
45,1,null,jspsych/allScrambledFaces/scrambledBM06NES.JPG,null,image-keyboard-response,67,4912,0.0-67.0,14,forwardMask,50,n,10/28/2020 6:13,69.125.145.27,"Mozilla/5.0 (Windows NT 10.0; Win64; x64) AppleWebKit/537.36 (KHTML, like Gecko) Chrome/86.0.4240.111 Safari/537.36",WebKit,Chrome,86.0.4240.111,Windows,10
45,1,null,jspsych/allFaces/BM06NES.JPG,null,image-keyboard-response,68,4999,0.0-68.0,14,Cue,"function(){
        return jsPsych.randomization.sampleWithoutReplacement(cueDuration, 1)[0]}","""",10/28/2020 6:13,69.125.145.27,"Mozilla/5.0 (Windows NT 10.0; Win64; x64) AppleWebKit/537.36 (KHTML, like Gecko) Chrome/86.0.4240.111 Safari/537.36",WebKit,Chrome,86.0.4240.111,Windows,10
45,1,null,jspsych/allFaces/AM07NES.JPG,null,image-keyboard-response,69,5053,0.0-69.0,14,backwardMask,50,"""",10/28/2020 6:13,69.125.145.27,"Mozilla/5.0 (Windows NT 10.0; Win64; x64) AppleWebKit/537.36 (KHTML, like Gecko) Chrome/86.0.4240.111 Safari/537.36",WebKit,Chrome,86.0.4240.111,Windows,10
45,1,null,"<div style=""font-size:60px;"">+</div>",null,html-keyboard-response,70,5109,0.0-70.0,14,fixationBtwnNeutralMaskAndPrompt,50,"""",10/28/2020 6:13,69.125.145.27,"Mozilla/5.0 (Windows NT 10.0; Win64; x64) AppleWebKit/537.36 (KHTML, like Gecko) Chrome/86.0.4240.111 Safari/537.36",WebKit,Chrome,86.0.4240.111,Windows,10
45,1,null,"<div style=""font-size:60px;"">+</div>",null,html-keyboard-response,71,5166,0.0-71.0,15,ITI,50,"""",10/28/2020 6:13,69.125.145.27,"Mozilla/5.0 (Windows NT 10.0; Win64; x64) AppleWebKit/537.36 (KHTML, like Gecko) Chrome/86.0.4240.111 Safari/537.36",WebKit,Chrome,86.0.4240.111,Windows,10
45,1,null,jspsych/allScrambledFaces/scrambledBM28DIS.JPG,null,image-keyboard-response,72,5226,0.0-72.0,15,forwardMask,50,d,10/28/2020 6:13,69.125.145.27,"Mozilla/5.0 (Windows NT 10.0; Win64; x64) AppleWebKit/537.36 (KHTML, like Gecko) Chrome/86.0.4240.111 Safari/537.36",WebKit,Chrome,86.0.4240.111,Windows,10
45,1,null,jspsych/allFaces/BM28DIS.JPG,null,image-keyboard-response,73,5284,0.0-73.0,15,Cue,"function(){
        return jsPsych.randomization.sampleWithoutReplacement(cueDuration, 1)[0]}","""",10/28/2020 6:13,69.125.145.27,"Mozilla/5.0 (Windows NT 10.0; Win64; x64) AppleWebKit/537.36 (KHTML, like Gecko) Chrome/86.0.4240.111 Safari/537.36",WebKit,Chrome,86.0.4240.111,Windows,10
45,1,null,jspsych/allFaces/AM07NES.JPG,null,image-keyboard-response,74,5339,0.0-74.0,15,backwardMask,50,"""",10/28/2020 6:13,69.125.145.27,"Mozilla/5.0 (Windows NT 10.0; Win64; x64) AppleWebKit/537.36 (KHTML, like Gecko) Chrome/86.0.4240.111 Safari/537.36",WebKit,Chrome,86.0.4240.111,Windows,10
45,1,null,"<div style=""font-size:60px;"">+</div>",null,html-keyboard-response,75,5393,0.0-75.0,15,fixationBtwnNeutralMaskAndPrompt,50,"""",10/28/2020 6:13,69.125.145.27,"Mozilla/5.0 (Windows NT 10.0; Win64; x64) AppleWebKit/537.36 (KHTML, like Gecko) Chrome/86.0.4240.111 Safari/537.36",WebKit,Chrome,86.0.4240.111,Windows,10
45,1,null,"<div style=""font-size:60px;"">+</div>",null,html-keyboard-response,76,5448,0.0-76.0,16,ITI,50,"""",10/28/2020 6:13,69.125.145.27,"Mozilla/5.0 (Windows NT 10.0; Win64; x64) AppleWebKit/537.36 (KHTML, like Gecko) Chrome/86.0.4240.111 Safari/537.36",WebKit,Chrome,86.0.4240.111,Windows,10
45,1,null,jspsych/allScrambledFaces/scrambledAF01DIS.JPG,null,image-keyboard-response,77,5508,0.0-77.0,16,forwardMask,50,d,10/28/2020 6:13,69.125.145.27,"Mozilla/5.0 (Windows NT 10.0; Win64; x64) AppleWebKit/537.36 (KHTML, like Gecko) Chrome/86.0.4240.111 Safari/537.36",WebKit,Chrome,86.0.4240.111,Windows,10
45,1,null,jspsych/allFaces/AF01DIS.JPG,null,image-keyboard-response,78,5569,0.0-78.0,16,Cue,"function(){
        return jsPsych.randomization.sampleWithoutReplacement(cueDuration, 1)[0]}","""",10/28/2020 6:13,69.125.145.27,"Mozilla/5.0 (Windows NT 10.0; Win64; x64) AppleWebKit/537.36 (KHTML, like Gecko) Chrome/86.0.4240.111 Safari/537.36",WebKit,Chrome,86.0.4240.111,Windows,10
45,1,null,jspsych/allFaces/AF16NES.JPG,null,image-keyboard-response,79,5629,0.0-79.0,16,backwardMask,50,"""",10/28/2020 6:13,69.125.145.27,"Mozilla/5.0 (Windows NT 10.0; Win64; x64) AppleWebKit/537.36 (KHTML, like Gecko) Chrome/86.0.4240.111 Safari/537.36",WebKit,Chrome,86.0.4240.111,Windows,10
45,1,null,"<div style=""font-size:60px;"">+</div>",null,html-keyboard-response,80,5688,0.0-80.0,16,fixationBtwnNeutralMaskAndPrompt,50,"""",10/28/2020 6:13,69.125.145.27,"Mozilla/5.0 (Windows NT 10.0; Win64; x64) AppleWebKit/537.36 (KHTML, like Gecko) Chrome/86.0.4240.111 Safari/537.36",WebKit,Chrome,86.0.4240.111,Windows,10
45,1,null,"<div style=""font-size:60px;"">+</div>",null,html-keyboard-response,81,5749,0.0-81.0,17,ITI,50,"""",10/28/2020 6:13,69.125.145.27,"Mozilla/5.0 (Windows NT 10.0; Win64; x64) AppleWebKit/537.36 (KHTML, like Gecko) Chrome/86.0.4240.111 Safari/537.36",WebKit,Chrome,86.0.4240.111,Windows,10
45,1,null,jspsych/allScrambledFaces/scrambledAF27NES.JPG,null,image-keyboard-response,82,5808,0.0-82.0,17,forwardMask,50,n,10/28/2020 6:13,69.125.145.27,"Mozilla/5.0 (Windows NT 10.0; Win64; x64) AppleWebKit/537.36 (KHTML, like Gecko) Chrome/86.0.4240.111 Safari/537.36",WebKit,Chrome,86.0.4240.111,Windows,10
45,1,null,jspsych/allFaces/AF27NES.JPG,null,image-keyboard-response,83,5868,0.0-83.0,17,Cue,"function(){
        return jsPsych.randomization.sampleWithoutReplacement(cueDuration, 1)[0]}","""",10/28/2020 6:13,69.125.145.27,"Mozilla/5.0 (Windows NT 10.0; Win64; x64) AppleWebKit/537.36 (KHTML, like Gecko) Chrome/86.0.4240.111 Safari/537.36",WebKit,Chrome,86.0.4240.111,Windows,10
45,1,null,jspsych/allFaces/AM26NES.JPG,null,image-keyboard-response,84,5928,0.0-84.0,17,backwardMask,50,"""",10/28/2020 6:13,69.125.145.27,"Mozilla/5.0 (Windows NT 10.0; Win64; x64) AppleWebKit/537.36 (KHTML, like Gecko) Chrome/86.0.4240.111 Safari/537.36",WebKit,Chrome,86.0.4240.111,Windows,10
45,1,null,"<div style=""font-size:60px;"">+</div>",null,html-keyboard-response,85,5988,0.0-85.0,17,fixationBtwnNeutralMaskAndPrompt,50,"""",10/28/2020 6:13,69.125.145.27,"Mozilla/5.0 (Windows NT 10.0; Win64; x64) AppleWebKit/537.36 (KHTML, like Gecko) Chrome/86.0.4240.111 Safari/537.36",WebKit,Chrome,86.0.4240.111,Windows,10
45,1,null,"<div style=""font-size:60px;"">+</div>",null,html-keyboard-response,86,6048,0.0-86.0,18,ITI,50,"""",10/28/2020 6:13,69.125.145.27,"Mozilla/5.0 (Windows NT 10.0; Win64; x64) AppleWebKit/537.36 (KHTML, like Gecko) Chrome/86.0.4240.111 Safari/537.36",WebKit,Chrome,86.0.4240.111,Windows,10
45,1,null,jspsych/allScrambledFaces/scrambledBM11DIS.JPG,null,image-keyboard-response,87,6108,0.0-87.0,18,forwardMask,50,d,10/28/2020 6:13,69.125.145.27,"Mozilla/5.0 (Windows NT 10.0; Win64; x64) AppleWebKit/537.36 (KHTML, like Gecko) Chrome/86.0.4240.111 Safari/537.36",WebKit,Chrome,86.0.4240.111,Windows,10
45,1,null,jspsych/allFaces/BM11DIS.JPG,null,image-keyboard-response,88,6169,0.0-88.0,18,Cue,"function(){
        return jsPsych.randomization.sampleWithoutReplacement(cueDuration, 1)[0]}","""",10/28/2020 6:13,69.125.145.27,"Mozilla/5.0 (Windows NT 10.0; Win64; x64) AppleWebKit/537.36 (KHTML, like Gecko) Chrome/86.0.4240.111 Safari/537.36",WebKit,Chrome,86.0.4240.111,Windows,10
45,1,null,jspsych/allFaces/AM11NES.JPG,null,image-keyboard-response,89,6228,0.0-89.0,18,backwardMask,50,"""",10/28/2020 6:13,69.125.145.27,"Mozilla/5.0 (Windows NT 10.0; Win64; x64) AppleWebKit/537.36 (KHTML, like Gecko) Chrome/86.0.4240.111 Safari/537.36",WebKit,Chrome,86.0.4240.111,Windows,10
45,1,null,"<div style=""font-size:60px;"">+</div>",null,html-keyboard-response,90,6289,0.0-90.0,18,fixationBtwnNeutralMaskAndPrompt,50,"""",10/28/2020 6:13,69.125.145.27,"Mozilla/5.0 (Windows NT 10.0; Win64; x64) AppleWebKit/537.36 (KHTML, like Gecko) Chrome/86.0.4240.111 Safari/537.36",WebKit,Chrome,86.0.4240.111,Windows,10
45,1,null,"<div style=""font-size:60px;"">+</div>",null,html-keyboard-response,91,6348,0.0-91.0,19,ITI,50,"""",10/28/2020 6:13,69.125.145.27,"Mozilla/5.0 (Windows NT 10.0; Win64; x64) AppleWebKit/537.36 (KHTML, like Gecko) Chrome/86.0.4240.111 Safari/537.36",WebKit,Chrome,86.0.4240.111,Windows,10
45,1,null,jspsych/allScrambledFaces/scrambledAM16DIS.JPG,null,image-keyboard-response,92,6409,0.0-92.0,19,forwardMask,50,d,10/28/2020 6:13,69.125.145.27,"Mozilla/5.0 (Windows NT 10.0; Win64; x64) AppleWebKit/537.36 (KHTML, like Gecko) Chrome/86.0.4240.111 Safari/537.36",WebKit,Chrome,86.0.4240.111,Windows,10
45,1,null,jspsych/allFaces/AM16DIS.JPG,null,image-keyboard-response,93,6463,0.0-93.0,19,Cue,"function(){
        return jsPsych.randomization.sampleWithoutReplacement(cueDuration, 1)[0]}","""",10/28/2020 6:13,69.125.145.27,"Mozilla/5.0 (Windows NT 10.0; Win64; x64) AppleWebKit/537.36 (KHTML, like Gecko) Chrome/86.0.4240.111 Safari/537.36",WebKit,Chrome,86.0.4240.111,Windows,10
45,1,null,jspsych/allFaces/AM30NES.JPG,null,image-keyboard-response,94,6529,0.0-94.0,19,backwardMask,50,"""",10/28/2020 6:13,69.125.145.27,"Mozilla/5.0 (Windows NT 10.0; Win64; x64) AppleWebKit/537.36 (KHTML, like Gecko) Chrome/86.0.4240.111 Safari/537.36",WebKit,Chrome,86.0.4240.111,Windows,10
45,1,null,"<div style=""font-size:60px;"">+</div>",null,html-keyboard-response,95,6588,0.0-95.0,19,fixationBtwnNeutralMaskAndPrompt,50,"""",10/28/2020 6:13,69.125.145.27,"Mozilla/5.0 (Windows NT 10.0; Win64; x64) AppleWebKit/537.36 (KHTML, like Gecko) Chrome/86.0.4240.111 Safari/537.36",WebKit,Chrome,86.0.4240.111,Windows,10
45,1,null,"<div style=""font-size:60px;"">+</div>",null,html-keyboard-response,96,6640,0.0-96.0,20,ITI,50,"""",10/28/2020 6:13,69.125.145.27,"Mozilla/5.0 (Windows NT 10.0; Win64; x64) AppleWebKit/537.36 (KHTML, like Gecko) Chrome/86.0.4240.111 Safari/537.36",WebKit,Chrome,86.0.4240.111,Windows,10
45,1,null,jspsych/allScrambledFaces/scrambledBF28DIS.JPG,null,image-keyboard-response,97,6698,0.0-97.0,20,forwardMask,50,d,10/28/2020 6:13,69.125.145.27,"Mozilla/5.0 (Windows NT 10.0; Win64; x64) AppleWebKit/537.36 (KHTML, like Gecko) Chrome/86.0.4240.111 Safari/537.36",WebKit,Chrome,86.0.4240.111,Windows,10
45,1,null,jspsych/allFaces/BF28DIS.JPG,null,image-keyboard-response,98,6758,0.0-98.0,20,Cue,"function(){
        return jsPsych.randomization.sampleWithoutReplacement(cueDuration, 1)[0]}","""",10/28/2020 6:13,69.125.145.27,"Mozilla/5.0 (Windows NT 10.0; Win64; x64) AppleWebKit/537.36 (KHTML, like Gecko) Chrome/86.0.4240.111 Safari/537.36",WebKit,Chrome,86.0.4240.111,Windows,10
45,1,null,jspsych/allFaces/BM25NES.JPG,null,image-keyboard-response,99,6822,0.0-99.0,20,backwardMask,50,"""",10/28/2020 6:13,69.125.145.27,"Mozilla/5.0 (Windows NT 10.0; Win64; x64) AppleWebKit/537.36 (KHTML, like Gecko) Chrome/86.0.4240.111 Safari/537.36",WebKit,Chrome,86.0.4240.111,Windows,10
45,1,null,"<div style=""font-size:60px;"">+</div>",null,html-keyboard-response,100,6879,0.0-100.0,20,fixationBtwnNeutralMaskAndPrompt,50,"""",10/28/2020 6:13,69.125.145.27,"Mozilla/5.0 (Windows NT 10.0; Win64; x64) AppleWebKit/537.36 (KHTML, like Gecko) Chrome/86.0.4240.111 Safari/537.36",WebKit,Chrome,86.0.4240.111,Windows,10
45,1,null,"<div style=""font-size:60px;"">+</div>",null,html-keyboard-response,101,6938,0.0-101.0,21,ITI,50,"""",10/28/2020 6:13,69.125.145.27,"Mozilla/5.0 (Windows NT 10.0; Win64; x64) AppleWebKit/537.36 (KHTML, like Gecko) Chrome/86.0.4240.111 Safari/537.36",WebKit,Chrome,86.0.4240.111,Windows,10
45,1,null,jspsych/allScrambledFaces/scrambledBM26DIS.JPG,null,image-keyboard-response,102,6998,0.0-102.0,21,forwardMask,50,d,10/28/2020 6:13,69.125.145.27,"Mozilla/5.0 (Windows NT 10.0; Win64; x64) AppleWebKit/537.36 (KHTML, like Gecko) Chrome/86.0.4240.111 Safari/537.36",WebKit,Chrome,86.0.4240.111,Windows,10
45,1,null,jspsych/allFaces/BM26DIS.JPG,null,image-keyboard-response,103,7056,0.0-103.0,21,Cue,"function(){
        return jsPsych.randomization.sampleWithoutReplacement(cueDuration, 1)[0]}","""",10/28/2020 6:13,69.125.145.27,"Mozilla/5.0 (Windows NT 10.0; Win64; x64) AppleWebKit/537.36 (KHTML, like Gecko) Chrome/86.0.4240.111 Safari/537.36",WebKit,Chrome,86.0.4240.111,Windows,10
45,1,null,jspsych/allFaces/AM07NES.JPG,null,image-keyboard-response,104,7109,0.0-104.0,21,backwardMask,50,"""",10/28/2020 6:13,69.125.145.27,"Mozilla/5.0 (Windows NT 10.0; Win64; x64) AppleWebKit/537.36 (KHTML, like Gecko) Chrome/86.0.4240.111 Safari/537.36",WebKit,Chrome,86.0.4240.111,Windows,10
45,1,null,"<div style=""font-size:60px;"">+</div>",null,html-keyboard-response,105,7169,0.0-105.0,21,fixationBtwnNeutralMaskAndPrompt,50,"""",10/28/2020 6:13,69.125.145.27,"Mozilla/5.0 (Windows NT 10.0; Win64; x64) AppleWebKit/537.36 (KHTML, like Gecko) Chrome/86.0.4240.111 Safari/537.36",WebKit,Chrome,86.0.4240.111,Windows,10
45,1,null,"<div style=""font-size:60px;"">+</div>",null,html-keyboard-response,106,7224,0.0-106.0,22,ITI,50,"""",10/28/2020 6:13,69.125.145.27,"Mozilla/5.0 (Windows NT 10.0; Win64; x64) AppleWebKit/537.36 (KHTML, like Gecko) Chrome/86.0.4240.111 Safari/537.36",WebKit,Chrome,86.0.4240.111,Windows,10
45,1,null,jspsych/allScrambledFaces/scrambledAM25DIS.JPG,null,image-keyboard-response,107,7280,0.0-107.0,22,forwardMask,50,d,10/28/2020 6:13,69.125.145.27,"Mozilla/5.0 (Windows NT 10.0; Win64; x64) AppleWebKit/537.36 (KHTML, like Gecko) Chrome/86.0.4240.111 Safari/537.36",WebKit,Chrome,86.0.4240.111,Windows,10
45,1,null,jspsych/allFaces/AM25DIS.JPG,null,image-keyboard-response,108,7337,0.0-108.0,22,Cue,"function(){
        return jsPsych.randomization.sampleWithoutReplacement(cueDuration, 1)[0]}","""",10/28/2020 6:13,69.125.145.27,"Mozilla/5.0 (Windows NT 10.0; Win64; x64) AppleWebKit/537.36 (KHTML, like Gecko) Chrome/86.0.4240.111 Safari/537.36",WebKit,Chrome,86.0.4240.111,Windows,10
45,1,null,jspsych/allFaces/AF21NES.JPG,null,image-keyboard-response,109,7396,0.0-109.0,22,backwardMask,50,"""",10/28/2020 6:13,69.125.145.27,"Mozilla/5.0 (Windows NT 10.0; Win64; x64) AppleWebKit/537.36 (KHTML, like Gecko) Chrome/86.0.4240.111 Safari/537.36",WebKit,Chrome,86.0.4240.111,Windows,10
45,1,null,"<div style=""font-size:60px;"">+</div>",null,html-keyboard-response,110,7448,0.0-110.0,22,fixationBtwnNeutralMaskAndPrompt,50,"""",10/28/2020 6:13,69.125.145.27,"Mozilla/5.0 (Windows NT 10.0; Win64; x64) AppleWebKit/537.36 (KHTML, like Gecko) Chrome/86.0.4240.111 Safari/537.36",WebKit,Chrome,86.0.4240.111,Windows,10
45,1,null,"<div style=""font-size:60px;"">+</div>",null,html-keyboard-response,111,7508,0.0-111.0,23,ITI,50,"""",10/28/2020 6:13,69.125.145.27,"Mozilla/5.0 (Windows NT 10.0; Win64; x64) AppleWebKit/537.36 (KHTML, like Gecko) Chrome/86.0.4240.111 Safari/537.36",WebKit,Chrome,86.0.4240.111,Windows,10
45,1,null,jspsych/allScrambledFaces/scrambledAM02DIS.JPG,null,image-keyboard-response,112,7568,0.0-112.0,23,forwardMask,50,d,10/28/2020 6:13,69.125.145.27,"Mozilla/5.0 (Windows NT 10.0; Win64; x64) AppleWebKit/537.36 (KHTML, like Gecko) Chrome/86.0.4240.111 Safari/537.36",WebKit,Chrome,86.0.4240.111,Windows,10
45,1,null,jspsych/allFaces/AM02DIS.JPG,null,image-keyboard-response,113,7625,0.0-113.0,23,Cue,"function(){
        return jsPsych.randomization.sampleWithoutReplacement(cueDuration, 1)[0]}","""",10/28/2020 6:13,69.125.145.27,"Mozilla/5.0 (Windows NT 10.0; Win64; x64) AppleWebKit/537.36 (KHTML, like Gecko) Chrome/86.0.4240.111 Safari/537.36",WebKit,Chrome,86.0.4240.111,Windows,10
45,1,null,jspsych/allFaces/BM13NES.JPG,null,image-keyboard-response,114,7678,0.0-114.0,23,backwardMask,50,"""",10/28/2020 6:13,69.125.145.27,"Mozilla/5.0 (Windows NT 10.0; Win64; x64) AppleWebKit/537.36 (KHTML, like Gecko) Chrome/86.0.4240.111 Safari/537.36",WebKit,Chrome,86.0.4240.111,Windows,10
45,1,null,"<div style=""font-size:60px;"">+</div>",null,html-keyboard-response,115,7749,0.0-115.0,23,fixationBtwnNeutralMaskAndPrompt,50,"""",10/28/2020 6:13,69.125.145.27,"Mozilla/5.0 (Windows NT 10.0; Win64; x64) AppleWebKit/537.36 (KHTML, like Gecko) Chrome/86.0.4240.111 Safari/537.36",WebKit,Chrome,86.0.4240.111,Windows,10
45,1,null,"<div style=""font-size:60px;"">+</div>",null,html-keyboard-response,116,7808,0.0-116.0,24,ITI,50,"""",10/28/2020 6:13,69.125.145.27,"Mozilla/5.0 (Windows NT 10.0; Win64; x64) AppleWebKit/537.36 (KHTML, like Gecko) Chrome/86.0.4240.111 Safari/537.36",WebKit,Chrome,86.0.4240.111,Windows,10
45,1,null,jspsych/allScrambledFaces/scrambledAM25DIS.JPG,null,image-keyboard-response,117,7868,0.0-117.0,24,forwardMask,50,d,10/28/2020 6:13,69.125.145.27,"Mozilla/5.0 (Windows NT 10.0; Win64; x64) AppleWebKit/537.36 (KHTML, like Gecko) Chrome/86.0.4240.111 Safari/537.36",WebKit,Chrome,86.0.4240.111,Windows,10
45,1,null,jspsych/allFaces/AM25DIS.JPG,null,image-keyboard-response,118,7926,0.0-118.0,24,Cue,"function(){
        return jsPsych.randomization.sampleWithoutReplacement(cueDuration, 1)[0]}","""",10/28/2020 6:13,69.125.145.27,"Mozilla/5.0 (Windows NT 10.0; Win64; x64) AppleWebKit/537.36 (KHTML, like Gecko) Chrome/86.0.4240.111 Safari/537.36",WebKit,Chrome,86.0.4240.111,Windows,10
45,1,null,jspsych/allFaces/AF05NES.JPG,null,image-keyboard-response,119,7978,0.0-119.0,24,backwardMask,50,"""",10/28/2020 6:13,69.125.145.27,"Mozilla/5.0 (Windows NT 10.0; Win64; x64) AppleWebKit/537.36 (KHTML, like Gecko) Chrome/86.0.4240.111 Safari/537.36",WebKit,Chrome,86.0.4240.111,Windows,10
45,1,null,"<div style=""font-size:60px;"">+</div>",null,html-keyboard-response,120,8038,0.0-120.0,24,fixationBtwnNeutralMaskAndPrompt,50,"""",10/28/2020 6:13,69.125.145.27,"Mozilla/5.0 (Windows NT 10.0; Win64; x64) AppleWebKit/537.36 (KHTML, like Gecko) Chrome/86.0.4240.111 Safari/537.36",WebKit,Chrome,86.0.4240.111,Windows,10
45,1,null,"<div style=""font-size:60px;"">+</div>",null,html-keyboard-response,121,8098,0.0-121.0,25,ITI,50,"""",10/28/2020 6:13,69.125.145.27,"Mozilla/5.0 (Windows NT 10.0; Win64; x64) AppleWebKit/537.36 (KHTML, like Gecko) Chrome/86.0.4240.111 Safari/537.36",WebKit,Chrome,86.0.4240.111,Windows,10
45,1,null,jspsych/allScrambledFaces/scrambledBM03DIS.JPG,null,image-keyboard-response,122,8158,0.0-122.0,25,forwardMask,50,d,10/28/2020 6:13,69.125.145.27,"Mozilla/5.0 (Windows NT 10.0; Win64; x64) AppleWebKit/537.36 (KHTML, like Gecko) Chrome/86.0.4240.111 Safari/537.36",WebKit,Chrome,86.0.4240.111,Windows,10
45,1,null,jspsych/allFaces/BM03DIS.JPG,null,image-keyboard-response,123,8218,0.0-123.0,25,Cue,"function(){
        return jsPsych.randomization.sampleWithoutReplacement(cueDuration, 1)[0]}","""",10/28/2020 6:13,69.125.145.27,"Mozilla/5.0 (Windows NT 10.0; Win64; x64) AppleWebKit/537.36 (KHTML, like Gecko) Chrome/86.0.4240.111 Safari/537.36",WebKit,Chrome,86.0.4240.111,Windows,10
45,1,null,jspsych/allFaces/AM05NES.JPG,null,image-keyboard-response,124,8278,0.0-124.0,25,backwardMask,50,"""",10/28/2020 6:13,69.125.145.27,"Mozilla/5.0 (Windows NT 10.0; Win64; x64) AppleWebKit/537.36 (KHTML, like Gecko) Chrome/86.0.4240.111 Safari/537.36",WebKit,Chrome,86.0.4240.111,Windows,10
45,1,null,"<div style=""font-size:60px;"">+</div>",null,html-keyboard-response,125,8339,0.0-125.0,25,fixationBtwnNeutralMaskAndPrompt,50,"""",10/28/2020 6:13,69.125.145.27,"Mozilla/5.0 (Windows NT 10.0; Win64; x64) AppleWebKit/537.36 (KHTML, like Gecko) Chrome/86.0.4240.111 Safari/537.36",WebKit,Chrome,86.0.4240.111,Windows,10
45,1,null,"<div style=""font-size:60px;"">+</div>",null,html-keyboard-response,126,8399,0.0-126.0,26,ITI,50,"""",10/28/2020 6:13,69.125.145.27,"Mozilla/5.0 (Windows NT 10.0; Win64; x64) AppleWebKit/537.36 (KHTML, like Gecko) Chrome/86.0.4240.111 Safari/537.36",WebKit,Chrome,86.0.4240.111,Windows,10
45,1,null,jspsych/allScrambledFaces/scrambledBF01NES.JPG,null,image-keyboard-response,127,8458,0.0-127.0,26,forwardMask,50,n,10/28/2020 6:13,69.125.145.27,"Mozilla/5.0 (Windows NT 10.0; Win64; x64) AppleWebKit/537.36 (KHTML, like Gecko) Chrome/86.0.4240.111 Safari/537.36",WebKit,Chrome,86.0.4240.111,Windows,10
45,1,null,jspsych/allFaces/BF01NES.JPG,null,image-keyboard-response,128,8518,0.0-128.0,26,Cue,"function(){
        return jsPsych.randomization.sampleWithoutReplacement(cueDuration, 1)[0]}","""",10/28/2020 6:13,69.125.145.27,"Mozilla/5.0 (Windows NT 10.0; Win64; x64) AppleWebKit/537.36 (KHTML, like Gecko) Chrome/86.0.4240.111 Safari/537.36",WebKit,Chrome,86.0.4240.111,Windows,10
45,1,null,jspsych/allFaces/BF26NES.JPG,null,image-keyboard-response,129,8578,0.0-129.0,26,backwardMask,50,"""",10/28/2020 6:13,69.125.145.27,"Mozilla/5.0 (Windows NT 10.0; Win64; x64) AppleWebKit/537.36 (KHTML, like Gecko) Chrome/86.0.4240.111 Safari/537.36",WebKit,Chrome,86.0.4240.111,Windows,10
45,1,null,"<div style=""font-size:60px;"">+</div>",null,html-keyboard-response,130,8638,0.0-130.0,26,fixationBtwnNeutralMaskAndPrompt,50,"""",10/28/2020 6:13,69.125.145.27,"Mozilla/5.0 (Windows NT 10.0; Win64; x64) AppleWebKit/537.36 (KHTML, like Gecko) Chrome/86.0.4240.111 Safari/537.36",WebKit,Chrome,86.0.4240.111,Windows,10
45,1,null,"<div style=""font-size:60px;"">+</div>",null,html-keyboard-response,131,8698,0.0-131.0,27,ITI,50,"""",10/28/2020 6:13,69.125.145.27,"Mozilla/5.0 (Windows NT 10.0; Win64; x64) AppleWebKit/537.36 (KHTML, like Gecko) Chrome/86.0.4240.111 Safari/537.36",WebKit,Chrome,86.0.4240.111,Windows,10
45,1,null,jspsych/allScrambledFaces/scrambledBF33NES.JPG,null,image-keyboard-response,132,8759,0.0-132.0,27,forwardMask,50,n,10/28/2020 6:13,69.125.145.27,"Mozilla/5.0 (Windows NT 10.0; Win64; x64) AppleWebKit/537.36 (KHTML, like Gecko) Chrome/86.0.4240.111 Safari/537.36",WebKit,Chrome,86.0.4240.111,Windows,10
45,1,null,jspsych/allFaces/BF33NES.JPG,null,image-keyboard-response,133,8819,0.0-133.0,27,Cue,"function(){
        return jsPsych.randomization.sampleWithoutReplacement(cueDuration, 1)[0]}","""",10/28/2020 6:13,69.125.145.27,"Mozilla/5.0 (Windows NT 10.0; Win64; x64) AppleWebKit/537.36 (KHTML, like Gecko) Chrome/86.0.4240.111 Safari/537.36",WebKit,Chrome,86.0.4240.111,Windows,10
45,1,null,jspsych/allFaces/AM22NES.JPG,null,image-keyboard-response,134,8878,0.0-134.0,27,backwardMask,50,"""",10/28/2020 6:13,69.125.145.27,"Mozilla/5.0 (Windows NT 10.0; Win64; x64) AppleWebKit/537.36 (KHTML, like Gecko) Chrome/86.0.4240.111 Safari/537.36",WebKit,Chrome,86.0.4240.111,Windows,10
45,1,null,"<div style=""font-size:60px;"">+</div>",null,html-keyboard-response,135,8938,0.0-135.0,27,fixationBtwnNeutralMaskAndPrompt,50,"""",10/28/2020 6:13,69.125.145.27,"Mozilla/5.0 (Windows NT 10.0; Win64; x64) AppleWebKit/537.36 (KHTML, like Gecko) Chrome/86.0.4240.111 Safari/537.36",WebKit,Chrome,86.0.4240.111,Windows,10
45,1,null,"<div style=""font-size:60px;"">+</div>",null,html-keyboard-response,136,8998,0.0-136.0,28,ITI,50,"""",10/28/2020 6:13,69.125.145.27,"Mozilla/5.0 (Windows NT 10.0; Win64; x64) AppleWebKit/537.36 (KHTML, like Gecko) Chrome/86.0.4240.111 Safari/537.36",WebKit,Chrome,86.0.4240.111,Windows,10
45,1,null,jspsych/allScrambledFaces/scrambledBF29NES.JPG,null,image-keyboard-response,137,9058,0.0-137.0,28,forwardMask,50,n,10/28/2020 6:13,69.125.145.27,"Mozilla/5.0 (Windows NT 10.0; Win64; x64) AppleWebKit/537.36 (KHTML, like Gecko) Chrome/86.0.4240.111 Safari/537.36",WebKit,Chrome,86.0.4240.111,Windows,10
45,1,null,jspsych/allFaces/BF29NES.JPG,null,image-keyboard-response,138,9118,0.0-138.0,28,Cue,"function(){
        return jsPsych.randomization.sampleWithoutReplacement(cueDuration, 1)[0]}","""",10/28/2020 6:13,69.125.145.27,"Mozilla/5.0 (Windows NT 10.0; Win64; x64) AppleWebKit/537.36 (KHTML, like Gecko) Chrome/86.0.4240.111 Safari/537.36",WebKit,Chrome,86.0.4240.111,Windows,10
45,1,null,jspsych/allFaces/AM27NES.JPG,null,image-keyboard-response,139,9178,0.0-139.0,28,backwardMask,50,"""",10/28/2020 6:13,69.125.145.27,"Mozilla/5.0 (Windows NT 10.0; Win64; x64) AppleWebKit/537.36 (KHTML, like Gecko) Chrome/86.0.4240.111 Safari/537.36",WebKit,Chrome,86.0.4240.111,Windows,10
45,1,null,"<div style=""font-size:60px;"">+</div>",null,html-keyboard-response,140,9238,0.0-140.0,28,fixationBtwnNeutralMaskAndPrompt,50,"""",10/28/2020 6:13,69.125.145.27,"Mozilla/5.0 (Windows NT 10.0; Win64; x64) AppleWebKit/537.36 (KHTML, like Gecko) Chrome/86.0.4240.111 Safari/537.36",WebKit,Chrome,86.0.4240.111,Windows,10
45,1,null,"<div style=""font-size:60px;"">+</div>",null,html-keyboard-response,141,9298,0.0-141.0,29,ITI,50,"""",10/28/2020 6:13,69.125.145.27,"Mozilla/5.0 (Windows NT 10.0; Win64; x64) AppleWebKit/537.36 (KHTML, like Gecko) Chrome/86.0.4240.111 Safari/537.36",WebKit,Chrome,86.0.4240.111,Windows,10
45,1,null,jspsych/allScrambledFaces/scrambledBF05NES.JPG,null,image-keyboard-response,142,9358,0.0-142.0,29,forwardMask,50,n,10/28/2020 6:13,69.125.145.27,"Mozilla/5.0 (Windows NT 10.0; Win64; x64) AppleWebKit/537.36 (KHTML, like Gecko) Chrome/86.0.4240.111 Safari/537.36",WebKit,Chrome,86.0.4240.111,Windows,10
45,1,null,jspsych/allFaces/BF05NES.JPG,null,image-keyboard-response,143,9418,0.0-143.0,29,Cue,"function(){
        return jsPsych.randomization.sampleWithoutReplacement(cueDuration, 1)[0]}","""",10/28/2020 6:13,69.125.145.27,"Mozilla/5.0 (Windows NT 10.0; Win64; x64) AppleWebKit/537.36 (KHTML, like Gecko) Chrome/86.0.4240.111 Safari/537.36",WebKit,Chrome,86.0.4240.111,Windows,10
45,1,null,jspsych/allFaces/AF19NES.JPG,null,image-keyboard-response,144,9478,0.0-144.0,29,backwardMask,50,"""",10/28/2020 6:13,69.125.145.27,"Mozilla/5.0 (Windows NT 10.0; Win64; x64) AppleWebKit/537.36 (KHTML, like Gecko) Chrome/86.0.4240.111 Safari/537.36",WebKit,Chrome,86.0.4240.111,Windows,10
45,1,null,"<div style=""font-size:60px;"">+</div>",null,html-keyboard-response,145,9549,0.0-145.0,29,fixationBtwnNeutralMaskAndPrompt,50,"""",10/28/2020 6:13,69.125.145.27,"Mozilla/5.0 (Windows NT 10.0; Win64; x64) AppleWebKit/537.36 (KHTML, like Gecko) Chrome/86.0.4240.111 Safari/537.36",WebKit,Chrome,86.0.4240.111,Windows,10
45,1,null,"<div style=""font-size:60px;"">+</div>",null,html-keyboard-response,146,9608,0.0-146.0,30,ITI,50,"""",10/28/2020 6:13,69.125.145.27,"Mozilla/5.0 (Windows NT 10.0; Win64; x64) AppleWebKit/537.36 (KHTML, like Gecko) Chrome/86.0.4240.111 Safari/537.36",WebKit,Chrome,86.0.4240.111,Windows,10
45,1,null,jspsych/allScrambledFaces/scrambledAM05NES.JPG,null,image-keyboard-response,147,9668,0.0-147.0,30,forwardMask,50,n,10/28/2020 6:13,69.125.145.27,"Mozilla/5.0 (Windows NT 10.0; Win64; x64) AppleWebKit/537.36 (KHTML, like Gecko) Chrome/86.0.4240.111 Safari/537.36",WebKit,Chrome,86.0.4240.111,Windows,10
45,1,null,jspsych/allFaces/AM05NES.JPG,null,image-keyboard-response,148,9728,0.0-148.0,30,Cue,"function(){
        return jsPsych.randomization.sampleWithoutReplacement(cueDuration, 1)[0]}","""",10/28/2020 6:13,69.125.145.27,"Mozilla/5.0 (Windows NT 10.0; Win64; x64) AppleWebKit/537.36 (KHTML, like Gecko) Chrome/86.0.4240.111 Safari/537.36",WebKit,Chrome,86.0.4240.111,Windows,10
45,1,null,jspsych/allFaces/AM32NES.JPG,null,image-keyboard-response,149,9787,0.0-149.0,30,backwardMask,50,"""",10/28/2020 6:13,69.125.145.27,"Mozilla/5.0 (Windows NT 10.0; Win64; x64) AppleWebKit/537.36 (KHTML, like Gecko) Chrome/86.0.4240.111 Safari/537.36",WebKit,Chrome,86.0.4240.111,Windows,10
45,1,null,"<div style=""font-size:60px;"">+</div>",null,html-keyboard-response,150,9848,0.0-150.0,30,fixationBtwnNeutralMaskAndPrompt,50,"""",10/28/2020 6:13,69.125.145.27,"Mozilla/5.0 (Windows NT 10.0; Win64; x64) AppleWebKit/537.36 (KHTML, like Gecko) Chrome/86.0.4240.111 Safari/537.36",WebKit,Chrome,86.0.4240.111,Windows,10
45,1,null,"<div style=""font-size:60px;"">+</div>",null,html-keyboard-response,151,9908,0.0-151.0,31,ITI,50,"""",10/28/2020 6:13,69.125.145.27,"Mozilla/5.0 (Windows NT 10.0; Win64; x64) AppleWebKit/537.36 (KHTML, like Gecko) Chrome/86.0.4240.111 Safari/537.36",WebKit,Chrome,86.0.4240.111,Windows,10
45,1,null,jspsych/allScrambledFaces/scrambledBF29NES.JPG,null,image-keyboard-response,152,9968,0.0-152.0,31,forwardMask,50,n,10/28/2020 6:13,69.125.145.27,"Mozilla/5.0 (Windows NT 10.0; Win64; x64) AppleWebKit/537.36 (KHTML, like Gecko) Chrome/86.0.4240.111 Safari/537.36",WebKit,Chrome,86.0.4240.111,Windows,10
45,1,null,jspsych/allFaces/BF29NES.JPG,null,image-keyboard-response,153,10028,0.0-153.0,31,Cue,"function(){
        return jsPsych.randomization.sampleWithoutReplacement(cueDuration, 1)[0]}","""",10/28/2020 6:13,69.125.145.27,"Mozilla/5.0 (Windows NT 10.0; Win64; x64) AppleWebKit/537.36 (KHTML, like Gecko) Chrome/86.0.4240.111 Safari/537.36",WebKit,Chrome,86.0.4240.111,Windows,10
45,1,null,jspsych/allFaces/BM35NES.JPG,null,image-keyboard-response,154,10088,0.0-154.0,31,backwardMask,50,"""",10/28/2020 6:13,69.125.145.27,"Mozilla/5.0 (Windows NT 10.0; Win64; x64) AppleWebKit/537.36 (KHTML, like Gecko) Chrome/86.0.4240.111 Safari/537.36",WebKit,Chrome,86.0.4240.111,Windows,10
45,1,null,"<div style=""font-size:60px;"">+</div>",null,html-keyboard-response,155,10148,0.0-155.0,31,fixationBtwnNeutralMaskAndPrompt,50,"""",10/28/2020 6:13,69.125.145.27,"Mozilla/5.0 (Windows NT 10.0; Win64; x64) AppleWebKit/537.36 (KHTML, like Gecko) Chrome/86.0.4240.111 Safari/537.36",WebKit,Chrome,86.0.4240.111,Windows,10
45,1,null,"<div style=""font-size:60px;"">+</div>",null,html-keyboard-response,156,10208,0.0-156.0,32,ITI,50,"""",10/28/2020 6:13,69.125.145.27,"Mozilla/5.0 (Windows NT 10.0; Win64; x64) AppleWebKit/537.36 (KHTML, like Gecko) Chrome/86.0.4240.111 Safari/537.36",WebKit,Chrome,86.0.4240.111,Windows,10
45,1,null,jspsych/allScrambledFaces/scrambledAF31DIS.JPG,null,image-keyboard-response,157,10268,0.0-157.0,32,forwardMask,50,d,10/28/2020 6:13,69.125.145.27,"Mozilla/5.0 (Windows NT 10.0; Win64; x64) AppleWebKit/537.36 (KHTML, like Gecko) Chrome/86.0.4240.111 Safari/537.36",WebKit,Chrome,86.0.4240.111,Windows,10
45,1,null,jspsych/allFaces/AF31DIS.JPG,null,image-keyboard-response,158,10320,0.0-158.0,32,Cue,"function(){
        return jsPsych.randomization.sampleWithoutReplacement(cueDuration, 1)[0]}","""",10/28/2020 6:13,69.125.145.27,"Mozilla/5.0 (Windows NT 10.0; Win64; x64) AppleWebKit/537.36 (KHTML, like Gecko) Chrome/86.0.4240.111 Safari/537.36",WebKit,Chrome,86.0.4240.111,Windows,10
45,1,null,jspsych/allFaces/AF14NES.JPG,null,image-keyboard-response,159,10378,0.0-159.0,32,backwardMask,50,"""",10/28/2020 6:13,69.125.145.27,"Mozilla/5.0 (Windows NT 10.0; Win64; x64) AppleWebKit/537.36 (KHTML, like Gecko) Chrome/86.0.4240.111 Safari/537.36",WebKit,Chrome,86.0.4240.111,Windows,10
45,1,null,"<div style=""font-size:60px;"">+</div>",null,html-keyboard-response,160,10436,0.0-160.0,32,fixationBtwnNeutralMaskAndPrompt,50,"""",10/28/2020 6:13,69.125.145.27,"Mozilla/5.0 (Windows NT 10.0; Win64; x64) AppleWebKit/537.36 (KHTML, like Gecko) Chrome/86.0.4240.111 Safari/537.36",WebKit,Chrome,86.0.4240.111,Windows,10
45,1,null,"<div style=""font-size:60px;"">+</div>",null,html-keyboard-response,161,10488,0.0-161.0,33,ITI,50,"""",10/28/2020 6:13,69.125.145.27,"Mozilla/5.0 (Windows NT 10.0; Win64; x64) AppleWebKit/537.36 (KHTML, like Gecko) Chrome/86.0.4240.111 Safari/537.36",WebKit,Chrome,86.0.4240.111,Windows,10
45,1,null,jspsych/allScrambledFaces/scrambledBF28DIS.JPG,null,image-keyboard-response,162,10549,0.0-162.0,33,forwardMask,50,d,10/28/2020 6:13,69.125.145.27,"Mozilla/5.0 (Windows NT 10.0; Win64; x64) AppleWebKit/537.36 (KHTML, like Gecko) Chrome/86.0.4240.111 Safari/537.36",WebKit,Chrome,86.0.4240.111,Windows,10
45,1,null,jspsych/allFaces/BF28DIS.JPG,null,image-keyboard-response,163,10608,0.0-163.0,33,Cue,"function(){
        return jsPsych.randomization.sampleWithoutReplacement(cueDuration, 1)[0]}","""",10/28/2020 6:13,69.125.145.27,"Mozilla/5.0 (Windows NT 10.0; Win64; x64) AppleWebKit/537.36 (KHTML, like Gecko) Chrome/86.0.4240.111 Safari/537.36",WebKit,Chrome,86.0.4240.111,Windows,10
45,1,null,jspsych/allFaces/BM21NES.JPG,null,image-keyboard-response,164,10668,0.0-164.0,33,backwardMask,50,"""",10/28/2020 6:13,69.125.145.27,"Mozilla/5.0 (Windows NT 10.0; Win64; x64) AppleWebKit/537.36 (KHTML, like Gecko) Chrome/86.0.4240.111 Safari/537.36",WebKit,Chrome,86.0.4240.111,Windows,10
45,1,null,"<div style=""font-size:60px;"">+</div>",null,html-keyboard-response,165,10720,0.0-165.0,33,fixationBtwnNeutralMaskAndPrompt,50,"""",10/28/2020 6:13,69.125.145.27,"Mozilla/5.0 (Windows NT 10.0; Win64; x64) AppleWebKit/537.36 (KHTML, like Gecko) Chrome/86.0.4240.111 Safari/537.36",WebKit,Chrome,86.0.4240.111,Windows,10
45,1,null,"<div style=""font-size:60px;"">+</div>",null,html-keyboard-response,166,10778,0.0-166.0,34,ITI,50,"""",10/28/2020 6:13,69.125.145.27,"Mozilla/5.0 (Windows NT 10.0; Win64; x64) AppleWebKit/537.36 (KHTML, like Gecko) Chrome/86.0.4240.111 Safari/537.36",WebKit,Chrome,86.0.4240.111,Windows,10
45,1,null,jspsych/allScrambledFaces/scrambledBF12DIS.JPG,null,image-keyboard-response,167,10838,0.0-167.0,34,forwardMask,50,d,10/28/2020 6:13,69.125.145.27,"Mozilla/5.0 (Windows NT 10.0; Win64; x64) AppleWebKit/537.36 (KHTML, like Gecko) Chrome/86.0.4240.111 Safari/537.36",WebKit,Chrome,86.0.4240.111,Windows,10
45,1,null,jspsych/allFaces/BF12DIS.JPG,null,image-keyboard-response,168,10898,0.0-168.0,34,Cue,"function(){
        return jsPsych.randomization.sampleWithoutReplacement(cueDuration, 1)[0]}","""",10/28/2020 6:13,69.125.145.27,"Mozilla/5.0 (Windows NT 10.0; Win64; x64) AppleWebKit/537.36 (KHTML, like Gecko) Chrome/86.0.4240.111 Safari/537.36",WebKit,Chrome,86.0.4240.111,Windows,10
45,1,null,jspsych/allFaces/BM34NES.JPG,null,image-keyboard-response,169,10958,0.0-169.0,34,backwardMask,50,"""",10/28/2020 6:13,69.125.145.27,"Mozilla/5.0 (Windows NT 10.0; Win64; x64) AppleWebKit/537.36 (KHTML, like Gecko) Chrome/86.0.4240.111 Safari/537.36",WebKit,Chrome,86.0.4240.111,Windows,10
45,1,null,"<div style=""font-size:60px;"">+</div>",null,html-keyboard-response,170,11018,0.0-170.0,34,fixationBtwnNeutralMaskAndPrompt,50,"""",10/28/2020 6:13,69.125.145.27,"Mozilla/5.0 (Windows NT 10.0; Win64; x64) AppleWebKit/537.36 (KHTML, like Gecko) Chrome/86.0.4240.111 Safari/537.36",WebKit,Chrome,86.0.4240.111,Windows,10
45,1,null,"<div style=""font-size:60px;"">+</div>",null,html-keyboard-response,171,11078,0.0-171.0,35,ITI,50,"""",10/28/2020 6:13,69.125.145.27,"Mozilla/5.0 (Windows NT 10.0; Win64; x64) AppleWebKit/537.36 (KHTML, like Gecko) Chrome/86.0.4240.111 Safari/537.36",WebKit,Chrome,86.0.4240.111,Windows,10
45,1,null,jspsych/allScrambledFaces/scrambledAM10NES.JPG,null,image-keyboard-response,172,11138,0.0-172.0,35,forwardMask,50,n,10/28/2020 6:13,69.125.145.27,"Mozilla/5.0 (Windows NT 10.0; Win64; x64) AppleWebKit/537.36 (KHTML, like Gecko) Chrome/86.0.4240.111 Safari/537.36",WebKit,Chrome,86.0.4240.111,Windows,10
45,1,null,jspsych/allFaces/AM10NES.JPG,null,image-keyboard-response,173,11198,0.0-173.0,35,Cue,"function(){
        return jsPsych.randomization.sampleWithoutReplacement(cueDuration, 1)[0]}","""",10/28/2020 6:13,69.125.145.27,"Mozilla/5.0 (Windows NT 10.0; Win64; x64) AppleWebKit/537.36 (KHTML, like Gecko) Chrome/86.0.4240.111 Safari/537.36",WebKit,Chrome,86.0.4240.111,Windows,10
45,1,null,jspsych/allFaces/AF35NES.JPG,null,image-keyboard-response,174,11258,0.0-174.0,35,backwardMask,50,"""",10/28/2020 6:13,69.125.145.27,"Mozilla/5.0 (Windows NT 10.0; Win64; x64) AppleWebKit/537.36 (KHTML, like Gecko) Chrome/86.0.4240.111 Safari/537.36",WebKit,Chrome,86.0.4240.111,Windows,10
45,1,null,"<div style=""font-size:60px;"">+</div>",null,html-keyboard-response,175,11319,0.0-175.0,35,fixationBtwnNeutralMaskAndPrompt,50,"""",10/28/2020 6:13,69.125.145.27,"Mozilla/5.0 (Windows NT 10.0; Win64; x64) AppleWebKit/537.36 (KHTML, like Gecko) Chrome/86.0.4240.111 Safari/537.36",WebKit,Chrome,86.0.4240.111,Windows,10
45,1,null,"<div style=""font-size:60px;"">+</div>",null,html-keyboard-response,176,11378,0.0-176.0,36,ITI,50,"""",10/28/2020 6:13,69.125.145.27,"Mozilla/5.0 (Windows NT 10.0; Win64; x64) AppleWebKit/537.36 (KHTML, like Gecko) Chrome/86.0.4240.111 Safari/537.36",WebKit,Chrome,86.0.4240.111,Windows,10
45,1,null,jspsych/allScrambledFaces/scrambledBM12NES.JPG,null,image-keyboard-response,177,11438,0.0-177.0,36,forwardMask,50,n,10/28/2020 6:13,69.125.145.27,"Mozilla/5.0 (Windows NT 10.0; Win64; x64) AppleWebKit/537.36 (KHTML, like Gecko) Chrome/86.0.4240.111 Safari/537.36",WebKit,Chrome,86.0.4240.111,Windows,10
45,1,null,jspsych/allFaces/BM12NES.JPG,null,image-keyboard-response,178,11498,0.0-178.0,36,Cue,"function(){
        return jsPsych.randomization.sampleWithoutReplacement(cueDuration, 1)[0]}","""",10/28/2020 6:13,69.125.145.27,"Mozilla/5.0 (Windows NT 10.0; Win64; x64) AppleWebKit/537.36 (KHTML, like Gecko) Chrome/86.0.4240.111 Safari/537.36",WebKit,Chrome,86.0.4240.111,Windows,10
45,1,null,jspsych/allFaces/AF30NES.JPG,null,image-keyboard-response,179,11559,0.0-179.0,36,backwardMask,50,"""",10/28/2020 6:13,69.125.145.27,"Mozilla/5.0 (Windows NT 10.0; Win64; x64) AppleWebKit/537.36 (KHTML, like Gecko) Chrome/86.0.4240.111 Safari/537.36",WebKit,Chrome,86.0.4240.111,Windows,10
45,1,null,"<div style=""font-size:60px;"">+</div>",null,html-keyboard-response,180,11619,0.0-180.0,36,fixationBtwnNeutralMaskAndPrompt,50,"""",10/28/2020 6:13,69.125.145.27,"Mozilla/5.0 (Windows NT 10.0; Win64; x64) AppleWebKit/537.36 (KHTML, like Gecko) Chrome/86.0.4240.111 Safari/537.36",WebKit,Chrome,86.0.4240.111,Windows,10
45,1,null,"<div style=""font-size:60px;"">+</div>",null,html-keyboard-response,181,11679,0.0-181.0,37,ITI,50,"""",10/28/2020 6:13,69.125.145.27,"Mozilla/5.0 (Windows NT 10.0; Win64; x64) AppleWebKit/537.36 (KHTML, like Gecko) Chrome/86.0.4240.111 Safari/537.36",WebKit,Chrome,86.0.4240.111,Windows,10
45,1,null,jspsych/allScrambledFaces/scrambledBM18DIS.JPG,null,image-keyboard-response,182,11738,0.0-182.0,37,forwardMask,50,d,10/28/2020 6:13,69.125.145.27,"Mozilla/5.0 (Windows NT 10.0; Win64; x64) AppleWebKit/537.36 (KHTML, like Gecko) Chrome/86.0.4240.111 Safari/537.36",WebKit,Chrome,86.0.4240.111,Windows,10
45,1,null,jspsych/allFaces/BM18DIS.JPG,null,image-keyboard-response,183,11798,0.0-183.0,37,Cue,"function(){
        return jsPsych.randomization.sampleWithoutReplacement(cueDuration, 1)[0]}","""",10/28/2020 6:13,69.125.145.27,"Mozilla/5.0 (Windows NT 10.0; Win64; x64) AppleWebKit/537.36 (KHTML, like Gecko) Chrome/86.0.4240.111 Safari/537.36",WebKit,Chrome,86.0.4240.111,Windows,10
45,1,null,jspsych/allFaces/BF08NES.JPG,null,image-keyboard-response,184,11858,0.0-184.0,37,backwardMask,50,"""",10/28/2020 6:13,69.125.145.27,"Mozilla/5.0 (Windows NT 10.0; Win64; x64) AppleWebKit/537.36 (KHTML, like Gecko) Chrome/86.0.4240.111 Safari/537.36",WebKit,Chrome,86.0.4240.111,Windows,10
45,1,null,"<div style=""font-size:60px;"">+</div>",null,html-keyboard-response,185,11918,0.0-185.0,37,fixationBtwnNeutralMaskAndPrompt,50,"""",10/28/2020 6:13,69.125.145.27,"Mozilla/5.0 (Windows NT 10.0; Win64; x64) AppleWebKit/537.36 (KHTML, like Gecko) Chrome/86.0.4240.111 Safari/537.36",WebKit,Chrome,86.0.4240.111,Windows,10
45,1,null,"<div style=""font-size:60px;"">+</div>",null,html-keyboard-response,186,11978,0.0-186.0,38,ITI,50,"""",10/28/2020 6:13,69.125.145.27,"Mozilla/5.0 (Windows NT 10.0; Win64; x64) AppleWebKit/537.36 (KHTML, like Gecko) Chrome/86.0.4240.111 Safari/537.36",WebKit,Chrome,86.0.4240.111,Windows,10
45,1,null,jspsych/allScrambledFaces/scrambledBM06NES.JPG,null,image-keyboard-response,187,12038,0.0-187.0,38,forwardMask,50,n,10/28/2020 6:13,69.125.145.27,"Mozilla/5.0 (Windows NT 10.0; Win64; x64) AppleWebKit/537.36 (KHTML, like Gecko) Chrome/86.0.4240.111 Safari/537.36",WebKit,Chrome,86.0.4240.111,Windows,10
45,1,null,jspsych/allFaces/BM06NES.JPG,null,image-keyboard-response,188,12098,0.0-188.0,38,Cue,"function(){
        return jsPsych.randomization.sampleWithoutReplacement(cueDuration, 1)[0]}","""",10/28/2020 6:13,69.125.145.27,"Mozilla/5.0 (Windows NT 10.0; Win64; x64) AppleWebKit/537.36 (KHTML, like Gecko) Chrome/86.0.4240.111 Safari/537.36",WebKit,Chrome,86.0.4240.111,Windows,10
45,1,null,jspsych/allFaces/BF09NES.JPG,null,image-keyboard-response,189,12158,0.0-189.0,38,backwardMask,50,"""",10/28/2020 6:13,69.125.145.27,"Mozilla/5.0 (Windows NT 10.0; Win64; x64) AppleWebKit/537.36 (KHTML, like Gecko) Chrome/86.0.4240.111 Safari/537.36",WebKit,Chrome,86.0.4240.111,Windows,10
45,1,null,"<div style=""font-size:60px;"">+</div>",null,html-keyboard-response,190,12216,0.0-190.0,38,fixationBtwnNeutralMaskAndPrompt,50,"""",10/28/2020 6:13,69.125.145.27,"Mozilla/5.0 (Windows NT 10.0; Win64; x64) AppleWebKit/537.36 (KHTML, like Gecko) Chrome/86.0.4240.111 Safari/537.36",WebKit,Chrome,86.0.4240.111,Windows,10
45,1,null,"<div style=""font-size:60px;"">+</div>",null,html-keyboard-response,191,12268,0.0-191.0,39,ITI,50,"""",10/28/2020 6:13,69.125.145.27,"Mozilla/5.0 (Windows NT 10.0; Win64; x64) AppleWebKit/537.36 (KHTML, like Gecko) Chrome/86.0.4240.111 Safari/537.36",WebKit,Chrome,86.0.4240.111,Windows,10
45,1,null,jspsych/allScrambledFaces/scrambledAM31NES.JPG,null,image-keyboard-response,192,12328,0.0-192.0,39,forwardMask,50,n,10/28/2020 6:13,69.125.145.27,"Mozilla/5.0 (Windows NT 10.0; Win64; x64) AppleWebKit/537.36 (KHTML, like Gecko) Chrome/86.0.4240.111 Safari/537.36",WebKit,Chrome,86.0.4240.111,Windows,10
45,1,null,jspsych/allFaces/AM31NES.JPG,null,image-keyboard-response,193,12388,0.0-193.0,39,Cue,"function(){
        return jsPsych.randomization.sampleWithoutReplacement(cueDuration, 1)[0]}","""",10/28/2020 6:13,69.125.145.27,"Mozilla/5.0 (Windows NT 10.0; Win64; x64) AppleWebKit/537.36 (KHTML, like Gecko) Chrome/86.0.4240.111 Safari/537.36",WebKit,Chrome,86.0.4240.111,Windows,10
45,1,null,jspsych/allFaces/BF19NES.JPG,null,image-keyboard-response,194,12448,0.0-194.0,39,backwardMask,50,"""",10/28/2020 6:13,69.125.145.27,"Mozilla/5.0 (Windows NT 10.0; Win64; x64) AppleWebKit/537.36 (KHTML, like Gecko) Chrome/86.0.4240.111 Safari/537.36",WebKit,Chrome,86.0.4240.111,Windows,10
45,1,null,"<div style=""font-size:60px;"">+</div>",null,html-keyboard-response,195,12508,0.0-195.0,39,fixationBtwnNeutralMaskAndPrompt,50,"""",10/28/2020 6:13,69.125.145.27,"Mozilla/5.0 (Windows NT 10.0; Win64; x64) AppleWebKit/537.36 (KHTML, like Gecko) Chrome/86.0.4240.111 Safari/537.36",WebKit,Chrome,86.0.4240.111,Windows,10
45,1,null,"<div style=""font-size:60px;"">+</div>",null,html-keyboard-response,196,12568,0.0-196.0,40,ITI,50,"""",10/28/2020 6:13,69.125.145.27,"Mozilla/5.0 (Windows NT 10.0; Win64; x64) AppleWebKit/537.36 (KHTML, like Gecko) Chrome/86.0.4240.111 Safari/537.36",WebKit,Chrome,86.0.4240.111,Windows,10
45,1,null,jspsych/allScrambledFaces/scrambledBM33NES.JPG,null,image-keyboard-response,197,12629,0.0-197.0,40,forwardMask,50,n,10/28/2020 6:13,69.125.145.27,"Mozilla/5.0 (Windows NT 10.0; Win64; x64) AppleWebKit/537.36 (KHTML, like Gecko) Chrome/86.0.4240.111 Safari/537.36",WebKit,Chrome,86.0.4240.111,Windows,10
45,1,null,jspsych/allFaces/BM33NES.JPG,null,image-keyboard-response,198,12689,0.0-198.0,40,Cue,"function(){
        return jsPsych.randomization.sampleWithoutReplacement(cueDuration, 1)[0]}","""",10/28/2020 6:13,69.125.145.27,"Mozilla/5.0 (Windows NT 10.0; Win64; x64) AppleWebKit/537.36 (KHTML, like Gecko) Chrome/86.0.4240.111 Safari/537.36",WebKit,Chrome,86.0.4240.111,Windows,10
45,1,null,jspsych/allFaces/AM30NES.JPG,null,image-keyboard-response,199,12748,0.0-199.0,40,backwardMask,50,"""",10/28/2020 6:13,69.125.145.27,"Mozilla/5.0 (Windows NT 10.0; Win64; x64) AppleWebKit/537.36 (KHTML, like Gecko) Chrome/86.0.4240.111 Safari/537.36",WebKit,Chrome,86.0.4240.111,Windows,10
45,1,null,"<div style=""font-size:60px;"">+</div>",null,html-keyboard-response,200,12808,0.0-200.0,40,fixationBtwnNeutralMaskAndPrompt,50,"""",10/28/2020 6:13,69.125.145.27,"Mozilla/5.0 (Windows NT 10.0; Win64; x64) AppleWebKit/537.36 (KHTML, like Gecko) Chrome/86.0.4240.111 Safari/537.36",WebKit,Chrome,86.0.4240.111,Windows,10
45,1,null,"<div style=""font-size:60px;"">+</div>",null,html-keyboard-response,201,12868,0.0-201.0,41,ITI,50,"""",10/28/2020 6:13,69.125.145.27,"Mozilla/5.0 (Windows NT 10.0; Win64; x64) AppleWebKit/537.36 (KHTML, like Gecko) Chrome/86.0.4240.111 Safari/537.36",WebKit,Chrome,86.0.4240.111,Windows,10
45,1,null,jspsych/allScrambledFaces/scrambledAF19NES.JPG,null,image-keyboard-response,202,12928,0.0-202.0,41,forwardMask,50,n,10/28/2020 6:13,69.125.145.27,"Mozilla/5.0 (Windows NT 10.0; Win64; x64) AppleWebKit/537.36 (KHTML, like Gecko) Chrome/86.0.4240.111 Safari/537.36",WebKit,Chrome,86.0.4240.111,Windows,10
45,1,null,jspsych/allFaces/AF19NES.JPG,null,image-keyboard-response,203,12988,0.0-203.0,41,Cue,"function(){
        return jsPsych.randomization.sampleWithoutReplacement(cueDuration, 1)[0]}","""",10/28/2020 6:13,69.125.145.27,"Mozilla/5.0 (Windows NT 10.0; Win64; x64) AppleWebKit/537.36 (KHTML, like Gecko) Chrome/86.0.4240.111 Safari/537.36",WebKit,Chrome,86.0.4240.111,Windows,10
45,1,null,jspsych/allFaces/AM22NES.JPG,null,image-keyboard-response,204,13046,0.0-204.0,41,backwardMask,50,"""",10/28/2020 6:13,69.125.145.27,"Mozilla/5.0 (Windows NT 10.0; Win64; x64) AppleWebKit/537.36 (KHTML, like Gecko) Chrome/86.0.4240.111 Safari/537.36",WebKit,Chrome,86.0.4240.111,Windows,10
45,1,null,"<div style=""font-size:60px;"">+</div>",null,html-keyboard-response,205,13105,0.0-205.0,41,fixationBtwnNeutralMaskAndPrompt,50,"""",10/28/2020 6:13,69.125.145.27,"Mozilla/5.0 (Windows NT 10.0; Win64; x64) AppleWebKit/537.36 (KHTML, like Gecko) Chrome/86.0.4240.111 Safari/537.36",WebKit,Chrome,86.0.4240.111,Windows,10
45,1,null,"<div style=""font-size:60px;"">+</div>",null,html-keyboard-response,206,13161,0.0-206.0,42,ITI,50,"""",10/28/2020 6:13,69.125.145.27,"Mozilla/5.0 (Windows NT 10.0; Win64; x64) AppleWebKit/537.36 (KHTML, like Gecko) Chrome/86.0.4240.111 Safari/537.36",WebKit,Chrome,86.0.4240.111,Windows,10
45,1,null,jspsych/allScrambledFaces/scrambledBM17DIS.JPG,null,image-keyboard-response,207,13218,0.0-207.0,42,forwardMask,50,d,10/28/2020 6:13,69.125.145.27,"Mozilla/5.0 (Windows NT 10.0; Win64; x64) AppleWebKit/537.36 (KHTML, like Gecko) Chrome/86.0.4240.111 Safari/537.36",WebKit,Chrome,86.0.4240.111,Windows,10
45,1,null,jspsych/allFaces/BM17DIS.JPG,null,image-keyboard-response,208,13278,0.0-208.0,42,Cue,"function(){
        return jsPsych.randomization.sampleWithoutReplacement(cueDuration, 1)[0]}","""",10/28/2020 6:13,69.125.145.27,"Mozilla/5.0 (Windows NT 10.0; Win64; x64) AppleWebKit/537.36 (KHTML, like Gecko) Chrome/86.0.4240.111 Safari/537.36",WebKit,Chrome,86.0.4240.111,Windows,10
45,1,null,jspsych/allFaces/AM30NES.JPG,null,image-keyboard-response,209,13339,0.0-209.0,42,backwardMask,50,"""",10/28/2020 6:13,69.125.145.27,"Mozilla/5.0 (Windows NT 10.0; Win64; x64) AppleWebKit/537.36 (KHTML, like Gecko) Chrome/86.0.4240.111 Safari/537.36",WebKit,Chrome,86.0.4240.111,Windows,10
45,1,null,"<div style=""font-size:60px;"">+</div>",null,html-keyboard-response,210,13397,0.0-210.0,42,fixationBtwnNeutralMaskAndPrompt,50,"""",10/28/2020 6:13,69.125.145.27,"Mozilla/5.0 (Windows NT 10.0; Win64; x64) AppleWebKit/537.36 (KHTML, like Gecko) Chrome/86.0.4240.111 Safari/537.36",WebKit,Chrome,86.0.4240.111,Windows,10
45,1,null,"<div style=""font-size:60px;"">+</div>",null,html-keyboard-response,211,13458,0.0-211.0,43,ITI,50,"""",10/28/2020 6:13,69.125.145.27,"Mozilla/5.0 (Windows NT 10.0; Win64; x64) AppleWebKit/537.36 (KHTML, like Gecko) Chrome/86.0.4240.111 Safari/537.36",WebKit,Chrome,86.0.4240.111,Windows,10
45,1,null,jspsych/allScrambledFaces/scrambledAF11DIS.JPG,null,image-keyboard-response,212,13518,0.0-212.0,43,forwardMask,50,d,10/28/2020 6:13,69.125.145.27,"Mozilla/5.0 (Windows NT 10.0; Win64; x64) AppleWebKit/537.36 (KHTML, like Gecko) Chrome/86.0.4240.111 Safari/537.36",WebKit,Chrome,86.0.4240.111,Windows,10
45,1,null,jspsych/allFaces/AF11DIS.JPG,null,image-keyboard-response,213,13578,0.0-213.0,43,Cue,"function(){
        return jsPsych.randomization.sampleWithoutReplacement(cueDuration, 1)[0]}","""",10/28/2020 6:13,69.125.145.27,"Mozilla/5.0 (Windows NT 10.0; Win64; x64) AppleWebKit/537.36 (KHTML, like Gecko) Chrome/86.0.4240.111 Safari/537.36",WebKit,Chrome,86.0.4240.111,Windows,10
45,1,null,jspsych/allFaces/BM05NES.JPG,null,image-keyboard-response,214,13638,0.0-214.0,43,backwardMask,50,"""",10/28/2020 6:13,69.125.145.27,"Mozilla/5.0 (Windows NT 10.0; Win64; x64) AppleWebKit/537.36 (KHTML, like Gecko) Chrome/86.0.4240.111 Safari/537.36",WebKit,Chrome,86.0.4240.111,Windows,10
45,1,null,"<div style=""font-size:60px;"">+</div>",null,html-keyboard-response,215,13698,0.0-215.0,43,fixationBtwnNeutralMaskAndPrompt,50,"""",10/28/2020 6:13,69.125.145.27,"Mozilla/5.0 (Windows NT 10.0; Win64; x64) AppleWebKit/537.36 (KHTML, like Gecko) Chrome/86.0.4240.111 Safari/537.36",WebKit,Chrome,86.0.4240.111,Windows,10
45,1,null,"<div style=""font-size:60px;"">+</div>",null,html-keyboard-response,216,13750,0.0-216.0,44,ITI,50,"""",10/28/2020 6:13,69.125.145.27,"Mozilla/5.0 (Windows NT 10.0; Win64; x64) AppleWebKit/537.36 (KHTML, like Gecko) Chrome/86.0.4240.111 Safari/537.36",WebKit,Chrome,86.0.4240.111,Windows,10
45,1,null,jspsych/allScrambledFaces/scrambledAF33NES.JPG,null,image-keyboard-response,217,13808,0.0-217.0,44,forwardMask,50,n,10/28/2020 6:13,69.125.145.27,"Mozilla/5.0 (Windows NT 10.0; Win64; x64) AppleWebKit/537.36 (KHTML, like Gecko) Chrome/86.0.4240.111 Safari/537.36",WebKit,Chrome,86.0.4240.111,Windows,10
45,1,null,jspsych/allFaces/AF33NES.JPG,null,image-keyboard-response,218,13866,0.0-218.0,44,Cue,"function(){
        return jsPsych.randomization.sampleWithoutReplacement(cueDuration, 1)[0]}","""",10/28/2020 6:13,69.125.145.27,"Mozilla/5.0 (Windows NT 10.0; Win64; x64) AppleWebKit/537.36 (KHTML, like Gecko) Chrome/86.0.4240.111 Safari/537.36",WebKit,Chrome,86.0.4240.111,Windows,10
45,1,null,jspsych/allFaces/BM34NES.JPG,null,image-keyboard-response,219,13918,0.0-219.0,44,backwardMask,50,"""",10/28/2020 6:13,69.125.145.27,"Mozilla/5.0 (Windows NT 10.0; Win64; x64) AppleWebKit/537.36 (KHTML, like Gecko) Chrome/86.0.4240.111 Safari/537.36",WebKit,Chrome,86.0.4240.111,Windows,10
45,1,null,"<div style=""font-size:60px;"">+</div>",null,html-keyboard-response,220,13979,0.0-220.0,44,fixationBtwnNeutralMaskAndPrompt,50,"""",10/28/2020 6:13,69.125.145.27,"Mozilla/5.0 (Windows NT 10.0; Win64; x64) AppleWebKit/537.36 (KHTML, like Gecko) Chrome/86.0.4240.111 Safari/537.36",WebKit,Chrome,86.0.4240.111,Windows,10
45,1,null,"<div style=""font-size:60px;"">+</div>",null,html-keyboard-response,221,14038,0.0-221.0,45,ITI,50,"""",10/28/2020 6:13,69.125.145.27,"Mozilla/5.0 (Windows NT 10.0; Win64; x64) AppleWebKit/537.36 (KHTML, like Gecko) Chrome/86.0.4240.111 Safari/537.36",WebKit,Chrome,86.0.4240.111,Windows,10
45,1,null,jspsych/allScrambledFaces/scrambledBF19NES.JPG,null,image-keyboard-response,222,14098,0.0-222.0,45,forwardMask,50,n,10/28/2020 6:13,69.125.145.27,"Mozilla/5.0 (Windows NT 10.0; Win64; x64) AppleWebKit/537.36 (KHTML, like Gecko) Chrome/86.0.4240.111 Safari/537.36",WebKit,Chrome,86.0.4240.111,Windows,10
45,1,null,jspsych/allFaces/BF19NES.JPG,null,image-keyboard-response,223,14158,0.0-223.0,45,Cue,"function(){
        return jsPsych.randomization.sampleWithoutReplacement(cueDuration, 1)[0]}","""",10/28/2020 6:13,69.125.145.27,"Mozilla/5.0 (Windows NT 10.0; Win64; x64) AppleWebKit/537.36 (KHTML, like Gecko) Chrome/86.0.4240.111 Safari/537.36",WebKit,Chrome,86.0.4240.111,Windows,10
45,1,null,jspsych/allFaces/AM35NES.JPG,null,image-keyboard-response,224,14214,0.0-224.0,45,backwardMask,50,"""",10/28/2020 6:13,69.125.145.27,"Mozilla/5.0 (Windows NT 10.0; Win64; x64) AppleWebKit/537.36 (KHTML, like Gecko) Chrome/86.0.4240.111 Safari/537.36",WebKit,Chrome,86.0.4240.111,Windows,10
45,1,null,"<div style=""font-size:60px;"">+</div>",null,html-keyboard-response,225,14271,0.0-225.0,45,fixationBtwnNeutralMaskAndPrompt,50,"""",10/28/2020 6:13,69.125.145.27,"Mozilla/5.0 (Windows NT 10.0; Win64; x64) AppleWebKit/537.36 (KHTML, like Gecko) Chrome/86.0.4240.111 Safari/537.36",WebKit,Chrome,86.0.4240.111,Windows,10
45,1,null,"<div style=""font-size:60px;"">+</div>",null,html-keyboard-response,226,14328,0.0-226.0,46,ITI,50,"""",10/28/2020 6:13,69.125.145.27,"Mozilla/5.0 (Windows NT 10.0; Win64; x64) AppleWebKit/537.36 (KHTML, like Gecko) Chrome/86.0.4240.111 Safari/537.36",WebKit,Chrome,86.0.4240.111,Windows,10
45,1,null,jspsych/allScrambledFaces/scrambledBM10NES.JPG,null,image-keyboard-response,227,14388,0.0-227.0,46,forwardMask,50,n,10/28/2020 6:13,69.125.145.27,"Mozilla/5.0 (Windows NT 10.0; Win64; x64) AppleWebKit/537.36 (KHTML, like Gecko) Chrome/86.0.4240.111 Safari/537.36",WebKit,Chrome,86.0.4240.111,Windows,10
45,1,null,jspsych/allFaces/BM10NES.JPG,null,image-keyboard-response,228,14448,0.0-228.0,46,Cue,"function(){
        return jsPsych.randomization.sampleWithoutReplacement(cueDuration, 1)[0]}","""",10/28/2020 6:13,69.125.145.27,"Mozilla/5.0 (Windows NT 10.0; Win64; x64) AppleWebKit/537.36 (KHTML, like Gecko) Chrome/86.0.4240.111 Safari/537.36",WebKit,Chrome,86.0.4240.111,Windows,10
45,1,null,jspsych/allFaces/AM34NES.JPG,null,image-keyboard-response,229,14508,0.0-229.0,46,backwardMask,50,"""",10/28/2020 6:13,69.125.145.27,"Mozilla/5.0 (Windows NT 10.0; Win64; x64) AppleWebKit/537.36 (KHTML, like Gecko) Chrome/86.0.4240.111 Safari/537.36",WebKit,Chrome,86.0.4240.111,Windows,10
45,1,null,"<div style=""font-size:60px;"">+</div>",null,html-keyboard-response,230,14568,0.0-230.0,46,fixationBtwnNeutralMaskAndPrompt,50,"""",10/28/2020 6:13,69.125.145.27,"Mozilla/5.0 (Windows NT 10.0; Win64; x64) AppleWebKit/537.36 (KHTML, like Gecko) Chrome/86.0.4240.111 Safari/537.36",WebKit,Chrome,86.0.4240.111,Windows,10
45,1,null,"<div style=""font-size:60px;"">+</div>",null,html-keyboard-response,231,14623,0.0-231.0,47,ITI,50,"""",10/28/2020 6:13,69.125.145.27,"Mozilla/5.0 (Windows NT 10.0; Win64; x64) AppleWebKit/537.36 (KHTML, like Gecko) Chrome/86.0.4240.111 Safari/537.36",WebKit,Chrome,86.0.4240.111,Windows,10
45,1,null,jspsych/allScrambledFaces/scrambledAF31DIS.JPG,null,image-keyboard-response,232,14678,0.0-232.0,47,forwardMask,50,d,10/28/2020 6:13,69.125.145.27,"Mozilla/5.0 (Windows NT 10.0; Win64; x64) AppleWebKit/537.36 (KHTML, like Gecko) Chrome/86.0.4240.111 Safari/537.36",WebKit,Chrome,86.0.4240.111,Windows,10
45,1,null,jspsych/allFaces/AF31DIS.JPG,null,image-keyboard-response,233,14738,0.0-233.0,47,Cue,"function(){
        return jsPsych.randomization.sampleWithoutReplacement(cueDuration, 1)[0]}","""",10/28/2020 6:13,69.125.145.27,"Mozilla/5.0 (Windows NT 10.0; Win64; x64) AppleWebKit/537.36 (KHTML, like Gecko) Chrome/86.0.4240.111 Safari/537.36",WebKit,Chrome,86.0.4240.111,Windows,10
45,1,null,jspsych/allFaces/BM03NES.JPG,null,image-keyboard-response,234,14798,0.0-234.0,47,backwardMask,50,"""",10/28/2020 6:13,69.125.145.27,"Mozilla/5.0 (Windows NT 10.0; Win64; x64) AppleWebKit/537.36 (KHTML, like Gecko) Chrome/86.0.4240.111 Safari/537.36",WebKit,Chrome,86.0.4240.111,Windows,10
45,1,null,"<div style=""font-size:60px;"">+</div>",null,html-keyboard-response,235,14858,0.0-235.0,47,fixationBtwnNeutralMaskAndPrompt,50,"""",10/28/2020 6:13,69.125.145.27,"Mozilla/5.0 (Windows NT 10.0; Win64; x64) AppleWebKit/537.36 (KHTML, like Gecko) Chrome/86.0.4240.111 Safari/537.36",WebKit,Chrome,86.0.4240.111,Windows,10
45,1,null,"<div style=""font-size:60px;"">+</div>",null,html-keyboard-response,236,14916,0.0-236.0,48,ITI,50,"""",10/28/2020 6:13,69.125.145.27,"Mozilla/5.0 (Windows NT 10.0; Win64; x64) AppleWebKit/537.36 (KHTML, like Gecko) Chrome/86.0.4240.111 Safari/537.36",WebKit,Chrome,86.0.4240.111,Windows,10
45,1,null,jspsych/allScrambledFaces/scrambledBM24NES.JPG,null,image-keyboard-response,237,14968,0.0-237.0,48,forwardMask,50,n,10/28/2020 6:13,69.125.145.27,"Mozilla/5.0 (Windows NT 10.0; Win64; x64) AppleWebKit/537.36 (KHTML, like Gecko) Chrome/86.0.4240.111 Safari/537.36",WebKit,Chrome,86.0.4240.111,Windows,10
45,1,null,jspsych/allFaces/BM24NES.JPG,null,image-keyboard-response,238,15028,0.0-238.0,48,Cue,"function(){
        return jsPsych.randomization.sampleWithoutReplacement(cueDuration, 1)[0]}","""",10/28/2020 6:13,69.125.145.27,"Mozilla/5.0 (Windows NT 10.0; Win64; x64) AppleWebKit/537.36 (KHTML, like Gecko) Chrome/86.0.4240.111 Safari/537.36",WebKit,Chrome,86.0.4240.111,Windows,10
45,1,null,jspsych/allFaces/BM05NES.JPG,null,image-keyboard-response,239,15088,0.0-239.0,48,backwardMask,50,"""",10/28/2020 6:13,69.125.145.27,"Mozilla/5.0 (Windows NT 10.0; Win64; x64) AppleWebKit/537.36 (KHTML, like Gecko) Chrome/86.0.4240.111 Safari/537.36",WebKit,Chrome,86.0.4240.111,Windows,10
45,1,null,"<div style=""font-size:60px;"">+</div>",null,html-keyboard-response,240,15148,0.0-240.0,48,fixationBtwnNeutralMaskAndPrompt,50,"""",10/28/2020 6:13,69.125.145.27,"Mozilla/5.0 (Windows NT 10.0; Win64; x64) AppleWebKit/537.36 (KHTML, like Gecko) Chrome/86.0.4240.111 Safari/537.36",WebKit,Chrome,86.0.4240.111,Windows,10
45,1,null,"<div style=""font-size:60px;"">+</div>",null,html-keyboard-response,241,15208,0.0-241.0,49,ITI,50,"""",10/28/2020 6:13,69.125.145.27,"Mozilla/5.0 (Windows NT 10.0; Win64; x64) AppleWebKit/537.36 (KHTML, like Gecko) Chrome/86.0.4240.111 Safari/537.36",WebKit,Chrome,86.0.4240.111,Windows,10
45,1,null,jspsych/allScrambledFaces/scrambledBF27NES.JPG,null,image-keyboard-response,242,15269,0.0-242.0,49,forwardMask,50,n,10/28/2020 6:13,69.125.145.27,"Mozilla/5.0 (Windows NT 10.0; Win64; x64) AppleWebKit/537.36 (KHTML, like Gecko) Chrome/86.0.4240.111 Safari/537.36",WebKit,Chrome,86.0.4240.111,Windows,10
45,1,null,jspsych/allFaces/BF27NES.JPG,null,image-keyboard-response,243,15328,0.0-243.0,49,Cue,"function(){
        return jsPsych.randomization.sampleWithoutReplacement(cueDuration, 1)[0]}","""",10/28/2020 6:13,69.125.145.27,"Mozilla/5.0 (Windows NT 10.0; Win64; x64) AppleWebKit/537.36 (KHTML, like Gecko) Chrome/86.0.4240.111 Safari/537.36",WebKit,Chrome,86.0.4240.111,Windows,10
45,1,null,jspsych/allFaces/AM15NES.JPG,null,image-keyboard-response,244,15389,0.0-244.0,49,backwardMask,50,"""",10/28/2020 6:13,69.125.145.27,"Mozilla/5.0 (Windows NT 10.0; Win64; x64) AppleWebKit/537.36 (KHTML, like Gecko) Chrome/86.0.4240.111 Safari/537.36",WebKit,Chrome,86.0.4240.111,Windows,10
45,1,null,"<div style=""font-size:60px;"">+</div>",null,html-keyboard-response,245,15448,0.0-245.0,49,fixationBtwnNeutralMaskAndPrompt,50,"""",10/28/2020 6:13,69.125.145.27,"Mozilla/5.0 (Windows NT 10.0; Win64; x64) AppleWebKit/537.36 (KHTML, like Gecko) Chrome/86.0.4240.111 Safari/537.36",WebKit,Chrome,86.0.4240.111,Windows,10
45,1,null,"<div style=""font-size:60px;"">+</div>",null,html-keyboard-response,246,15508,0.0-246.0,50,ITI,50,"""",10/28/2020 6:13,69.125.145.27,"Mozilla/5.0 (Windows NT 10.0; Win64; x64) AppleWebKit/537.36 (KHTML, like Gecko) Chrome/86.0.4240.111 Safari/537.36",WebKit,Chrome,86.0.4240.111,Windows,10
45,1,null,jspsych/allScrambledFaces/scrambledBF12NES.JPG,null,image-keyboard-response,247,15568,0.0-247.0,50,forwardMask,50,n,10/28/2020 6:13,69.125.145.27,"Mozilla/5.0 (Windows NT 10.0; Win64; x64) AppleWebKit/537.36 (KHTML, like Gecko) Chrome/86.0.4240.111 Safari/537.36",WebKit,Chrome,86.0.4240.111,Windows,10
45,1,null,jspsych/allFaces/BF12NES.JPG,null,image-keyboard-response,248,15628,0.0-248.0,50,Cue,"function(){
        return jsPsych.randomization.sampleWithoutReplacement(cueDuration, 1)[0]}","""",10/28/2020 6:13,69.125.145.27,"Mozilla/5.0 (Windows NT 10.0; Win64; x64) AppleWebKit/537.36 (KHTML, like Gecko) Chrome/86.0.4240.111 Safari/537.36",WebKit,Chrome,86.0.4240.111,Windows,10
45,1,null,jspsych/allFaces/AF07NES.JPG,null,image-keyboard-response,249,15689,0.0-249.0,50,backwardMask,50,"""",10/28/2020 6:13,69.125.145.27,"Mozilla/5.0 (Windows NT 10.0; Win64; x64) AppleWebKit/537.36 (KHTML, like Gecko) Chrome/86.0.4240.111 Safari/537.36",WebKit,Chrome,86.0.4240.111,Windows,10
45,1,null,"<div style=""font-size:60px;"">+</div>",null,html-keyboard-response,250,15748,0.0-250.0,50,fixationBtwnNeutralMaskAndPrompt,50,"""",10/28/2020 6:13,69.125.145.27,"Mozilla/5.0 (Windows NT 10.0; Win64; x64) AppleWebKit/537.36 (KHTML, like Gecko) Chrome/86.0.4240.111 Safari/537.36",WebKit,Chrome,86.0.4240.111,Windows,10
45,1,null,"<div style=""font-size:60px;"">+</div>",null,html-keyboard-response,251,15808,0.0-251.0,51,ITI,50,"""",10/28/2020 6:13,69.125.145.27,"Mozilla/5.0 (Windows NT 10.0; Win64; x64) AppleWebKit/537.36 (KHTML, like Gecko) Chrome/86.0.4240.111 Safari/537.36",WebKit,Chrome,86.0.4240.111,Windows,10
45,1,null,jspsych/allScrambledFaces/scrambledAF13NES.JPG,null,image-keyboard-response,252,15869,0.0-252.0,51,forwardMask,50,n,10/28/2020 6:13,69.125.145.27,"Mozilla/5.0 (Windows NT 10.0; Win64; x64) AppleWebKit/537.36 (KHTML, like Gecko) Chrome/86.0.4240.111 Safari/537.36",WebKit,Chrome,86.0.4240.111,Windows,10
45,1,null,jspsych/allFaces/AF13NES.JPG,null,image-keyboard-response,253,15929,0.0-253.0,51,Cue,"function(){
        return jsPsych.randomization.sampleWithoutReplacement(cueDuration, 1)[0]}","""",10/28/2020 6:13,69.125.145.27,"Mozilla/5.0 (Windows NT 10.0; Win64; x64) AppleWebKit/537.36 (KHTML, like Gecko) Chrome/86.0.4240.111 Safari/537.36",WebKit,Chrome,86.0.4240.111,Windows,10
45,1,null,jspsych/allFaces/AF29NES.JPG,null,image-keyboard-response,254,15989,0.0-254.0,51,backwardMask,50,"""",10/28/2020 6:13,69.125.145.27,"Mozilla/5.0 (Windows NT 10.0; Win64; x64) AppleWebKit/537.36 (KHTML, like Gecko) Chrome/86.0.4240.111 Safari/537.36",WebKit,Chrome,86.0.4240.111,Windows,10
45,1,null,"<div style=""font-size:60px;"">+</div>",null,html-keyboard-response,255,16049,0.0-255.0,51,fixationBtwnNeutralMaskAndPrompt,50,"""",10/28/2020 6:13,69.125.145.27,"Mozilla/5.0 (Windows NT 10.0; Win64; x64) AppleWebKit/537.36 (KHTML, like Gecko) Chrome/86.0.4240.111 Safari/537.36",WebKit,Chrome,86.0.4240.111,Windows,10
45,1,null,"<div style=""font-size:60px;"">+</div>",null,html-keyboard-response,256,16108,0.0-256.0,52,ITI,50,"""",10/28/2020 6:13,69.125.145.27,"Mozilla/5.0 (Windows NT 10.0; Win64; x64) AppleWebKit/537.36 (KHTML, like Gecko) Chrome/86.0.4240.111 Safari/537.36",WebKit,Chrome,86.0.4240.111,Windows,10
45,1,null,jspsych/allScrambledFaces/scrambledBF21NES.JPG,null,image-keyboard-response,257,16168,0.0-257.0,52,forwardMask,50,n,10/28/2020 6:13,69.125.145.27,"Mozilla/5.0 (Windows NT 10.0; Win64; x64) AppleWebKit/537.36 (KHTML, like Gecko) Chrome/86.0.4240.111 Safari/537.36",WebKit,Chrome,86.0.4240.111,Windows,10
45,1,null,jspsych/allFaces/BF21NES.JPG,null,image-keyboard-response,258,16228,0.0-258.0,52,Cue,"function(){
        return jsPsych.randomization.sampleWithoutReplacement(cueDuration, 1)[0]}","""",10/28/2020 6:13,69.125.145.27,"Mozilla/5.0 (Windows NT 10.0; Win64; x64) AppleWebKit/537.36 (KHTML, like Gecko) Chrome/86.0.4240.111 Safari/537.36",WebKit,Chrome,86.0.4240.111,Windows,10
45,1,null,jspsych/allFaces/AF33NES.JPG,null,image-keyboard-response,259,16288,0.0-259.0,52,backwardMask,50,"""",10/28/2020 6:13,69.125.145.27,"Mozilla/5.0 (Windows NT 10.0; Win64; x64) AppleWebKit/537.36 (KHTML, like Gecko) Chrome/86.0.4240.111 Safari/537.36",WebKit,Chrome,86.0.4240.111,Windows,10
45,1,null,"<div style=""font-size:60px;"">+</div>",null,html-keyboard-response,260,16348,0.0-260.0,52,fixationBtwnNeutralMaskAndPrompt,50,"""",10/28/2020 6:13,69.125.145.27,"Mozilla/5.0 (Windows NT 10.0; Win64; x64) AppleWebKit/537.36 (KHTML, like Gecko) Chrome/86.0.4240.111 Safari/537.36",WebKit,Chrome,86.0.4240.111,Windows,10
45,1,null,"<div style=""font-size:60px;"">+</div>",null,html-keyboard-response,261,16402,0.0-261.0,53,ITI,50,"""",10/28/2020 6:13,69.125.145.27,"Mozilla/5.0 (Windows NT 10.0; Win64; x64) AppleWebKit/537.36 (KHTML, like Gecko) Chrome/86.0.4240.111 Safari/537.36",WebKit,Chrome,86.0.4240.111,Windows,10
45,1,null,jspsych/allScrambledFaces/scrambledAF03DIS.JPG,null,image-keyboard-response,262,16456,0.0-262.0,53,forwardMask,50,d,10/28/2020 6:13,69.125.145.27,"Mozilla/5.0 (Windows NT 10.0; Win64; x64) AppleWebKit/537.36 (KHTML, like Gecko) Chrome/86.0.4240.111 Safari/537.36",WebKit,Chrome,86.0.4240.111,Windows,10
45,1,null,jspsych/allFaces/AF03DIS.JPG,null,image-keyboard-response,263,16513,0.0-263.0,53,Cue,"function(){
        return jsPsych.randomization.sampleWithoutReplacement(cueDuration, 1)[0]}","""",10/28/2020 6:13,69.125.145.27,"Mozilla/5.0 (Windows NT 10.0; Win64; x64) AppleWebKit/537.36 (KHTML, like Gecko) Chrome/86.0.4240.111 Safari/537.36",WebKit,Chrome,86.0.4240.111,Windows,10
45,1,null,jspsych/allFaces/AF04NES.JPG,null,image-keyboard-response,264,16568,0.0-264.0,53,backwardMask,50,"""",10/28/2020 6:13,69.125.145.27,"Mozilla/5.0 (Windows NT 10.0; Win64; x64) AppleWebKit/537.36 (KHTML, like Gecko) Chrome/86.0.4240.111 Safari/537.36",WebKit,Chrome,86.0.4240.111,Windows,10
45,1,null,"<div style=""font-size:60px;"">+</div>",null,html-keyboard-response,265,16629,0.0-265.0,53,fixationBtwnNeutralMaskAndPrompt,50,"""",10/28/2020 6:13,69.125.145.27,"Mozilla/5.0 (Windows NT 10.0; Win64; x64) AppleWebKit/537.36 (KHTML, like Gecko) Chrome/86.0.4240.111 Safari/537.36",WebKit,Chrome,86.0.4240.111,Windows,10
45,1,null,"<div style=""font-size:60px;"">+</div>",null,html-keyboard-response,266,16688,0.0-266.0,54,ITI,50,"""",10/28/2020 6:13,69.125.145.27,"Mozilla/5.0 (Windows NT 10.0; Win64; x64) AppleWebKit/537.36 (KHTML, like Gecko) Chrome/86.0.4240.111 Safari/537.36",WebKit,Chrome,86.0.4240.111,Windows,10
45,1,null,jspsych/allScrambledFaces/scrambledBM10DIS.JPG,null,image-keyboard-response,267,16749,0.0-267.0,54,forwardMask,50,d,10/28/2020 6:13,69.125.145.27,"Mozilla/5.0 (Windows NT 10.0; Win64; x64) AppleWebKit/537.36 (KHTML, like Gecko) Chrome/86.0.4240.111 Safari/537.36",WebKit,Chrome,86.0.4240.111,Windows,10
45,1,null,jspsych/allFaces/BM10DIS.JPG,null,image-keyboard-response,268,16805,0.0-268.0,54,Cue,"function(){
        return jsPsych.randomization.sampleWithoutReplacement(cueDuration, 1)[0]}","""",10/28/2020 6:13,69.125.145.27,"Mozilla/5.0 (Windows NT 10.0; Win64; x64) AppleWebKit/537.36 (KHTML, like Gecko) Chrome/86.0.4240.111 Safari/537.36",WebKit,Chrome,86.0.4240.111,Windows,10
45,1,null,jspsych/allFaces/AM08NES.JPG,null,image-keyboard-response,269,16861,0.0-269.0,54,backwardMask,50,"""",10/28/2020 6:13,69.125.145.27,"Mozilla/5.0 (Windows NT 10.0; Win64; x64) AppleWebKit/537.36 (KHTML, like Gecko) Chrome/86.0.4240.111 Safari/537.36",WebKit,Chrome,86.0.4240.111,Windows,10
45,1,null,"<div style=""font-size:60px;"">+</div>",null,html-keyboard-response,270,16918,0.0-270.0,54,fixationBtwnNeutralMaskAndPrompt,50,"""",10/28/2020 6:13,69.125.145.27,"Mozilla/5.0 (Windows NT 10.0; Win64; x64) AppleWebKit/537.36 (KHTML, like Gecko) Chrome/86.0.4240.111 Safari/537.36",WebKit,Chrome,86.0.4240.111,Windows,10
45,1,null,"<div style=""font-size:60px;"">+</div>",null,html-keyboard-response,271,16978,0.0-271.0,55,ITI,50,"""",10/28/2020 6:13,69.125.145.27,"Mozilla/5.0 (Windows NT 10.0; Win64; x64) AppleWebKit/537.36 (KHTML, like Gecko) Chrome/86.0.4240.111 Safari/537.36",WebKit,Chrome,86.0.4240.111,Windows,10
45,1,null,jspsych/allScrambledFaces/scrambledBM13NES.JPG,null,image-keyboard-response,272,17038,0.0-272.0,55,forwardMask,50,n,10/28/2020 6:13,69.125.145.27,"Mozilla/5.0 (Windows NT 10.0; Win64; x64) AppleWebKit/537.36 (KHTML, like Gecko) Chrome/86.0.4240.111 Safari/537.36",WebKit,Chrome,86.0.4240.111,Windows,10
45,1,null,jspsych/allFaces/BM13NES.JPG,null,image-keyboard-response,273,17098,0.0-273.0,55,Cue,"function(){
        return jsPsych.randomization.sampleWithoutReplacement(cueDuration, 1)[0]}","""",10/28/2020 6:13,69.125.145.27,"Mozilla/5.0 (Windows NT 10.0; Win64; x64) AppleWebKit/537.36 (KHTML, like Gecko) Chrome/86.0.4240.111 Safari/537.36",WebKit,Chrome,86.0.4240.111,Windows,10
45,1,null,jspsych/allFaces/AM22NES.JPG,null,image-keyboard-response,274,17159,0.0-274.0,55,backwardMask,50,"""",10/28/2020 6:13,69.125.145.27,"Mozilla/5.0 (Windows NT 10.0; Win64; x64) AppleWebKit/537.36 (KHTML, like Gecko) Chrome/86.0.4240.111 Safari/537.36",WebKit,Chrome,86.0.4240.111,Windows,10
45,1,null,"<div style=""font-size:60px;"">+</div>",null,html-keyboard-response,275,17219,0.0-275.0,55,fixationBtwnNeutralMaskAndPrompt,50,"""",10/28/2020 6:13,69.125.145.27,"Mozilla/5.0 (Windows NT 10.0; Win64; x64) AppleWebKit/537.36 (KHTML, like Gecko) Chrome/86.0.4240.111 Safari/537.36",WebKit,Chrome,86.0.4240.111,Windows,10
45,1,null,"<div style=""font-size:60px;"">+</div>",null,html-keyboard-response,276,17279,0.0-276.0,56,ITI,50,"""",10/28/2020 6:13,69.125.145.27,"Mozilla/5.0 (Windows NT 10.0; Win64; x64) AppleWebKit/537.36 (KHTML, like Gecko) Chrome/86.0.4240.111 Safari/537.36",WebKit,Chrome,86.0.4240.111,Windows,10
45,1,null,jspsych/allScrambledFaces/scrambledBF28NES.JPG,null,image-keyboard-response,277,17338,0.0-277.0,56,forwardMask,50,n,10/28/2020 6:13,69.125.145.27,"Mozilla/5.0 (Windows NT 10.0; Win64; x64) AppleWebKit/537.36 (KHTML, like Gecko) Chrome/86.0.4240.111 Safari/537.36",WebKit,Chrome,86.0.4240.111,Windows,10
45,1,null,jspsych/allFaces/BF28NES.JPG,null,image-keyboard-response,278,17398,0.0-278.0,56,Cue,"function(){
        return jsPsych.randomization.sampleWithoutReplacement(cueDuration, 1)[0]}","""",10/28/2020 6:13,69.125.145.27,"Mozilla/5.0 (Windows NT 10.0; Win64; x64) AppleWebKit/537.36 (KHTML, like Gecko) Chrome/86.0.4240.111 Safari/537.36",WebKit,Chrome,86.0.4240.111,Windows,10
45,1,null,jspsych/allFaces/BF11NES.JPG,null,image-keyboard-response,279,17458,0.0-279.0,56,backwardMask,50,"""",10/28/2020 6:13,69.125.145.27,"Mozilla/5.0 (Windows NT 10.0; Win64; x64) AppleWebKit/537.36 (KHTML, like Gecko) Chrome/86.0.4240.111 Safari/537.36",WebKit,Chrome,86.0.4240.111,Windows,10
45,1,null,"<div style=""font-size:60px;"">+</div>",null,html-keyboard-response,280,17519,0.0-280.0,56,fixationBtwnNeutralMaskAndPrompt,50,"""",10/28/2020 6:13,69.125.145.27,"Mozilla/5.0 (Windows NT 10.0; Win64; x64) AppleWebKit/537.36 (KHTML, like Gecko) Chrome/86.0.4240.111 Safari/537.36",WebKit,Chrome,86.0.4240.111,Windows,10
45,1,null,"<div style=""font-size:60px;"">+</div>",null,html-keyboard-response,281,17579,0.0-281.0,57,ITI,50,"""",10/28/2020 6:13,69.125.145.27,"Mozilla/5.0 (Windows NT 10.0; Win64; x64) AppleWebKit/537.36 (KHTML, like Gecko) Chrome/86.0.4240.111 Safari/537.36",WebKit,Chrome,86.0.4240.111,Windows,10
45,1,null,jspsych/allScrambledFaces/scrambledAM27NES.JPG,null,image-keyboard-response,282,17638,0.0-282.0,57,forwardMask,50,n,10/28/2020 6:13,69.125.145.27,"Mozilla/5.0 (Windows NT 10.0; Win64; x64) AppleWebKit/537.36 (KHTML, like Gecko) Chrome/86.0.4240.111 Safari/537.36",WebKit,Chrome,86.0.4240.111,Windows,10
45,1,null,jspsych/allFaces/AM27NES.JPG,null,image-keyboard-response,283,17698,0.0-283.0,57,Cue,"function(){
        return jsPsych.randomization.sampleWithoutReplacement(cueDuration, 1)[0]}","""",10/28/2020 6:13,69.125.145.27,"Mozilla/5.0 (Windows NT 10.0; Win64; x64) AppleWebKit/537.36 (KHTML, like Gecko) Chrome/86.0.4240.111 Safari/537.36",WebKit,Chrome,86.0.4240.111,Windows,10
45,1,null,jspsych/allFaces/BM35NES.JPG,null,image-keyboard-response,284,17758,0.0-284.0,57,backwardMask,50,"""",10/28/2020 6:13,69.125.145.27,"Mozilla/5.0 (Windows NT 10.0; Win64; x64) AppleWebKit/537.36 (KHTML, like Gecko) Chrome/86.0.4240.111 Safari/537.36",WebKit,Chrome,86.0.4240.111,Windows,10
45,1,null,"<div style=""font-size:60px;"">+</div>",null,html-keyboard-response,285,17818,0.0-285.0,57,fixationBtwnNeutralMaskAndPrompt,50,"""",10/28/2020 6:13,69.125.145.27,"Mozilla/5.0 (Windows NT 10.0; Win64; x64) AppleWebKit/537.36 (KHTML, like Gecko) Chrome/86.0.4240.111 Safari/537.36",WebKit,Chrome,86.0.4240.111,Windows,10
45,1,null,"<div style=""font-size:60px;"">+</div>",null,html-keyboard-response,286,17878,0.0-286.0,58,ITI,50,"""",10/28/2020 6:13,69.125.145.27,"Mozilla/5.0 (Windows NT 10.0; Win64; x64) AppleWebKit/537.36 (KHTML, like Gecko) Chrome/86.0.4240.111 Safari/537.36",WebKit,Chrome,86.0.4240.111,Windows,10
45,1,null,jspsych/allScrambledFaces/scrambledAM26NES.JPG,null,image-keyboard-response,287,17938,0.0-287.0,58,forwardMask,50,n,10/28/2020 6:13,69.125.145.27,"Mozilla/5.0 (Windows NT 10.0; Win64; x64) AppleWebKit/537.36 (KHTML, like Gecko) Chrome/86.0.4240.111 Safari/537.36",WebKit,Chrome,86.0.4240.111,Windows,10
45,1,null,jspsych/allFaces/AM26NES.JPG,null,image-keyboard-response,288,17998,0.0-288.0,58,Cue,"function(){
        return jsPsych.randomization.sampleWithoutReplacement(cueDuration, 1)[0]}","""",10/28/2020 6:13,69.125.145.27,"Mozilla/5.0 (Windows NT 10.0; Win64; x64) AppleWebKit/537.36 (KHTML, like Gecko) Chrome/86.0.4240.111 Safari/537.36",WebKit,Chrome,86.0.4240.111,Windows,10
45,1,null,jspsych/allFaces/BM12NES.JPG,null,image-keyboard-response,289,18059,0.0-289.0,58,backwardMask,50,"""",10/28/2020 6:13,69.125.145.27,"Mozilla/5.0 (Windows NT 10.0; Win64; x64) AppleWebKit/537.36 (KHTML, like Gecko) Chrome/86.0.4240.111 Safari/537.36",WebKit,Chrome,86.0.4240.111,Windows,10
45,1,null,"<div style=""font-size:60px;"">+</div>",null,html-keyboard-response,290,18118,0.0-290.0,58,fixationBtwnNeutralMaskAndPrompt,50,"""",10/28/2020 6:13,69.125.145.27,"Mozilla/5.0 (Windows NT 10.0; Win64; x64) AppleWebKit/537.36 (KHTML, like Gecko) Chrome/86.0.4240.111 Safari/537.36",WebKit,Chrome,86.0.4240.111,Windows,10
45,1,null,"<div style=""font-size:60px;"">+</div>",null,html-keyboard-response,291,18179,0.0-291.0,59,ITI,50,"""",10/28/2020 6:13,69.125.145.27,"Mozilla/5.0 (Windows NT 10.0; Win64; x64) AppleWebKit/537.36 (KHTML, like Gecko) Chrome/86.0.4240.111 Safari/537.36",WebKit,Chrome,86.0.4240.111,Windows,10
45,1,null,jspsych/allScrambledFaces/scrambledBM30DIS.JPG,null,image-keyboard-response,292,18238,0.0-292.0,59,forwardMask,50,d,10/28/2020 6:13,69.125.145.27,"Mozilla/5.0 (Windows NT 10.0; Win64; x64) AppleWebKit/537.36 (KHTML, like Gecko) Chrome/86.0.4240.111 Safari/537.36",WebKit,Chrome,86.0.4240.111,Windows,10
45,1,null,jspsych/allFaces/BM30DIS.JPG,null,image-keyboard-response,293,18298,0.0-293.0,59,Cue,"function(){
        return jsPsych.randomization.sampleWithoutReplacement(cueDuration, 1)[0]}","""",10/28/2020 6:13,69.125.145.27,"Mozilla/5.0 (Windows NT 10.0; Win64; x64) AppleWebKit/537.36 (KHTML, like Gecko) Chrome/86.0.4240.111 Safari/537.36",WebKit,Chrome,86.0.4240.111,Windows,10
45,1,null,jspsych/allFaces/AF27NES.JPG,null,image-keyboard-response,294,18358,0.0-294.0,59,backwardMask,50,"""",10/28/2020 6:13,69.125.145.27,"Mozilla/5.0 (Windows NT 10.0; Win64; x64) AppleWebKit/537.36 (KHTML, like Gecko) Chrome/86.0.4240.111 Safari/537.36",WebKit,Chrome,86.0.4240.111,Windows,10
45,1,null,"<div style=""font-size:60px;"">+</div>",null,html-keyboard-response,295,18418,0.0-295.0,59,fixationBtwnNeutralMaskAndPrompt,50,"""",10/28/2020 6:13,69.125.145.27,"Mozilla/5.0 (Windows NT 10.0; Win64; x64) AppleWebKit/537.36 (KHTML, like Gecko) Chrome/86.0.4240.111 Safari/537.36",WebKit,Chrome,86.0.4240.111,Windows,10
45,1,null,"<div style=""font-size:60px;"">+</div>",null,html-keyboard-response,296,18478,0.0-296.0,60,ITI,50,"""",10/28/2020 6:13,69.125.145.27,"Mozilla/5.0 (Windows NT 10.0; Win64; x64) AppleWebKit/537.36 (KHTML, like Gecko) Chrome/86.0.4240.111 Safari/537.36",WebKit,Chrome,86.0.4240.111,Windows,10
45,1,null,jspsych/allScrambledFaces/scrambledAF33DIS.JPG,null,image-keyboard-response,297,18538,0.0-297.0,60,forwardMask,50,d,10/28/2020 6:13,69.125.145.27,"Mozilla/5.0 (Windows NT 10.0; Win64; x64) AppleWebKit/537.36 (KHTML, like Gecko) Chrome/86.0.4240.111 Safari/537.36",WebKit,Chrome,86.0.4240.111,Windows,10
45,1,null,jspsych/allFaces/AF33DIS.JPG,null,image-keyboard-response,298,18598,0.0-298.0,60,Cue,"function(){
        return jsPsych.randomization.sampleWithoutReplacement(cueDuration, 1)[0]}","""",10/28/2020 6:13,69.125.145.27,"Mozilla/5.0 (Windows NT 10.0; Win64; x64) AppleWebKit/537.36 (KHTML, like Gecko) Chrome/86.0.4240.111 Safari/537.36",WebKit,Chrome,86.0.4240.111,Windows,10
45,1,null,jspsych/allFaces/AM32NES.JPG,null,image-keyboard-response,299,18658,0.0-299.0,60,backwardMask,50,"""",10/28/2020 6:13,69.125.145.27,"Mozilla/5.0 (Windows NT 10.0; Win64; x64) AppleWebKit/537.36 (KHTML, like Gecko) Chrome/86.0.4240.111 Safari/537.36",WebKit,Chrome,86.0.4240.111,Windows,10
45,1,null,"<div style=""font-size:60px;"">+</div>",null,html-keyboard-response,300,18718,0.0-300.0,60,fixationBtwnNeutralMaskAndPrompt,50,"""",10/28/2020 6:13,69.125.145.27,"Mozilla/5.0 (Windows NT 10.0; Win64; x64) AppleWebKit/537.36 (KHTML, like Gecko) Chrome/86.0.4240.111 Safari/537.36",WebKit,Chrome,86.0.4240.111,Windows,10
45,1,null,"<div style=""font-size:60px;"">+</div>",null,html-keyboard-response,301,18778,0.0-301.0,61,ITI,50,"""",10/28/2020 6:13,69.125.145.27,"Mozilla/5.0 (Windows NT 10.0; Win64; x64) AppleWebKit/537.36 (KHTML, like Gecko) Chrome/86.0.4240.111 Safari/537.36",WebKit,Chrome,86.0.4240.111,Windows,10
45,1,null,jspsych/allScrambledFaces/scrambledBF12NES.JPG,null,image-keyboard-response,302,18841,0.0-302.0,61,forwardMask,50,n,10/28/2020 6:13,69.125.145.27,"Mozilla/5.0 (Windows NT 10.0; Win64; x64) AppleWebKit/537.36 (KHTML, like Gecko) Chrome/86.0.4240.111 Safari/537.36",WebKit,Chrome,86.0.4240.111,Windows,10
45,1,null,jspsych/allFaces/BF12NES.JPG,null,image-keyboard-response,303,18899,0.0-303.0,61,Cue,"function(){
        return jsPsych.randomization.sampleWithoutReplacement(cueDuration, 1)[0]}","""",10/28/2020 6:13,69.125.145.27,"Mozilla/5.0 (Windows NT 10.0; Win64; x64) AppleWebKit/537.36 (KHTML, like Gecko) Chrome/86.0.4240.111 Safari/537.36",WebKit,Chrome,86.0.4240.111,Windows,10
45,1,null,jspsych/allFaces/BM03NES.JPG,null,image-keyboard-response,304,18958,0.0-304.0,61,backwardMask,50,"""",10/28/2020 6:13,69.125.145.27,"Mozilla/5.0 (Windows NT 10.0; Win64; x64) AppleWebKit/537.36 (KHTML, like Gecko) Chrome/86.0.4240.111 Safari/537.36",WebKit,Chrome,86.0.4240.111,Windows,10
45,1,null,"<div style=""font-size:60px;"">+</div>",null,html-keyboard-response,305,19018,0.0-305.0,61,fixationBtwnNeutralMaskAndPrompt,50,"""",10/28/2020 6:13,69.125.145.27,"Mozilla/5.0 (Windows NT 10.0; Win64; x64) AppleWebKit/537.36 (KHTML, like Gecko) Chrome/86.0.4240.111 Safari/537.36",WebKit,Chrome,86.0.4240.111,Windows,10
45,1,null,"<div style=""font-size:60px;"">+</div>",null,html-keyboard-response,306,19078,0.0-306.0,62,ITI,50,"""",10/28/2020 6:13,69.125.145.27,"Mozilla/5.0 (Windows NT 10.0; Win64; x64) AppleWebKit/537.36 (KHTML, like Gecko) Chrome/86.0.4240.111 Safari/537.36",WebKit,Chrome,86.0.4240.111,Windows,10
45,1,null,jspsych/allScrambledFaces/scrambledAF19DIS.JPG,null,image-keyboard-response,307,19138,0.0-307.0,62,forwardMask,50,d,10/28/2020 6:13,69.125.145.27,"Mozilla/5.0 (Windows NT 10.0; Win64; x64) AppleWebKit/537.36 (KHTML, like Gecko) Chrome/86.0.4240.111 Safari/537.36",WebKit,Chrome,86.0.4240.111,Windows,10
