run_id,condition,rt,responses,trial_type,trial_index,time_elapsed,internal_node_id,stimulus,button_pressed,key_press,StimulusDurationSetting,iTrial,Phase,correctResponse,CharacterResponse,recorded_at,ip,user_agent,device,browser,browser_version,platform,platform_version
34,1,1820.355,"{""Q0"":""h""}",survey-text,0,1831,0.0-0.0,"""","""","""","""","""","""","""","""",11/9/2020 6:31,69.125.145.27,"Mozilla/5.0 (Windows NT 10.0; Win64; x64) AppleWebKit/537.36 (KHTML, like Gecko) Chrome/86.0.4240.183 Safari/537.36",WebKit,Chrome,86.0.4240.183,Windows,10
34,1,39034.405,"""",video-button-response,1,40892,0.0-1.0,"""",0,"""","""","""","""","""","""",11/9/2020 6:31,69.125.145.27,"Mozilla/5.0 (Windows NT 10.0; Win64; x64) AppleWebKit/537.36 (KHTML, like Gecko) Chrome/86.0.4240.183 Safari/537.36",WebKit,Chrome,86.0.4240.183,Windows,10
34,1,null,"""",html-keyboard-response,2,41903,0.0-2.0,"<div style=""font-size:60px;"">+</div>","""",null,1000,1,ITI,"""","""",11/9/2020 6:31,69.125.145.27,"Mozilla/5.0 (Windows NT 10.0; Win64; x64) AppleWebKit/537.36 (KHTML, like Gecko) Chrome/86.0.4240.183 Safari/537.36",WebKit,Chrome,86.0.4240.183,Windows,10
34,1,null,"""",image-keyboard-response,3,42165,0.0-3.0,jspsych/scrambledNeutralFaces/scrambledBM09NES.JPG,"""",null,250,1,forwardMask,n,"""",11/9/2020 6:31,69.125.145.27,"Mozilla/5.0 (Windows NT 10.0; Win64; x64) AppleWebKit/537.36 (KHTML, like Gecko) Chrome/86.0.4240.183 Safari/537.36",WebKit,Chrome,86.0.4240.183,Windows,10
34,1,null,"""",image-keyboard-response,4,42302,0.0-4.0,jspsych/neutralFaces/BM09NES.JPG,"""",null,129,1,Cue,"""","""",11/9/2020 6:31,69.125.145.27,"Mozilla/5.0 (Windows NT 10.0; Win64; x64) AppleWebKit/537.36 (KHTML, like Gecko) Chrome/86.0.4240.183 Safari/537.36",WebKit,Chrome,86.0.4240.183,Windows,10
34,1,null,"""",image-keyboard-response,5,42412,0.0-5.0,jspsych/neutralFaces/BM07NES.JPG,"""",null,100,1,backwardMask,"""","""",11/9/2020 6:31,69.125.145.27,"Mozilla/5.0 (Windows NT 10.0; Win64; x64) AppleWebKit/537.36 (KHTML, like Gecko) Chrome/86.0.4240.183 Safari/537.36",WebKit,Chrome,86.0.4240.183,Windows,10
34,1,null,"""",html-keyboard-response,6,42615,0.0-6.0,"<div style=""font-size:60px;"">+</div>","""",null,200,1,fixationBtwnNeutralMaskAndPrompt,"""","""",11/9/2020 6:31,69.125.145.27,"Mozilla/5.0 (Windows NT 10.0; Win64; x64) AppleWebKit/537.36 (KHTML, like Gecko) Chrome/86.0.4240.183 Safari/537.36",WebKit,Chrome,86.0.4240.183,Windows,10
34,1,1298.085,"""",html-keyboard-response,7,43915,0.0-7.0,"<p> What was the emotion of the hidden face? <br> Press, <b>d</b> for <i>disgust face</i> or <b>n</b> for <i>neutral face</i></p>","""",78,"""",1,Query,"""",n,11/9/2020 6:31,69.125.145.27,"Mozilla/5.0 (Windows NT 10.0; Win64; x64) AppleWebKit/537.36 (KHTML, like Gecko) Chrome/86.0.4240.183 Safari/537.36",WebKit,Chrome,86.0.4240.183,Windows,10
34,1,null,"""",html-keyboard-response,8,44925,0.0-8.0,"<div style=""font-size:60px;"">+</div>","""",null,1000,2,ITI,"""","""",11/9/2020 6:31,69.125.145.27,"Mozilla/5.0 (Windows NT 10.0; Win64; x64) AppleWebKit/537.36 (KHTML, like Gecko) Chrome/86.0.4240.183 Safari/537.36",WebKit,Chrome,86.0.4240.183,Windows,10
34,1,null,"""",image-keyboard-response,9,45183,0.0-9.0,jspsych/scrambledDisgustFaces/scrambledAF15DIS.JPG,"""",null,250,2,forwardMask,d,"""",11/9/2020 6:31,69.125.145.27,"Mozilla/5.0 (Windows NT 10.0; Win64; x64) AppleWebKit/537.36 (KHTML, like Gecko) Chrome/86.0.4240.183 Safari/537.36",WebKit,Chrome,86.0.4240.183,Windows,10
34,1,null,"""",image-keyboard-response,10,45314,0.0-10.0,jspsych/disgustFaces/AF15DIS.JPG,"""",null,129,2,Cue,"""","""",11/9/2020 6:31,69.125.145.27,"Mozilla/5.0 (Windows NT 10.0; Win64; x64) AppleWebKit/537.36 (KHTML, like Gecko) Chrome/86.0.4240.183 Safari/537.36",WebKit,Chrome,86.0.4240.183,Windows,10
34,1,null,"""",image-keyboard-response,11,45424,0.0-11.0,jspsych/neutralFaces/AM04NES.JPG,"""",null,100,2,backwardMask,"""","""",11/9/2020 6:31,69.125.145.27,"Mozilla/5.0 (Windows NT 10.0; Win64; x64) AppleWebKit/537.36 (KHTML, like Gecko) Chrome/86.0.4240.183 Safari/537.36",WebKit,Chrome,86.0.4240.183,Windows,10
34,1,null,"""",html-keyboard-response,12,45629,0.0-12.0,"<div style=""font-size:60px;"">+</div>","""",null,200,2,fixationBtwnNeutralMaskAndPrompt,"""","""",11/9/2020 6:31,69.125.145.27,"Mozilla/5.0 (Windows NT 10.0; Win64; x64) AppleWebKit/537.36 (KHTML, like Gecko) Chrome/86.0.4240.183 Safari/537.36",WebKit,Chrome,86.0.4240.183,Windows,10
34,1,617.935,"""",html-keyboard-response,13,46248,0.0-13.0,"<p> What was the emotion of the hidden face? <br> Press, <b>d</b> for <i>disgust face</i> or <b>n</b> for <i>neutral face</i></p>","""",68,"""",2,Query,"""",d,11/9/2020 6:31,69.125.145.27,"Mozilla/5.0 (Windows NT 10.0; Win64; x64) AppleWebKit/537.36 (KHTML, like Gecko) Chrome/86.0.4240.183 Safari/537.36",WebKit,Chrome,86.0.4240.183,Windows,10
34,1,null,"""",html-keyboard-response,14,47255,0.0-14.0,"<div style=""font-size:60px;"">+</div>","""",null,1000,3,ITI,"""","""",11/9/2020 6:31,69.125.145.27,"Mozilla/5.0 (Windows NT 10.0; Win64; x64) AppleWebKit/537.36 (KHTML, like Gecko) Chrome/86.0.4240.183 Safari/537.36",WebKit,Chrome,86.0.4240.183,Windows,10
34,1,null,"""",image-keyboard-response,15,47514,0.0-15.0,jspsych/scrambledDisgustFaces/scrambledAM05DIS.JPG,"""",null,250,3,forwardMask,d,"""",11/9/2020 6:31,69.125.145.27,"Mozilla/5.0 (Windows NT 10.0; Win64; x64) AppleWebKit/537.36 (KHTML, like Gecko) Chrome/86.0.4240.183 Safari/537.36",WebKit,Chrome,86.0.4240.183,Windows,10
34,1,null,"""",image-keyboard-response,16,47585,0.0-16.0,jspsych/disgustFaces/AM05DIS.JPG,"""",null,67,3,Cue,"""","""",11/9/2020 6:31,69.125.145.27,"Mozilla/5.0 (Windows NT 10.0; Win64; x64) AppleWebKit/537.36 (KHTML, like Gecko) Chrome/86.0.4240.183 Safari/537.36",WebKit,Chrome,86.0.4240.183,Windows,10
34,1,null,"""",image-keyboard-response,17,47695,0.0-17.0,jspsych/neutralFaces/BF20NES.JPG,"""",null,100,3,backwardMask,"""","""",11/9/2020 6:31,69.125.145.27,"Mozilla/5.0 (Windows NT 10.0; Win64; x64) AppleWebKit/537.36 (KHTML, like Gecko) Chrome/86.0.4240.183 Safari/537.36",WebKit,Chrome,86.0.4240.183,Windows,10
34,1,null,"""",html-keyboard-response,18,47904,0.0-18.0,"<div style=""font-size:60px;"">+</div>","""",null,200,3,fixationBtwnNeutralMaskAndPrompt,"""","""",11/9/2020 6:31,69.125.145.27,"Mozilla/5.0 (Windows NT 10.0; Win64; x64) AppleWebKit/537.36 (KHTML, like Gecko) Chrome/86.0.4240.183 Safari/537.36",WebKit,Chrome,86.0.4240.183,Windows,10
34,1,664.5,"""",html-keyboard-response,19,48570,0.0-19.0,"<p> What was the emotion of the hidden face? <br> Press, <b>d</b> for <i>disgust face</i> or <b>n</b> for <i>neutral face</i></p>","""",78,"""",3,Query,"""",n,11/9/2020 6:31,69.125.145.27,"Mozilla/5.0 (Windows NT 10.0; Win64; x64) AppleWebKit/537.36 (KHTML, like Gecko) Chrome/86.0.4240.183 Safari/537.36",WebKit,Chrome,86.0.4240.183,Windows,10
34,1,null,"""",html-keyboard-response,20,49575,0.0-20.0,"<div style=""font-size:60px;"">+</div>","""",null,1000,4,ITI,"""","""",11/9/2020 6:31,69.125.145.27,"Mozilla/5.0 (Windows NT 10.0; Win64; x64) AppleWebKit/537.36 (KHTML, like Gecko) Chrome/86.0.4240.183 Safari/537.36",WebKit,Chrome,86.0.4240.183,Windows,10
34,1,null,"""",image-keyboard-response,21,49834,0.0-21.0,jspsych/scrambledNeutralFaces/scrambledBF33NES.JPG,"""",null,250,4,forwardMask,n,"""",11/9/2020 6:31,69.125.145.27,"Mozilla/5.0 (Windows NT 10.0; Win64; x64) AppleWebKit/537.36 (KHTML, like Gecko) Chrome/86.0.4240.183 Safari/537.36",WebKit,Chrome,86.0.4240.183,Windows,10
34,1,null,"""",image-keyboard-response,22,49904,0.0-22.0,jspsych/neutralFaces/BF33NES.JPG,"""",null,67,4,Cue,"""","""",11/9/2020 6:31,69.125.145.27,"Mozilla/5.0 (Windows NT 10.0; Win64; x64) AppleWebKit/537.36 (KHTML, like Gecko) Chrome/86.0.4240.183 Safari/537.36",WebKit,Chrome,86.0.4240.183,Windows,10
34,1,null,"""",image-keyboard-response,23,50012,0.0-23.0,jspsych/neutralFaces/AF31NES.JPG,"""",null,100,4,backwardMask,"""","""",11/9/2020 6:31,69.125.145.27,"Mozilla/5.0 (Windows NT 10.0; Win64; x64) AppleWebKit/537.36 (KHTML, like Gecko) Chrome/86.0.4240.183 Safari/537.36",WebKit,Chrome,86.0.4240.183,Windows,10
34,1,null,"""",html-keyboard-response,24,50214,0.0-24.0,"<div style=""font-size:60px;"">+</div>","""",null,200,4,fixationBtwnNeutralMaskAndPrompt,"""","""",11/9/2020 6:31,69.125.145.27,"Mozilla/5.0 (Windows NT 10.0; Win64; x64) AppleWebKit/537.36 (KHTML, like Gecko) Chrome/86.0.4240.183 Safari/537.36",WebKit,Chrome,86.0.4240.183,Windows,10
34,1,552,"""",html-keyboard-response,25,50767,0.0-25.0,"<p> What was the emotion of the hidden face? <br> Press, <b>d</b> for <i>disgust face</i> or <b>n</b> for <i>neutral face</i></p>","""",78,"""",4,Query,"""",n,11/9/2020 6:31,69.125.145.27,"Mozilla/5.0 (Windows NT 10.0; Win64; x64) AppleWebKit/537.36 (KHTML, like Gecko) Chrome/86.0.4240.183 Safari/537.36",WebKit,Chrome,86.0.4240.183,Windows,10
34,1,null,"""",html-keyboard-response,26,51774,0.0-26.0,"<div style=""font-size:60px;"">+</div>","""",null,1000,5,ITI,"""","""",11/9/2020 6:31,69.125.145.27,"Mozilla/5.0 (Windows NT 10.0; Win64; x64) AppleWebKit/537.36 (KHTML, like Gecko) Chrome/86.0.4240.183 Safari/537.36",WebKit,Chrome,86.0.4240.183,Windows,10
34,1,null,"""",image-keyboard-response,27,52031,0.0-27.0,jspsych/scrambledNeutralFaces/scrambledBF23NES.JPG,"""",null,250,5,forwardMask,n,"""",11/9/2020 6:31,69.125.145.27,"Mozilla/5.0 (Windows NT 10.0; Win64; x64) AppleWebKit/537.36 (KHTML, like Gecko) Chrome/86.0.4240.183 Safari/537.36",WebKit,Chrome,86.0.4240.183,Windows,10
34,1,null,"""",image-keyboard-response,28,52165,0.0-28.0,jspsych/neutralFaces/BF23NES.JPG,"""",null,129,5,Cue,"""","""",11/9/2020 6:31,69.125.145.27,"Mozilla/5.0 (Windows NT 10.0; Win64; x64) AppleWebKit/537.36 (KHTML, like Gecko) Chrome/86.0.4240.183 Safari/537.36",WebKit,Chrome,86.0.4240.183,Windows,10
34,1,null,"""",image-keyboard-response,29,52274,0.0-29.0,jspsych/neutralFaces/AF13NES.JPG,"""",null,100,5,backwardMask,"""","""",11/9/2020 6:31,69.125.145.27,"Mozilla/5.0 (Windows NT 10.0; Win64; x64) AppleWebKit/537.36 (KHTML, like Gecko) Chrome/86.0.4240.183 Safari/537.36",WebKit,Chrome,86.0.4240.183,Windows,10
34,1,null,"""",html-keyboard-response,30,52479,0.0-30.0,"<div style=""font-size:60px;"">+</div>","""",null,200,5,fixationBtwnNeutralMaskAndPrompt,"""","""",11/9/2020 6:31,69.125.145.27,"Mozilla/5.0 (Windows NT 10.0; Win64; x64) AppleWebKit/537.36 (KHTML, like Gecko) Chrome/86.0.4240.183 Safari/537.36",WebKit,Chrome,86.0.4240.183,Windows,10
34,1,496.055,"""",html-keyboard-response,31,52977,0.0-31.0,"<p> What was the emotion of the hidden face? <br> Press, <b>d</b> for <i>disgust face</i> or <b>n</b> for <i>neutral face</i></p>","""",78,"""",5,Query,"""",n,11/9/2020 6:31,69.125.145.27,"Mozilla/5.0 (Windows NT 10.0; Win64; x64) AppleWebKit/537.36 (KHTML, like Gecko) Chrome/86.0.4240.183 Safari/537.36",WebKit,Chrome,86.0.4240.183,Windows,10
34,1,null,"""",html-keyboard-response,32,53985,0.0-32.0,"<div style=""font-size:60px;"">+</div>","""",null,1000,6,ITI,"""","""",11/9/2020 6:31,69.125.145.27,"Mozilla/5.0 (Windows NT 10.0; Win64; x64) AppleWebKit/537.36 (KHTML, like Gecko) Chrome/86.0.4240.183 Safari/537.36",WebKit,Chrome,86.0.4240.183,Windows,10
34,1,null,"""",image-keyboard-response,33,54244,0.0-33.0,jspsych/scrambledDisgustFaces/scrambledBM31DIS.JPG,"""",null,250,6,forwardMask,d,"""",11/9/2020 6:31,69.125.145.27,"Mozilla/5.0 (Windows NT 10.0; Win64; x64) AppleWebKit/537.36 (KHTML, like Gecko) Chrome/86.0.4240.183 Safari/537.36",WebKit,Chrome,86.0.4240.183,Windows,10
34,1,null,"""",image-keyboard-response,34,54384,0.0-34.0,jspsych/disgustFaces/BM31DIS.JPG,"""",null,129,6,Cue,"""","""",11/9/2020 6:31,69.125.145.27,"Mozilla/5.0 (Windows NT 10.0; Win64; x64) AppleWebKit/537.36 (KHTML, like Gecko) Chrome/86.0.4240.183 Safari/537.36",WebKit,Chrome,86.0.4240.183,Windows,10
34,1,null,"""",image-keyboard-response,35,54494,0.0-35.0,jspsych/neutralFaces/AF25NES.JPG,"""",null,100,6,backwardMask,"""","""",11/9/2020 6:31,69.125.145.27,"Mozilla/5.0 (Windows NT 10.0; Win64; x64) AppleWebKit/537.36 (KHTML, like Gecko) Chrome/86.0.4240.183 Safari/537.36",WebKit,Chrome,86.0.4240.183,Windows,10
34,1,null,"""",html-keyboard-response,36,54704,0.0-36.0,"<div style=""font-size:60px;"">+</div>","""",null,200,6,fixationBtwnNeutralMaskAndPrompt,"""","""",11/9/2020 6:31,69.125.145.27,"Mozilla/5.0 (Windows NT 10.0; Win64; x64) AppleWebKit/537.36 (KHTML, like Gecko) Chrome/86.0.4240.183 Safari/537.36",WebKit,Chrome,86.0.4240.183,Windows,10
34,1,616.455,"""",html-keyboard-response,37,55322,0.0-37.0,"<p> What was the emotion of the hidden face? <br> Press, <b>d</b> for <i>disgust face</i> or <b>n</b> for <i>neutral face</i></p>","""",68,"""",6,Query,"""",d,11/9/2020 6:31,69.125.145.27,"Mozilla/5.0 (Windows NT 10.0; Win64; x64) AppleWebKit/537.36 (KHTML, like Gecko) Chrome/86.0.4240.183 Safari/537.36",WebKit,Chrome,86.0.4240.183,Windows,10
34,1,null,"""",html-keyboard-response,38,56324,0.0-38.0,"<div style=""font-size:60px;"">+</div>","""",null,1000,7,ITI,"""","""",11/9/2020 6:31,69.125.145.27,"Mozilla/5.0 (Windows NT 10.0; Win64; x64) AppleWebKit/537.36 (KHTML, like Gecko) Chrome/86.0.4240.183 Safari/537.36",WebKit,Chrome,86.0.4240.183,Windows,10
34,1,null,"""",image-keyboard-response,39,56585,0.0-39.0,jspsych/scrambledDisgustFaces/scrambledBF15DIS.JPG,"""",null,250,7,forwardMask,d,"""",11/9/2020 6:31,69.125.145.27,"Mozilla/5.0 (Windows NT 10.0; Win64; x64) AppleWebKit/537.36 (KHTML, like Gecko) Chrome/86.0.4240.183 Safari/537.36",WebKit,Chrome,86.0.4240.183,Windows,10
34,1,null,"""",image-keyboard-response,40,56655,0.0-40.0,jspsych/disgustFaces/BF15DIS.JPG,"""",null,67,7,Cue,"""","""",11/9/2020 6:31,69.125.145.27,"Mozilla/5.0 (Windows NT 10.0; Win64; x64) AppleWebKit/537.36 (KHTML, like Gecko) Chrome/86.0.4240.183 Safari/537.36",WebKit,Chrome,86.0.4240.183,Windows,10
34,1,null,"""",image-keyboard-response,41,56765,0.0-41.0,jspsych/neutralFaces/AF27NES.JPG,"""",null,100,7,backwardMask,"""","""",11/9/2020 6:31,69.125.145.27,"Mozilla/5.0 (Windows NT 10.0; Win64; x64) AppleWebKit/537.36 (KHTML, like Gecko) Chrome/86.0.4240.183 Safari/537.36",WebKit,Chrome,86.0.4240.183,Windows,10
34,1,null,"""",html-keyboard-response,42,56972,0.0-42.0,"<div style=""font-size:60px;"">+</div>","""",null,200,7,fixationBtwnNeutralMaskAndPrompt,"""","""",11/9/2020 6:31,69.125.145.27,"Mozilla/5.0 (Windows NT 10.0; Win64; x64) AppleWebKit/537.36 (KHTML, like Gecko) Chrome/86.0.4240.183 Safari/537.36",WebKit,Chrome,86.0.4240.183,Windows,10
34,1,893.715,"""",html-keyboard-response,43,57867,0.0-43.0,"<p> What was the emotion of the hidden face? <br> Press, <b>d</b> for <i>disgust face</i> or <b>n</b> for <i>neutral face</i></p>","""",78,"""",7,Query,"""",n,11/9/2020 6:31,69.125.145.27,"Mozilla/5.0 (Windows NT 10.0; Win64; x64) AppleWebKit/537.36 (KHTML, like Gecko) Chrome/86.0.4240.183 Safari/537.36",WebKit,Chrome,86.0.4240.183,Windows,10
34,1,null,"""",html-keyboard-response,44,58875,0.0-44.0,"<div style=""font-size:60px;"">+</div>","""",null,1000,8,ITI,"""","""",11/9/2020 6:31,69.125.145.27,"Mozilla/5.0 (Windows NT 10.0; Win64; x64) AppleWebKit/537.36 (KHTML, like Gecko) Chrome/86.0.4240.183 Safari/537.36",WebKit,Chrome,86.0.4240.183,Windows,10
34,1,null,"""",image-keyboard-response,45,59134,0.0-45.0,jspsych/scrambledNeutralFaces/scrambledAF10NES.JPG,"""",null,250,8,forwardMask,n,"""",11/9/2020 6:31,69.125.145.27,"Mozilla/5.0 (Windows NT 10.0; Win64; x64) AppleWebKit/537.36 (KHTML, like Gecko) Chrome/86.0.4240.183 Safari/537.36",WebKit,Chrome,86.0.4240.183,Windows,10
34,1,null,"""",image-keyboard-response,46,59214,0.0-46.0,jspsych/neutralFaces/AF10NES.JPG,"""",null,67,8,Cue,"""","""",11/9/2020 6:31,69.125.145.27,"Mozilla/5.0 (Windows NT 10.0; Win64; x64) AppleWebKit/537.36 (KHTML, like Gecko) Chrome/86.0.4240.183 Safari/537.36",WebKit,Chrome,86.0.4240.183,Windows,10
34,1,null,"""",image-keyboard-response,47,59324,0.0-47.0,jspsych/neutralFaces/BF27NES.JPG,"""",null,100,8,backwardMask,"""","""",11/9/2020 6:31,69.125.145.27,"Mozilla/5.0 (Windows NT 10.0; Win64; x64) AppleWebKit/537.36 (KHTML, like Gecko) Chrome/86.0.4240.183 Safari/537.36",WebKit,Chrome,86.0.4240.183,Windows,10
34,1,null,"""",html-keyboard-response,48,59535,0.0-48.0,"<div style=""font-size:60px;"">+</div>","""",null,200,8,fixationBtwnNeutralMaskAndPrompt,"""","""",11/9/2020 6:31,69.125.145.27,"Mozilla/5.0 (Windows NT 10.0; Win64; x64) AppleWebKit/537.36 (KHTML, like Gecko) Chrome/86.0.4240.183 Safari/537.36",WebKit,Chrome,86.0.4240.183,Windows,10
34,1,666.725,"""",html-keyboard-response,49,60203,0.0-49.0,"<p> What was the emotion of the hidden face? <br> Press, <b>d</b> for <i>disgust face</i> or <b>n</b> for <i>neutral face</i></p>","""",68,"""",8,Query,"""",d,11/9/2020 6:31,69.125.145.27,"Mozilla/5.0 (Windows NT 10.0; Win64; x64) AppleWebKit/537.36 (KHTML, like Gecko) Chrome/86.0.4240.183 Safari/537.36",WebKit,Chrome,86.0.4240.183,Windows,10
34,1,null,"""",html-keyboard-response,50,61205,0.0-50.0,"<div style=""font-size:60px;"">+</div>","""",null,1000,9,ITI,"""","""",11/9/2020 6:31,69.125.145.27,"Mozilla/5.0 (Windows NT 10.0; Win64; x64) AppleWebKit/537.36 (KHTML, like Gecko) Chrome/86.0.4240.183 Safari/537.36",WebKit,Chrome,86.0.4240.183,Windows,10
34,1,null,"""",image-keyboard-response,51,61460,0.0-51.0,jspsych/scrambledDisgustFaces/scrambledAM14DIS.JPG,"""",null,250,9,forwardMask,d,"""",11/9/2020 6:31,69.125.145.27,"Mozilla/5.0 (Windows NT 10.0; Win64; x64) AppleWebKit/537.36 (KHTML, like Gecko) Chrome/86.0.4240.183 Safari/537.36",WebKit,Chrome,86.0.4240.183,Windows,10
34,1,null,"""",image-keyboard-response,52,61478,0.0-52.0,jspsych/disgustFaces/AM14DIS.JPG,"""",null,16,9,Cue,"""","""",11/9/2020 6:31,69.125.145.27,"Mozilla/5.0 (Windows NT 10.0; Win64; x64) AppleWebKit/537.36 (KHTML, like Gecko) Chrome/86.0.4240.183 Safari/537.36",WebKit,Chrome,86.0.4240.183,Windows,10
34,1,null,"""",image-keyboard-response,53,61583,0.0-53.0,jspsych/neutralFaces/AF16NES.JPG,"""",null,100,9,backwardMask,"""","""",11/9/2020 6:31,69.125.145.27,"Mozilla/5.0 (Windows NT 10.0; Win64; x64) AppleWebKit/537.36 (KHTML, like Gecko) Chrome/86.0.4240.183 Safari/537.36",WebKit,Chrome,86.0.4240.183,Windows,10
34,1,null,"""",html-keyboard-response,54,61794,0.0-54.0,"<div style=""font-size:60px;"">+</div>","""",null,200,9,fixationBtwnNeutralMaskAndPrompt,"""","""",11/9/2020 6:31,69.125.145.27,"Mozilla/5.0 (Windows NT 10.0; Win64; x64) AppleWebKit/537.36 (KHTML, like Gecko) Chrome/86.0.4240.183 Safari/537.36",WebKit,Chrome,86.0.4240.183,Windows,10
34,1,381.2,"""",html-keyboard-response,55,62177,0.0-55.0,"<p> What was the emotion of the hidden face? <br> Press, <b>d</b> for <i>disgust face</i> or <b>n</b> for <i>neutral face</i></p>","""",78,"""",9,Query,"""",n,11/9/2020 6:31,69.125.145.27,"Mozilla/5.0 (Windows NT 10.0; Win64; x64) AppleWebKit/537.36 (KHTML, like Gecko) Chrome/86.0.4240.183 Safari/537.36",WebKit,Chrome,86.0.4240.183,Windows,10
34,1,null,"""",html-keyboard-response,56,63183,0.0-56.0,"<div style=""font-size:60px;"">+</div>","""",null,1000,10,ITI,"""","""",11/9/2020 6:31,69.125.145.27,"Mozilla/5.0 (Windows NT 10.0; Win64; x64) AppleWebKit/537.36 (KHTML, like Gecko) Chrome/86.0.4240.183 Safari/537.36",WebKit,Chrome,86.0.4240.183,Windows,10
34,1,null,"""",image-keyboard-response,57,63444,0.0-57.0,jspsych/scrambledDisgustFaces/scrambledAF32DIS.JPG,"""",null,250,10,forwardMask,d,"""",11/9/2020 6:31,69.125.145.27,"Mozilla/5.0 (Windows NT 10.0; Win64; x64) AppleWebKit/537.36 (KHTML, like Gecko) Chrome/86.0.4240.183 Safari/537.36",WebKit,Chrome,86.0.4240.183,Windows,10
34,1,null,"""",image-keyboard-response,58,63474,0.0-58.0,jspsych/disgustFaces/AF32DIS.JPG,"""",null,16,10,Cue,"""","""",11/9/2020 6:31,69.125.145.27,"Mozilla/5.0 (Windows NT 10.0; Win64; x64) AppleWebKit/537.36 (KHTML, like Gecko) Chrome/86.0.4240.183 Safari/537.36",WebKit,Chrome,86.0.4240.183,Windows,10
34,1,null,"""",image-keyboard-response,59,63583,0.0-59.0,jspsych/neutralFaces/AF07NES.JPG,"""",null,100,10,backwardMask,"""","""",11/9/2020 6:31,69.125.145.27,"Mozilla/5.0 (Windows NT 10.0; Win64; x64) AppleWebKit/537.36 (KHTML, like Gecko) Chrome/86.0.4240.183 Safari/537.36",WebKit,Chrome,86.0.4240.183,Windows,10
34,1,null,"""",html-keyboard-response,60,63791,0.0-60.0,"<div style=""font-size:60px;"">+</div>","""",null,200,10,fixationBtwnNeutralMaskAndPrompt,"""","""",11/9/2020 6:31,69.125.145.27,"Mozilla/5.0 (Windows NT 10.0; Win64; x64) AppleWebKit/537.36 (KHTML, like Gecko) Chrome/86.0.4240.183 Safari/537.36",WebKit,Chrome,86.0.4240.183,Windows,10
34,1,328.925,"""",html-keyboard-response,61,64120,0.0-61.0,"<p> What was the emotion of the hidden face? <br> Press, <b>d</b> for <i>disgust face</i> or <b>n</b> for <i>neutral face</i></p>","""",78,"""",10,Query,"""",n,11/9/2020 6:31,69.125.145.27,"Mozilla/5.0 (Windows NT 10.0; Win64; x64) AppleWebKit/537.36 (KHTML, like Gecko) Chrome/86.0.4240.183 Safari/537.36",WebKit,Chrome,86.0.4240.183,Windows,10
34,1,null,"""",html-keyboard-response,62,65135,0.0-62.0,"<div style=""font-size:60px;"">+</div>","""",null,1000,11,ITI,"""","""",11/9/2020 6:31,69.125.145.27,"Mozilla/5.0 (Windows NT 10.0; Win64; x64) AppleWebKit/537.36 (KHTML, like Gecko) Chrome/86.0.4240.183 Safari/537.36",WebKit,Chrome,86.0.4240.183,Windows,10
34,1,null,"""",image-keyboard-response,63,65395,0.0-63.0,jspsych/scrambledDisgustFaces/scrambledAF04DIS.JPG,"""",null,250,11,forwardMask,d,"""",11/9/2020 6:31,69.125.145.27,"Mozilla/5.0 (Windows NT 10.0; Win64; x64) AppleWebKit/537.36 (KHTML, like Gecko) Chrome/86.0.4240.183 Safari/537.36",WebKit,Chrome,86.0.4240.183,Windows,10
34,1,null,"""",image-keyboard-response,64,65475,0.0-64.0,jspsych/disgustFaces/AF04DIS.JPG,"""",null,67,11,Cue,"""","""",11/9/2020 6:31,69.125.145.27,"Mozilla/5.0 (Windows NT 10.0; Win64; x64) AppleWebKit/537.36 (KHTML, like Gecko) Chrome/86.0.4240.183 Safari/537.36",WebKit,Chrome,86.0.4240.183,Windows,10
34,1,null,"""",image-keyboard-response,65,65579,0.0-65.0,jspsych/neutralFaces/AF24NES.JPG,"""",null,100,11,backwardMask,"""","""",11/9/2020 6:31,69.125.145.27,"Mozilla/5.0 (Windows NT 10.0; Win64; x64) AppleWebKit/537.36 (KHTML, like Gecko) Chrome/86.0.4240.183 Safari/537.36",WebKit,Chrome,86.0.4240.183,Windows,10
34,1,null,"""",html-keyboard-response,66,65780,0.0-66.0,"<div style=""font-size:60px;"">+</div>","""",null,200,11,fixationBtwnNeutralMaskAndPrompt,"""","""",11/9/2020 6:31,69.125.145.27,"Mozilla/5.0 (Windows NT 10.0; Win64; x64) AppleWebKit/537.36 (KHTML, like Gecko) Chrome/86.0.4240.183 Safari/537.36",WebKit,Chrome,86.0.4240.183,Windows,10
34,1,263.175,"""",html-keyboard-response,67,66045,0.0-67.0,"<p> What was the emotion of the hidden face? <br> Press, <b>d</b> for <i>disgust face</i> or <b>n</b> for <i>neutral face</i></p>","""",78,"""",11,Query,"""",n,11/9/2020 6:31,69.125.145.27,"Mozilla/5.0 (Windows NT 10.0; Win64; x64) AppleWebKit/537.36 (KHTML, like Gecko) Chrome/86.0.4240.183 Safari/537.36",WebKit,Chrome,86.0.4240.183,Windows,10
34,1,null,"""",html-keyboard-response,68,67055,0.0-68.0,"<div style=""font-size:60px;"">+</div>","""",null,1000,12,ITI,"""","""",11/9/2020 6:31,69.125.145.27,"Mozilla/5.0 (Windows NT 10.0; Win64; x64) AppleWebKit/537.36 (KHTML, like Gecko) Chrome/86.0.4240.183 Safari/537.36",WebKit,Chrome,86.0.4240.183,Windows,10
34,1,null,"""",image-keyboard-response,69,67325,0.0-69.0,jspsych/scrambledDisgustFaces/scrambledBF26DIS.JPG,"""",null,250,12,forwardMask,d,"""",11/9/2020 6:31,69.125.145.27,"Mozilla/5.0 (Windows NT 10.0; Win64; x64) AppleWebKit/537.36 (KHTML, like Gecko) Chrome/86.0.4240.183 Safari/537.36",WebKit,Chrome,86.0.4240.183,Windows,10
34,1,null,"""",image-keyboard-response,70,67462,0.0-70.0,jspsych/disgustFaces/BF26DIS.JPG,"""",null,129,12,Cue,"""","""",11/9/2020 6:31,69.125.145.27,"Mozilla/5.0 (Windows NT 10.0; Win64; x64) AppleWebKit/537.36 (KHTML, like Gecko) Chrome/86.0.4240.183 Safari/537.36",WebKit,Chrome,86.0.4240.183,Windows,10
34,1,null,"""",image-keyboard-response,71,67574,0.0-71.0,jspsych/neutralFaces/AF17NES.JPG,"""",null,100,12,backwardMask,"""","""",11/9/2020 6:31,69.125.145.27,"Mozilla/5.0 (Windows NT 10.0; Win64; x64) AppleWebKit/537.36 (KHTML, like Gecko) Chrome/86.0.4240.183 Safari/537.36",WebKit,Chrome,86.0.4240.183,Windows,10
34,1,null,"""",html-keyboard-response,72,67778,0.0-72.0,"<div style=""font-size:60px;"">+</div>","""",null,200,12,fixationBtwnNeutralMaskAndPrompt,"""","""",11/9/2020 6:31,69.125.145.27,"Mozilla/5.0 (Windows NT 10.0; Win64; x64) AppleWebKit/537.36 (KHTML, like Gecko) Chrome/86.0.4240.183 Safari/537.36",WebKit,Chrome,86.0.4240.183,Windows,10
34,1,200.885,"""",html-keyboard-response,73,67980,0.0-73.0,"<p> What was the emotion of the hidden face? <br> Press, <b>d</b> for <i>disgust face</i> or <b>n</b> for <i>neutral face</i></p>","""",68,"""",12,Query,"""",d,11/9/2020 6:31,69.125.145.27,"Mozilla/5.0 (Windows NT 10.0; Win64; x64) AppleWebKit/537.36 (KHTML, like Gecko) Chrome/86.0.4240.183 Safari/537.36",WebKit,Chrome,86.0.4240.183,Windows,10
34,1,null,"""",html-keyboard-response,74,68984,0.0-74.0,"<div style=""font-size:60px;"">+</div>","""",null,1000,13,ITI,"""","""",11/9/2020 6:31,69.125.145.27,"Mozilla/5.0 (Windows NT 10.0; Win64; x64) AppleWebKit/537.36 (KHTML, like Gecko) Chrome/86.0.4240.183 Safari/537.36",WebKit,Chrome,86.0.4240.183,Windows,10
34,1,null,"""",image-keyboard-response,75,69243,0.0-75.0,jspsych/scrambledNeutralFaces/scrambledAF07NES.JPG,"""",null,250,13,forwardMask,n,"""",11/9/2020 6:31,69.125.145.27,"Mozilla/5.0 (Windows NT 10.0; Win64; x64) AppleWebKit/537.36 (KHTML, like Gecko) Chrome/86.0.4240.183 Safari/537.36",WebKit,Chrome,86.0.4240.183,Windows,10
34,1,null,"""",image-keyboard-response,76,69374,0.0-76.0,jspsych/neutralFaces/AF07NES.JPG,"""",null,129,13,Cue,"""","""",11/9/2020 6:31,69.125.145.27,"Mozilla/5.0 (Windows NT 10.0; Win64; x64) AppleWebKit/537.36 (KHTML, like Gecko) Chrome/86.0.4240.183 Safari/537.36",WebKit,Chrome,86.0.4240.183,Windows,10
34,1,null,"""",image-keyboard-response,77,69484,0.0-77.0,jspsych/neutralFaces/AF35NES.JPG,"""",null,100,13,backwardMask,"""","""",11/9/2020 6:31,69.125.145.27,"Mozilla/5.0 (Windows NT 10.0; Win64; x64) AppleWebKit/537.36 (KHTML, like Gecko) Chrome/86.0.4240.183 Safari/537.36",WebKit,Chrome,86.0.4240.183,Windows,10
34,1,null,"""",html-keyboard-response,78,69692,0.0-78.0,"<div style=""font-size:60px;"">+</div>","""",null,200,13,fixationBtwnNeutralMaskAndPrompt,"""","""",11/9/2020 6:31,69.125.145.27,"Mozilla/5.0 (Windows NT 10.0; Win64; x64) AppleWebKit/537.36 (KHTML, like Gecko) Chrome/86.0.4240.183 Safari/537.36",WebKit,Chrome,86.0.4240.183,Windows,10
34,1,302.465,"""",html-keyboard-response,79,69996,0.0-79.0,"<p> What was the emotion of the hidden face? <br> Press, <b>d</b> for <i>disgust face</i> or <b>n</b> for <i>neutral face</i></p>","""",78,"""",13,Query,"""",n,11/9/2020 6:31,69.125.145.27,"Mozilla/5.0 (Windows NT 10.0; Win64; x64) AppleWebKit/537.36 (KHTML, like Gecko) Chrome/86.0.4240.183 Safari/537.36",WebKit,Chrome,86.0.4240.183,Windows,10
34,1,null,"""",html-keyboard-response,80,71005,0.0-80.0,"<div style=""font-size:60px;"">+</div>","""",null,1000,14,ITI,"""","""",11/9/2020 6:31,69.125.145.27,"Mozilla/5.0 (Windows NT 10.0; Win64; x64) AppleWebKit/537.36 (KHTML, like Gecko) Chrome/86.0.4240.183 Safari/537.36",WebKit,Chrome,86.0.4240.183,Windows,10
34,1,null,"""",image-keyboard-response,81,71264,0.0-81.0,jspsych/scrambledNeutralFaces/scrambledBM21NES.JPG,"""",null,250,14,forwardMask,n,"""",11/9/2020 6:31,69.125.145.27,"Mozilla/5.0 (Windows NT 10.0; Win64; x64) AppleWebKit/537.36 (KHTML, like Gecko) Chrome/86.0.4240.183 Safari/537.36",WebKit,Chrome,86.0.4240.183,Windows,10
34,1,null,"""",image-keyboard-response,82,71405,0.0-82.0,jspsych/neutralFaces/BM21NES.JPG,"""",null,129,14,Cue,"""","""",11/9/2020 6:31,69.125.145.27,"Mozilla/5.0 (Windows NT 10.0; Win64; x64) AppleWebKit/537.36 (KHTML, like Gecko) Chrome/86.0.4240.183 Safari/537.36",WebKit,Chrome,86.0.4240.183,Windows,10
34,1,null,"""",image-keyboard-response,83,71515,0.0-83.0,jspsych/neutralFaces/BM23NES.JPG,"""",null,100,14,backwardMask,"""","""",11/9/2020 6:31,69.125.145.27,"Mozilla/5.0 (Windows NT 10.0; Win64; x64) AppleWebKit/537.36 (KHTML, like Gecko) Chrome/86.0.4240.183 Safari/537.36",WebKit,Chrome,86.0.4240.183,Windows,10
34,1,null,"""",html-keyboard-response,84,71723,0.0-84.0,"<div style=""font-size:60px;"">+</div>","""",null,200,14,fixationBtwnNeutralMaskAndPrompt,"""","""",11/9/2020 6:31,69.125.145.27,"Mozilla/5.0 (Windows NT 10.0; Win64; x64) AppleWebKit/537.36 (KHTML, like Gecko) Chrome/86.0.4240.183 Safari/537.36",WebKit,Chrome,86.0.4240.183,Windows,10
34,1,243.4,"""",html-keyboard-response,85,71968,0.0-85.0,"<p> What was the emotion of the hidden face? <br> Press, <b>d</b> for <i>disgust face</i> or <b>n</b> for <i>neutral face</i></p>","""",78,"""",14,Query,"""",n,11/9/2020 6:31,69.125.145.27,"Mozilla/5.0 (Windows NT 10.0; Win64; x64) AppleWebKit/537.36 (KHTML, like Gecko) Chrome/86.0.4240.183 Safari/537.36",WebKit,Chrome,86.0.4240.183,Windows,10
34,1,null,"""",html-keyboard-response,86,72973,0.0-86.0,"<div style=""font-size:60px;"">+</div>","""",null,1000,15,ITI,"""","""",11/9/2020 6:31,69.125.145.27,"Mozilla/5.0 (Windows NT 10.0; Win64; x64) AppleWebKit/537.36 (KHTML, like Gecko) Chrome/86.0.4240.183 Safari/537.36",WebKit,Chrome,86.0.4240.183,Windows,10
34,1,null,"""",image-keyboard-response,87,73235,0.0-87.0,jspsych/scrambledNeutralFaces/scrambledBF01NES.JPG,"""",null,250,15,forwardMask,n,"""",11/9/2020 6:31,69.125.145.27,"Mozilla/5.0 (Windows NT 10.0; Win64; x64) AppleWebKit/537.36 (KHTML, like Gecko) Chrome/86.0.4240.183 Safari/537.36",WebKit,Chrome,86.0.4240.183,Windows,10
34,1,null,"""",image-keyboard-response,88,73255,0.0-88.0,jspsych/neutralFaces/BF01NES.JPG,"""",null,16,15,Cue,"""","""",11/9/2020 6:31,69.125.145.27,"Mozilla/5.0 (Windows NT 10.0; Win64; x64) AppleWebKit/537.36 (KHTML, like Gecko) Chrome/86.0.4240.183 Safari/537.36",WebKit,Chrome,86.0.4240.183,Windows,10
34,1,null,"""",image-keyboard-response,89,73365,0.0-89.0,jspsych/neutralFaces/AM10NES.JPG,"""",null,100,15,backwardMask,"""","""",11/9/2020 6:31,69.125.145.27,"Mozilla/5.0 (Windows NT 10.0; Win64; x64) AppleWebKit/537.36 (KHTML, like Gecko) Chrome/86.0.4240.183 Safari/537.36",WebKit,Chrome,86.0.4240.183,Windows,10
34,1,null,"""",html-keyboard-response,90,73573,0.0-90.0,"<div style=""font-size:60px;"">+</div>","""",null,200,15,fixationBtwnNeutralMaskAndPrompt,"""","""",11/9/2020 6:31,69.125.145.27,"Mozilla/5.0 (Windows NT 10.0; Win64; x64) AppleWebKit/537.36 (KHTML, like Gecko) Chrome/86.0.4240.183 Safari/537.36",WebKit,Chrome,86.0.4240.183,Windows,10
34,1,387.44,"""",html-keyboard-response,91,73962,0.0-91.0,"<p> What was the emotion of the hidden face? <br> Press, <b>d</b> for <i>disgust face</i> or <b>n</b> for <i>neutral face</i></p>","""",78,"""",15,Query,"""",n,11/9/2020 6:31,69.125.145.27,"Mozilla/5.0 (Windows NT 10.0; Win64; x64) AppleWebKit/537.36 (KHTML, like Gecko) Chrome/86.0.4240.183 Safari/537.36",WebKit,Chrome,86.0.4240.183,Windows,10
34,1,null,"""",html-keyboard-response,92,74964,0.0-92.0,"<div style=""font-size:60px;"">+</div>","""",null,1000,16,ITI,"""","""",11/9/2020 6:31,69.125.145.27,"Mozilla/5.0 (Windows NT 10.0; Win64; x64) AppleWebKit/537.36 (KHTML, like Gecko) Chrome/86.0.4240.183 Safari/537.36",WebKit,Chrome,86.0.4240.183,Windows,10
34,1,null,"""",image-keyboard-response,93,75225,0.0-93.0,jspsych/scrambledDisgustFaces/scrambledBM12DIS.JPG,"""",null,250,16,forwardMask,d,"""",11/9/2020 6:31,69.125.145.27,"Mozilla/5.0 (Windows NT 10.0; Win64; x64) AppleWebKit/537.36 (KHTML, like Gecko) Chrome/86.0.4240.183 Safari/537.36",WebKit,Chrome,86.0.4240.183,Windows,10
34,1,null,"""",image-keyboard-response,94,75364,0.0-94.0,jspsych/disgustFaces/BM12DIS.JPG,"""",null,129,16,Cue,"""","""",11/9/2020 6:31,69.125.145.27,"Mozilla/5.0 (Windows NT 10.0; Win64; x64) AppleWebKit/537.36 (KHTML, like Gecko) Chrome/86.0.4240.183 Safari/537.36",WebKit,Chrome,86.0.4240.183,Windows,10
34,1,null,"""",image-keyboard-response,95,75475,0.0-95.0,jspsych/neutralFaces/AM11NES.JPG,"""",null,100,16,backwardMask,"""","""",11/9/2020 6:31,69.125.145.27,"Mozilla/5.0 (Windows NT 10.0; Win64; x64) AppleWebKit/537.36 (KHTML, like Gecko) Chrome/86.0.4240.183 Safari/537.36",WebKit,Chrome,86.0.4240.183,Windows,10
34,1,null,"""",html-keyboard-response,96,75685,0.0-96.0,"<div style=""font-size:60px;"">+</div>","""",null,200,16,fixationBtwnNeutralMaskAndPrompt,"""","""",11/9/2020 6:31,69.125.145.27,"Mozilla/5.0 (Windows NT 10.0; Win64; x64) AppleWebKit/537.36 (KHTML, like Gecko) Chrome/86.0.4240.183 Safari/537.36",WebKit,Chrome,86.0.4240.183,Windows,10
34,1,102.45,"""",html-keyboard-response,97,75791,0.0-97.0,"<p> What was the emotion of the hidden face? <br> Press, <b>d</b> for <i>disgust face</i> or <b>n</b> for <i>neutral face</i></p>","""",68,"""",16,Query,"""",d,11/9/2020 6:31,69.125.145.27,"Mozilla/5.0 (Windows NT 10.0; Win64; x64) AppleWebKit/537.36 (KHTML, like Gecko) Chrome/86.0.4240.183 Safari/537.36",WebKit,Chrome,86.0.4240.183,Windows,10
34,1,null,"""",html-keyboard-response,98,76795,0.0-98.0,"<div style=""font-size:60px;"">+</div>","""",null,1000,17,ITI,"""","""",11/9/2020 6:31,69.125.145.27,"Mozilla/5.0 (Windows NT 10.0; Win64; x64) AppleWebKit/537.36 (KHTML, like Gecko) Chrome/86.0.4240.183 Safari/537.36",WebKit,Chrome,86.0.4240.183,Windows,10
34,1,null,"""",image-keyboard-response,99,77053,0.0-99.0,jspsych/scrambledNeutralFaces/scrambledAF07NES.JPG,"""",null,250,17,forwardMask,n,"""",11/9/2020 6:31,69.125.145.27,"Mozilla/5.0 (Windows NT 10.0; Win64; x64) AppleWebKit/537.36 (KHTML, like Gecko) Chrome/86.0.4240.183 Safari/537.36",WebKit,Chrome,86.0.4240.183,Windows,10
34,1,null,"""",image-keyboard-response,100,77074,0.0-100.0,jspsych/neutralFaces/AF07NES.JPG,"""",null,16,17,Cue,"""","""",11/9/2020 6:31,69.125.145.27,"Mozilla/5.0 (Windows NT 10.0; Win64; x64) AppleWebKit/537.36 (KHTML, like Gecko) Chrome/86.0.4240.183 Safari/537.36",WebKit,Chrome,86.0.4240.183,Windows,10
34,1,null,"""",image-keyboard-response,101,77185,0.0-101.0,jspsych/neutralFaces/BM10NES.JPG,"""",null,100,17,backwardMask,"""","""",11/9/2020 6:31,69.125.145.27,"Mozilla/5.0 (Windows NT 10.0; Win64; x64) AppleWebKit/537.36 (KHTML, like Gecko) Chrome/86.0.4240.183 Safari/537.36",WebKit,Chrome,86.0.4240.183,Windows,10
34,1,null,"""",html-keyboard-response,102,77394,0.0-102.0,"<div style=""font-size:60px;"">+</div>","""",null,200,17,fixationBtwnNeutralMaskAndPrompt,"""","""",11/9/2020 6:31,69.125.145.27,"Mozilla/5.0 (Windows NT 10.0; Win64; x64) AppleWebKit/537.36 (KHTML, like Gecko) Chrome/86.0.4240.183 Safari/537.36",WebKit,Chrome,86.0.4240.183,Windows,10
34,1,324.78,"""",html-keyboard-response,103,77720,0.0-103.0,"<p> What was the emotion of the hidden face? <br> Press, <b>d</b> for <i>disgust face</i> or <b>n</b> for <i>neutral face</i></p>","""",78,"""",17,Query,"""",n,11/9/2020 6:31,69.125.145.27,"Mozilla/5.0 (Windows NT 10.0; Win64; x64) AppleWebKit/537.36 (KHTML, like Gecko) Chrome/86.0.4240.183 Safari/537.36",WebKit,Chrome,86.0.4240.183,Windows,10
34,1,null,"""",html-keyboard-response,104,78724,0.0-104.0,"<div style=""font-size:60px;"">+</div>","""",null,1000,18,ITI,"""","""",11/9/2020 6:31,69.125.145.27,"Mozilla/5.0 (Windows NT 10.0; Win64; x64) AppleWebKit/537.36 (KHTML, like Gecko) Chrome/86.0.4240.183 Safari/537.36",WebKit,Chrome,86.0.4240.183,Windows,10
34,1,null,"""",image-keyboard-response,105,78983,0.0-105.0,jspsych/scrambledNeutralFaces/scrambledAM09NES.JPG,"""",null,250,18,forwardMask,n,"""",11/9/2020 6:31,69.125.145.27,"Mozilla/5.0 (Windows NT 10.0; Win64; x64) AppleWebKit/537.36 (KHTML, like Gecko) Chrome/86.0.4240.183 Safari/537.36",WebKit,Chrome,86.0.4240.183,Windows,10
34,1,null,"""",image-keyboard-response,106,79055,0.0-106.0,jspsych/neutralFaces/AM09NES.JPG,"""",null,67,18,Cue,"""","""",11/9/2020 6:31,69.125.145.27,"Mozilla/5.0 (Windows NT 10.0; Win64; x64) AppleWebKit/537.36 (KHTML, like Gecko) Chrome/86.0.4240.183 Safari/537.36",WebKit,Chrome,86.0.4240.183,Windows,10
34,1,null,"""",image-keyboard-response,107,79165,0.0-107.0,jspsych/neutralFaces/AF14NES.JPG,"""",null,100,18,backwardMask,"""","""",11/9/2020 6:31,69.125.145.27,"Mozilla/5.0 (Windows NT 10.0; Win64; x64) AppleWebKit/537.36 (KHTML, like Gecko) Chrome/86.0.4240.183 Safari/537.36",WebKit,Chrome,86.0.4240.183,Windows,10
34,1,null,"""",html-keyboard-response,108,79375,0.0-108.0,"<div style=""font-size:60px;"">+</div>","""",null,200,18,fixationBtwnNeutralMaskAndPrompt,"""","""",11/9/2020 6:31,69.125.145.27,"Mozilla/5.0 (Windows NT 10.0; Win64; x64) AppleWebKit/537.36 (KHTML, like Gecko) Chrome/86.0.4240.183 Safari/537.36",WebKit,Chrome,86.0.4240.183,Windows,10
34,1,226.605,"""",html-keyboard-response,109,79602,0.0-109.0,"<p> What was the emotion of the hidden face? <br> Press, <b>d</b> for <i>disgust face</i> or <b>n</b> for <i>neutral face</i></p>","""",78,"""",18,Query,"""",n,11/9/2020 6:31,69.125.145.27,"Mozilla/5.0 (Windows NT 10.0; Win64; x64) AppleWebKit/537.36 (KHTML, like Gecko) Chrome/86.0.4240.183 Safari/537.36",WebKit,Chrome,86.0.4240.183,Windows,10
34,1,null,"""",html-keyboard-response,110,80604,0.0-110.0,"<div style=""font-size:60px;"">+</div>","""",null,1000,19,ITI,"""","""",11/9/2020 6:31,69.125.145.27,"Mozilla/5.0 (Windows NT 10.0; Win64; x64) AppleWebKit/537.36 (KHTML, like Gecko) Chrome/86.0.4240.183 Safari/537.36",WebKit,Chrome,86.0.4240.183,Windows,10
34,1,null,"""",image-keyboard-response,111,80858,0.0-111.0,jspsych/scrambledDisgustFaces/scrambledBF26DIS.JPG,"""",null,250,19,forwardMask,d,"""",11/9/2020 6:31,69.125.145.27,"Mozilla/5.0 (Windows NT 10.0; Win64; x64) AppleWebKit/537.36 (KHTML, like Gecko) Chrome/86.0.4240.183 Safari/537.36",WebKit,Chrome,86.0.4240.183,Windows,10
34,1,null,"""",image-keyboard-response,112,80929,0.0-112.0,jspsych/disgustFaces/BF26DIS.JPG,"""",null,67,19,Cue,"""","""",11/9/2020 6:31,69.125.145.27,"Mozilla/5.0 (Windows NT 10.0; Win64; x64) AppleWebKit/537.36 (KHTML, like Gecko) Chrome/86.0.4240.183 Safari/537.36",WebKit,Chrome,86.0.4240.183,Windows,10
34,1,null,"""",image-keyboard-response,113,81034,0.0-113.0,jspsych/neutralFaces/BF04NES.JPG,"""",null,100,19,backwardMask,"""","""",11/9/2020 6:31,69.125.145.27,"Mozilla/5.0 (Windows NT 10.0; Win64; x64) AppleWebKit/537.36 (KHTML, like Gecko) Chrome/86.0.4240.183 Safari/537.36",WebKit,Chrome,86.0.4240.183,Windows,10
34,1,null,"""",html-keyboard-response,114,81239,0.0-114.0,"<div style=""font-size:60px;"">+</div>","""",null,200,19,fixationBtwnNeutralMaskAndPrompt,"""","""",11/9/2020 6:31,69.125.145.27,"Mozilla/5.0 (Windows NT 10.0; Win64; x64) AppleWebKit/537.36 (KHTML, like Gecko) Chrome/86.0.4240.183 Safari/537.36",WebKit,Chrome,86.0.4240.183,Windows,10
34,1,224.905,"""",html-keyboard-response,115,81465,0.0-115.0,"<p> What was the emotion of the hidden face? <br> Press, <b>d</b> for <i>disgust face</i> or <b>n</b> for <i>neutral face</i></p>","""",68,"""",19,Query,"""",d,11/9/2020 6:31,69.125.145.27,"Mozilla/5.0 (Windows NT 10.0; Win64; x64) AppleWebKit/537.36 (KHTML, like Gecko) Chrome/86.0.4240.183 Safari/537.36",WebKit,Chrome,86.0.4240.183,Windows,10
34,1,null,"""",html-keyboard-response,116,82474,0.0-116.0,"<div style=""font-size:60px;"">+</div>","""",null,1000,20,ITI,"""","""",11/9/2020 6:31,69.125.145.27,"Mozilla/5.0 (Windows NT 10.0; Win64; x64) AppleWebKit/537.36 (KHTML, like Gecko) Chrome/86.0.4240.183 Safari/537.36",WebKit,Chrome,86.0.4240.183,Windows,10
34,1,null,"""",image-keyboard-response,117,82734,0.0-117.0,jspsych/scrambledDisgustFaces/scrambledBF16DIS.JPG,"""",null,250,20,forwardMask,d,"""",11/9/2020 6:31,69.125.145.27,"Mozilla/5.0 (Windows NT 10.0; Win64; x64) AppleWebKit/537.36 (KHTML, like Gecko) Chrome/86.0.4240.183 Safari/537.36",WebKit,Chrome,86.0.4240.183,Windows,10
34,1,null,"""",image-keyboard-response,118,82754,0.0-118.0,jspsych/disgustFaces/BF16DIS.JPG,"""",null,16,20,Cue,"""","""",11/9/2020 6:31,69.125.145.27,"Mozilla/5.0 (Windows NT 10.0; Win64; x64) AppleWebKit/537.36 (KHTML, like Gecko) Chrome/86.0.4240.183 Safari/537.36",WebKit,Chrome,86.0.4240.183,Windows,10
34,1,null,"""",image-keyboard-response,119,82863,0.0-119.0,jspsych/neutralFaces/AM35NES.JPG,"""",null,100,20,backwardMask,"""","""",11/9/2020 6:31,69.125.145.27,"Mozilla/5.0 (Windows NT 10.0; Win64; x64) AppleWebKit/537.36 (KHTML, like Gecko) Chrome/86.0.4240.183 Safari/537.36",WebKit,Chrome,86.0.4240.183,Windows,10
34,1,null,"""",html-keyboard-response,120,83074,0.0-120.0,"<div style=""font-size:60px;"">+</div>","""",null,200,20,fixationBtwnNeutralMaskAndPrompt,"""","""",11/9/2020 6:31,69.125.145.27,"Mozilla/5.0 (Windows NT 10.0; Win64; x64) AppleWebKit/537.36 (KHTML, like Gecko) Chrome/86.0.4240.183 Safari/537.36",WebKit,Chrome,86.0.4240.183,Windows,10
34,1,273.04,"""",html-keyboard-response,121,83348,0.0-121.0,"<p> What was the emotion of the hidden face? <br> Press, <b>d</b> for <i>disgust face</i> or <b>n</b> for <i>neutral face</i></p>","""",78,"""",20,Query,"""",n,11/9/2020 6:31,69.125.145.27,"Mozilla/5.0 (Windows NT 10.0; Win64; x64) AppleWebKit/537.36 (KHTML, like Gecko) Chrome/86.0.4240.183 Safari/537.36",WebKit,Chrome,86.0.4240.183,Windows,10
34,1,null,"""",html-keyboard-response,122,84355,0.0-122.0,"<div style=""font-size:60px;"">+</div>","""",null,1000,21,ITI,"""","""",11/9/2020 6:31,69.125.145.27,"Mozilla/5.0 (Windows NT 10.0; Win64; x64) AppleWebKit/537.36 (KHTML, like Gecko) Chrome/86.0.4240.183 Safari/537.36",WebKit,Chrome,86.0.4240.183,Windows,10
34,1,null,"""",image-keyboard-response,123,84612,0.0-123.0,jspsych/scrambledNeutralFaces/scrambledAM28NES.JPG,"""",null,250,21,forwardMask,n,"""",11/9/2020 6:31,69.125.145.27,"Mozilla/5.0 (Windows NT 10.0; Win64; x64) AppleWebKit/537.36 (KHTML, like Gecko) Chrome/86.0.4240.183 Safari/537.36",WebKit,Chrome,86.0.4240.183,Windows,10
34,1,null,"""",image-keyboard-response,124,84636,0.0-124.0,jspsych/neutralFaces/AM28NES.JPG,"""",null,16,21,Cue,"""","""",11/9/2020 6:31,69.125.145.27,"Mozilla/5.0 (Windows NT 10.0; Win64; x64) AppleWebKit/537.36 (KHTML, like Gecko) Chrome/86.0.4240.183 Safari/537.36",WebKit,Chrome,86.0.4240.183,Windows,10
34,1,null,"""",image-keyboard-response,125,84744,0.0-125.0,jspsych/neutralFaces/BM26NES.JPG,"""",null,100,21,backwardMask,"""","""",11/9/2020 6:31,69.125.145.27,"Mozilla/5.0 (Windows NT 10.0; Win64; x64) AppleWebKit/537.36 (KHTML, like Gecko) Chrome/86.0.4240.183 Safari/537.36",WebKit,Chrome,86.0.4240.183,Windows,10
34,1,null,"""",html-keyboard-response,126,84954,0.0-126.0,"<div style=""font-size:60px;"">+</div>","""",null,200,21,fixationBtwnNeutralMaskAndPrompt,"""","""",11/9/2020 6:31,69.125.145.27,"Mozilla/5.0 (Windows NT 10.0; Win64; x64) AppleWebKit/537.36 (KHTML, like Gecko) Chrome/86.0.4240.183 Safari/537.36",WebKit,Chrome,86.0.4240.183,Windows,10
34,1,316.13,"""",html-keyboard-response,127,85272,0.0-127.0,"<p> What was the emotion of the hidden face? <br> Press, <b>d</b> for <i>disgust face</i> or <b>n</b> for <i>neutral face</i></p>","""",78,"""",21,Query,"""",n,11/9/2020 6:31,69.125.145.27,"Mozilla/5.0 (Windows NT 10.0; Win64; x64) AppleWebKit/537.36 (KHTML, like Gecko) Chrome/86.0.4240.183 Safari/537.36",WebKit,Chrome,86.0.4240.183,Windows,10
34,1,null,"""",html-keyboard-response,128,86274,0.0-128.0,"<div style=""font-size:60px;"">+</div>","""",null,1000,22,ITI,"""","""",11/9/2020 6:31,69.125.145.27,"Mozilla/5.0 (Windows NT 10.0; Win64; x64) AppleWebKit/537.36 (KHTML, like Gecko) Chrome/86.0.4240.183 Safari/537.36",WebKit,Chrome,86.0.4240.183,Windows,10
34,1,null,"""",image-keyboard-response,129,86535,0.0-129.0,jspsych/scrambledDisgustFaces/scrambledAF05DIS.JPG,"""",null,250,22,forwardMask,d,"""",11/9/2020 6:31,69.125.145.27,"Mozilla/5.0 (Windows NT 10.0; Win64; x64) AppleWebKit/537.36 (KHTML, like Gecko) Chrome/86.0.4240.183 Safari/537.36",WebKit,Chrome,86.0.4240.183,Windows,10
34,1,null,"""",image-keyboard-response,130,86554,0.0-130.0,jspsych/disgustFaces/AF05DIS.JPG,"""",null,16,22,Cue,"""","""",11/9/2020 6:31,69.125.145.27,"Mozilla/5.0 (Windows NT 10.0; Win64; x64) AppleWebKit/537.36 (KHTML, like Gecko) Chrome/86.0.4240.183 Safari/537.36",WebKit,Chrome,86.0.4240.183,Windows,10
34,1,null,"""",image-keyboard-response,131,86663,0.0-131.0,jspsych/neutralFaces/AM25NES.JPG,"""",null,100,22,backwardMask,"""","""",11/9/2020 6:31,69.125.145.27,"Mozilla/5.0 (Windows NT 10.0; Win64; x64) AppleWebKit/537.36 (KHTML, like Gecko) Chrome/86.0.4240.183 Safari/537.36",WebKit,Chrome,86.0.4240.183,Windows,10
34,1,null,"""",html-keyboard-response,132,86864,0.0-132.0,"<div style=""font-size:60px;"">+</div>","""",null,200,22,fixationBtwnNeutralMaskAndPrompt,"""","""",11/9/2020 6:31,69.125.145.27,"Mozilla/5.0 (Windows NT 10.0; Win64; x64) AppleWebKit/537.36 (KHTML, like Gecko) Chrome/86.0.4240.183 Safari/537.36",WebKit,Chrome,86.0.4240.183,Windows,10
34,1,234.875,"""",html-keyboard-response,133,87100,0.0-133.0,"<p> What was the emotion of the hidden face? <br> Press, <b>d</b> for <i>disgust face</i> or <b>n</b> for <i>neutral face</i></p>","""",78,"""",22,Query,"""",n,11/9/2020 6:31,69.125.145.27,"Mozilla/5.0 (Windows NT 10.0; Win64; x64) AppleWebKit/537.36 (KHTML, like Gecko) Chrome/86.0.4240.183 Safari/537.36",WebKit,Chrome,86.0.4240.183,Windows,10
34,1,null,"""",html-keyboard-response,134,88107,0.0-134.0,"<div style=""font-size:60px;"">+</div>","""",null,1000,23,ITI,"""","""",11/9/2020 6:31,69.125.145.27,"Mozilla/5.0 (Windows NT 10.0; Win64; x64) AppleWebKit/537.36 (KHTML, like Gecko) Chrome/86.0.4240.183 Safari/537.36",WebKit,Chrome,86.0.4240.183,Windows,10
34,1,null,"""",image-keyboard-response,135,88365,0.0-135.0,jspsych/scrambledDisgustFaces/scrambledAF25DIS.JPG,"""",null,250,23,forwardMask,d,"""",11/9/2020 6:31,69.125.145.27,"Mozilla/5.0 (Windows NT 10.0; Win64; x64) AppleWebKit/537.36 (KHTML, like Gecko) Chrome/86.0.4240.183 Safari/537.36",WebKit,Chrome,86.0.4240.183,Windows,10
34,1,null,"""",image-keyboard-response,136,88384,0.0-136.0,jspsych/disgustFaces/AF25DIS.JPG,"""",null,16,23,Cue,"""","""",11/9/2020 6:31,69.125.145.27,"Mozilla/5.0 (Windows NT 10.0; Win64; x64) AppleWebKit/537.36 (KHTML, like Gecko) Chrome/86.0.4240.183 Safari/537.36",WebKit,Chrome,86.0.4240.183,Windows,10
34,1,null,"""",image-keyboard-response,137,88494,0.0-137.0,jspsych/neutralFaces/AF19NES.JPG,"""",null,100,23,backwardMask,"""","""",11/9/2020 6:31,69.125.145.27,"Mozilla/5.0 (Windows NT 10.0; Win64; x64) AppleWebKit/537.36 (KHTML, like Gecko) Chrome/86.0.4240.183 Safari/537.36",WebKit,Chrome,86.0.4240.183,Windows,10
34,1,null,"""",html-keyboard-response,138,88704,0.0-138.0,"<div style=""font-size:60px;"">+</div>","""",null,200,23,fixationBtwnNeutralMaskAndPrompt,"""","""",11/9/2020 6:31,69.125.145.27,"Mozilla/5.0 (Windows NT 10.0; Win64; x64) AppleWebKit/537.36 (KHTML, like Gecko) Chrome/86.0.4240.183 Safari/537.36",WebKit,Chrome,86.0.4240.183,Windows,10
34,1,224.915,"""",html-keyboard-response,139,88930,0.0-139.0,"<p> What was the emotion of the hidden face? <br> Press, <b>d</b> for <i>disgust face</i> or <b>n</b> for <i>neutral face</i></p>","""",78,"""",23,Query,"""",n,11/9/2020 6:31,69.125.145.27,"Mozilla/5.0 (Windows NT 10.0; Win64; x64) AppleWebKit/537.36 (KHTML, like Gecko) Chrome/86.0.4240.183 Safari/537.36",WebKit,Chrome,86.0.4240.183,Windows,10
34,1,null,"""",html-keyboard-response,140,89934,0.0-140.0,"<div style=""font-size:60px;"">+</div>","""",null,1000,24,ITI,"""","""",11/9/2020 6:31,69.125.145.27,"Mozilla/5.0 (Windows NT 10.0; Win64; x64) AppleWebKit/537.36 (KHTML, like Gecko) Chrome/86.0.4240.183 Safari/537.36",WebKit,Chrome,86.0.4240.183,Windows,10
34,1,null,"""",image-keyboard-response,141,90195,0.0-141.0,jspsych/scrambledNeutralFaces/scrambledAF33NES.JPG,"""",null,250,24,forwardMask,n,"""",11/9/2020 6:31,69.125.145.27,"Mozilla/5.0 (Windows NT 10.0; Win64; x64) AppleWebKit/537.36 (KHTML, like Gecko) Chrome/86.0.4240.183 Safari/537.36",WebKit,Chrome,86.0.4240.183,Windows,10
34,1,null,"""",image-keyboard-response,142,90221,0.0-142.0,jspsych/neutralFaces/AF33NES.JPG,"""",null,16,24,Cue,"""","""",11/9/2020 6:31,69.125.145.27,"Mozilla/5.0 (Windows NT 10.0; Win64; x64) AppleWebKit/537.36 (KHTML, like Gecko) Chrome/86.0.4240.183 Safari/537.36",WebKit,Chrome,86.0.4240.183,Windows,10
34,1,null,"""",image-keyboard-response,143,90334,0.0-143.0,jspsych/neutralFaces/BM02NES.JPG,"""",null,100,24,backwardMask,"""","""",11/9/2020 6:31,69.125.145.27,"Mozilla/5.0 (Windows NT 10.0; Win64; x64) AppleWebKit/537.36 (KHTML, like Gecko) Chrome/86.0.4240.183 Safari/537.36",WebKit,Chrome,86.0.4240.183,Windows,10
34,1,null,"""",html-keyboard-response,144,90539,0.0-144.0,"<div style=""font-size:60px;"">+</div>","""",null,200,24,fixationBtwnNeutralMaskAndPrompt,"""","""",11/9/2020 6:31,69.125.145.27,"Mozilla/5.0 (Windows NT 10.0; Win64; x64) AppleWebKit/537.36 (KHTML, like Gecko) Chrome/86.0.4240.183 Safari/537.36",WebKit,Chrome,86.0.4240.183,Windows,10
34,1,397.54,"""",html-keyboard-response,145,90938,0.0-145.0,"<p> What was the emotion of the hidden face? <br> Press, <b>d</b> for <i>disgust face</i> or <b>n</b> for <i>neutral face</i></p>","""",78,"""",24,Query,"""",n,11/9/2020 6:31,69.125.145.27,"Mozilla/5.0 (Windows NT 10.0; Win64; x64) AppleWebKit/537.36 (KHTML, like Gecko) Chrome/86.0.4240.183 Safari/537.36",WebKit,Chrome,86.0.4240.183,Windows,10
34,1,null,"""",html-keyboard-response,146,91945,0.0-146.0,"<div style=""font-size:60px;"">+</div>","""",null,1000,25,ITI,"""","""",11/9/2020 6:31,69.125.145.27,"Mozilla/5.0 (Windows NT 10.0; Win64; x64) AppleWebKit/537.36 (KHTML, like Gecko) Chrome/86.0.4240.183 Safari/537.36",WebKit,Chrome,86.0.4240.183,Windows,10
34,1,null,"""",image-keyboard-response,147,92204,0.0-147.0,jspsych/scrambledNeutralFaces/scrambledAF20NES.JPG,"""",null,250,25,forwardMask,n,"""",11/9/2020 6:31,69.125.145.27,"Mozilla/5.0 (Windows NT 10.0; Win64; x64) AppleWebKit/537.36 (KHTML, like Gecko) Chrome/86.0.4240.183 Safari/537.36",WebKit,Chrome,86.0.4240.183,Windows,10
34,1,null,"""",image-keyboard-response,148,92274,0.0-148.0,jspsych/neutralFaces/AF20NES.JPG,"""",null,67,25,Cue,"""","""",11/9/2020 6:31,69.125.145.27,"Mozilla/5.0 (Windows NT 10.0; Win64; x64) AppleWebKit/537.36 (KHTML, like Gecko) Chrome/86.0.4240.183 Safari/537.36",WebKit,Chrome,86.0.4240.183,Windows,10
34,1,null,"""",image-keyboard-response,149,92385,0.0-149.0,jspsych/neutralFaces/BM05NES.JPG,"""",null,100,25,backwardMask,"""","""",11/9/2020 6:31,69.125.145.27,"Mozilla/5.0 (Windows NT 10.0; Win64; x64) AppleWebKit/537.36 (KHTML, like Gecko) Chrome/86.0.4240.183 Safari/537.36",WebKit,Chrome,86.0.4240.183,Windows,10
34,1,null,"""",html-keyboard-response,150,92595,0.0-150.0,"<div style=""font-size:60px;"">+</div>","""",null,200,25,fixationBtwnNeutralMaskAndPrompt,"""","""",11/9/2020 6:31,69.125.145.27,"Mozilla/5.0 (Windows NT 10.0; Win64; x64) AppleWebKit/537.36 (KHTML, like Gecko) Chrome/86.0.4240.183 Safari/537.36",WebKit,Chrome,86.0.4240.183,Windows,10
34,1,234.735,"""",html-keyboard-response,151,92831,0.0-151.0,"<p> What was the emotion of the hidden face? <br> Press, <b>d</b> for <i>disgust face</i> or <b>n</b> for <i>neutral face</i></p>","""",78,"""",25,Query,"""",n,11/9/2020 6:31,69.125.145.27,"Mozilla/5.0 (Windows NT 10.0; Win64; x64) AppleWebKit/537.36 (KHTML, like Gecko) Chrome/86.0.4240.183 Safari/537.36",WebKit,Chrome,86.0.4240.183,Windows,10
34,1,null,"""",html-keyboard-response,152,93836,0.0-152.0,"<div style=""font-size:60px;"">+</div>","""",null,1000,26,ITI,"""","""",11/9/2020 6:31,69.125.145.27,"Mozilla/5.0 (Windows NT 10.0; Win64; x64) AppleWebKit/537.36 (KHTML, like Gecko) Chrome/86.0.4240.183 Safari/537.36",WebKit,Chrome,86.0.4240.183,Windows,10
34,1,null,"""",image-keyboard-response,153,94095,0.0-153.0,jspsych/scrambledDisgustFaces/scrambledAF07DIS.JPG,"""",null,250,26,forwardMask,d,"""",11/9/2020 6:31,69.125.145.27,"Mozilla/5.0 (Windows NT 10.0; Win64; x64) AppleWebKit/537.36 (KHTML, like Gecko) Chrome/86.0.4240.183 Safari/537.36",WebKit,Chrome,86.0.4240.183,Windows,10
34,1,null,"""",image-keyboard-response,154,94235,0.0-154.0,jspsych/disgustFaces/AF07DIS.JPG,"""",null,129,26,Cue,"""","""",11/9/2020 6:31,69.125.145.27,"Mozilla/5.0 (Windows NT 10.0; Win64; x64) AppleWebKit/537.36 (KHTML, like Gecko) Chrome/86.0.4240.183 Safari/537.36",WebKit,Chrome,86.0.4240.183,Windows,10
34,1,null,"""",image-keyboard-response,155,94345,0.0-155.0,jspsych/neutralFaces/BM22NES.JPG,"""",null,100,26,backwardMask,"""","""",11/9/2020 6:31,69.125.145.27,"Mozilla/5.0 (Windows NT 10.0; Win64; x64) AppleWebKit/537.36 (KHTML, like Gecko) Chrome/86.0.4240.183 Safari/537.36",WebKit,Chrome,86.0.4240.183,Windows,10
34,1,null,"""",html-keyboard-response,156,94552,0.0-156.0,"<div style=""font-size:60px;"">+</div>","""",null,200,26,fixationBtwnNeutralMaskAndPrompt,"""","""",11/9/2020 6:31,69.125.145.27,"Mozilla/5.0 (Windows NT 10.0; Win64; x64) AppleWebKit/537.36 (KHTML, like Gecko) Chrome/86.0.4240.183 Safari/537.36",WebKit,Chrome,86.0.4240.183,Windows,10
34,1,205.7,"""",html-keyboard-response,157,94759,0.0-157.0,"<p> What was the emotion of the hidden face? <br> Press, <b>d</b> for <i>disgust face</i> or <b>n</b> for <i>neutral face</i></p>","""",68,"""",26,Query,"""",d,11/9/2020 6:31,69.125.145.27,"Mozilla/5.0 (Windows NT 10.0; Win64; x64) AppleWebKit/537.36 (KHTML, like Gecko) Chrome/86.0.4240.183 Safari/537.36",WebKit,Chrome,86.0.4240.183,Windows,10
34,1,null,"""",html-keyboard-response,158,95760,0.0-158.0,"<div style=""font-size:60px;"">+</div>","""",null,1000,27,ITI,"""","""",11/9/2020 6:31,69.125.145.27,"Mozilla/5.0 (Windows NT 10.0; Win64; x64) AppleWebKit/537.36 (KHTML, like Gecko) Chrome/86.0.4240.183 Safari/537.36",WebKit,Chrome,86.0.4240.183,Windows,10
34,1,null,"""",image-keyboard-response,159,96014,0.0-159.0,jspsych/scrambledNeutralFaces/scrambledBM05NES.JPG,"""",null,250,27,forwardMask,n,"""",11/9/2020 6:31,69.125.145.27,"Mozilla/5.0 (Windows NT 10.0; Win64; x64) AppleWebKit/537.36 (KHTML, like Gecko) Chrome/86.0.4240.183 Safari/537.36",WebKit,Chrome,86.0.4240.183,Windows,10
34,1,null,"""",image-keyboard-response,160,96090,0.0-160.0,jspsych/neutralFaces/BM05NES.JPG,"""",null,67,27,Cue,"""","""",11/9/2020 6:31,69.125.145.27,"Mozilla/5.0 (Windows NT 10.0; Win64; x64) AppleWebKit/537.36 (KHTML, like Gecko) Chrome/86.0.4240.183 Safari/537.36",WebKit,Chrome,86.0.4240.183,Windows,10
34,1,null,"""",image-keyboard-response,161,96195,0.0-161.0,jspsych/neutralFaces/AM03NES.JPG,"""",null,100,27,backwardMask,"""","""",11/9/2020 6:31,69.125.145.27,"Mozilla/5.0 (Windows NT 10.0; Win64; x64) AppleWebKit/537.36 (KHTML, like Gecko) Chrome/86.0.4240.183 Safari/537.36",WebKit,Chrome,86.0.4240.183,Windows,10
34,1,null,"""",html-keyboard-response,162,96399,0.0-162.0,"<div style=""font-size:60px;"">+</div>","""",null,200,27,fixationBtwnNeutralMaskAndPrompt,"""","""",11/9/2020 6:31,69.125.145.27,"Mozilla/5.0 (Windows NT 10.0; Win64; x64) AppleWebKit/537.36 (KHTML, like Gecko) Chrome/86.0.4240.183 Safari/537.36",WebKit,Chrome,86.0.4240.183,Windows,10
34,1,248.345,"""",html-keyboard-response,163,96649,0.0-163.0,"<p> What was the emotion of the hidden face? <br> Press, <b>d</b> for <i>disgust face</i> or <b>n</b> for <i>neutral face</i></p>","""",78,"""",27,Query,"""",n,11/9/2020 6:31,69.125.145.27,"Mozilla/5.0 (Windows NT 10.0; Win64; x64) AppleWebKit/537.36 (KHTML, like Gecko) Chrome/86.0.4240.183 Safari/537.36",WebKit,Chrome,86.0.4240.183,Windows,10
34,1,null,"""",html-keyboard-response,164,97655,0.0-164.0,"<div style=""font-size:60px;"">+</div>","""",null,1000,28,ITI,"""","""",11/9/2020 6:31,69.125.145.27,"Mozilla/5.0 (Windows NT 10.0; Win64; x64) AppleWebKit/537.36 (KHTML, like Gecko) Chrome/86.0.4240.183 Safari/537.36",WebKit,Chrome,86.0.4240.183,Windows,10
34,1,null,"""",image-keyboard-response,165,97915,0.0-165.0,jspsych/scrambledNeutralFaces/scrambledAM17NES.JPG,"""",null,250,28,forwardMask,n,"""",11/9/2020 6:31,69.125.145.27,"Mozilla/5.0 (Windows NT 10.0; Win64; x64) AppleWebKit/537.36 (KHTML, like Gecko) Chrome/86.0.4240.183 Safari/537.36",WebKit,Chrome,86.0.4240.183,Windows,10
34,1,null,"""",image-keyboard-response,166,97945,0.0-166.0,jspsych/neutralFaces/AM17NES.JPG,"""",null,16,28,Cue,"""","""",11/9/2020 6:31,69.125.145.27,"Mozilla/5.0 (Windows NT 10.0; Win64; x64) AppleWebKit/537.36 (KHTML, like Gecko) Chrome/86.0.4240.183 Safari/537.36",WebKit,Chrome,86.0.4240.183,Windows,10
34,1,null,"""",image-keyboard-response,167,98048,0.0-167.0,jspsych/neutralFaces/AF33NES.JPG,"""",null,100,28,backwardMask,"""","""",11/9/2020 6:31,69.125.145.27,"Mozilla/5.0 (Windows NT 10.0; Win64; x64) AppleWebKit/537.36 (KHTML, like Gecko) Chrome/86.0.4240.183 Safari/537.36",WebKit,Chrome,86.0.4240.183,Windows,10
34,1,null,"""",html-keyboard-response,168,98255,0.0-168.0,"<div style=""font-size:60px;"">+</div>","""",null,200,28,fixationBtwnNeutralMaskAndPrompt,"""","""",11/9/2020 6:31,69.125.145.27,"Mozilla/5.0 (Windows NT 10.0; Win64; x64) AppleWebKit/537.36 (KHTML, like Gecko) Chrome/86.0.4240.183 Safari/537.36",WebKit,Chrome,86.0.4240.183,Windows,10
34,1,309.23,"""",html-keyboard-response,169,98565,0.0-169.0,"<p> What was the emotion of the hidden face? <br> Press, <b>d</b> for <i>disgust face</i> or <b>n</b> for <i>neutral face</i></p>","""",78,"""",28,Query,"""",n,11/9/2020 6:31,69.125.145.27,"Mozilla/5.0 (Windows NT 10.0; Win64; x64) AppleWebKit/537.36 (KHTML, like Gecko) Chrome/86.0.4240.183 Safari/537.36",WebKit,Chrome,86.0.4240.183,Windows,10
34,1,null,"""",html-keyboard-response,170,99574,0.0-170.0,"<div style=""font-size:60px;"">+</div>","""",null,1000,29,ITI,"""","""",11/9/2020 6:31,69.125.145.27,"Mozilla/5.0 (Windows NT 10.0; Win64; x64) AppleWebKit/537.36 (KHTML, like Gecko) Chrome/86.0.4240.183 Safari/537.36",WebKit,Chrome,86.0.4240.183,Windows,10
34,1,null,"""",image-keyboard-response,171,99834,0.0-171.0,jspsych/scrambledDisgustFaces/scrambledBM02DIS.JPG,"""",null,250,29,forwardMask,d,"""",11/9/2020 6:31,69.125.145.27,"Mozilla/5.0 (Windows NT 10.0; Win64; x64) AppleWebKit/537.36 (KHTML, like Gecko) Chrome/86.0.4240.183 Safari/537.36",WebKit,Chrome,86.0.4240.183,Windows,10
34,1,null,"""",image-keyboard-response,172,99863,0.0-172.0,jspsych/disgustFaces/BM02DIS.JPG,"""",null,16,29,Cue,"""","""",11/9/2020 6:31,69.125.145.27,"Mozilla/5.0 (Windows NT 10.0; Win64; x64) AppleWebKit/537.36 (KHTML, like Gecko) Chrome/86.0.4240.183 Safari/537.36",WebKit,Chrome,86.0.4240.183,Windows,10
34,1,null,"""",image-keyboard-response,173,99974,0.0-173.0,jspsych/neutralFaces/BM12NES.JPG,"""",null,100,29,backwardMask,"""","""",11/9/2020 6:31,69.125.145.27,"Mozilla/5.0 (Windows NT 10.0; Win64; x64) AppleWebKit/537.36 (KHTML, like Gecko) Chrome/86.0.4240.183 Safari/537.36",WebKit,Chrome,86.0.4240.183,Windows,10
34,1,null,"""",html-keyboard-response,174,100185,0.0-174.0,"<div style=""font-size:60px;"">+</div>","""",null,200,29,fixationBtwnNeutralMaskAndPrompt,"""","""",11/9/2020 6:31,69.125.145.27,"Mozilla/5.0 (Windows NT 10.0; Win64; x64) AppleWebKit/537.36 (KHTML, like Gecko) Chrome/86.0.4240.183 Safari/537.36",WebKit,Chrome,86.0.4240.183,Windows,10
34,1,372.565,"""",html-keyboard-response,175,100559,0.0-175.0,"<p> What was the emotion of the hidden face? <br> Press, <b>d</b> for <i>disgust face</i> or <b>n</b> for <i>neutral face</i></p>","""",78,"""",29,Query,"""",n,11/9/2020 6:31,69.125.145.27,"Mozilla/5.0 (Windows NT 10.0; Win64; x64) AppleWebKit/537.36 (KHTML, like Gecko) Chrome/86.0.4240.183 Safari/537.36",WebKit,Chrome,86.0.4240.183,Windows,10
34,1,null,"""",html-keyboard-response,176,101564,0.0-176.0,"<div style=""font-size:60px;"">+</div>","""",null,1000,30,ITI,"""","""",11/9/2020 6:31,69.125.145.27,"Mozilla/5.0 (Windows NT 10.0; Win64; x64) AppleWebKit/537.36 (KHTML, like Gecko) Chrome/86.0.4240.183 Safari/537.36",WebKit,Chrome,86.0.4240.183,Windows,10
34,1,null,"""",image-keyboard-response,177,101825,0.0-177.0,jspsych/scrambledDisgustFaces/scrambledAM27DIS.JPG,"""",null,250,30,forwardMask,d,"""",11/9/2020 6:31,69.125.145.27,"Mozilla/5.0 (Windows NT 10.0; Win64; x64) AppleWebKit/537.36 (KHTML, like Gecko) Chrome/86.0.4240.183 Safari/537.36",WebKit,Chrome,86.0.4240.183,Windows,10
34,1,null,"""",image-keyboard-response,178,101844,0.0-178.0,jspsych/disgustFaces/AM27DIS.JPG,"""",null,16,30,Cue,"""","""",11/9/2020 6:31,69.125.145.27,"Mozilla/5.0 (Windows NT 10.0; Win64; x64) AppleWebKit/537.36 (KHTML, like Gecko) Chrome/86.0.4240.183 Safari/537.36",WebKit,Chrome,86.0.4240.183,Windows,10
34,1,null,"""",image-keyboard-response,179,101955,0.0-179.0,jspsych/neutralFaces/BF21NES.JPG,"""",null,100,30,backwardMask,"""","""",11/9/2020 6:31,69.125.145.27,"Mozilla/5.0 (Windows NT 10.0; Win64; x64) AppleWebKit/537.36 (KHTML, like Gecko) Chrome/86.0.4240.183 Safari/537.36",WebKit,Chrome,86.0.4240.183,Windows,10
34,1,null,"""",html-keyboard-response,180,102165,0.0-180.0,"<div style=""font-size:60px;"">+</div>","""",null,200,30,fixationBtwnNeutralMaskAndPrompt,"""","""",11/9/2020 6:31,69.125.145.27,"Mozilla/5.0 (Windows NT 10.0; Win64; x64) AppleWebKit/537.36 (KHTML, like Gecko) Chrome/86.0.4240.183 Safari/537.36",WebKit,Chrome,86.0.4240.183,Windows,10
34,1,405.65,"""",html-keyboard-response,181,102572,0.0-181.0,"<p> What was the emotion of the hidden face? <br> Press, <b>d</b> for <i>disgust face</i> or <b>n</b> for <i>neutral face</i></p>","""",78,"""",30,Query,"""",n,11/9/2020 6:31,69.125.145.27,"Mozilla/5.0 (Windows NT 10.0; Win64; x64) AppleWebKit/537.36 (KHTML, like Gecko) Chrome/86.0.4240.183 Safari/537.36",WebKit,Chrome,86.0.4240.183,Windows,10
34,1,null,"""",html-keyboard-response,182,103585,0.0-182.0,"<div style=""font-size:60px;"">+</div>","""",null,1000,31,ITI,"""","""",11/9/2020 6:31,69.125.145.27,"Mozilla/5.0 (Windows NT 10.0; Win64; x64) AppleWebKit/537.36 (KHTML, like Gecko) Chrome/86.0.4240.183 Safari/537.36",WebKit,Chrome,86.0.4240.183,Windows,10
34,1,null,"""",image-keyboard-response,183,103843,0.0-183.0,jspsych/scrambledNeutralFaces/scrambledBF18NES.JPG,"""",null,250,31,forwardMask,n,"""",11/9/2020 6:31,69.125.145.27,"Mozilla/5.0 (Windows NT 10.0; Win64; x64) AppleWebKit/537.36 (KHTML, like Gecko) Chrome/86.0.4240.183 Safari/537.36",WebKit,Chrome,86.0.4240.183,Windows,10
34,1,null,"""",image-keyboard-response,184,103874,0.0-184.0,jspsych/neutralFaces/BF18NES.JPG,"""",null,16,31,Cue,"""","""",11/9/2020 6:31,69.125.145.27,"Mozilla/5.0 (Windows NT 10.0; Win64; x64) AppleWebKit/537.36 (KHTML, like Gecko) Chrome/86.0.4240.183 Safari/537.36",WebKit,Chrome,86.0.4240.183,Windows,10
34,1,null,"""",image-keyboard-response,185,103984,0.0-185.0,jspsych/neutralFaces/AM15NES.JPG,"""",null,100,31,backwardMask,"""","""",11/9/2020 6:31,69.125.145.27,"Mozilla/5.0 (Windows NT 10.0; Win64; x64) AppleWebKit/537.36 (KHTML, like Gecko) Chrome/86.0.4240.183 Safari/537.36",WebKit,Chrome,86.0.4240.183,Windows,10
34,1,null,"""",html-keyboard-response,186,104193,0.0-186.0,"<div style=""font-size:60px;"">+</div>","""",null,200,31,fixationBtwnNeutralMaskAndPrompt,"""","""",11/9/2020 6:31,69.125.145.27,"Mozilla/5.0 (Windows NT 10.0; Win64; x64) AppleWebKit/537.36 (KHTML, like Gecko) Chrome/86.0.4240.183 Safari/537.36",WebKit,Chrome,86.0.4240.183,Windows,10
34,1,397.045,"""",html-keyboard-response,187,104591,0.0-187.0,"<p> What was the emotion of the hidden face? <br> Press, <b>d</b> for <i>disgust face</i> or <b>n</b> for <i>neutral face</i></p>","""",78,"""",31,Query,"""",n,11/9/2020 6:31,69.125.145.27,"Mozilla/5.0 (Windows NT 10.0; Win64; x64) AppleWebKit/537.36 (KHTML, like Gecko) Chrome/86.0.4240.183 Safari/537.36",WebKit,Chrome,86.0.4240.183,Windows,10
34,1,null,"""",html-keyboard-response,188,105594,0.0-188.0,"<div style=""font-size:60px;"">+</div>","""",null,1000,32,ITI,"""","""",11/9/2020 6:31,69.125.145.27,"Mozilla/5.0 (Windows NT 10.0; Win64; x64) AppleWebKit/537.36 (KHTML, like Gecko) Chrome/86.0.4240.183 Safari/537.36",WebKit,Chrome,86.0.4240.183,Windows,10
34,1,null,"""",image-keyboard-response,189,105853,0.0-189.0,jspsych/scrambledDisgustFaces/scrambledBM22DIS.JPG,"""",null,250,32,forwardMask,d,"""",11/9/2020 6:31,69.125.145.27,"Mozilla/5.0 (Windows NT 10.0; Win64; x64) AppleWebKit/537.36 (KHTML, like Gecko) Chrome/86.0.4240.183 Safari/537.36",WebKit,Chrome,86.0.4240.183,Windows,10
34,1,null,"""",image-keyboard-response,190,105874,0.0-190.0,jspsych/disgustFaces/BM22DIS.JPG,"""",null,16,32,Cue,"""","""",11/9/2020 6:31,69.125.145.27,"Mozilla/5.0 (Windows NT 10.0; Win64; x64) AppleWebKit/537.36 (KHTML, like Gecko) Chrome/86.0.4240.183 Safari/537.36",WebKit,Chrome,86.0.4240.183,Windows,10
34,1,null,"""",image-keyboard-response,191,105981,0.0-191.0,jspsych/neutralFaces/AM11NES.JPG,"""",null,100,32,backwardMask,"""","""",11/9/2020 6:31,69.125.145.27,"Mozilla/5.0 (Windows NT 10.0; Win64; x64) AppleWebKit/537.36 (KHTML, like Gecko) Chrome/86.0.4240.183 Safari/537.36",WebKit,Chrome,86.0.4240.183,Windows,10
34,1,null,"""",html-keyboard-response,192,106184,0.0-192.0,"<div style=""font-size:60px;"">+</div>","""",null,200,32,fixationBtwnNeutralMaskAndPrompt,"""","""",11/9/2020 6:31,69.125.145.27,"Mozilla/5.0 (Windows NT 10.0; Win64; x64) AppleWebKit/537.36 (KHTML, like Gecko) Chrome/86.0.4240.183 Safari/537.36",WebKit,Chrome,86.0.4240.183,Windows,10
34,1,235.515,"""",html-keyboard-response,193,106421,0.0-193.0,"<p> What was the emotion of the hidden face? <br> Press, <b>d</b> for <i>disgust face</i> or <b>n</b> for <i>neutral face</i></p>","""",78,"""",32,Query,"""",n,11/9/2020 6:31,69.125.145.27,"Mozilla/5.0 (Windows NT 10.0; Win64; x64) AppleWebKit/537.36 (KHTML, like Gecko) Chrome/86.0.4240.183 Safari/537.36",WebKit,Chrome,86.0.4240.183,Windows,10
34,1,null,"""",html-keyboard-response,194,107434,0.0-194.0,"<div style=""font-size:60px;"">+</div>","""",null,1000,33,ITI,"""","""",11/9/2020 6:31,69.125.145.27,"Mozilla/5.0 (Windows NT 10.0; Win64; x64) AppleWebKit/537.36 (KHTML, like Gecko) Chrome/86.0.4240.183 Safari/537.36",WebKit,Chrome,86.0.4240.183,Windows,10
34,1,null,"""",image-keyboard-response,195,107692,0.0-195.0,jspsych/scrambledNeutralFaces/scrambledBM28NES.JPG,"""",null,250,33,forwardMask,n,"""",11/9/2020 6:31,69.125.145.27,"Mozilla/5.0 (Windows NT 10.0; Win64; x64) AppleWebKit/537.36 (KHTML, like Gecko) Chrome/86.0.4240.183 Safari/537.36",WebKit,Chrome,86.0.4240.183,Windows,10
34,1,null,"""",image-keyboard-response,196,107829,0.0-196.0,jspsych/neutralFaces/BM28NES.JPG,"""",null,129,33,Cue,"""","""",11/9/2020 6:31,69.125.145.27,"Mozilla/5.0 (Windows NT 10.0; Win64; x64) AppleWebKit/537.36 (KHTML, like Gecko) Chrome/86.0.4240.183 Safari/537.36",WebKit,Chrome,86.0.4240.183,Windows,10
34,1,null,"""",image-keyboard-response,197,107934,0.0-197.0,jspsych/neutralFaces/AF30NES.JPG,"""",null,100,33,backwardMask,"""","""",11/9/2020 6:31,69.125.145.27,"Mozilla/5.0 (Windows NT 10.0; Win64; x64) AppleWebKit/537.36 (KHTML, like Gecko) Chrome/86.0.4240.183 Safari/537.36",WebKit,Chrome,86.0.4240.183,Windows,10
34,1,null,"""",html-keyboard-response,198,108145,0.0-198.0,"<div style=""font-size:60px;"">+</div>","""",null,200,33,fixationBtwnNeutralMaskAndPrompt,"""","""",11/9/2020 6:31,69.125.145.27,"Mozilla/5.0 (Windows NT 10.0; Win64; x64) AppleWebKit/537.36 (KHTML, like Gecko) Chrome/86.0.4240.183 Safari/537.36",WebKit,Chrome,86.0.4240.183,Windows,10
34,1,229.955,"""",html-keyboard-response,199,108376,0.0-199.0,"<p> What was the emotion of the hidden face? <br> Press, <b>d</b> for <i>disgust face</i> or <b>n</b> for <i>neutral face</i></p>","""",78,"""",33,Query,"""",n,11/9/2020 6:31,69.125.145.27,"Mozilla/5.0 (Windows NT 10.0; Win64; x64) AppleWebKit/537.36 (KHTML, like Gecko) Chrome/86.0.4240.183 Safari/537.36",WebKit,Chrome,86.0.4240.183,Windows,10
34,1,null,"""",html-keyboard-response,200,109384,0.0-200.0,"<div style=""font-size:60px;"">+</div>","""",null,1000,34,ITI,"""","""",11/9/2020 6:31,69.125.145.27,"Mozilla/5.0 (Windows NT 10.0; Win64; x64) AppleWebKit/537.36 (KHTML, like Gecko) Chrome/86.0.4240.183 Safari/537.36",WebKit,Chrome,86.0.4240.183,Windows,10
34,1,null,"""",image-keyboard-response,201,109641,0.0-201.0,jspsych/scrambledDisgustFaces/scrambledAF03DIS.JPG,"""",null,250,34,forwardMask,d,"""",11/9/2020 6:31,69.125.145.27,"Mozilla/5.0 (Windows NT 10.0; Win64; x64) AppleWebKit/537.36 (KHTML, like Gecko) Chrome/86.0.4240.183 Safari/537.36",WebKit,Chrome,86.0.4240.183,Windows,10
34,1,null,"""",image-keyboard-response,202,109664,0.0-202.0,jspsych/disgustFaces/AF03DIS.JPG,"""",null,16,34,Cue,"""","""",11/9/2020 6:31,69.125.145.27,"Mozilla/5.0 (Windows NT 10.0; Win64; x64) AppleWebKit/537.36 (KHTML, like Gecko) Chrome/86.0.4240.183 Safari/537.36",WebKit,Chrome,86.0.4240.183,Windows,10
34,1,null,"""",image-keyboard-response,203,109775,0.0-203.0,jspsych/neutralFaces/BM10NES.JPG,"""",null,100,34,backwardMask,"""","""",11/9/2020 6:31,69.125.145.27,"Mozilla/5.0 (Windows NT 10.0; Win64; x64) AppleWebKit/537.36 (KHTML, like Gecko) Chrome/86.0.4240.183 Safari/537.36",WebKit,Chrome,86.0.4240.183,Windows,10
34,1,null,"""",html-keyboard-response,204,109984,0.0-204.0,"<div style=""font-size:60px;"">+</div>","""",null,200,34,fixationBtwnNeutralMaskAndPrompt,"""","""",11/9/2020 6:31,69.125.145.27,"Mozilla/5.0 (Windows NT 10.0; Win64; x64) AppleWebKit/537.36 (KHTML, like Gecko) Chrome/86.0.4240.183 Safari/537.36",WebKit,Chrome,86.0.4240.183,Windows,10
34,1,262.845,"""",html-keyboard-response,205,110248,0.0-205.0,"<p> What was the emotion of the hidden face? <br> Press, <b>d</b> for <i>disgust face</i> or <b>n</b> for <i>neutral face</i></p>","""",78,"""",34,Query,"""",n,11/9/2020 6:31,69.125.145.27,"Mozilla/5.0 (Windows NT 10.0; Win64; x64) AppleWebKit/537.36 (KHTML, like Gecko) Chrome/86.0.4240.183 Safari/537.36",WebKit,Chrome,86.0.4240.183,Windows,10
34,1,null,"""",html-keyboard-response,206,111254,0.0-206.0,"<div style=""font-size:60px;"">+</div>","""",null,1000,35,ITI,"""","""",11/9/2020 6:31,69.125.145.27,"Mozilla/5.0 (Windows NT 10.0; Win64; x64) AppleWebKit/537.36 (KHTML, like Gecko) Chrome/86.0.4240.183 Safari/537.36",WebKit,Chrome,86.0.4240.183,Windows,10
34,1,null,"""",image-keyboard-response,207,111510,0.0-207.0,jspsych/scrambledDisgustFaces/scrambledBF04DIS.JPG,"""",null,250,35,forwardMask,d,"""",11/9/2020 6:31,69.125.145.27,"Mozilla/5.0 (Windows NT 10.0; Win64; x64) AppleWebKit/537.36 (KHTML, like Gecko) Chrome/86.0.4240.183 Safari/537.36",WebKit,Chrome,86.0.4240.183,Windows,10
34,1,null,"""",image-keyboard-response,208,111645,0.0-208.0,jspsych/disgustFaces/BF04DIS.JPG,"""",null,129,35,Cue,"""","""",11/9/2020 6:31,69.125.145.27,"Mozilla/5.0 (Windows NT 10.0; Win64; x64) AppleWebKit/537.36 (KHTML, like Gecko) Chrome/86.0.4240.183 Safari/537.36",WebKit,Chrome,86.0.4240.183,Windows,10
34,1,null,"""",image-keyboard-response,209,111755,0.0-209.0,jspsych/neutralFaces/BM05NES.JPG,"""",null,100,35,backwardMask,"""","""",11/9/2020 6:31,69.125.145.27,"Mozilla/5.0 (Windows NT 10.0; Win64; x64) AppleWebKit/537.36 (KHTML, like Gecko) Chrome/86.0.4240.183 Safari/537.36",WebKit,Chrome,86.0.4240.183,Windows,10
34,1,null,"""",html-keyboard-response,210,111964,0.0-210.0,"<div style=""font-size:60px;"">+</div>","""",null,200,35,fixationBtwnNeutralMaskAndPrompt,"""","""",11/9/2020 6:31,69.125.145.27,"Mozilla/5.0 (Windows NT 10.0; Win64; x64) AppleWebKit/537.36 (KHTML, like Gecko) Chrome/86.0.4240.183 Safari/537.36",WebKit,Chrome,86.0.4240.183,Windows,10
34,1,194.085,"""",html-keyboard-response,211,112160,0.0-211.0,"<p> What was the emotion of the hidden face? <br> Press, <b>d</b> for <i>disgust face</i> or <b>n</b> for <i>neutral face</i></p>","""",68,"""",35,Query,"""",d,11/9/2020 6:31,69.125.145.27,"Mozilla/5.0 (Windows NT 10.0; Win64; x64) AppleWebKit/537.36 (KHTML, like Gecko) Chrome/86.0.4240.183 Safari/537.36",WebKit,Chrome,86.0.4240.183,Windows,10
34,1,null,"""",html-keyboard-response,212,113164,0.0-212.0,"<div style=""font-size:60px;"">+</div>","""",null,1000,36,ITI,"""","""",11/9/2020 6:31,69.125.145.27,"Mozilla/5.0 (Windows NT 10.0; Win64; x64) AppleWebKit/537.36 (KHTML, like Gecko) Chrome/86.0.4240.183 Safari/537.36",WebKit,Chrome,86.0.4240.183,Windows,10
34,1,null,"""",image-keyboard-response,213,113424,0.0-213.0,jspsych/scrambledDisgustFaces/scrambledBF31DIS.JPG,"""",null,250,36,forwardMask,d,"""",11/9/2020 6:31,69.125.145.27,"Mozilla/5.0 (Windows NT 10.0; Win64; x64) AppleWebKit/537.36 (KHTML, like Gecko) Chrome/86.0.4240.183 Safari/537.36",WebKit,Chrome,86.0.4240.183,Windows,10
34,1,null,"""",image-keyboard-response,214,113444,0.0-214.0,jspsych/disgustFaces/BF31DIS.JPG,"""",null,16,36,Cue,"""","""",11/9/2020 6:31,69.125.145.27,"Mozilla/5.0 (Windows NT 10.0; Win64; x64) AppleWebKit/537.36 (KHTML, like Gecko) Chrome/86.0.4240.183 Safari/537.36",WebKit,Chrome,86.0.4240.183,Windows,10
34,1,null,"""",image-keyboard-response,215,113554,0.0-215.0,jspsych/neutralFaces/BM33NES.JPG,"""",null,100,36,backwardMask,"""","""",11/9/2020 6:31,69.125.145.27,"Mozilla/5.0 (Windows NT 10.0; Win64; x64) AppleWebKit/537.36 (KHTML, like Gecko) Chrome/86.0.4240.183 Safari/537.36",WebKit,Chrome,86.0.4240.183,Windows,10
34,1,null,"""",html-keyboard-response,216,113764,0.0-216.0,"<div style=""font-size:60px;"">+</div>","""",null,200,36,fixationBtwnNeutralMaskAndPrompt,"""","""",11/9/2020 6:31,69.125.145.27,"Mozilla/5.0 (Windows NT 10.0; Win64; x64) AppleWebKit/537.36 (KHTML, like Gecko) Chrome/86.0.4240.183 Safari/537.36",WebKit,Chrome,86.0.4240.183,Windows,10
34,1,279.395,"""",html-keyboard-response,217,114046,0.0-217.0,"<p> What was the emotion of the hidden face? <br> Press, <b>d</b> for <i>disgust face</i> or <b>n</b> for <i>neutral face</i></p>","""",78,"""",36,Query,"""",n,11/9/2020 6:31,69.125.145.27,"Mozilla/5.0 (Windows NT 10.0; Win64; x64) AppleWebKit/537.36 (KHTML, like Gecko) Chrome/86.0.4240.183 Safari/537.36",WebKit,Chrome,86.0.4240.183,Windows,10
34,1,null,"""",html-keyboard-response,218,115055,0.0-218.0,"<div style=""font-size:60px;"">+</div>","""",null,1000,37,ITI,"""","""",11/9/2020 6:31,69.125.145.27,"Mozilla/5.0 (Windows NT 10.0; Win64; x64) AppleWebKit/537.36 (KHTML, like Gecko) Chrome/86.0.4240.183 Safari/537.36",WebKit,Chrome,86.0.4240.183,Windows,10
34,1,null,"""",image-keyboard-response,219,115315,0.0-219.0,jspsych/scrambledDisgustFaces/scrambledAF11DIS.JPG,"""",null,250,37,forwardMask,d,"""",11/9/2020 6:31,69.125.145.27,"Mozilla/5.0 (Windows NT 10.0; Win64; x64) AppleWebKit/537.36 (KHTML, like Gecko) Chrome/86.0.4240.183 Safari/537.36",WebKit,Chrome,86.0.4240.183,Windows,10
34,1,null,"""",image-keyboard-response,220,115394,0.0-220.0,jspsych/disgustFaces/AF11DIS.JPG,"""",null,67,37,Cue,"""","""",11/9/2020 6:31,69.125.145.27,"Mozilla/5.0 (Windows NT 10.0; Win64; x64) AppleWebKit/537.36 (KHTML, like Gecko) Chrome/86.0.4240.183 Safari/537.36",WebKit,Chrome,86.0.4240.183,Windows,10
34,1,null,"""",image-keyboard-response,221,115504,0.0-221.0,jspsych/neutralFaces/AF33NES.JPG,"""",null,100,37,backwardMask,"""","""",11/9/2020 6:31,69.125.145.27,"Mozilla/5.0 (Windows NT 10.0; Win64; x64) AppleWebKit/537.36 (KHTML, like Gecko) Chrome/86.0.4240.183 Safari/537.36",WebKit,Chrome,86.0.4240.183,Windows,10
34,1,null,"""",html-keyboard-response,222,115711,0.0-222.0,"<div style=""font-size:60px;"">+</div>","""",null,200,37,fixationBtwnNeutralMaskAndPrompt,"""","""",11/9/2020 6:31,69.125.145.27,"Mozilla/5.0 (Windows NT 10.0; Win64; x64) AppleWebKit/537.36 (KHTML, like Gecko) Chrome/86.0.4240.183 Safari/537.36",WebKit,Chrome,86.0.4240.183,Windows,10
34,1,384.13,"""",html-keyboard-response,223,116096,0.0-223.0,"<p> What was the emotion of the hidden face? <br> Press, <b>d</b> for <i>disgust face</i> or <b>n</b> for <i>neutral face</i></p>","""",68,"""",37,Query,"""",d,11/9/2020 6:31,69.125.145.27,"Mozilla/5.0 (Windows NT 10.0; Win64; x64) AppleWebKit/537.36 (KHTML, like Gecko) Chrome/86.0.4240.183 Safari/537.36",WebKit,Chrome,86.0.4240.183,Windows,10
34,1,null,"""",html-keyboard-response,224,117105,0.0-224.0,"<div style=""font-size:60px;"">+</div>","""",null,1000,38,ITI,"""","""",11/9/2020 6:31,69.125.145.27,"Mozilla/5.0 (Windows NT 10.0; Win64; x64) AppleWebKit/537.36 (KHTML, like Gecko) Chrome/86.0.4240.183 Safari/537.36",WebKit,Chrome,86.0.4240.183,Windows,10
34,1,null,"""",image-keyboard-response,225,117362,0.0-225.0,jspsych/scrambledDisgustFaces/scrambledBF05DIS.JPG,"""",null,250,38,forwardMask,d,"""",11/9/2020 6:31,69.125.145.27,"Mozilla/5.0 (Windows NT 10.0; Win64; x64) AppleWebKit/537.36 (KHTML, like Gecko) Chrome/86.0.4240.183 Safari/537.36",WebKit,Chrome,86.0.4240.183,Windows,10
34,1,null,"""",image-keyboard-response,226,117385,0.0-226.0,jspsych/disgustFaces/BF05DIS.JPG,"""",null,16,38,Cue,"""","""",11/9/2020 6:31,69.125.145.27,"Mozilla/5.0 (Windows NT 10.0; Win64; x64) AppleWebKit/537.36 (KHTML, like Gecko) Chrome/86.0.4240.183 Safari/537.36",WebKit,Chrome,86.0.4240.183,Windows,10
34,1,null,"""",image-keyboard-response,227,117495,0.0-227.0,jspsych/neutralFaces/BF08NES.JPG,"""",null,100,38,backwardMask,"""","""",11/9/2020 6:31,69.125.145.27,"Mozilla/5.0 (Windows NT 10.0; Win64; x64) AppleWebKit/537.36 (KHTML, like Gecko) Chrome/86.0.4240.183 Safari/537.36",WebKit,Chrome,86.0.4240.183,Windows,10
34,1,null,"""",html-keyboard-response,228,117704,0.0-228.0,"<div style=""font-size:60px;"">+</div>","""",null,200,38,fixationBtwnNeutralMaskAndPrompt,"""","""",11/9/2020 6:31,69.125.145.27,"Mozilla/5.0 (Windows NT 10.0; Win64; x64) AppleWebKit/537.36 (KHTML, like Gecko) Chrome/86.0.4240.183 Safari/537.36",WebKit,Chrome,86.0.4240.183,Windows,10
34,1,282.255,"""",html-keyboard-response,229,117987,0.0-229.0,"<p> What was the emotion of the hidden face? <br> Press, <b>d</b> for <i>disgust face</i> or <b>n</b> for <i>neutral face</i></p>","""",78,"""",38,Query,"""",n,11/9/2020 6:31,69.125.145.27,"Mozilla/5.0 (Windows NT 10.0; Win64; x64) AppleWebKit/537.36 (KHTML, like Gecko) Chrome/86.0.4240.183 Safari/537.36",WebKit,Chrome,86.0.4240.183,Windows,10
34,1,null,"""",html-keyboard-response,230,118993,0.0-230.0,"<div style=""font-size:60px;"">+</div>","""",null,1000,39,ITI,"""","""",11/9/2020 6:31,69.125.145.27,"Mozilla/5.0 (Windows NT 10.0; Win64; x64) AppleWebKit/537.36 (KHTML, like Gecko) Chrome/86.0.4240.183 Safari/537.36",WebKit,Chrome,86.0.4240.183,Windows,10
34,1,null,"""",image-keyboard-response,231,119254,0.0-231.0,jspsych/scrambledNeutralFaces/scrambledAF17NES.JPG,"""",null,250,39,forwardMask,n,"""",11/9/2020 6:31,69.125.145.27,"Mozilla/5.0 (Windows NT 10.0; Win64; x64) AppleWebKit/537.36 (KHTML, like Gecko) Chrome/86.0.4240.183 Safari/537.36",WebKit,Chrome,86.0.4240.183,Windows,10
34,1,null,"""",image-keyboard-response,232,119324,0.0-232.0,jspsych/neutralFaces/AF17NES.JPG,"""",null,67,39,Cue,"""","""",11/9/2020 6:31,69.125.145.27,"Mozilla/5.0 (Windows NT 10.0; Win64; x64) AppleWebKit/537.36 (KHTML, like Gecko) Chrome/86.0.4240.183 Safari/537.36",WebKit,Chrome,86.0.4240.183,Windows,10
34,1,null,"""",image-keyboard-response,233,119434,0.0-233.0,jspsych/neutralFaces/AF23NES.JPG,"""",null,100,39,backwardMask,"""","""",11/9/2020 6:31,69.125.145.27,"Mozilla/5.0 (Windows NT 10.0; Win64; x64) AppleWebKit/537.36 (KHTML, like Gecko) Chrome/86.0.4240.183 Safari/537.36",WebKit,Chrome,86.0.4240.183,Windows,10
34,1,null,"""",html-keyboard-response,234,119643,0.0-234.0,"<div style=""font-size:60px;"">+</div>","""",null,200,39,fixationBtwnNeutralMaskAndPrompt,"""","""",11/9/2020 6:31,69.125.145.27,"Mozilla/5.0 (Windows NT 10.0; Win64; x64) AppleWebKit/537.36 (KHTML, like Gecko) Chrome/86.0.4240.183 Safari/537.36",WebKit,Chrome,86.0.4240.183,Windows,10
34,1,258.205,"""",html-keyboard-response,235,119902,0.0-235.0,"<p> What was the emotion of the hidden face? <br> Press, <b>d</b> for <i>disgust face</i> or <b>n</b> for <i>neutral face</i></p>","""",78,"""",39,Query,"""",n,11/9/2020 6:31,69.125.145.27,"Mozilla/5.0 (Windows NT 10.0; Win64; x64) AppleWebKit/537.36 (KHTML, like Gecko) Chrome/86.0.4240.183 Safari/537.36",WebKit,Chrome,86.0.4240.183,Windows,10
34,1,null,"""",html-keyboard-response,236,120907,0.0-236.0,"<div style=""font-size:60px;"">+</div>","""",null,1000,40,ITI,"""","""",11/9/2020 6:31,69.125.145.27,"Mozilla/5.0 (Windows NT 10.0; Win64; x64) AppleWebKit/537.36 (KHTML, like Gecko) Chrome/86.0.4240.183 Safari/537.36",WebKit,Chrome,86.0.4240.183,Windows,10
34,1,null,"""",image-keyboard-response,237,121163,0.0-237.0,jspsych/scrambledNeutralFaces/scrambledAM35NES.JPG,"""",null,250,40,forwardMask,n,"""",11/9/2020 6:31,69.125.145.27,"Mozilla/5.0 (Windows NT 10.0; Win64; x64) AppleWebKit/537.36 (KHTML, like Gecko) Chrome/86.0.4240.183 Safari/537.36",WebKit,Chrome,86.0.4240.183,Windows,10
34,1,null,"""",image-keyboard-response,238,121235,0.0-238.0,jspsych/neutralFaces/AM35NES.JPG,"""",null,67,40,Cue,"""","""",11/9/2020 6:31,69.125.145.27,"Mozilla/5.0 (Windows NT 10.0; Win64; x64) AppleWebKit/537.36 (KHTML, like Gecko) Chrome/86.0.4240.183 Safari/537.36",WebKit,Chrome,86.0.4240.183,Windows,10
34,1,null,"""",image-keyboard-response,239,121338,0.0-239.0,jspsych/neutralFaces/BM12NES.JPG,"""",null,100,40,backwardMask,"""","""",11/9/2020 6:31,69.125.145.27,"Mozilla/5.0 (Windows NT 10.0; Win64; x64) AppleWebKit/537.36 (KHTML, like Gecko) Chrome/86.0.4240.183 Safari/537.36",WebKit,Chrome,86.0.4240.183,Windows,10
34,1,null,"""",html-keyboard-response,240,121541,0.0-240.0,"<div style=""font-size:60px;"">+</div>","""",null,200,40,fixationBtwnNeutralMaskAndPrompt,"""","""",11/9/2020 6:31,69.125.145.27,"Mozilla/5.0 (Windows NT 10.0; Win64; x64) AppleWebKit/537.36 (KHTML, like Gecko) Chrome/86.0.4240.183 Safari/537.36",WebKit,Chrome,86.0.4240.183,Windows,10
34,1,180.635,"""",html-keyboard-response,241,121723,0.0-241.0,"<p> What was the emotion of the hidden face? <br> Press, <b>d</b> for <i>disgust face</i> or <b>n</b> for <i>neutral face</i></p>","""",68,"""",40,Query,"""",d,11/9/2020 6:31,69.125.145.27,"Mozilla/5.0 (Windows NT 10.0; Win64; x64) AppleWebKit/537.36 (KHTML, like Gecko) Chrome/86.0.4240.183 Safari/537.36",WebKit,Chrome,86.0.4240.183,Windows,10
34,1,10535.13,"""",html-button-response,242,132266,0.0-242.0,Thank you for completing the task! survey/experiment code: 54123,0,"""","""",40,debrief,"""","""",11/9/2020 6:31,69.125.145.27,"Mozilla/5.0 (Windows NT 10.0; Win64; x64) AppleWebKit/537.36 (KHTML, like Gecko) Chrome/86.0.4240.183 Safari/537.36",WebKit,Chrome,86.0.4240.183,Windows,10
