run_id,condition,rt,responses,trial_type,trial_index,time_elapsed,internal_node_id,stimulus,key_press,StimulusDurationSetting,iTrial,Phase,correctResponse,CharacterResponse,recorded_at,ip,user_agent,device,browser,browser_version,platform,platform_version
26,1,46906.46,"{""Q0"":""demoRun1""}",survey-text,0,47064,0.0-0.0,"""","""","""","""","""","""","""",11/9/2020 5:16,69.125.145.27,"Mozilla/5.0 (Windows NT 10.0; Win64; x64) AppleWebKit/537.36 (KHTML, like Gecko) Chrome/86.0.4240.183 Safari/537.36",WebKit,Chrome,86.0.4240.183,Windows,10
26,1,null,"""",html-keyboard-response,1,48142,0.0-1.0,"<div style=""font-size:60px;"">+</div>",null,1000,1,ITI,"""","""",11/9/2020 5:16,69.125.145.27,"Mozilla/5.0 (Windows NT 10.0; Win64; x64) AppleWebKit/537.36 (KHTML, like Gecko) Chrome/86.0.4240.183 Safari/537.36",WebKit,Chrome,86.0.4240.183,Windows,10
26,1,null,"""",image-keyboard-response,2,48426,0.0-2.0,jspsych/scrambledDisgustFaces/scrambledAM05DIS.JPG,null,250,1,forwardMask,d,"""",11/9/2020 5:16,69.125.145.27,"Mozilla/5.0 (Windows NT 10.0; Win64; x64) AppleWebKit/537.36 (KHTML, like Gecko) Chrome/86.0.4240.183 Safari/537.36",WebKit,Chrome,86.0.4240.183,Windows,10
26,1,null,"""",image-keyboard-response,3,48566,0.0-3.0,jspsych/disgustFaces/AM05DIS.JPG,null,"function(){
        return jsPsych.randomization.sampleWithoutReplacement(cueDuration, 1)[0]}",1,Cue,"""","""",11/9/2020 5:16,69.125.145.27,"Mozilla/5.0 (Windows NT 10.0; Win64; x64) AppleWebKit/537.36 (KHTML, like Gecko) Chrome/86.0.4240.183 Safari/537.36",WebKit,Chrome,86.0.4240.183,Windows,10
26,1,null,"""",image-keyboard-response,4,48683,0.0-4.0,jspsych/neutralFaces/AM30NES.JPG,null,100,1,backwardMask,"""","""",11/9/2020 5:16,69.125.145.27,"Mozilla/5.0 (Windows NT 10.0; Win64; x64) AppleWebKit/537.36 (KHTML, like Gecko) Chrome/86.0.4240.183 Safari/537.36",WebKit,Chrome,86.0.4240.183,Windows,10
26,1,null,"""",html-keyboard-response,5,48887,0.0-5.0,"<div style=""font-size:60px;"">+</div>",null,200,1,fixationBtwnNeutralMaskAndPrompt,"""","""",11/9/2020 5:16,69.125.145.27,"Mozilla/5.0 (Windows NT 10.0; Win64; x64) AppleWebKit/537.36 (KHTML, like Gecko) Chrome/86.0.4240.183 Safari/537.36",WebKit,Chrome,86.0.4240.183,Windows,10
26,1,1000.865,"""",html-keyboard-response,6,50217,0.0-6.0,"<p> What was the emotion of the hidden face? <br> Press, <b>d</b> for <i>disgust face</i> or <b>n</b> for <i>neutral face</i></p>",68,"""",1,Query,"""",d,11/9/2020 5:16,69.125.145.27,"Mozilla/5.0 (Windows NT 10.0; Win64; x64) AppleWebKit/537.36 (KHTML, like Gecko) Chrome/86.0.4240.183 Safari/537.36",WebKit,Chrome,86.0.4240.183,Windows,10
26,1,null,"""",html-keyboard-response,7,51262,0.0-7.0,"<div style=""font-size:60px;"">+</div>",null,1000,2,ITI,"""","""",11/9/2020 5:16,69.125.145.27,"Mozilla/5.0 (Windows NT 10.0; Win64; x64) AppleWebKit/537.36 (KHTML, like Gecko) Chrome/86.0.4240.183 Safari/537.36",WebKit,Chrome,86.0.4240.183,Windows,10
26,1,null,"""",image-keyboard-response,8,51538,0.0-8.0,jspsych/scrambledDisgustFaces/scrambledBM20DIS.JPG,null,250,2,forwardMask,d,"""",11/9/2020 5:16,69.125.145.27,"Mozilla/5.0 (Windows NT 10.0; Win64; x64) AppleWebKit/537.36 (KHTML, like Gecko) Chrome/86.0.4240.183 Safari/537.36",WebKit,Chrome,86.0.4240.183,Windows,10
26,1,null,"""",image-keyboard-response,9,51712,0.0-9.0,jspsych/disgustFaces/BM20DIS.JPG,null,"function(){
        return jsPsych.randomization.sampleWithoutReplacement(cueDuration, 1)[0]}",2,Cue,"""","""",11/9/2020 5:16,69.125.145.27,"Mozilla/5.0 (Windows NT 10.0; Win64; x64) AppleWebKit/537.36 (KHTML, like Gecko) Chrome/86.0.4240.183 Safari/537.36",WebKit,Chrome,86.0.4240.183,Windows,10
26,1,null,"""",image-keyboard-response,10,51828,0.0-10.0,jspsych/neutralFaces/AF31NES.JPG,null,100,2,backwardMask,"""","""",11/9/2020 5:16,69.125.145.27,"Mozilla/5.0 (Windows NT 10.0; Win64; x64) AppleWebKit/537.36 (KHTML, like Gecko) Chrome/86.0.4240.183 Safari/537.36",WebKit,Chrome,86.0.4240.183,Windows,10
26,1,null,"""",html-keyboard-response,11,52030,0.0-11.0,"<div style=""font-size:60px;"">+</div>",null,200,2,fixationBtwnNeutralMaskAndPrompt,"""","""",11/9/2020 5:16,69.125.145.27,"Mozilla/5.0 (Windows NT 10.0; Win64; x64) AppleWebKit/537.36 (KHTML, like Gecko) Chrome/86.0.4240.183 Safari/537.36",WebKit,Chrome,86.0.4240.183,Windows,10
26,1,490.26,"""",html-keyboard-response,12,52526,0.0-12.0,"<p> What was the emotion of the hidden face? <br> Press, <b>d</b> for <i>disgust face</i> or <b>n</b> for <i>neutral face</i></p>",68,"""",2,Query,"""",d,11/9/2020 5:16,69.125.145.27,"Mozilla/5.0 (Windows NT 10.0; Win64; x64) AppleWebKit/537.36 (KHTML, like Gecko) Chrome/86.0.4240.183 Safari/537.36",WebKit,Chrome,86.0.4240.183,Windows,10
26,1,null,"""",html-keyboard-response,13,53532,0.0-13.0,"<div style=""font-size:60px;"">+</div>",null,1000,3,ITI,"""","""",11/9/2020 5:16,69.125.145.27,"Mozilla/5.0 (Windows NT 10.0; Win64; x64) AppleWebKit/537.36 (KHTML, like Gecko) Chrome/86.0.4240.183 Safari/537.36",WebKit,Chrome,86.0.4240.183,Windows,10
26,1,null,"""",image-keyboard-response,14,53801,0.0-14.0,jspsych/scrambledDisgustFaces/scrambledBM32DIS.JPG,null,250,3,forwardMask,d,"""",11/9/2020 5:16,69.125.145.27,"Mozilla/5.0 (Windows NT 10.0; Win64; x64) AppleWebKit/537.36 (KHTML, like Gecko) Chrome/86.0.4240.183 Safari/537.36",WebKit,Chrome,86.0.4240.183,Windows,10
26,1,null,"""",image-keyboard-response,15,53877,0.0-15.0,jspsych/disgustFaces/BM32DIS.JPG,null,"function(){
        return jsPsych.randomization.sampleWithoutReplacement(cueDuration, 1)[0]}",3,Cue,"""","""",11/9/2020 5:16,69.125.145.27,"Mozilla/5.0 (Windows NT 10.0; Win64; x64) AppleWebKit/537.36 (KHTML, like Gecko) Chrome/86.0.4240.183 Safari/537.36",WebKit,Chrome,86.0.4240.183,Windows,10
26,1,null,"""",image-keyboard-response,16,53984,0.0-16.0,jspsych/neutralFaces/AF28NES.JPG,null,100,3,backwardMask,"""","""",11/9/2020 5:16,69.125.145.27,"Mozilla/5.0 (Windows NT 10.0; Win64; x64) AppleWebKit/537.36 (KHTML, like Gecko) Chrome/86.0.4240.183 Safari/537.36",WebKit,Chrome,86.0.4240.183,Windows,10
26,1,null,"""",html-keyboard-response,17,54190,0.0-17.0,"<div style=""font-size:60px;"">+</div>",null,200,3,fixationBtwnNeutralMaskAndPrompt,"""","""",11/9/2020 5:16,69.125.145.27,"Mozilla/5.0 (Windows NT 10.0; Win64; x64) AppleWebKit/537.36 (KHTML, like Gecko) Chrome/86.0.4240.183 Safari/537.36",WebKit,Chrome,86.0.4240.183,Windows,10
26,1,1474.515,"""",html-keyboard-response,18,55666,0.0-18.0,"<p> What was the emotion of the hidden face? <br> Press, <b>d</b> for <i>disgust face</i> or <b>n</b> for <i>neutral face</i></p>",78,"""",3,Query,"""",n,11/9/2020 5:16,69.125.145.27,"Mozilla/5.0 (Windows NT 10.0; Win64; x64) AppleWebKit/537.36 (KHTML, like Gecko) Chrome/86.0.4240.183 Safari/537.36",WebKit,Chrome,86.0.4240.183,Windows,10
26,1,null,"""",html-keyboard-response,19,56671,0.0-19.0,"<div style=""font-size:60px;"">+</div>",null,1000,4,ITI,"""","""",11/9/2020 5:16,69.125.145.27,"Mozilla/5.0 (Windows NT 10.0; Win64; x64) AppleWebKit/537.36 (KHTML, like Gecko) Chrome/86.0.4240.183 Safari/537.36",WebKit,Chrome,86.0.4240.183,Windows,10
26,1,null,"""",image-keyboard-response,20,57407,0.0-20.0,jspsych/scrambledNeutralFaces/scrambledBM06NES.JPG,null,250,4,forwardMask,n,"""",11/9/2020 5:16,69.125.145.27,"Mozilla/5.0 (Windows NT 10.0; Win64; x64) AppleWebKit/537.36 (KHTML, like Gecko) Chrome/86.0.4240.183 Safari/537.36",WebKit,Chrome,86.0.4240.183,Windows,10
26,1,null,"""",image-keyboard-response,21,57578,0.0-21.0,jspsych/neutralFaces/BM06NES.JPG,null,"function(){
        return jsPsych.randomization.sampleWithoutReplacement(cueDuration, 1)[0]}",4,Cue,"""","""",11/9/2020 5:16,69.125.145.27,"Mozilla/5.0 (Windows NT 10.0; Win64; x64) AppleWebKit/537.36 (KHTML, like Gecko) Chrome/86.0.4240.183 Safari/537.36",WebKit,Chrome,86.0.4240.183,Windows,10
26,1,null,"""",image-keyboard-response,22,57830,0.0-22.0,jspsych/neutralFaces/BF08NES.JPG,null,100,4,backwardMask,"""","""",11/9/2020 5:16,69.125.145.27,"Mozilla/5.0 (Windows NT 10.0; Win64; x64) AppleWebKit/537.36 (KHTML, like Gecko) Chrome/86.0.4240.183 Safari/537.36",WebKit,Chrome,86.0.4240.183,Windows,10
26,1,null,"""",html-keyboard-response,23,58032,0.0-23.0,"<div style=""font-size:60px;"">+</div>",null,200,4,fixationBtwnNeutralMaskAndPrompt,"""","""",11/9/2020 5:16,69.125.145.27,"Mozilla/5.0 (Windows NT 10.0; Win64; x64) AppleWebKit/537.36 (KHTML, like Gecko) Chrome/86.0.4240.183 Safari/537.36",WebKit,Chrome,86.0.4240.183,Windows,10
26,1,1374.65,"""",html-keyboard-response,24,59409,0.0-24.0,"<p> What was the emotion of the hidden face? <br> Press, <b>d</b> for <i>disgust face</i> or <b>n</b> for <i>neutral face</i></p>",78,"""",4,Query,"""",n,11/9/2020 5:16,69.125.145.27,"Mozilla/5.0 (Windows NT 10.0; Win64; x64) AppleWebKit/537.36 (KHTML, like Gecko) Chrome/86.0.4240.183 Safari/537.36",WebKit,Chrome,86.0.4240.183,Windows,10
26,1,null,"""",html-keyboard-response,25,60412,0.0-25.0,"<div style=""font-size:60px;"">+</div>",null,1000,5,ITI,"""","""",11/9/2020 5:16,69.125.145.27,"Mozilla/5.0 (Windows NT 10.0; Win64; x64) AppleWebKit/537.36 (KHTML, like Gecko) Chrome/86.0.4240.183 Safari/537.36",WebKit,Chrome,86.0.4240.183,Windows,10
26,1,null,"""",image-keyboard-response,26,60928,0.0-26.0,jspsych/scrambledDisgustFaces/scrambledAF14DIS.JPG,null,250,5,forwardMask,d,"""",11/9/2020 5:16,69.125.145.27,"Mozilla/5.0 (Windows NT 10.0; Win64; x64) AppleWebKit/537.36 (KHTML, like Gecko) Chrome/86.0.4240.183 Safari/537.36",WebKit,Chrome,86.0.4240.183,Windows,10
26,1,null,"""",image-keyboard-response,27,61603,0.0-27.0,jspsych/disgustFaces/AF14DIS.JPG,null,"function(){
        return jsPsych.randomization.sampleWithoutReplacement(cueDuration, 1)[0]}",5,Cue,"""","""",11/9/2020 5:16,69.125.145.27,"Mozilla/5.0 (Windows NT 10.0; Win64; x64) AppleWebKit/537.36 (KHTML, like Gecko) Chrome/86.0.4240.183 Safari/537.36",WebKit,Chrome,86.0.4240.183,Windows,10
26,1,null,"""",image-keyboard-response,28,61708,0.0-28.0,jspsych/neutralFaces/AF21NES.JPG,null,100,5,backwardMask,"""","""",11/9/2020 5:16,69.125.145.27,"Mozilla/5.0 (Windows NT 10.0; Win64; x64) AppleWebKit/537.36 (KHTML, like Gecko) Chrome/86.0.4240.183 Safari/537.36",WebKit,Chrome,86.0.4240.183,Windows,10
26,1,null,"""",html-keyboard-response,29,61910,0.0-29.0,"<div style=""font-size:60px;"">+</div>",null,200,5,fixationBtwnNeutralMaskAndPrompt,"""","""",11/9/2020 5:16,69.125.145.27,"Mozilla/5.0 (Windows NT 10.0; Win64; x64) AppleWebKit/537.36 (KHTML, like Gecko) Chrome/86.0.4240.183 Safari/537.36",WebKit,Chrome,86.0.4240.183,Windows,10
26,1,943.4,"""",html-keyboard-response,30,62855,0.0-30.0,"<p> What was the emotion of the hidden face? <br> Press, <b>d</b> for <i>disgust face</i> or <b>n</b> for <i>neutral face</i></p>",68,"""",5,Query,"""",d,11/9/2020 5:16,69.125.145.27,"Mozilla/5.0 (Windows NT 10.0; Win64; x64) AppleWebKit/537.36 (KHTML, like Gecko) Chrome/86.0.4240.183 Safari/537.36",WebKit,Chrome,86.0.4240.183,Windows,10
26,1,null,"""",html-keyboard-response,31,63858,0.0-31.0,"<div style=""font-size:60px;"">+</div>",null,1000,6,ITI,"""","""",11/9/2020 5:16,69.125.145.27,"Mozilla/5.0 (Windows NT 10.0; Win64; x64) AppleWebKit/537.36 (KHTML, like Gecko) Chrome/86.0.4240.183 Safari/537.36",WebKit,Chrome,86.0.4240.183,Windows,10
26,1,null,"""",image-keyboard-response,32,64112,0.0-32.0,jspsych/scrambledDisgustFaces/scrambledAM29DIS.JPG,null,250,6,forwardMask,d,"""",11/9/2020 5:16,69.125.145.27,"Mozilla/5.0 (Windows NT 10.0; Win64; x64) AppleWebKit/537.36 (KHTML, like Gecko) Chrome/86.0.4240.183 Safari/537.36",WebKit,Chrome,86.0.4240.183,Windows,10
26,1,null,"""",image-keyboard-response,33,64259,0.0-33.0,jspsych/disgustFaces/AM29DIS.JPG,null,"function(){
        return jsPsych.randomization.sampleWithoutReplacement(cueDuration, 1)[0]}",6,Cue,"""","""",11/9/2020 5:16,69.125.145.27,"Mozilla/5.0 (Windows NT 10.0; Win64; x64) AppleWebKit/537.36 (KHTML, like Gecko) Chrome/86.0.4240.183 Safari/537.36",WebKit,Chrome,86.0.4240.183,Windows,10
26,1,null,"""",image-keyboard-response,34,64376,0.0-34.0,jspsych/neutralFaces/BF22NES.JPG,null,100,6,backwardMask,"""","""",11/9/2020 5:16,69.125.145.27,"Mozilla/5.0 (Windows NT 10.0; Win64; x64) AppleWebKit/537.36 (KHTML, like Gecko) Chrome/86.0.4240.183 Safari/537.36",WebKit,Chrome,86.0.4240.183,Windows,10
26,1,null,"""",html-keyboard-response,35,64581,0.0-35.0,"<div style=""font-size:60px;"">+</div>",null,200,6,fixationBtwnNeutralMaskAndPrompt,"""","""",11/9/2020 5:16,69.125.145.27,"Mozilla/5.0 (Windows NT 10.0; Win64; x64) AppleWebKit/537.36 (KHTML, like Gecko) Chrome/86.0.4240.183 Safari/537.36",WebKit,Chrome,86.0.4240.183,Windows,10
26,1,427.98,"""",html-keyboard-response,36,65011,0.0-36.0,"<p> What was the emotion of the hidden face? <br> Press, <b>d</b> for <i>disgust face</i> or <b>n</b> for <i>neutral face</i></p>",68,"""",6,Query,"""",d,11/9/2020 5:16,69.125.145.27,"Mozilla/5.0 (Windows NT 10.0; Win64; x64) AppleWebKit/537.36 (KHTML, like Gecko) Chrome/86.0.4240.183 Safari/537.36",WebKit,Chrome,86.0.4240.183,Windows,10
26,1,null,"""",html-keyboard-response,37,66015,0.0-37.0,"<div style=""font-size:60px;"">+</div>",null,1000,7,ITI,"""","""",11/9/2020 5:16,69.125.145.27,"Mozilla/5.0 (Windows NT 10.0; Win64; x64) AppleWebKit/537.36 (KHTML, like Gecko) Chrome/86.0.4240.183 Safari/537.36",WebKit,Chrome,86.0.4240.183,Windows,10
26,1,null,"""",image-keyboard-response,38,66296,0.0-38.0,jspsych/scrambledDisgustFaces/scrambledAM30DIS.JPG,null,250,7,forwardMask,d,"""",11/9/2020 5:16,69.125.145.27,"Mozilla/5.0 (Windows NT 10.0; Win64; x64) AppleWebKit/537.36 (KHTML, like Gecko) Chrome/86.0.4240.183 Safari/537.36",WebKit,Chrome,86.0.4240.183,Windows,10
26,1,null,"""",image-keyboard-response,39,66501,0.0-39.0,jspsych/disgustFaces/AM30DIS.JPG,null,"function(){
        return jsPsych.randomization.sampleWithoutReplacement(cueDuration, 1)[0]}",7,Cue,"""","""",11/9/2020 5:16,69.125.145.27,"Mozilla/5.0 (Windows NT 10.0; Win64; x64) AppleWebKit/537.36 (KHTML, like Gecko) Chrome/86.0.4240.183 Safari/537.36",WebKit,Chrome,86.0.4240.183,Windows,10
26,1,null,"""",image-keyboard-response,40,66606,0.0-40.0,jspsych/neutralFaces/AM14NES.JPG,null,100,7,backwardMask,"""","""",11/9/2020 5:16,69.125.145.27,"Mozilla/5.0 (Windows NT 10.0; Win64; x64) AppleWebKit/537.36 (KHTML, like Gecko) Chrome/86.0.4240.183 Safari/537.36",WebKit,Chrome,86.0.4240.183,Windows,10
26,1,null,"""",html-keyboard-response,41,66809,0.0-41.0,"<div style=""font-size:60px;"">+</div>",null,200,7,fixationBtwnNeutralMaskAndPrompt,"""","""",11/9/2020 5:16,69.125.145.27,"Mozilla/5.0 (Windows NT 10.0; Win64; x64) AppleWebKit/537.36 (KHTML, like Gecko) Chrome/86.0.4240.183 Safari/537.36",WebKit,Chrome,86.0.4240.183,Windows,10
26,1,315.1,"""",html-keyboard-response,42,67126,0.0-42.0,"<p> What was the emotion of the hidden face? <br> Press, <b>d</b> for <i>disgust face</i> or <b>n</b> for <i>neutral face</i></p>",68,"""",7,Query,"""",d,11/9/2020 5:16,69.125.145.27,"Mozilla/5.0 (Windows NT 10.0; Win64; x64) AppleWebKit/537.36 (KHTML, like Gecko) Chrome/86.0.4240.183 Safari/537.36",WebKit,Chrome,86.0.4240.183,Windows,10
26,1,null,"""",html-keyboard-response,43,68129,0.0-43.0,"<div style=""font-size:60px;"">+</div>",null,1000,8,ITI,"""","""",11/9/2020 5:16,69.125.145.27,"Mozilla/5.0 (Windows NT 10.0; Win64; x64) AppleWebKit/537.36 (KHTML, like Gecko) Chrome/86.0.4240.183 Safari/537.36",WebKit,Chrome,86.0.4240.183,Windows,10
26,1,null,"""",image-keyboard-response,44,68398,0.0-44.0,jspsych/scrambledNeutralFaces/scrambledAF17NES.JPG,null,250,8,forwardMask,n,"""",11/9/2020 5:16,69.125.145.27,"Mozilla/5.0 (Windows NT 10.0; Win64; x64) AppleWebKit/537.36 (KHTML, like Gecko) Chrome/86.0.4240.183 Safari/537.36",WebKit,Chrome,86.0.4240.183,Windows,10
26,1,null,"""",image-keyboard-response,45,68533,0.0-45.0,jspsych/neutralFaces/AF17NES.JPG,null,"function(){
        return jsPsych.randomization.sampleWithoutReplacement(cueDuration, 1)[0]}",8,Cue,"""","""",11/9/2020 5:16,69.125.145.27,"Mozilla/5.0 (Windows NT 10.0; Win64; x64) AppleWebKit/537.36 (KHTML, like Gecko) Chrome/86.0.4240.183 Safari/537.36",WebKit,Chrome,86.0.4240.183,Windows,10
26,1,null,"""",image-keyboard-response,46,68636,0.0-46.0,jspsych/neutralFaces/BF22NES.JPG,null,100,8,backwardMask,"""","""",11/9/2020 5:16,69.125.145.27,"Mozilla/5.0 (Windows NT 10.0; Win64; x64) AppleWebKit/537.36 (KHTML, like Gecko) Chrome/86.0.4240.183 Safari/537.36",WebKit,Chrome,86.0.4240.183,Windows,10
26,1,null,"""",html-keyboard-response,47,68838,0.0-47.0,"<div style=""font-size:60px;"">+</div>",null,200,8,fixationBtwnNeutralMaskAndPrompt,"""","""",11/9/2020 5:16,69.125.145.27,"Mozilla/5.0 (Windows NT 10.0; Win64; x64) AppleWebKit/537.36 (KHTML, like Gecko) Chrome/86.0.4240.183 Safari/537.36",WebKit,Chrome,86.0.4240.183,Windows,10
26,1,406.85,"""",html-keyboard-response,48,69248,0.0-48.0,"<p> What was the emotion of the hidden face? <br> Press, <b>d</b> for <i>disgust face</i> or <b>n</b> for <i>neutral face</i></p>",68,"""",8,Query,"""",d,11/9/2020 5:16,69.125.145.27,"Mozilla/5.0 (Windows NT 10.0; Win64; x64) AppleWebKit/537.36 (KHTML, like Gecko) Chrome/86.0.4240.183 Safari/537.36",WebKit,Chrome,86.0.4240.183,Windows,10
26,1,null,"""",html-keyboard-response,49,70251,0.0-49.0,"<div style=""font-size:60px;"">+</div>",null,1000,9,ITI,"""","""",11/9/2020 5:16,69.125.145.27,"Mozilla/5.0 (Windows NT 10.0; Win64; x64) AppleWebKit/537.36 (KHTML, like Gecko) Chrome/86.0.4240.183 Safari/537.36",WebKit,Chrome,86.0.4240.183,Windows,10
26,1,null,"""",image-keyboard-response,50,70511,0.0-50.0,jspsych/scrambledDisgustFaces/scrambledAF24DIS.JPG,null,250,9,forwardMask,d,"""",11/9/2020 5:16,69.125.145.27,"Mozilla/5.0 (Windows NT 10.0; Win64; x64) AppleWebKit/537.36 (KHTML, like Gecko) Chrome/86.0.4240.183 Safari/537.36",WebKit,Chrome,86.0.4240.183,Windows,10
26,1,null,"""",image-keyboard-response,51,70531,0.0-51.0,jspsych/disgustFaces/AF24DIS.JPG,null,"function(){
        return jsPsych.randomization.sampleWithoutReplacement(cueDuration, 1)[0]}",9,Cue,"""","""",11/9/2020 5:16,69.125.145.27,"Mozilla/5.0 (Windows NT 10.0; Win64; x64) AppleWebKit/537.36 (KHTML, like Gecko) Chrome/86.0.4240.183 Safari/537.36",WebKit,Chrome,86.0.4240.183,Windows,10
26,1,null,"""",image-keyboard-response,52,70636,0.0-52.0,jspsych/neutralFaces/AF18NES.JPG,null,100,9,backwardMask,"""","""",11/9/2020 5:16,69.125.145.27,"Mozilla/5.0 (Windows NT 10.0; Win64; x64) AppleWebKit/537.36 (KHTML, like Gecko) Chrome/86.0.4240.183 Safari/537.36",WebKit,Chrome,86.0.4240.183,Windows,10
26,1,null,"""",html-keyboard-response,53,70837,0.0-53.0,"<div style=""font-size:60px;"">+</div>",null,200,9,fixationBtwnNeutralMaskAndPrompt,"""","""",11/9/2020 5:16,69.125.145.27,"Mozilla/5.0 (Windows NT 10.0; Win64; x64) AppleWebKit/537.36 (KHTML, like Gecko) Chrome/86.0.4240.183 Safari/537.36",WebKit,Chrome,86.0.4240.183,Windows,10
26,1,905.11,"""",html-keyboard-response,54,71748,0.0-54.0,"<p> What was the emotion of the hidden face? <br> Press, <b>d</b> for <i>disgust face</i> or <b>n</b> for <i>neutral face</i></p>",78,"""",9,Query,"""",n,11/9/2020 5:16,69.125.145.27,"Mozilla/5.0 (Windows NT 10.0; Win64; x64) AppleWebKit/537.36 (KHTML, like Gecko) Chrome/86.0.4240.183 Safari/537.36",WebKit,Chrome,86.0.4240.183,Windows,10
26,1,null,"""",html-keyboard-response,55,72751,0.0-55.0,"<div style=""font-size:60px;"">+</div>",null,1000,10,ITI,"""","""",11/9/2020 5:16,69.125.145.27,"Mozilla/5.0 (Windows NT 10.0; Win64; x64) AppleWebKit/537.36 (KHTML, like Gecko) Chrome/86.0.4240.183 Safari/537.36",WebKit,Chrome,86.0.4240.183,Windows,10
26,1,null,"""",image-keyboard-response,56,73005,0.0-56.0,jspsych/scrambledNeutralFaces/scrambledBM05NES.JPG,null,250,10,forwardMask,n,"""",11/9/2020 5:16,69.125.145.27,"Mozilla/5.0 (Windows NT 10.0; Win64; x64) AppleWebKit/537.36 (KHTML, like Gecko) Chrome/86.0.4240.183 Safari/537.36",WebKit,Chrome,86.0.4240.183,Windows,10
26,1,null,"""",image-keyboard-response,57,73041,0.0-57.0,jspsych/neutralFaces/BM05NES.JPG,null,"function(){
        return jsPsych.randomization.sampleWithoutReplacement(cueDuration, 1)[0]}",10,Cue,"""","""",11/9/2020 5:16,69.125.145.27,"Mozilla/5.0 (Windows NT 10.0; Win64; x64) AppleWebKit/537.36 (KHTML, like Gecko) Chrome/86.0.4240.183 Safari/537.36",WebKit,Chrome,86.0.4240.183,Windows,10
26,1,null,"""",image-keyboard-response,58,73146,0.0-58.0,jspsych/neutralFaces/BF06NES.JPG,null,100,10,backwardMask,"""","""",11/9/2020 5:16,69.125.145.27,"Mozilla/5.0 (Windows NT 10.0; Win64; x64) AppleWebKit/537.36 (KHTML, like Gecko) Chrome/86.0.4240.183 Safari/537.36",WebKit,Chrome,86.0.4240.183,Windows,10
26,1,null,"""",html-keyboard-response,59,73349,0.0-59.0,"<div style=""font-size:60px;"">+</div>",null,200,10,fixationBtwnNeutralMaskAndPrompt,"""","""",11/9/2020 5:16,69.125.145.27,"Mozilla/5.0 (Windows NT 10.0; Win64; x64) AppleWebKit/537.36 (KHTML, like Gecko) Chrome/86.0.4240.183 Safari/537.36",WebKit,Chrome,86.0.4240.183,Windows,10
26,1,2063.61,"""",html-keyboard-response,60,75414,0.0-60.0,"<p> What was the emotion of the hidden face? <br> Press, <b>d</b> for <i>disgust face</i> or <b>n</b> for <i>neutral face</i></p>",78,"""",10,Query,"""",n,11/9/2020 5:16,69.125.145.27,"Mozilla/5.0 (Windows NT 10.0; Win64; x64) AppleWebKit/537.36 (KHTML, like Gecko) Chrome/86.0.4240.183 Safari/537.36",WebKit,Chrome,86.0.4240.183,Windows,10
26,1,null,"""",html-keyboard-response,61,76447,0.0-61.0,"<div style=""font-size:60px;"">+</div>",null,1000,11,ITI,"""","""",11/9/2020 5:16,69.125.145.27,"Mozilla/5.0 (Windows NT 10.0; Win64; x64) AppleWebKit/537.36 (KHTML, like Gecko) Chrome/86.0.4240.183 Safari/537.36",WebKit,Chrome,86.0.4240.183,Windows,10
26,1,null,"""",image-keyboard-response,62,76714,0.0-62.0,jspsych/scrambledNeutralFaces/scrambledAF11NES.JPG,null,250,11,forwardMask,n,"""",11/9/2020 5:16,69.125.145.27,"Mozilla/5.0 (Windows NT 10.0; Win64; x64) AppleWebKit/537.36 (KHTML, like Gecko) Chrome/86.0.4240.183 Safari/537.36",WebKit,Chrome,86.0.4240.183,Windows,10
26,1,null,"""",image-keyboard-response,63,76973,0.0-63.0,jspsych/neutralFaces/AF11NES.JPG,null,"function(){
        return jsPsych.randomization.sampleWithoutReplacement(cueDuration, 1)[0]}",11,Cue,"""","""",11/9/2020 5:16,69.125.145.27,"Mozilla/5.0 (Windows NT 10.0; Win64; x64) AppleWebKit/537.36 (KHTML, like Gecko) Chrome/86.0.4240.183 Safari/537.36",WebKit,Chrome,86.0.4240.183,Windows,10
26,1,null,"""",image-keyboard-response,64,77083,0.0-64.0,jspsych/neutralFaces/BF03NES.JPG,null,100,11,backwardMask,"""","""",11/9/2020 5:16,69.125.145.27,"Mozilla/5.0 (Windows NT 10.0; Win64; x64) AppleWebKit/537.36 (KHTML, like Gecko) Chrome/86.0.4240.183 Safari/537.36",WebKit,Chrome,86.0.4240.183,Windows,10
26,1,null,"""",html-keyboard-response,65,77319,0.0-65.0,"<div style=""font-size:60px;"">+</div>",null,200,11,fixationBtwnNeutralMaskAndPrompt,"""","""",11/9/2020 5:16,69.125.145.27,"Mozilla/5.0 (Windows NT 10.0; Win64; x64) AppleWebKit/537.36 (KHTML, like Gecko) Chrome/86.0.4240.183 Safari/537.36",WebKit,Chrome,86.0.4240.183,Windows,10
26,1,606.715,"""",html-keyboard-response,66,77934,0.0-66.0,"<p> What was the emotion of the hidden face? <br> Press, <b>d</b> for <i>disgust face</i> or <b>n</b> for <i>neutral face</i></p>",78,"""",11,Query,"""",n,11/9/2020 5:16,69.125.145.27,"Mozilla/5.0 (Windows NT 10.0; Win64; x64) AppleWebKit/537.36 (KHTML, like Gecko) Chrome/86.0.4240.183 Safari/537.36",WebKit,Chrome,86.0.4240.183,Windows,10
26,1,null,"""",html-keyboard-response,67,78936,0.0-67.0,"<div style=""font-size:60px;"">+</div>",null,1000,12,ITI,"""","""",11/9/2020 5:16,69.125.145.27,"Mozilla/5.0 (Windows NT 10.0; Win64; x64) AppleWebKit/537.36 (KHTML, like Gecko) Chrome/86.0.4240.183 Safari/537.36",WebKit,Chrome,86.0.4240.183,Windows,10
26,1,null,"""",image-keyboard-response,68,79268,0.0-68.0,jspsych/scrambledDisgustFaces/scrambledAF27DIS.JPG,null,250,12,forwardMask,d,"""",11/9/2020 5:16,69.125.145.27,"Mozilla/5.0 (Windows NT 10.0; Win64; x64) AppleWebKit/537.36 (KHTML, like Gecko) Chrome/86.0.4240.183 Safari/537.36",WebKit,Chrome,86.0.4240.183,Windows,10
26,1,null,"""",image-keyboard-response,69,79387,0.0-69.0,jspsych/disgustFaces/AF27DIS.JPG,null,"function(){
        return jsPsych.randomization.sampleWithoutReplacement(cueDuration, 1)[0]}",12,Cue,"""","""",11/9/2020 5:16,69.125.145.27,"Mozilla/5.0 (Windows NT 10.0; Win64; x64) AppleWebKit/537.36 (KHTML, like Gecko) Chrome/86.0.4240.183 Safari/537.36",WebKit,Chrome,86.0.4240.183,Windows,10
26,1,null,"""",image-keyboard-response,70,79509,0.0-70.0,jspsych/neutralFaces/AF12NES.JPG,null,100,12,backwardMask,"""","""",11/9/2020 5:16,69.125.145.27,"Mozilla/5.0 (Windows NT 10.0; Win64; x64) AppleWebKit/537.36 (KHTML, like Gecko) Chrome/86.0.4240.183 Safari/537.36",WebKit,Chrome,86.0.4240.183,Windows,10
26,1,null,"""",html-keyboard-response,71,79712,0.0-71.0,"<div style=""font-size:60px;"">+</div>",null,200,12,fixationBtwnNeutralMaskAndPrompt,"""","""",11/9/2020 5:16,69.125.145.27,"Mozilla/5.0 (Windows NT 10.0; Win64; x64) AppleWebKit/537.36 (KHTML, like Gecko) Chrome/86.0.4240.183 Safari/537.36",WebKit,Chrome,86.0.4240.183,Windows,10
26,1,357.505,"""",html-keyboard-response,72,80073,0.0-72.0,"<p> What was the emotion of the hidden face? <br> Press, <b>d</b> for <i>disgust face</i> or <b>n</b> for <i>neutral face</i></p>",68,"""",12,Query,"""",d,11/9/2020 5:16,69.125.145.27,"Mozilla/5.0 (Windows NT 10.0; Win64; x64) AppleWebKit/537.36 (KHTML, like Gecko) Chrome/86.0.4240.183 Safari/537.36",WebKit,Chrome,86.0.4240.183,Windows,10
26,1,null,"""",html-keyboard-response,73,81078,0.0-73.0,"<div style=""font-size:60px;"">+</div>",null,1000,13,ITI,"""","""",11/9/2020 5:16,69.125.145.27,"Mozilla/5.0 (Windows NT 10.0; Win64; x64) AppleWebKit/537.36 (KHTML, like Gecko) Chrome/86.0.4240.183 Safari/537.36",WebKit,Chrome,86.0.4240.183,Windows,10
26,1,null,"""",image-keyboard-response,74,81334,0.0-74.0,jspsych/scrambledDisgustFaces/scrambledAF10DIS.JPG,null,250,13,forwardMask,d,"""",11/9/2020 5:16,69.125.145.27,"Mozilla/5.0 (Windows NT 10.0; Win64; x64) AppleWebKit/537.36 (KHTML, like Gecko) Chrome/86.0.4240.183 Safari/537.36",WebKit,Chrome,86.0.4240.183,Windows,10
26,1,null,"""",image-keyboard-response,75,81506,0.0-75.0,jspsych/disgustFaces/AF10DIS.JPG,null,"function(){
        return jsPsych.randomization.sampleWithoutReplacement(cueDuration, 1)[0]}",13,Cue,"""","""",11/9/2020 5:16,69.125.145.27,"Mozilla/5.0 (Windows NT 10.0; Win64; x64) AppleWebKit/537.36 (KHTML, like Gecko) Chrome/86.0.4240.183 Safari/537.36",WebKit,Chrome,86.0.4240.183,Windows,10
26,1,null,"""",image-keyboard-response,76,81610,0.0-76.0,jspsych/neutralFaces/AF09NES.JPG,null,100,13,backwardMask,"""","""",11/9/2020 5:16,69.125.145.27,"Mozilla/5.0 (Windows NT 10.0; Win64; x64) AppleWebKit/537.36 (KHTML, like Gecko) Chrome/86.0.4240.183 Safari/537.36",WebKit,Chrome,86.0.4240.183,Windows,10
26,1,null,"""",html-keyboard-response,77,81812,0.0-77.0,"<div style=""font-size:60px;"">+</div>",null,200,13,fixationBtwnNeutralMaskAndPrompt,"""","""",11/9/2020 5:16,69.125.145.27,"Mozilla/5.0 (Windows NT 10.0; Win64; x64) AppleWebKit/537.36 (KHTML, like Gecko) Chrome/86.0.4240.183 Safari/537.36",WebKit,Chrome,86.0.4240.183,Windows,10
26,1,245.71,"""",html-keyboard-response,78,82059,0.0-78.0,"<p> What was the emotion of the hidden face? <br> Press, <b>d</b> for <i>disgust face</i> or <b>n</b> for <i>neutral face</i></p>",68,"""",13,Query,"""",d,11/9/2020 5:16,69.125.145.27,"Mozilla/5.0 (Windows NT 10.0; Win64; x64) AppleWebKit/537.36 (KHTML, like Gecko) Chrome/86.0.4240.183 Safari/537.36",WebKit,Chrome,86.0.4240.183,Windows,10
26,1,null,"""",html-keyboard-response,79,83068,0.0-79.0,"<div style=""font-size:60px;"">+</div>",null,1000,14,ITI,"""","""",11/9/2020 5:16,69.125.145.27,"Mozilla/5.0 (Windows NT 10.0; Win64; x64) AppleWebKit/537.36 (KHTML, like Gecko) Chrome/86.0.4240.183 Safari/537.36",WebKit,Chrome,86.0.4240.183,Windows,10
26,1,null,"""",image-keyboard-response,80,83354,0.0-80.0,jspsych/scrambledDisgustFaces/scrambledBM27DIS.JPG,null,250,14,forwardMask,d,"""",11/9/2020 5:16,69.125.145.27,"Mozilla/5.0 (Windows NT 10.0; Win64; x64) AppleWebKit/537.36 (KHTML, like Gecko) Chrome/86.0.4240.183 Safari/537.36",WebKit,Chrome,86.0.4240.183,Windows,10
26,1,null,"""",image-keyboard-response,81,83376,0.0-81.0,jspsych/disgustFaces/BM27DIS.JPG,null,"function(){
        return jsPsych.randomization.sampleWithoutReplacement(cueDuration, 1)[0]}",14,Cue,"""","""",11/9/2020 5:16,69.125.145.27,"Mozilla/5.0 (Windows NT 10.0; Win64; x64) AppleWebKit/537.36 (KHTML, like Gecko) Chrome/86.0.4240.183 Safari/537.36",WebKit,Chrome,86.0.4240.183,Windows,10
26,1,null,"""",image-keyboard-response,82,83484,0.0-82.0,jspsych/neutralFaces/BF24NES.JPG,null,100,14,backwardMask,"""","""",11/9/2020 5:16,69.125.145.27,"Mozilla/5.0 (Windows NT 10.0; Win64; x64) AppleWebKit/537.36 (KHTML, like Gecko) Chrome/86.0.4240.183 Safari/537.36",WebKit,Chrome,86.0.4240.183,Windows,10
26,1,null,"""",html-keyboard-response,83,83686,0.0-83.0,"<div style=""font-size:60px;"">+</div>",null,200,14,fixationBtwnNeutralMaskAndPrompt,"""","""",11/9/2020 5:16,69.125.145.27,"Mozilla/5.0 (Windows NT 10.0; Win64; x64) AppleWebKit/537.36 (KHTML, like Gecko) Chrome/86.0.4240.183 Safari/537.36",WebKit,Chrome,86.0.4240.183,Windows,10
26,1,1316.565,"""",html-keyboard-response,84,85004,0.0-84.0,"<p> What was the emotion of the hidden face? <br> Press, <b>d</b> for <i>disgust face</i> or <b>n</b> for <i>neutral face</i></p>",78,"""",14,Query,"""",n,11/9/2020 5:16,69.125.145.27,"Mozilla/5.0 (Windows NT 10.0; Win64; x64) AppleWebKit/537.36 (KHTML, like Gecko) Chrome/86.0.4240.183 Safari/537.36",WebKit,Chrome,86.0.4240.183,Windows,10
26,1,null,"""",html-keyboard-response,85,86012,0.0-85.0,"<div style=""font-size:60px;"">+</div>",null,1000,15,ITI,"""","""",11/9/2020 5:16,69.125.145.27,"Mozilla/5.0 (Windows NT 10.0; Win64; x64) AppleWebKit/537.36 (KHTML, like Gecko) Chrome/86.0.4240.183 Safari/537.36",WebKit,Chrome,86.0.4240.183,Windows,10
26,1,null,"""",image-keyboard-response,86,86405,0.0-86.0,jspsych/scrambledNeutralFaces/scrambledBF14NES.JPG,null,250,15,forwardMask,n,"""",11/9/2020 5:16,69.125.145.27,"Mozilla/5.0 (Windows NT 10.0; Win64; x64) AppleWebKit/537.36 (KHTML, like Gecko) Chrome/86.0.4240.183 Safari/537.36",WebKit,Chrome,86.0.4240.183,Windows,10
26,1,null,"""",image-keyboard-response,87,86720,0.0-87.0,jspsych/neutralFaces/BF14NES.JPG,null,"function(){
        return jsPsych.randomization.sampleWithoutReplacement(cueDuration, 1)[0]}",15,Cue,"""","""",11/9/2020 5:16,69.125.145.27,"Mozilla/5.0 (Windows NT 10.0; Win64; x64) AppleWebKit/537.36 (KHTML, like Gecko) Chrome/86.0.4240.183 Safari/537.36",WebKit,Chrome,86.0.4240.183,Windows,10
26,1,null,"""",image-keyboard-response,88,86954,0.0-88.0,jspsych/neutralFaces/AM08NES.JPG,null,100,15,backwardMask,"""","""",11/9/2020 5:16,69.125.145.27,"Mozilla/5.0 (Windows NT 10.0; Win64; x64) AppleWebKit/537.36 (KHTML, like Gecko) Chrome/86.0.4240.183 Safari/537.36",WebKit,Chrome,86.0.4240.183,Windows,10
26,1,null,"""",html-keyboard-response,89,87157,0.0-89.0,"<div style=""font-size:60px;"">+</div>",null,200,15,fixationBtwnNeutralMaskAndPrompt,"""","""",11/9/2020 5:16,69.125.145.27,"Mozilla/5.0 (Windows NT 10.0; Win64; x64) AppleWebKit/537.36 (KHTML, like Gecko) Chrome/86.0.4240.183 Safari/537.36",WebKit,Chrome,86.0.4240.183,Windows,10
26,1,1051.055,"""",html-keyboard-response,90,88210,0.0-90.0,"<p> What was the emotion of the hidden face? <br> Press, <b>d</b> for <i>disgust face</i> or <b>n</b> for <i>neutral face</i></p>",78,"""",15,Query,"""",n,11/9/2020 5:16,69.125.145.27,"Mozilla/5.0 (Windows NT 10.0; Win64; x64) AppleWebKit/537.36 (KHTML, like Gecko) Chrome/86.0.4240.183 Safari/537.36",WebKit,Chrome,86.0.4240.183,Windows,10
26,1,null,"""",html-keyboard-response,91,89239,0.0-91.0,"<div style=""font-size:60px;"">+</div>",null,1000,16,ITI,"""","""",11/9/2020 5:16,69.125.145.27,"Mozilla/5.0 (Windows NT 10.0; Win64; x64) AppleWebKit/537.36 (KHTML, like Gecko) Chrome/86.0.4240.183 Safari/537.36",WebKit,Chrome,86.0.4240.183,Windows,10
26,1,null,"""",image-keyboard-response,92,89507,0.0-92.0,jspsych/scrambledDisgustFaces/scrambledBM05DIS.JPG,null,250,16,forwardMask,d,"""",11/9/2020 5:16,69.125.145.27,"Mozilla/5.0 (Windows NT 10.0; Win64; x64) AppleWebKit/537.36 (KHTML, like Gecko) Chrome/86.0.4240.183 Safari/537.36",WebKit,Chrome,86.0.4240.183,Windows,10
26,1,null,"""",image-keyboard-response,93,89551,0.0-93.0,jspsych/disgustFaces/BM05DIS.JPG,null,"function(){
        return jsPsych.randomization.sampleWithoutReplacement(cueDuration, 1)[0]}",16,Cue,"""","""",11/9/2020 5:16,69.125.145.27,"Mozilla/5.0 (Windows NT 10.0; Win64; x64) AppleWebKit/537.36 (KHTML, like Gecko) Chrome/86.0.4240.183 Safari/537.36",WebKit,Chrome,86.0.4240.183,Windows,10
26,1,null,"""",image-keyboard-response,94,89656,0.0-94.0,jspsych/neutralFaces/AF23NES.JPG,null,100,16,backwardMask,"""","""",11/9/2020 5:16,69.125.145.27,"Mozilla/5.0 (Windows NT 10.0; Win64; x64) AppleWebKit/537.36 (KHTML, like Gecko) Chrome/86.0.4240.183 Safari/537.36",WebKit,Chrome,86.0.4240.183,Windows,10
26,1,null,"""",html-keyboard-response,95,89858,0.0-95.0,"<div style=""font-size:60px;"">+</div>",null,200,16,fixationBtwnNeutralMaskAndPrompt,"""","""",11/9/2020 5:16,69.125.145.27,"Mozilla/5.0 (Windows NT 10.0; Win64; x64) AppleWebKit/537.36 (KHTML, like Gecko) Chrome/86.0.4240.183 Safari/537.36",WebKit,Chrome,86.0.4240.183,Windows,10
26,1,429.505,"""",html-keyboard-response,96,90289,0.0-96.0,"<p> What was the emotion of the hidden face? <br> Press, <b>d</b> for <i>disgust face</i> or <b>n</b> for <i>neutral face</i></p>",78,"""",16,Query,"""",n,11/9/2020 5:16,69.125.145.27,"Mozilla/5.0 (Windows NT 10.0; Win64; x64) AppleWebKit/537.36 (KHTML, like Gecko) Chrome/86.0.4240.183 Safari/537.36",WebKit,Chrome,86.0.4240.183,Windows,10
26,1,null,"""",html-keyboard-response,97,91291,0.0-97.0,"<div style=""font-size:60px;"">+</div>",null,1000,17,ITI,"""","""",11/9/2020 5:16,69.125.145.27,"Mozilla/5.0 (Windows NT 10.0; Win64; x64) AppleWebKit/537.36 (KHTML, like Gecko) Chrome/86.0.4240.183 Safari/537.36",WebKit,Chrome,86.0.4240.183,Windows,10
26,1,null,"""",image-keyboard-response,98,91552,0.0-98.0,jspsych/scrambledNeutralFaces/scrambledAM25NES.JPG,null,250,17,forwardMask,n,"""",11/9/2020 5:16,69.125.145.27,"Mozilla/5.0 (Windows NT 10.0; Win64; x64) AppleWebKit/537.36 (KHTML, like Gecko) Chrome/86.0.4240.183 Safari/537.36",WebKit,Chrome,86.0.4240.183,Windows,10
26,1,null,"""",image-keyboard-response,99,91689,0.0-99.0,jspsych/neutralFaces/AM25NES.JPG,null,"function(){
        return jsPsych.randomization.sampleWithoutReplacement(cueDuration, 1)[0]}",17,Cue,"""","""",11/9/2020 5:16,69.125.145.27,"Mozilla/5.0 (Windows NT 10.0; Win64; x64) AppleWebKit/537.36 (KHTML, like Gecko) Chrome/86.0.4240.183 Safari/537.36",WebKit,Chrome,86.0.4240.183,Windows,10
26,1,null,"""",image-keyboard-response,100,91821,0.0-100.0,jspsych/neutralFaces/BM34NES.JPG,null,100,17,backwardMask,"""","""",11/9/2020 5:16,69.125.145.27,"Mozilla/5.0 (Windows NT 10.0; Win64; x64) AppleWebKit/537.36 (KHTML, like Gecko) Chrome/86.0.4240.183 Safari/537.36",WebKit,Chrome,86.0.4240.183,Windows,10
26,1,null,"""",html-keyboard-response,101,92025,0.0-101.0,"<div style=""font-size:60px;"">+</div>",null,200,17,fixationBtwnNeutralMaskAndPrompt,"""","""",11/9/2020 5:16,69.125.145.27,"Mozilla/5.0 (Windows NT 10.0; Win64; x64) AppleWebKit/537.36 (KHTML, like Gecko) Chrome/86.0.4240.183 Safari/537.36",WebKit,Chrome,86.0.4240.183,Windows,10
26,1,409.19,"""",html-keyboard-response,102,92436,0.0-102.0,"<p> What was the emotion of the hidden face? <br> Press, <b>d</b> for <i>disgust face</i> or <b>n</b> for <i>neutral face</i></p>",78,"""",17,Query,"""",n,11/9/2020 5:16,69.125.145.27,"Mozilla/5.0 (Windows NT 10.0; Win64; x64) AppleWebKit/537.36 (KHTML, like Gecko) Chrome/86.0.4240.183 Safari/537.36",WebKit,Chrome,86.0.4240.183,Windows,10
26,1,null,"""",html-keyboard-response,103,93453,0.0-103.0,"<div style=""font-size:60px;"">+</div>",null,1000,18,ITI,"""","""",11/9/2020 5:16,69.125.145.27,"Mozilla/5.0 (Windows NT 10.0; Win64; x64) AppleWebKit/537.36 (KHTML, like Gecko) Chrome/86.0.4240.183 Safari/537.36",WebKit,Chrome,86.0.4240.183,Windows,10
26,1,null,"""",image-keyboard-response,104,93714,0.0-104.0,jspsych/scrambledDisgustFaces/scrambledAM02DIS.JPG,null,250,18,forwardMask,d,"""",11/9/2020 5:16,69.125.145.27,"Mozilla/5.0 (Windows NT 10.0; Win64; x64) AppleWebKit/537.36 (KHTML, like Gecko) Chrome/86.0.4240.183 Safari/537.36",WebKit,Chrome,86.0.4240.183,Windows,10
26,1,null,"""",image-keyboard-response,105,93787,0.0-105.0,jspsych/disgustFaces/AM02DIS.JPG,null,"function(){
        return jsPsych.randomization.sampleWithoutReplacement(cueDuration, 1)[0]}",18,Cue,"""","""",11/9/2020 5:16,69.125.145.27,"Mozilla/5.0 (Windows NT 10.0; Win64; x64) AppleWebKit/537.36 (KHTML, like Gecko) Chrome/86.0.4240.183 Safari/537.36",WebKit,Chrome,86.0.4240.183,Windows,10
26,1,null,"""",image-keyboard-response,106,93896,0.0-106.0,jspsych/neutralFaces/AF34NES.JPG,null,100,18,backwardMask,"""","""",11/9/2020 5:16,69.125.145.27,"Mozilla/5.0 (Windows NT 10.0; Win64; x64) AppleWebKit/537.36 (KHTML, like Gecko) Chrome/86.0.4240.183 Safari/537.36",WebKit,Chrome,86.0.4240.183,Windows,10
26,1,null,"""",html-keyboard-response,107,94099,0.0-107.0,"<div style=""font-size:60px;"">+</div>",null,200,18,fixationBtwnNeutralMaskAndPrompt,"""","""",11/9/2020 5:16,69.125.145.27,"Mozilla/5.0 (Windows NT 10.0; Win64; x64) AppleWebKit/537.36 (KHTML, like Gecko) Chrome/86.0.4240.183 Safari/537.36",WebKit,Chrome,86.0.4240.183,Windows,10
26,1,375.81,"""",html-keyboard-response,108,94476,0.0-108.0,"<p> What was the emotion of the hidden face? <br> Press, <b>d</b> for <i>disgust face</i> or <b>n</b> for <i>neutral face</i></p>",78,"""",18,Query,"""",n,11/9/2020 5:16,69.125.145.27,"Mozilla/5.0 (Windows NT 10.0; Win64; x64) AppleWebKit/537.36 (KHTML, like Gecko) Chrome/86.0.4240.183 Safari/537.36",WebKit,Chrome,86.0.4240.183,Windows,10
26,1,null,"""",html-keyboard-response,109,95486,0.0-109.0,"<div style=""font-size:60px;"">+</div>",null,1000,19,ITI,"""","""",11/9/2020 5:16,69.125.145.27,"Mozilla/5.0 (Windows NT 10.0; Win64; x64) AppleWebKit/537.36 (KHTML, like Gecko) Chrome/86.0.4240.183 Safari/537.36",WebKit,Chrome,86.0.4240.183,Windows,10
26,1,null,"""",image-keyboard-response,110,95767,0.0-110.0,jspsych/scrambledDisgustFaces/scrambledAM13DIS.JPG,null,250,19,forwardMask,d,"""",11/9/2020 5:16,69.125.145.27,"Mozilla/5.0 (Windows NT 10.0; Win64; x64) AppleWebKit/537.36 (KHTML, like Gecko) Chrome/86.0.4240.183 Safari/537.36",WebKit,Chrome,86.0.4240.183,Windows,10
26,1,null,"""",image-keyboard-response,111,95912,0.0-111.0,jspsych/disgustFaces/AM13DIS.JPG,null,"function(){
        return jsPsych.randomization.sampleWithoutReplacement(cueDuration, 1)[0]}",19,Cue,"""","""",11/9/2020 5:16,69.125.145.27,"Mozilla/5.0 (Windows NT 10.0; Win64; x64) AppleWebKit/537.36 (KHTML, like Gecko) Chrome/86.0.4240.183 Safari/537.36",WebKit,Chrome,86.0.4240.183,Windows,10
26,1,null,"""",image-keyboard-response,112,96039,0.0-112.0,jspsych/neutralFaces/BF10NES.JPG,null,100,19,backwardMask,"""","""",11/9/2020 5:16,69.125.145.27,"Mozilla/5.0 (Windows NT 10.0; Win64; x64) AppleWebKit/537.36 (KHTML, like Gecko) Chrome/86.0.4240.183 Safari/537.36",WebKit,Chrome,86.0.4240.183,Windows,10
26,1,null,"""",html-keyboard-response,113,96244,0.0-113.0,"<div style=""font-size:60px;"">+</div>",null,200,19,fixationBtwnNeutralMaskAndPrompt,"""","""",11/9/2020 5:16,69.125.145.27,"Mozilla/5.0 (Windows NT 10.0; Win64; x64) AppleWebKit/537.36 (KHTML, like Gecko) Chrome/86.0.4240.183 Safari/537.36",WebKit,Chrome,86.0.4240.183,Windows,10
26,1,260.41,"""",html-keyboard-response,114,96509,0.0-114.0,"<p> What was the emotion of the hidden face? <br> Press, <b>d</b> for <i>disgust face</i> or <b>n</b> for <i>neutral face</i></p>",68,"""",19,Query,"""",d,11/9/2020 5:16,69.125.145.27,"Mozilla/5.0 (Windows NT 10.0; Win64; x64) AppleWebKit/537.36 (KHTML, like Gecko) Chrome/86.0.4240.183 Safari/537.36",WebKit,Chrome,86.0.4240.183,Windows,10
26,1,null,"""",html-keyboard-response,115,97519,0.0-115.0,"<div style=""font-size:60px;"">+</div>",null,1000,20,ITI,"""","""",11/9/2020 5:16,69.125.145.27,"Mozilla/5.0 (Windows NT 10.0; Win64; x64) AppleWebKit/537.36 (KHTML, like Gecko) Chrome/86.0.4240.183 Safari/537.36",WebKit,Chrome,86.0.4240.183,Windows,10
26,1,null,"""",image-keyboard-response,116,97806,0.0-116.0,jspsych/scrambledDisgustFaces/scrambledBF17DIS.JPG,null,250,20,forwardMask,d,"""",11/9/2020 5:16,69.125.145.27,"Mozilla/5.0 (Windows NT 10.0; Win64; x64) AppleWebKit/537.36 (KHTML, like Gecko) Chrome/86.0.4240.183 Safari/537.36",WebKit,Chrome,86.0.4240.183,Windows,10
26,1,null,"""",image-keyboard-response,117,97914,0.0-117.0,jspsych/disgustFaces/BF17DIS.JPG,null,"function(){
        return jsPsych.randomization.sampleWithoutReplacement(cueDuration, 1)[0]}",20,Cue,"""","""",11/9/2020 5:16,69.125.145.27,"Mozilla/5.0 (Windows NT 10.0; Win64; x64) AppleWebKit/537.36 (KHTML, like Gecko) Chrome/86.0.4240.183 Safari/537.36",WebKit,Chrome,86.0.4240.183,Windows,10
26,1,null,"""",image-keyboard-response,118,98016,0.0-118.0,jspsych/neutralFaces/AF14NES.JPG,null,100,20,backwardMask,"""","""",11/9/2020 5:16,69.125.145.27,"Mozilla/5.0 (Windows NT 10.0; Win64; x64) AppleWebKit/537.36 (KHTML, like Gecko) Chrome/86.0.4240.183 Safari/537.36",WebKit,Chrome,86.0.4240.183,Windows,10
26,1,null,"""",html-keyboard-response,119,98218,0.0-119.0,"<div style=""font-size:60px;"">+</div>",null,200,20,fixationBtwnNeutralMaskAndPrompt,"""","""",11/9/2020 5:16,69.125.145.27,"Mozilla/5.0 (Windows NT 10.0; Win64; x64) AppleWebKit/537.36 (KHTML, like Gecko) Chrome/86.0.4240.183 Safari/537.36",WebKit,Chrome,86.0.4240.183,Windows,10
26,1,316.97,"""",html-keyboard-response,120,98536,0.0-120.0,"<p> What was the emotion of the hidden face? <br> Press, <b>d</b> for <i>disgust face</i> or <b>n</b> for <i>neutral face</i></p>",68,"""",20,Query,"""",d,11/9/2020 5:16,69.125.145.27,"Mozilla/5.0 (Windows NT 10.0; Win64; x64) AppleWebKit/537.36 (KHTML, like Gecko) Chrome/86.0.4240.183 Safari/537.36",WebKit,Chrome,86.0.4240.183,Windows,10
26,1,null,"""",html-keyboard-response,121,99538,0.0-121.0,"<div style=""font-size:60px;"">+</div>",null,1000,21,ITI,"""","""",11/9/2020 5:16,69.125.145.27,"Mozilla/5.0 (Windows NT 10.0; Win64; x64) AppleWebKit/537.36 (KHTML, like Gecko) Chrome/86.0.4240.183 Safari/537.36",WebKit,Chrome,86.0.4240.183,Windows,10
26,1,null,"""",image-keyboard-response,122,99794,0.0-122.0,jspsych/scrambledNeutralFaces/scrambledBM09NES.JPG,null,250,21,forwardMask,n,"""",11/9/2020 5:16,69.125.145.27,"Mozilla/5.0 (Windows NT 10.0; Win64; x64) AppleWebKit/537.36 (KHTML, like Gecko) Chrome/86.0.4240.183 Safari/537.36",WebKit,Chrome,86.0.4240.183,Windows,10
26,1,null,"""",image-keyboard-response,123,99926,0.0-123.0,jspsych/neutralFaces/BM09NES.JPG,null,"function(){
        return jsPsych.randomization.sampleWithoutReplacement(cueDuration, 1)[0]}",21,Cue,"""","""",11/9/2020 5:16,69.125.145.27,"Mozilla/5.0 (Windows NT 10.0; Win64; x64) AppleWebKit/537.36 (KHTML, like Gecko) Chrome/86.0.4240.183 Safari/537.36",WebKit,Chrome,86.0.4240.183,Windows,10
26,1,null,"""",image-keyboard-response,124,100030,0.0-124.0,jspsych/neutralFaces/AM18NES.JPG,null,100,21,backwardMask,"""","""",11/9/2020 5:16,69.125.145.27,"Mozilla/5.0 (Windows NT 10.0; Win64; x64) AppleWebKit/537.36 (KHTML, like Gecko) Chrome/86.0.4240.183 Safari/537.36",WebKit,Chrome,86.0.4240.183,Windows,10
26,1,null,"""",html-keyboard-response,125,100260,0.0-125.0,"<div style=""font-size:60px;"">+</div>",null,200,21,fixationBtwnNeutralMaskAndPrompt,"""","""",11/9/2020 5:16,69.125.145.27,"Mozilla/5.0 (Windows NT 10.0; Win64; x64) AppleWebKit/537.36 (KHTML, like Gecko) Chrome/86.0.4240.183 Safari/537.36",WebKit,Chrome,86.0.4240.183,Windows,10
26,1,345.015,"""",html-keyboard-response,126,100612,0.0-126.0,"<p> What was the emotion of the hidden face? <br> Press, <b>d</b> for <i>disgust face</i> or <b>n</b> for <i>neutral face</i></p>",78,"""",21,Query,"""",n,11/9/2020 5:16,69.125.145.27,"Mozilla/5.0 (Windows NT 10.0; Win64; x64) AppleWebKit/537.36 (KHTML, like Gecko) Chrome/86.0.4240.183 Safari/537.36",WebKit,Chrome,86.0.4240.183,Windows,10
26,1,null,"""",html-keyboard-response,127,101615,0.0-127.0,"<div style=""font-size:60px;"">+</div>",null,1000,22,ITI,"""","""",11/9/2020 5:16,69.125.145.27,"Mozilla/5.0 (Windows NT 10.0; Win64; x64) AppleWebKit/537.36 (KHTML, like Gecko) Chrome/86.0.4240.183 Safari/537.36",WebKit,Chrome,86.0.4240.183,Windows,10
26,1,null,"""",image-keyboard-response,128,101871,0.0-128.0,jspsych/scrambledNeutralFaces/scrambledBM03NES.JPG,null,250,22,forwardMask,n,"""",11/9/2020 5:16,69.125.145.27,"Mozilla/5.0 (Windows NT 10.0; Win64; x64) AppleWebKit/537.36 (KHTML, like Gecko) Chrome/86.0.4240.183 Safari/537.36",WebKit,Chrome,86.0.4240.183,Windows,10
26,1,null,"""",image-keyboard-response,129,102083,0.0-129.0,jspsych/neutralFaces/BM03NES.JPG,null,"function(){
        return jsPsych.randomization.sampleWithoutReplacement(cueDuration, 1)[0]}",22,Cue,"""","""",11/9/2020 5:16,69.125.145.27,"Mozilla/5.0 (Windows NT 10.0; Win64; x64) AppleWebKit/537.36 (KHTML, like Gecko) Chrome/86.0.4240.183 Safari/537.36",WebKit,Chrome,86.0.4240.183,Windows,10
26,1,null,"""",image-keyboard-response,130,102192,0.0-130.0,jspsych/neutralFaces/AM29NES.JPG,null,100,22,backwardMask,"""","""",11/9/2020 5:16,69.125.145.27,"Mozilla/5.0 (Windows NT 10.0; Win64; x64) AppleWebKit/537.36 (KHTML, like Gecko) Chrome/86.0.4240.183 Safari/537.36",WebKit,Chrome,86.0.4240.183,Windows,10
26,1,null,"""",html-keyboard-response,131,102431,0.0-131.0,"<div style=""font-size:60px;"">+</div>",null,200,22,fixationBtwnNeutralMaskAndPrompt,"""","""",11/9/2020 5:16,69.125.145.27,"Mozilla/5.0 (Windows NT 10.0; Win64; x64) AppleWebKit/537.36 (KHTML, like Gecko) Chrome/86.0.4240.183 Safari/537.36",WebKit,Chrome,86.0.4240.183,Windows,10
26,1,516.51,"""",html-keyboard-response,132,102949,0.0-132.0,"<p> What was the emotion of the hidden face? <br> Press, <b>d</b> for <i>disgust face</i> or <b>n</b> for <i>neutral face</i></p>",78,"""",22,Query,"""",n,11/9/2020 5:16,69.125.145.27,"Mozilla/5.0 (Windows NT 10.0; Win64; x64) AppleWebKit/537.36 (KHTML, like Gecko) Chrome/86.0.4240.183 Safari/537.36",WebKit,Chrome,86.0.4240.183,Windows,10
26,1,null,"""",html-keyboard-response,133,103953,0.0-133.0,"<div style=""font-size:60px;"">+</div>",null,1000,23,ITI,"""","""",11/9/2020 5:16,69.125.145.27,"Mozilla/5.0 (Windows NT 10.0; Win64; x64) AppleWebKit/537.36 (KHTML, like Gecko) Chrome/86.0.4240.183 Safari/537.36",WebKit,Chrome,86.0.4240.183,Windows,10
26,1,null,"""",image-keyboard-response,134,104231,0.0-134.0,jspsych/scrambledDisgustFaces/scrambledBM13DIS.JPG,null,250,23,forwardMask,d,"""",11/9/2020 5:16,69.125.145.27,"Mozilla/5.0 (Windows NT 10.0; Win64; x64) AppleWebKit/537.36 (KHTML, like Gecko) Chrome/86.0.4240.183 Safari/537.36",WebKit,Chrome,86.0.4240.183,Windows,10
26,1,null,"""",image-keyboard-response,135,104340,0.0-135.0,jspsych/disgustFaces/BM13DIS.JPG,null,"function(){
        return jsPsych.randomization.sampleWithoutReplacement(cueDuration, 1)[0]}",23,Cue,"""","""",11/9/2020 5:16,69.125.145.27,"Mozilla/5.0 (Windows NT 10.0; Win64; x64) AppleWebKit/537.36 (KHTML, like Gecko) Chrome/86.0.4240.183 Safari/537.36",WebKit,Chrome,86.0.4240.183,Windows,10
26,1,null,"""",image-keyboard-response,136,104457,0.0-136.0,jspsych/neutralFaces/AF31NES.JPG,null,100,23,backwardMask,"""","""",11/9/2020 5:16,69.125.145.27,"Mozilla/5.0 (Windows NT 10.0; Win64; x64) AppleWebKit/537.36 (KHTML, like Gecko) Chrome/86.0.4240.183 Safari/537.36",WebKit,Chrome,86.0.4240.183,Windows,10
26,1,null,"""",html-keyboard-response,137,104660,0.0-137.0,"<div style=""font-size:60px;"">+</div>",null,200,23,fixationBtwnNeutralMaskAndPrompt,"""","""",11/9/2020 5:16,69.125.145.27,"Mozilla/5.0 (Windows NT 10.0; Win64; x64) AppleWebKit/537.36 (KHTML, like Gecko) Chrome/86.0.4240.183 Safari/537.36",WebKit,Chrome,86.0.4240.183,Windows,10
26,1,362.03,"""",html-keyboard-response,138,105024,0.0-138.0,"<p> What was the emotion of the hidden face? <br> Press, <b>d</b> for <i>disgust face</i> or <b>n</b> for <i>neutral face</i></p>",68,"""",23,Query,"""",d,11/9/2020 5:16,69.125.145.27,"Mozilla/5.0 (Windows NT 10.0; Win64; x64) AppleWebKit/537.36 (KHTML, like Gecko) Chrome/86.0.4240.183 Safari/537.36",WebKit,Chrome,86.0.4240.183,Windows,10
26,1,null,"""",html-keyboard-response,139,106026,0.0-139.0,"<div style=""font-size:60px;"">+</div>",null,1000,24,ITI,"""","""",11/9/2020 5:16,69.125.145.27,"Mozilla/5.0 (Windows NT 10.0; Win64; x64) AppleWebKit/537.36 (KHTML, like Gecko) Chrome/86.0.4240.183 Safari/537.36",WebKit,Chrome,86.0.4240.183,Windows,10
26,1,null,"""",image-keyboard-response,140,106285,0.0-140.0,jspsych/scrambledDisgustFaces/scrambledAM15DIS.JPG,null,250,24,forwardMask,d,"""",11/9/2020 5:16,69.125.145.27,"Mozilla/5.0 (Windows NT 10.0; Win64; x64) AppleWebKit/537.36 (KHTML, like Gecko) Chrome/86.0.4240.183 Safari/537.36",WebKit,Chrome,86.0.4240.183,Windows,10
26,1,null,"""",image-keyboard-response,141,106462,0.0-141.0,jspsych/disgustFaces/AM15DIS.JPG,null,"function(){
        return jsPsych.randomization.sampleWithoutReplacement(cueDuration, 1)[0]}",24,Cue,"""","""",11/9/2020 5:16,69.125.145.27,"Mozilla/5.0 (Windows NT 10.0; Win64; x64) AppleWebKit/537.36 (KHTML, like Gecko) Chrome/86.0.4240.183 Safari/537.36",WebKit,Chrome,86.0.4240.183,Windows,10
26,1,null,"""",image-keyboard-response,142,106565,0.0-142.0,jspsych/neutralFaces/AM03NES.JPG,null,100,24,backwardMask,"""","""",11/9/2020 5:16,69.125.145.27,"Mozilla/5.0 (Windows NT 10.0; Win64; x64) AppleWebKit/537.36 (KHTML, like Gecko) Chrome/86.0.4240.183 Safari/537.36",WebKit,Chrome,86.0.4240.183,Windows,10
26,1,null,"""",html-keyboard-response,143,106768,0.0-143.0,"<div style=""font-size:60px;"">+</div>",null,200,24,fixationBtwnNeutralMaskAndPrompt,"""","""",11/9/2020 5:16,69.125.145.27,"Mozilla/5.0 (Windows NT 10.0; Win64; x64) AppleWebKit/537.36 (KHTML, like Gecko) Chrome/86.0.4240.183 Safari/537.36",WebKit,Chrome,86.0.4240.183,Windows,10
26,1,475.195,"""",html-keyboard-response,144,107252,0.0-144.0,"<p> What was the emotion of the hidden face? <br> Press, <b>d</b> for <i>disgust face</i> or <b>n</b> for <i>neutral face</i></p>",78,"""",24,Query,"""",n,11/9/2020 5:16,69.125.145.27,"Mozilla/5.0 (Windows NT 10.0; Win64; x64) AppleWebKit/537.36 (KHTML, like Gecko) Chrome/86.0.4240.183 Safari/537.36",WebKit,Chrome,86.0.4240.183,Windows,10
26,1,null,"""",html-keyboard-response,145,108445,0.0-145.0,"<div style=""font-size:60px;"">+</div>",null,1000,25,ITI,"""","""",11/9/2020 5:16,69.125.145.27,"Mozilla/5.0 (Windows NT 10.0; Win64; x64) AppleWebKit/537.36 (KHTML, like Gecko) Chrome/86.0.4240.183 Safari/537.36",WebKit,Chrome,86.0.4240.183,Windows,10
26,1,null,"""",image-keyboard-response,146,108698,0.0-146.0,jspsych/scrambledNeutralFaces/scrambledAF15NES.JPG,null,250,25,forwardMask,n,"""",11/9/2020 5:16,69.125.145.27,"Mozilla/5.0 (Windows NT 10.0; Win64; x64) AppleWebKit/537.36 (KHTML, like Gecko) Chrome/86.0.4240.183 Safari/537.36",WebKit,Chrome,86.0.4240.183,Windows,10
26,1,null,"""",image-keyboard-response,147,108829,0.0-147.0,jspsych/neutralFaces/AF15NES.JPG,null,"function(){
        return jsPsych.randomization.sampleWithoutReplacement(cueDuration, 1)[0]}",25,Cue,"""","""",11/9/2020 5:16,69.125.145.27,"Mozilla/5.0 (Windows NT 10.0; Win64; x64) AppleWebKit/537.36 (KHTML, like Gecko) Chrome/86.0.4240.183 Safari/537.36",WebKit,Chrome,86.0.4240.183,Windows,10
26,1,null,"""",image-keyboard-response,148,108932,0.0-148.0,jspsych/neutralFaces/BM23NES.JPG,null,100,25,backwardMask,"""","""",11/9/2020 5:16,69.125.145.27,"Mozilla/5.0 (Windows NT 10.0; Win64; x64) AppleWebKit/537.36 (KHTML, like Gecko) Chrome/86.0.4240.183 Safari/537.36",WebKit,Chrome,86.0.4240.183,Windows,10
26,1,null,"""",html-keyboard-response,149,109138,0.0-149.0,"<div style=""font-size:60px;"">+</div>",null,200,25,fixationBtwnNeutralMaskAndPrompt,"""","""",11/9/2020 5:16,69.125.145.27,"Mozilla/5.0 (Windows NT 10.0; Win64; x64) AppleWebKit/537.36 (KHTML, like Gecko) Chrome/86.0.4240.183 Safari/537.36",WebKit,Chrome,86.0.4240.183,Windows,10
26,1,1166.71,"""",html-keyboard-response,150,110306,0.0-150.0,"<p> What was the emotion of the hidden face? <br> Press, <b>d</b> for <i>disgust face</i> or <b>n</b> for <i>neutral face</i></p>",78,"""",25,Query,"""",n,11/9/2020 5:16,69.125.145.27,"Mozilla/5.0 (Windows NT 10.0; Win64; x64) AppleWebKit/537.36 (KHTML, like Gecko) Chrome/86.0.4240.183 Safari/537.36",WebKit,Chrome,86.0.4240.183,Windows,10
26,1,null,"""",html-keyboard-response,151,111312,0.0-151.0,"<div style=""font-size:60px;"">+</div>",null,1000,26,ITI,"""","""",11/9/2020 5:16,69.125.145.27,"Mozilla/5.0 (Windows NT 10.0; Win64; x64) AppleWebKit/537.36 (KHTML, like Gecko) Chrome/86.0.4240.183 Safari/537.36",WebKit,Chrome,86.0.4240.183,Windows,10
26,1,null,"""",image-keyboard-response,152,111598,0.0-152.0,jspsych/scrambledNeutralFaces/scrambledBF13NES.JPG,null,250,26,forwardMask,n,"""",11/9/2020 5:16,69.125.145.27,"Mozilla/5.0 (Windows NT 10.0; Win64; x64) AppleWebKit/537.36 (KHTML, like Gecko) Chrome/86.0.4240.183 Safari/537.36",WebKit,Chrome,86.0.4240.183,Windows,10
26,1,null,"""",image-keyboard-response,153,111803,0.0-153.0,jspsych/neutralFaces/BF13NES.JPG,null,"function(){
        return jsPsych.randomization.sampleWithoutReplacement(cueDuration, 1)[0]}",26,Cue,"""","""",11/9/2020 5:16,69.125.145.27,"Mozilla/5.0 (Windows NT 10.0; Win64; x64) AppleWebKit/537.36 (KHTML, like Gecko) Chrome/86.0.4240.183 Safari/537.36",WebKit,Chrome,86.0.4240.183,Windows,10
26,1,null,"""",image-keyboard-response,154,111905,0.0-154.0,jspsych/neutralFaces/AM25NES.JPG,null,100,26,backwardMask,"""","""",11/9/2020 5:16,69.125.145.27,"Mozilla/5.0 (Windows NT 10.0; Win64; x64) AppleWebKit/537.36 (KHTML, like Gecko) Chrome/86.0.4240.183 Safari/537.36",WebKit,Chrome,86.0.4240.183,Windows,10
26,1,null,"""",html-keyboard-response,155,112119,0.0-155.0,"<div style=""font-size:60px;"">+</div>",null,200,26,fixationBtwnNeutralMaskAndPrompt,"""","""",11/9/2020 5:16,69.125.145.27,"Mozilla/5.0 (Windows NT 10.0; Win64; x64) AppleWebKit/537.36 (KHTML, like Gecko) Chrome/86.0.4240.183 Safari/537.36",WebKit,Chrome,86.0.4240.183,Windows,10
26,1,230.2,"""",html-keyboard-response,156,112351,0.0-156.0,"<p> What was the emotion of the hidden face? <br> Press, <b>d</b> for <i>disgust face</i> or <b>n</b> for <i>neutral face</i></p>",68,"""",26,Query,"""",d,11/9/2020 5:16,69.125.145.27,"Mozilla/5.0 (Windows NT 10.0; Win64; x64) AppleWebKit/537.36 (KHTML, like Gecko) Chrome/86.0.4240.183 Safari/537.36",WebKit,Chrome,86.0.4240.183,Windows,10
26,1,null,"""",html-keyboard-response,157,113356,0.0-157.0,"<div style=""font-size:60px;"">+</div>",null,1000,27,ITI,"""","""",11/9/2020 5:16,69.125.145.27,"Mozilla/5.0 (Windows NT 10.0; Win64; x64) AppleWebKit/537.36 (KHTML, like Gecko) Chrome/86.0.4240.183 Safari/537.36",WebKit,Chrome,86.0.4240.183,Windows,10
26,1,null,"""",image-keyboard-response,158,113609,0.0-158.0,jspsych/scrambledDisgustFaces/scrambledBF27DIS.JPG,null,250,27,forwardMask,d,"""",11/9/2020 5:16,69.125.145.27,"Mozilla/5.0 (Windows NT 10.0; Win64; x64) AppleWebKit/537.36 (KHTML, like Gecko) Chrome/86.0.4240.183 Safari/537.36",WebKit,Chrome,86.0.4240.183,Windows,10
26,1,null,"""",image-keyboard-response,159,113629,0.0-159.0,jspsych/disgustFaces/BF27DIS.JPG,null,"function(){
        return jsPsych.randomization.sampleWithoutReplacement(cueDuration, 1)[0]}",27,Cue,"""","""",11/9/2020 5:16,69.125.145.27,"Mozilla/5.0 (Windows NT 10.0; Win64; x64) AppleWebKit/537.36 (KHTML, like Gecko) Chrome/86.0.4240.183 Safari/537.36",WebKit,Chrome,86.0.4240.183,Windows,10
26,1,null,"""",image-keyboard-response,160,113738,0.0-160.0,jspsych/neutralFaces/BF05NES.JPG,null,100,27,backwardMask,"""","""",11/9/2020 5:16,69.125.145.27,"Mozilla/5.0 (Windows NT 10.0; Win64; x64) AppleWebKit/537.36 (KHTML, like Gecko) Chrome/86.0.4240.183 Safari/537.36",WebKit,Chrome,86.0.4240.183,Windows,10
26,1,null,"""",html-keyboard-response,161,113949,0.0-161.0,"<div style=""font-size:60px;"">+</div>",null,200,27,fixationBtwnNeutralMaskAndPrompt,"""","""",11/9/2020 5:16,69.125.145.27,"Mozilla/5.0 (Windows NT 10.0; Win64; x64) AppleWebKit/537.36 (KHTML, like Gecko) Chrome/86.0.4240.183 Safari/537.36",WebKit,Chrome,86.0.4240.183,Windows,10
26,1,416.07,"""",html-keyboard-response,162,114366,0.0-162.0,"<p> What was the emotion of the hidden face? <br> Press, <b>d</b> for <i>disgust face</i> or <b>n</b> for <i>neutral face</i></p>",78,"""",27,Query,"""",n,11/9/2020 5:16,69.125.145.27,"Mozilla/5.0 (Windows NT 10.0; Win64; x64) AppleWebKit/537.36 (KHTML, like Gecko) Chrome/86.0.4240.183 Safari/537.36",WebKit,Chrome,86.0.4240.183,Windows,10
26,1,null,"""",html-keyboard-response,163,115375,0.0-163.0,"<div style=""font-size:60px;"">+</div>",null,1000,28,ITI,"""","""",11/9/2020 5:16,69.125.145.27,"Mozilla/5.0 (Windows NT 10.0; Win64; x64) AppleWebKit/537.36 (KHTML, like Gecko) Chrome/86.0.4240.183 Safari/537.36",WebKit,Chrome,86.0.4240.183,Windows,10
26,1,null,"""",image-keyboard-response,164,115641,0.0-164.0,jspsych/scrambledDisgustFaces/scrambledAF26DIS.JPG,null,250,28,forwardMask,d,"""",11/9/2020 5:16,69.125.145.27,"Mozilla/5.0 (Windows NT 10.0; Win64; x64) AppleWebKit/537.36 (KHTML, like Gecko) Chrome/86.0.4240.183 Safari/537.36",WebKit,Chrome,86.0.4240.183,Windows,10
26,1,null,"""",image-keyboard-response,165,115662,0.0-165.0,jspsych/disgustFaces/AF26DIS.JPG,null,"function(){
        return jsPsych.randomization.sampleWithoutReplacement(cueDuration, 1)[0]}",28,Cue,"""","""",11/9/2020 5:16,69.125.145.27,"Mozilla/5.0 (Windows NT 10.0; Win64; x64) AppleWebKit/537.36 (KHTML, like Gecko) Chrome/86.0.4240.183 Safari/537.36",WebKit,Chrome,86.0.4240.183,Windows,10
26,1,null,"""",image-keyboard-response,166,115765,0.0-166.0,jspsych/neutralFaces/AM15NES.JPG,null,100,28,backwardMask,"""","""",11/9/2020 5:16,69.125.145.27,"Mozilla/5.0 (Windows NT 10.0; Win64; x64) AppleWebKit/537.36 (KHTML, like Gecko) Chrome/86.0.4240.183 Safari/537.36",WebKit,Chrome,86.0.4240.183,Windows,10
26,1,null,"""",html-keyboard-response,167,115969,0.0-167.0,"<div style=""font-size:60px;"">+</div>",null,200,28,fixationBtwnNeutralMaskAndPrompt,"""","""",11/9/2020 5:16,69.125.145.27,"Mozilla/5.0 (Windows NT 10.0; Win64; x64) AppleWebKit/537.36 (KHTML, like Gecko) Chrome/86.0.4240.183 Safari/537.36",WebKit,Chrome,86.0.4240.183,Windows,10
26,1,974.315,"""",html-keyboard-response,168,116945,0.0-168.0,"<p> What was the emotion of the hidden face? <br> Press, <b>d</b> for <i>disgust face</i> or <b>n</b> for <i>neutral face</i></p>",78,"""",28,Query,"""",n,11/9/2020 5:16,69.125.145.27,"Mozilla/5.0 (Windows NT 10.0; Win64; x64) AppleWebKit/537.36 (KHTML, like Gecko) Chrome/86.0.4240.183 Safari/537.36",WebKit,Chrome,86.0.4240.183,Windows,10
26,1,null,"""",html-keyboard-response,169,117948,0.0-169.0,"<div style=""font-size:60px;"">+</div>",null,1000,29,ITI,"""","""",11/9/2020 5:16,69.125.145.27,"Mozilla/5.0 (Windows NT 10.0; Win64; x64) AppleWebKit/537.36 (KHTML, like Gecko) Chrome/86.0.4240.183 Safari/537.36",WebKit,Chrome,86.0.4240.183,Windows,10
26,1,null,"""",image-keyboard-response,170,118229,0.0-170.0,jspsych/scrambledDisgustFaces/scrambledAM19DIS.JPG,null,250,29,forwardMask,d,"""",11/9/2020 5:16,69.125.145.27,"Mozilla/5.0 (Windows NT 10.0; Win64; x64) AppleWebKit/537.36 (KHTML, like Gecko) Chrome/86.0.4240.183 Safari/537.36",WebKit,Chrome,86.0.4240.183,Windows,10
26,1,null,"""",image-keyboard-response,171,118310,0.0-171.0,jspsych/disgustFaces/AM19DIS.JPG,null,"function(){
        return jsPsych.randomization.sampleWithoutReplacement(cueDuration, 1)[0]}",29,Cue,"""","""",11/9/2020 5:16,69.125.145.27,"Mozilla/5.0 (Windows NT 10.0; Win64; x64) AppleWebKit/537.36 (KHTML, like Gecko) Chrome/86.0.4240.183 Safari/537.36",WebKit,Chrome,86.0.4240.183,Windows,10
26,1,null,"""",image-keyboard-response,172,118428,0.0-172.0,jspsych/neutralFaces/AF05NES.JPG,null,100,29,backwardMask,"""","""",11/9/2020 5:16,69.125.145.27,"Mozilla/5.0 (Windows NT 10.0; Win64; x64) AppleWebKit/537.36 (KHTML, like Gecko) Chrome/86.0.4240.183 Safari/537.36",WebKit,Chrome,86.0.4240.183,Windows,10
26,1,null,"""",html-keyboard-response,173,118647,0.0-173.0,"<div style=""font-size:60px;"">+</div>",null,200,29,fixationBtwnNeutralMaskAndPrompt,"""","""",11/9/2020 5:16,69.125.145.27,"Mozilla/5.0 (Windows NT 10.0; Win64; x64) AppleWebKit/537.36 (KHTML, like Gecko) Chrome/86.0.4240.183 Safari/537.36",WebKit,Chrome,86.0.4240.183,Windows,10
26,1,328.415,"""",html-keyboard-response,174,118978,0.0-174.0,"<p> What was the emotion of the hidden face? <br> Press, <b>d</b> for <i>disgust face</i> or <b>n</b> for <i>neutral face</i></p>",78,"""",29,Query,"""",n,11/9/2020 5:16,69.125.145.27,"Mozilla/5.0 (Windows NT 10.0; Win64; x64) AppleWebKit/537.36 (KHTML, like Gecko) Chrome/86.0.4240.183 Safari/537.36",WebKit,Chrome,86.0.4240.183,Windows,10
26,1,null,"""",html-keyboard-response,175,119995,0.0-175.0,"<div style=""font-size:60px;"">+</div>",null,1000,30,ITI,"""","""",11/9/2020 5:16,69.125.145.27,"Mozilla/5.0 (Windows NT 10.0; Win64; x64) AppleWebKit/537.36 (KHTML, like Gecko) Chrome/86.0.4240.183 Safari/537.36",WebKit,Chrome,86.0.4240.183,Windows,10
26,1,null,"""",image-keyboard-response,176,120251,0.0-176.0,jspsych/scrambledDisgustFaces/scrambledAM18DIS.JPG,null,250,30,forwardMask,d,"""",11/9/2020 5:16,69.125.145.27,"Mozilla/5.0 (Windows NT 10.0; Win64; x64) AppleWebKit/537.36 (KHTML, like Gecko) Chrome/86.0.4240.183 Safari/537.36",WebKit,Chrome,86.0.4240.183,Windows,10
26,1,null,"""",image-keyboard-response,177,120354,0.0-177.0,jspsych/disgustFaces/AM18DIS.JPG,null,"function(){
        return jsPsych.randomization.sampleWithoutReplacement(cueDuration, 1)[0]}",30,Cue,"""","""",11/9/2020 5:16,69.125.145.27,"Mozilla/5.0 (Windows NT 10.0; Win64; x64) AppleWebKit/537.36 (KHTML, like Gecko) Chrome/86.0.4240.183 Safari/537.36",WebKit,Chrome,86.0.4240.183,Windows,10
26,1,null,"""",image-keyboard-response,178,120462,0.0-178.0,jspsych/neutralFaces/AM31NES.JPG,null,100,30,backwardMask,"""","""",11/9/2020 5:16,69.125.145.27,"Mozilla/5.0 (Windows NT 10.0; Win64; x64) AppleWebKit/537.36 (KHTML, like Gecko) Chrome/86.0.4240.183 Safari/537.36",WebKit,Chrome,86.0.4240.183,Windows,10
26,1,null,"""",html-keyboard-response,179,120667,0.0-179.0,"<div style=""font-size:60px;"">+</div>",null,200,30,fixationBtwnNeutralMaskAndPrompt,"""","""",11/9/2020 5:16,69.125.145.27,"Mozilla/5.0 (Windows NT 10.0; Win64; x64) AppleWebKit/537.36 (KHTML, like Gecko) Chrome/86.0.4240.183 Safari/537.36",WebKit,Chrome,86.0.4240.183,Windows,10
26,1,287.675,"""",html-keyboard-response,180,120956,0.0-180.0,"<p> What was the emotion of the hidden face? <br> Press, <b>d</b> for <i>disgust face</i> or <b>n</b> for <i>neutral face</i></p>",68,"""",30,Query,"""",d,11/9/2020 5:16,69.125.145.27,"Mozilla/5.0 (Windows NT 10.0; Win64; x64) AppleWebKit/537.36 (KHTML, like Gecko) Chrome/86.0.4240.183 Safari/537.36",WebKit,Chrome,86.0.4240.183,Windows,10
26,1,null,"""",html-keyboard-response,181,121961,0.0-181.0,"<div style=""font-size:60px;"">+</div>",null,1000,31,ITI,"""","""",11/9/2020 5:16,69.125.145.27,"Mozilla/5.0 (Windows NT 10.0; Win64; x64) AppleWebKit/537.36 (KHTML, like Gecko) Chrome/86.0.4240.183 Safari/537.36",WebKit,Chrome,86.0.4240.183,Windows,10
26,1,null,"""",image-keyboard-response,182,122222,0.0-182.0,jspsych/scrambledNeutralFaces/scrambledAM31NES.JPG,null,250,31,forwardMask,n,"""",11/9/2020 5:16,69.125.145.27,"Mozilla/5.0 (Windows NT 10.0; Win64; x64) AppleWebKit/537.36 (KHTML, like Gecko) Chrome/86.0.4240.183 Safari/537.36",WebKit,Chrome,86.0.4240.183,Windows,10
26,1,null,"""",image-keyboard-response,183,122241,0.0-183.0,jspsych/neutralFaces/AM31NES.JPG,null,"function(){
        return jsPsych.randomization.sampleWithoutReplacement(cueDuration, 1)[0]}",31,Cue,"""","""",11/9/2020 5:16,69.125.145.27,"Mozilla/5.0 (Windows NT 10.0; Win64; x64) AppleWebKit/537.36 (KHTML, like Gecko) Chrome/86.0.4240.183 Safari/537.36",WebKit,Chrome,86.0.4240.183,Windows,10
26,1,null,"""",image-keyboard-response,184,122344,0.0-184.0,jspsych/neutralFaces/AF26NES.JPG,null,100,31,backwardMask,"""","""",11/9/2020 5:16,69.125.145.27,"Mozilla/5.0 (Windows NT 10.0; Win64; x64) AppleWebKit/537.36 (KHTML, like Gecko) Chrome/86.0.4240.183 Safari/537.36",WebKit,Chrome,86.0.4240.183,Windows,10
26,1,null,"""",html-keyboard-response,185,122546,0.0-185.0,"<div style=""font-size:60px;"">+</div>",null,200,31,fixationBtwnNeutralMaskAndPrompt,"""","""",11/9/2020 5:16,69.125.145.27,"Mozilla/5.0 (Windows NT 10.0; Win64; x64) AppleWebKit/537.36 (KHTML, like Gecko) Chrome/86.0.4240.183 Safari/537.36",WebKit,Chrome,86.0.4240.183,Windows,10
26,1,658.915,"""",html-keyboard-response,186,123206,0.0-186.0,"<p> What was the emotion of the hidden face? <br> Press, <b>d</b> for <i>disgust face</i> or <b>n</b> for <i>neutral face</i></p>",78,"""",31,Query,"""",n,11/9/2020 5:16,69.125.145.27,"Mozilla/5.0 (Windows NT 10.0; Win64; x64) AppleWebKit/537.36 (KHTML, like Gecko) Chrome/86.0.4240.183 Safari/537.36",WebKit,Chrome,86.0.4240.183,Windows,10
26,1,null,"""",html-keyboard-response,187,124209,0.0-187.0,"<div style=""font-size:60px;"">+</div>",null,1000,32,ITI,"""","""",11/9/2020 5:16,69.125.145.27,"Mozilla/5.0 (Windows NT 10.0; Win64; x64) AppleWebKit/537.36 (KHTML, like Gecko) Chrome/86.0.4240.183 Safari/537.36",WebKit,Chrome,86.0.4240.183,Windows,10
26,1,null,"""",image-keyboard-response,188,124463,0.0-188.0,jspsych/scrambledDisgustFaces/scrambledAM25DIS.JPG,null,250,32,forwardMask,d,"""",11/9/2020 5:16,69.125.145.27,"Mozilla/5.0 (Windows NT 10.0; Win64; x64) AppleWebKit/537.36 (KHTML, like Gecko) Chrome/86.0.4240.183 Safari/537.36",WebKit,Chrome,86.0.4240.183,Windows,10
26,1,null,"""",image-keyboard-response,189,124666,0.0-189.0,jspsych/disgustFaces/AM25DIS.JPG,null,"function(){
        return jsPsych.randomization.sampleWithoutReplacement(cueDuration, 1)[0]}",32,Cue,"""","""",11/9/2020 5:16,69.125.145.27,"Mozilla/5.0 (Windows NT 10.0; Win64; x64) AppleWebKit/537.36 (KHTML, like Gecko) Chrome/86.0.4240.183 Safari/537.36",WebKit,Chrome,86.0.4240.183,Windows,10
26,1,null,"""",image-keyboard-response,190,124770,0.0-190.0,jspsych/neutralFaces/BM30NES.JPG,null,100,32,backwardMask,"""","""",11/9/2020 5:16,69.125.145.27,"Mozilla/5.0 (Windows NT 10.0; Win64; x64) AppleWebKit/537.36 (KHTML, like Gecko) Chrome/86.0.4240.183 Safari/537.36",WebKit,Chrome,86.0.4240.183,Windows,10
26,1,null,"""",html-keyboard-response,191,124981,0.0-191.0,"<div style=""font-size:60px;"">+</div>",null,200,32,fixationBtwnNeutralMaskAndPrompt,"""","""",11/9/2020 5:16,69.125.145.27,"Mozilla/5.0 (Windows NT 10.0; Win64; x64) AppleWebKit/537.36 (KHTML, like Gecko) Chrome/86.0.4240.183 Safari/537.36",WebKit,Chrome,86.0.4240.183,Windows,10
26,1,230.625,"""",html-keyboard-response,192,125214,0.0-192.0,"<p> What was the emotion of the hidden face? <br> Press, <b>d</b> for <i>disgust face</i> or <b>n</b> for <i>neutral face</i></p>",68,"""",32,Query,"""",d,11/9/2020 5:16,69.125.145.27,"Mozilla/5.0 (Windows NT 10.0; Win64; x64) AppleWebKit/537.36 (KHTML, like Gecko) Chrome/86.0.4240.183 Safari/537.36",WebKit,Chrome,86.0.4240.183,Windows,10
26,1,null,"""",html-keyboard-response,193,126218,0.0-193.0,"<div style=""font-size:60px;"">+</div>",null,1000,33,ITI,"""","""",11/9/2020 5:16,69.125.145.27,"Mozilla/5.0 (Windows NT 10.0; Win64; x64) AppleWebKit/537.36 (KHTML, like Gecko) Chrome/86.0.4240.183 Safari/537.36",WebKit,Chrome,86.0.4240.183,Windows,10
26,1,null,"""",image-keyboard-response,194,126474,0.0-194.0,jspsych/scrambledNeutralFaces/scrambledAF20NES.JPG,null,250,33,forwardMask,n,"""",11/9/2020 5:16,69.125.145.27,"Mozilla/5.0 (Windows NT 10.0; Win64; x64) AppleWebKit/537.36 (KHTML, like Gecko) Chrome/86.0.4240.183 Safari/537.36",WebKit,Chrome,86.0.4240.183,Windows,10
26,1,null,"""",image-keyboard-response,195,126492,0.0-195.0,jspsych/neutralFaces/AF20NES.JPG,null,"function(){
        return jsPsych.randomization.sampleWithoutReplacement(cueDuration, 1)[0]}",33,Cue,"""","""",11/9/2020 5:16,69.125.145.27,"Mozilla/5.0 (Windows NT 10.0; Win64; x64) AppleWebKit/537.36 (KHTML, like Gecko) Chrome/86.0.4240.183 Safari/537.36",WebKit,Chrome,86.0.4240.183,Windows,10
26,1,null,"""",image-keyboard-response,196,126596,0.0-196.0,jspsych/neutralFaces/AF15NES.JPG,null,100,33,backwardMask,"""","""",11/9/2020 5:16,69.125.145.27,"Mozilla/5.0 (Windows NT 10.0; Win64; x64) AppleWebKit/537.36 (KHTML, like Gecko) Chrome/86.0.4240.183 Safari/537.36",WebKit,Chrome,86.0.4240.183,Windows,10
26,1,null,"""",html-keyboard-response,197,126800,0.0-197.0,"<div style=""font-size:60px;"">+</div>",null,200,33,fixationBtwnNeutralMaskAndPrompt,"""","""",11/9/2020 5:16,69.125.145.27,"Mozilla/5.0 (Windows NT 10.0; Win64; x64) AppleWebKit/537.36 (KHTML, like Gecko) Chrome/86.0.4240.183 Safari/537.36",WebKit,Chrome,86.0.4240.183,Windows,10
26,1,117.9,"""",html-keyboard-response,198,126920,0.0-198.0,"<p> What was the emotion of the hidden face? <br> Press, <b>d</b> for <i>disgust face</i> or <b>n</b> for <i>neutral face</i></p>",78,"""",33,Query,"""",n,11/9/2020 5:16,69.125.145.27,"Mozilla/5.0 (Windows NT 10.0; Win64; x64) AppleWebKit/537.36 (KHTML, like Gecko) Chrome/86.0.4240.183 Safari/537.36",WebKit,Chrome,86.0.4240.183,Windows,10
26,1,null,"""",html-keyboard-response,199,127923,0.0-199.0,"<div style=""font-size:60px;"">+</div>",null,1000,34,ITI,"""","""",11/9/2020 5:16,69.125.145.27,"Mozilla/5.0 (Windows NT 10.0; Win64; x64) AppleWebKit/537.36 (KHTML, like Gecko) Chrome/86.0.4240.183 Safari/537.36",WebKit,Chrome,86.0.4240.183,Windows,10
26,1,null,"""",image-keyboard-response,200,128189,0.0-200.0,jspsych/scrambledNeutralFaces/scrambledAF23NES.JPG,null,250,34,forwardMask,n,"""",11/9/2020 5:16,69.125.145.27,"Mozilla/5.0 (Windows NT 10.0; Win64; x64) AppleWebKit/537.36 (KHTML, like Gecko) Chrome/86.0.4240.183 Safari/537.36",WebKit,Chrome,86.0.4240.183,Windows,10
26,1,null,"""",image-keyboard-response,201,128391,0.0-201.0,jspsych/neutralFaces/AF23NES.JPG,null,"function(){
        return jsPsych.randomization.sampleWithoutReplacement(cueDuration, 1)[0]}",34,Cue,"""","""",11/9/2020 5:16,69.125.145.27,"Mozilla/5.0 (Windows NT 10.0; Win64; x64) AppleWebKit/537.36 (KHTML, like Gecko) Chrome/86.0.4240.183 Safari/537.36",WebKit,Chrome,86.0.4240.183,Windows,10
26,1,null,"""",image-keyboard-response,202,128497,0.0-202.0,jspsych/neutralFaces/BM26NES.JPG,null,100,34,backwardMask,"""","""",11/9/2020 5:16,69.125.145.27,"Mozilla/5.0 (Windows NT 10.0; Win64; x64) AppleWebKit/537.36 (KHTML, like Gecko) Chrome/86.0.4240.183 Safari/537.36",WebKit,Chrome,86.0.4240.183,Windows,10
26,1,null,"""",html-keyboard-response,203,128701,0.0-203.0,"<div style=""font-size:60px;"">+</div>",null,200,34,fixationBtwnNeutralMaskAndPrompt,"""","""",11/9/2020 5:16,69.125.145.27,"Mozilla/5.0 (Windows NT 10.0; Win64; x64) AppleWebKit/537.36 (KHTML, like Gecko) Chrome/86.0.4240.183 Safari/537.36",WebKit,Chrome,86.0.4240.183,Windows,10
26,1,326.65,"""",html-keyboard-response,204,129029,0.0-204.0,"<p> What was the emotion of the hidden face? <br> Press, <b>d</b> for <i>disgust face</i> or <b>n</b> for <i>neutral face</i></p>",78,"""",34,Query,"""",n,11/9/2020 5:16,69.125.145.27,"Mozilla/5.0 (Windows NT 10.0; Win64; x64) AppleWebKit/537.36 (KHTML, like Gecko) Chrome/86.0.4240.183 Safari/537.36",WebKit,Chrome,86.0.4240.183,Windows,10
26,1,null,"""",html-keyboard-response,205,130050,0.0-205.0,"<div style=""font-size:60px;"">+</div>",null,1000,35,ITI,"""","""",11/9/2020 5:16,69.125.145.27,"Mozilla/5.0 (Windows NT 10.0; Win64; x64) AppleWebKit/537.36 (KHTML, like Gecko) Chrome/86.0.4240.183 Safari/537.36",WebKit,Chrome,86.0.4240.183,Windows,10
26,1,null,"""",image-keyboard-response,206,130308,0.0-206.0,jspsych/scrambledDisgustFaces/scrambledBF35DIS.JPG,null,250,35,forwardMask,d,"""",11/9/2020 5:16,69.125.145.27,"Mozilla/5.0 (Windows NT 10.0; Win64; x64) AppleWebKit/537.36 (KHTML, like Gecko) Chrome/86.0.4240.183 Safari/537.36",WebKit,Chrome,86.0.4240.183,Windows,10
26,1,null,"""",image-keyboard-response,207,130327,0.0-207.0,jspsych/disgustFaces/BF35DIS.JPG,null,"function(){
        return jsPsych.randomization.sampleWithoutReplacement(cueDuration, 1)[0]}",35,Cue,"""","""",11/9/2020 5:16,69.125.145.27,"Mozilla/5.0 (Windows NT 10.0; Win64; x64) AppleWebKit/537.36 (KHTML, like Gecko) Chrome/86.0.4240.183 Safari/537.36",WebKit,Chrome,86.0.4240.183,Windows,10
26,1,null,"""",image-keyboard-response,208,130429,0.0-208.0,jspsych/neutralFaces/AM08NES.JPG,null,100,35,backwardMask,"""","""",11/9/2020 5:16,69.125.145.27,"Mozilla/5.0 (Windows NT 10.0; Win64; x64) AppleWebKit/537.36 (KHTML, like Gecko) Chrome/86.0.4240.183 Safari/537.36",WebKit,Chrome,86.0.4240.183,Windows,10
26,1,null,"""",html-keyboard-response,209,130642,0.0-209.0,"<div style=""font-size:60px;"">+</div>",null,200,35,fixationBtwnNeutralMaskAndPrompt,"""","""",11/9/2020 5:16,69.125.145.27,"Mozilla/5.0 (Windows NT 10.0; Win64; x64) AppleWebKit/537.36 (KHTML, like Gecko) Chrome/86.0.4240.183 Safari/537.36",WebKit,Chrome,86.0.4240.183,Windows,10
26,1,323.055,"""",html-keyboard-response,210,130968,0.0-210.0,"<p> What was the emotion of the hidden face? <br> Press, <b>d</b> for <i>disgust face</i> or <b>n</b> for <i>neutral face</i></p>",78,"""",35,Query,"""",n,11/9/2020 5:16,69.125.145.27,"Mozilla/5.0 (Windows NT 10.0; Win64; x64) AppleWebKit/537.36 (KHTML, like Gecko) Chrome/86.0.4240.183 Safari/537.36",WebKit,Chrome,86.0.4240.183,Windows,10
26,1,null,"""",html-keyboard-response,211,132024,0.0-211.0,"<div style=""font-size:60px;"">+</div>",null,1000,36,ITI,"""","""",11/9/2020 5:16,69.125.145.27,"Mozilla/5.0 (Windows NT 10.0; Win64; x64) AppleWebKit/537.36 (KHTML, like Gecko) Chrome/86.0.4240.183 Safari/537.36",WebKit,Chrome,86.0.4240.183,Windows,10
26,1,null,"""",image-keyboard-response,212,132279,0.0-212.0,jspsych/scrambledDisgustFaces/scrambledBM28DIS.JPG,null,250,36,forwardMask,d,"""",11/9/2020 5:16,69.125.145.27,"Mozilla/5.0 (Windows NT 10.0; Win64; x64) AppleWebKit/537.36 (KHTML, like Gecko) Chrome/86.0.4240.183 Safari/537.36",WebKit,Chrome,86.0.4240.183,Windows,10
26,1,null,"""",image-keyboard-response,213,132299,0.0-213.0,jspsych/disgustFaces/BM28DIS.JPG,null,"function(){
        return jsPsych.randomization.sampleWithoutReplacement(cueDuration, 1)[0]}",36,Cue,"""","""",11/9/2020 5:16,69.125.145.27,"Mozilla/5.0 (Windows NT 10.0; Win64; x64) AppleWebKit/537.36 (KHTML, like Gecko) Chrome/86.0.4240.183 Safari/537.36",WebKit,Chrome,86.0.4240.183,Windows,10
26,1,null,"""",image-keyboard-response,214,132405,0.0-214.0,jspsych/neutralFaces/BF05NES.JPG,null,100,36,backwardMask,"""","""",11/9/2020 5:16,69.125.145.27,"Mozilla/5.0 (Windows NT 10.0; Win64; x64) AppleWebKit/537.36 (KHTML, like Gecko) Chrome/86.0.4240.183 Safari/537.36",WebKit,Chrome,86.0.4240.183,Windows,10
26,1,null,"""",html-keyboard-response,215,132608,0.0-215.0,"<div style=""font-size:60px;"">+</div>",null,200,36,fixationBtwnNeutralMaskAndPrompt,"""","""",11/9/2020 5:16,69.125.145.27,"Mozilla/5.0 (Windows NT 10.0; Win64; x64) AppleWebKit/537.36 (KHTML, like Gecko) Chrome/86.0.4240.183 Safari/537.36",WebKit,Chrome,86.0.4240.183,Windows,10
26,1,316.045,"""",html-keyboard-response,216,132925,0.0-216.0,"<p> What was the emotion of the hidden face? <br> Press, <b>d</b> for <i>disgust face</i> or <b>n</b> for <i>neutral face</i></p>",78,"""",36,Query,"""",n,11/9/2020 5:16,69.125.145.27,"Mozilla/5.0 (Windows NT 10.0; Win64; x64) AppleWebKit/537.36 (KHTML, like Gecko) Chrome/86.0.4240.183 Safari/537.36",WebKit,Chrome,86.0.4240.183,Windows,10
26,1,null,"""",html-keyboard-response,217,133929,0.0-217.0,"<div style=""font-size:60px;"">+</div>",null,1000,37,ITI,"""","""",11/9/2020 5:16,69.125.145.27,"Mozilla/5.0 (Windows NT 10.0; Win64; x64) AppleWebKit/537.36 (KHTML, like Gecko) Chrome/86.0.4240.183 Safari/537.36",WebKit,Chrome,86.0.4240.183,Windows,10
26,1,null,"""",image-keyboard-response,218,134190,0.0-218.0,jspsych/scrambledNeutralFaces/scrambledBF05NES.JPG,null,250,37,forwardMask,n,"""",11/9/2020 5:16,69.125.145.27,"Mozilla/5.0 (Windows NT 10.0; Win64; x64) AppleWebKit/537.36 (KHTML, like Gecko) Chrome/86.0.4240.183 Safari/537.36",WebKit,Chrome,86.0.4240.183,Windows,10
26,1,null,"""",image-keyboard-response,219,134270,0.0-219.0,jspsych/neutralFaces/BF05NES.JPG,null,"function(){
        return jsPsych.randomization.sampleWithoutReplacement(cueDuration, 1)[0]}",37,Cue,"""","""",11/9/2020 5:16,69.125.145.27,"Mozilla/5.0 (Windows NT 10.0; Win64; x64) AppleWebKit/537.36 (KHTML, like Gecko) Chrome/86.0.4240.183 Safari/537.36",WebKit,Chrome,86.0.4240.183,Windows,10
26,1,null,"""",image-keyboard-response,220,134377,0.0-220.0,jspsych/neutralFaces/AM25NES.JPG,null,100,37,backwardMask,"""","""",11/9/2020 5:16,69.125.145.27,"Mozilla/5.0 (Windows NT 10.0; Win64; x64) AppleWebKit/537.36 (KHTML, like Gecko) Chrome/86.0.4240.183 Safari/537.36",WebKit,Chrome,86.0.4240.183,Windows,10
26,1,null,"""",html-keyboard-response,221,134584,0.0-221.0,"<div style=""font-size:60px;"">+</div>",null,200,37,fixationBtwnNeutralMaskAndPrompt,"""","""",11/9/2020 5:16,69.125.145.27,"Mozilla/5.0 (Windows NT 10.0; Win64; x64) AppleWebKit/537.36 (KHTML, like Gecko) Chrome/86.0.4240.183 Safari/537.36",WebKit,Chrome,86.0.4240.183,Windows,10
26,1,297.15,"""",html-keyboard-response,222,134888,0.0-222.0,"<p> What was the emotion of the hidden face? <br> Press, <b>d</b> for <i>disgust face</i> or <b>n</b> for <i>neutral face</i></p>",78,"""",37,Query,"""",n,11/9/2020 5:16,69.125.145.27,"Mozilla/5.0 (Windows NT 10.0; Win64; x64) AppleWebKit/537.36 (KHTML, like Gecko) Chrome/86.0.4240.183 Safari/537.36",WebKit,Chrome,86.0.4240.183,Windows,10
26,1,null,"""",html-keyboard-response,223,135889,0.0-223.0,"<div style=""font-size:60px;"">+</div>",null,1000,38,ITI,"""","""",11/9/2020 5:16,69.125.145.27,"Mozilla/5.0 (Windows NT 10.0; Win64; x64) AppleWebKit/537.36 (KHTML, like Gecko) Chrome/86.0.4240.183 Safari/537.36",WebKit,Chrome,86.0.4240.183,Windows,10
26,1,null,"""",image-keyboard-response,224,136146,0.0-224.0,jspsych/scrambledNeutralFaces/scrambledAF13NES.JPG,null,250,38,forwardMask,n,"""",11/9/2020 5:16,69.125.145.27,"Mozilla/5.0 (Windows NT 10.0; Win64; x64) AppleWebKit/537.36 (KHTML, like Gecko) Chrome/86.0.4240.183 Safari/537.36",WebKit,Chrome,86.0.4240.183,Windows,10
26,1,null,"""",image-keyboard-response,225,136252,0.0-225.0,jspsych/neutralFaces/AF13NES.JPG,null,"function(){
        return jsPsych.randomization.sampleWithoutReplacement(cueDuration, 1)[0]}",38,Cue,"""","""",11/9/2020 5:16,69.125.145.27,"Mozilla/5.0 (Windows NT 10.0; Win64; x64) AppleWebKit/537.36 (KHTML, like Gecko) Chrome/86.0.4240.183 Safari/537.36",WebKit,Chrome,86.0.4240.183,Windows,10
26,1,null,"""",image-keyboard-response,226,136358,0.0-226.0,jspsych/neutralFaces/AM21NES.JPG,null,100,38,backwardMask,"""","""",11/9/2020 5:16,69.125.145.27,"Mozilla/5.0 (Windows NT 10.0; Win64; x64) AppleWebKit/537.36 (KHTML, like Gecko) Chrome/86.0.4240.183 Safari/537.36",WebKit,Chrome,86.0.4240.183,Windows,10
26,1,null,"""",html-keyboard-response,227,136560,0.0-227.0,"<div style=""font-size:60px;"">+</div>",null,200,38,fixationBtwnNeutralMaskAndPrompt,"""","""",11/9/2020 5:16,69.125.145.27,"Mozilla/5.0 (Windows NT 10.0; Win64; x64) AppleWebKit/537.36 (KHTML, like Gecko) Chrome/86.0.4240.183 Safari/537.36",WebKit,Chrome,86.0.4240.183,Windows,10
26,1,305.15,"""",html-keyboard-response,228,136867,0.0-228.0,"<p> What was the emotion of the hidden face? <br> Press, <b>d</b> for <i>disgust face</i> or <b>n</b> for <i>neutral face</i></p>",78,"""",38,Query,"""",n,11/9/2020 5:16,69.125.145.27,"Mozilla/5.0 (Windows NT 10.0; Win64; x64) AppleWebKit/537.36 (KHTML, like Gecko) Chrome/86.0.4240.183 Safari/537.36",WebKit,Chrome,86.0.4240.183,Windows,10
26,1,null,"""",html-keyboard-response,229,137870,0.0-229.0,"<div style=""font-size:60px;"">+</div>",null,1000,39,ITI,"""","""",11/9/2020 5:16,69.125.145.27,"Mozilla/5.0 (Windows NT 10.0; Win64; x64) AppleWebKit/537.36 (KHTML, like Gecko) Chrome/86.0.4240.183 Safari/537.36",WebKit,Chrome,86.0.4240.183,Windows,10
26,1,null,"""",image-keyboard-response,230,138138,0.0-230.0,jspsych/scrambledNeutralFaces/scrambledBF30NES.JPG,null,250,39,forwardMask,n,"""",11/9/2020 5:16,69.125.145.27,"Mozilla/5.0 (Windows NT 10.0; Win64; x64) AppleWebKit/537.36 (KHTML, like Gecko) Chrome/86.0.4240.183 Safari/537.36",WebKit,Chrome,86.0.4240.183,Windows,10
26,1,null,"""",image-keyboard-response,231,138322,0.0-231.0,jspsych/neutralFaces/BF30NES.JPG,null,"function(){
        return jsPsych.randomization.sampleWithoutReplacement(cueDuration, 1)[0]}",39,Cue,"""","""",11/9/2020 5:16,69.125.145.27,"Mozilla/5.0 (Windows NT 10.0; Win64; x64) AppleWebKit/537.36 (KHTML, like Gecko) Chrome/86.0.4240.183 Safari/537.36",WebKit,Chrome,86.0.4240.183,Windows,10
26,1,null,"""",image-keyboard-response,232,138457,0.0-232.0,jspsych/neutralFaces/AF07NES.JPG,null,100,39,backwardMask,"""","""",11/9/2020 5:16,69.125.145.27,"Mozilla/5.0 (Windows NT 10.0; Win64; x64) AppleWebKit/537.36 (KHTML, like Gecko) Chrome/86.0.4240.183 Safari/537.36",WebKit,Chrome,86.0.4240.183,Windows,10
26,1,null,"""",html-keyboard-response,233,138658,0.0-233.0,"<div style=""font-size:60px;"">+</div>",null,200,39,fixationBtwnNeutralMaskAndPrompt,"""","""",11/9/2020 5:16,69.125.145.27,"Mozilla/5.0 (Windows NT 10.0; Win64; x64) AppleWebKit/537.36 (KHTML, like Gecko) Chrome/86.0.4240.183 Safari/537.36",WebKit,Chrome,86.0.4240.183,Windows,10
26,1,677.2,"""",html-keyboard-response,234,139364,0.0-234.0,"<p> What was the emotion of the hidden face? <br> Press, <b>d</b> for <i>disgust face</i> or <b>n</b> for <i>neutral face</i></p>",78,"""",39,Query,"""",n,11/9/2020 5:16,69.125.145.27,"Mozilla/5.0 (Windows NT 10.0; Win64; x64) AppleWebKit/537.36 (KHTML, like Gecko) Chrome/86.0.4240.183 Safari/537.36",WebKit,Chrome,86.0.4240.183,Windows,10
26,1,null,"""",html-keyboard-response,235,140375,0.0-235.0,"<div style=""font-size:60px;"">+</div>",null,1000,40,ITI,"""","""",11/9/2020 5:16,69.125.145.27,"Mozilla/5.0 (Windows NT 10.0; Win64; x64) AppleWebKit/537.36 (KHTML, like Gecko) Chrome/86.0.4240.183 Safari/537.36",WebKit,Chrome,86.0.4240.183,Windows,10
26,1,null,"""",image-keyboard-response,236,140630,0.0-236.0,jspsych/scrambledNeutralFaces/scrambledAM27NES.JPG,null,250,40,forwardMask,n,"""",11/9/2020 5:16,69.125.145.27,"Mozilla/5.0 (Windows NT 10.0; Win64; x64) AppleWebKit/537.36 (KHTML, like Gecko) Chrome/86.0.4240.183 Safari/537.36",WebKit,Chrome,86.0.4240.183,Windows,10
26,1,null,"""",image-keyboard-response,237,140651,0.0-237.0,jspsych/neutralFaces/AM27NES.JPG,null,"function(){
        return jsPsych.randomization.sampleWithoutReplacement(cueDuration, 1)[0]}",40,Cue,"""","""",11/9/2020 5:16,69.125.145.27,"Mozilla/5.0 (Windows NT 10.0; Win64; x64) AppleWebKit/537.36 (KHTML, like Gecko) Chrome/86.0.4240.183 Safari/537.36",WebKit,Chrome,86.0.4240.183,Windows,10
26,1,null,"""",image-keyboard-response,238,140755,0.0-238.0,jspsych/neutralFaces/BF09NES.JPG,null,100,40,backwardMask,"""","""",11/9/2020 5:16,69.125.145.27,"Mozilla/5.0 (Windows NT 10.0; Win64; x64) AppleWebKit/537.36 (KHTML, like Gecko) Chrome/86.0.4240.183 Safari/537.36",WebKit,Chrome,86.0.4240.183,Windows,10
26,1,null,"""",html-keyboard-response,239,140964,0.0-239.0,"<div style=""font-size:60px;"">+</div>",null,200,40,fixationBtwnNeutralMaskAndPrompt,"""","""",11/9/2020 5:16,69.125.145.27,"Mozilla/5.0 (Windows NT 10.0; Win64; x64) AppleWebKit/537.36 (KHTML, like Gecko) Chrome/86.0.4240.183 Safari/537.36",WebKit,Chrome,86.0.4240.183,Windows,10
26,1,456.605,"""",html-keyboard-response,240,141423,0.0-240.0,"<p> What was the emotion of the hidden face? <br> Press, <b>d</b> for <i>disgust face</i> or <b>n</b> for <i>neutral face</i></p>",78,"""",40,Query,"""",n,11/9/2020 5:16,69.125.145.27,"Mozilla/5.0 (Windows NT 10.0; Win64; x64) AppleWebKit/537.36 (KHTML, like Gecko) Chrome/86.0.4240.183 Safari/537.36",WebKit,Chrome,86.0.4240.183,Windows,10
26,1,null,"""",html-keyboard-response,241,142425,0.0-241.0,"<div style=""font-size:60px;"">+</div>",null,1000,41,ITI,"""","""",11/9/2020 5:16,69.125.145.27,"Mozilla/5.0 (Windows NT 10.0; Win64; x64) AppleWebKit/537.36 (KHTML, like Gecko) Chrome/86.0.4240.183 Safari/537.36",WebKit,Chrome,86.0.4240.183,Windows,10
26,1,null,"""",image-keyboard-response,242,142678,0.0-242.0,jspsych/scrambledDisgustFaces/scrambledBM27DIS.JPG,null,250,41,forwardMask,d,"""",11/9/2020 5:16,69.125.145.27,"Mozilla/5.0 (Windows NT 10.0; Win64; x64) AppleWebKit/537.36 (KHTML, like Gecko) Chrome/86.0.4240.183 Safari/537.36",WebKit,Chrome,86.0.4240.183,Windows,10
26,1,null,"""",image-keyboard-response,243,142847,0.0-243.0,jspsych/disgustFaces/BM27DIS.JPG,null,"function(){
        return jsPsych.randomization.sampleWithoutReplacement(cueDuration, 1)[0]}",41,Cue,"""","""",11/9/2020 5:16,69.125.145.27,"Mozilla/5.0 (Windows NT 10.0; Win64; x64) AppleWebKit/537.36 (KHTML, like Gecko) Chrome/86.0.4240.183 Safari/537.36",WebKit,Chrome,86.0.4240.183,Windows,10
26,1,null,"""",image-keyboard-response,244,142956,0.0-244.0,jspsych/neutralFaces/BF08NES.JPG,null,100,41,backwardMask,"""","""",11/9/2020 5:16,69.125.145.27,"Mozilla/5.0 (Windows NT 10.0; Win64; x64) AppleWebKit/537.36 (KHTML, like Gecko) Chrome/86.0.4240.183 Safari/537.36",WebKit,Chrome,86.0.4240.183,Windows,10
26,1,null,"""",html-keyboard-response,245,143160,0.0-245.0,"<div style=""font-size:60px;"">+</div>",null,200,41,fixationBtwnNeutralMaskAndPrompt,"""","""",11/9/2020 5:16,69.125.145.27,"Mozilla/5.0 (Windows NT 10.0; Win64; x64) AppleWebKit/537.36 (KHTML, like Gecko) Chrome/86.0.4240.183 Safari/537.36",WebKit,Chrome,86.0.4240.183,Windows,10
26,1,515.9,"""",html-keyboard-response,246,143681,0.0-246.0,"<p> What was the emotion of the hidden face? <br> Press, <b>d</b> for <i>disgust face</i> or <b>n</b> for <i>neutral face</i></p>",68,"""",41,Query,"""",d,11/9/2020 5:16,69.125.145.27,"Mozilla/5.0 (Windows NT 10.0; Win64; x64) AppleWebKit/537.36 (KHTML, like Gecko) Chrome/86.0.4240.183 Safari/537.36",WebKit,Chrome,86.0.4240.183,Windows,10
26,1,null,"""",html-keyboard-response,247,144690,0.0-247.0,"<div style=""font-size:60px;"">+</div>",null,1000,42,ITI,"""","""",11/9/2020 5:16,69.125.145.27,"Mozilla/5.0 (Windows NT 10.0; Win64; x64) AppleWebKit/537.36 (KHTML, like Gecko) Chrome/86.0.4240.183 Safari/537.36",WebKit,Chrome,86.0.4240.183,Windows,10
26,1,null,"""",image-keyboard-response,248,144990,0.0-248.0,jspsych/scrambledDisgustFaces/scrambledBM35DIS.JPG,null,250,42,forwardMask,d,"""",11/9/2020 5:16,69.125.145.27,"Mozilla/5.0 (Windows NT 10.0; Win64; x64) AppleWebKit/537.36 (KHTML, like Gecko) Chrome/86.0.4240.183 Safari/537.36",WebKit,Chrome,86.0.4240.183,Windows,10
26,1,null,"""",image-keyboard-response,249,145131,0.0-249.0,jspsych/disgustFaces/BM35DIS.JPG,null,"function(){
        return jsPsych.randomization.sampleWithoutReplacement(cueDuration, 1)[0]}",42,Cue,"""","""",11/9/2020 5:16,69.125.145.27,"Mozilla/5.0 (Windows NT 10.0; Win64; x64) AppleWebKit/537.36 (KHTML, like Gecko) Chrome/86.0.4240.183 Safari/537.36",WebKit,Chrome,86.0.4240.183,Windows,10
26,1,null,"""",image-keyboard-response,250,145236,0.0-250.0,jspsych/neutralFaces/AF11NES.JPG,null,100,42,backwardMask,"""","""",11/9/2020 5:16,69.125.145.27,"Mozilla/5.0 (Windows NT 10.0; Win64; x64) AppleWebKit/537.36 (KHTML, like Gecko) Chrome/86.0.4240.183 Safari/537.36",WebKit,Chrome,86.0.4240.183,Windows,10
26,1,null,"""",html-keyboard-response,251,145454,0.0-251.0,"<div style=""font-size:60px;"">+</div>",null,200,42,fixationBtwnNeutralMaskAndPrompt,"""","""",11/9/2020 5:16,69.125.145.27,"Mozilla/5.0 (Windows NT 10.0; Win64; x64) AppleWebKit/537.36 (KHTML, like Gecko) Chrome/86.0.4240.183 Safari/537.36",WebKit,Chrome,86.0.4240.183,Windows,10
26,1,226.975,"""",html-keyboard-response,252,145683,0.0-252.0,"<p> What was the emotion of the hidden face? <br> Press, <b>d</b> for <i>disgust face</i> or <b>n</b> for <i>neutral face</i></p>",68,"""",42,Query,"""",d,11/9/2020 5:16,69.125.145.27,"Mozilla/5.0 (Windows NT 10.0; Win64; x64) AppleWebKit/537.36 (KHTML, like Gecko) Chrome/86.0.4240.183 Safari/537.36",WebKit,Chrome,86.0.4240.183,Windows,10
26,1,null,"""",html-keyboard-response,253,146685,0.0-253.0,"<div style=""font-size:60px;"">+</div>",null,1000,43,ITI,"""","""",11/9/2020 5:16,69.125.145.27,"Mozilla/5.0 (Windows NT 10.0; Win64; x64) AppleWebKit/537.36 (KHTML, like Gecko) Chrome/86.0.4240.183 Safari/537.36",WebKit,Chrome,86.0.4240.183,Windows,10
26,1,null,"""",image-keyboard-response,254,146940,0.0-254.0,jspsych/scrambledDisgustFaces/scrambledBM02DIS.JPG,null,250,43,forwardMask,d,"""",11/9/2020 5:16,69.125.145.27,"Mozilla/5.0 (Windows NT 10.0; Win64; x64) AppleWebKit/537.36 (KHTML, like Gecko) Chrome/86.0.4240.183 Safari/537.36",WebKit,Chrome,86.0.4240.183,Windows,10
26,1,null,"""",image-keyboard-response,255,147045,0.0-255.0,jspsych/disgustFaces/BM02DIS.JPG,null,"function(){
        return jsPsych.randomization.sampleWithoutReplacement(cueDuration, 1)[0]}",43,Cue,"""","""",11/9/2020 5:16,69.125.145.27,"Mozilla/5.0 (Windows NT 10.0; Win64; x64) AppleWebKit/537.36 (KHTML, like Gecko) Chrome/86.0.4240.183 Safari/537.36",WebKit,Chrome,86.0.4240.183,Windows,10
26,1,null,"""",image-keyboard-response,256,147151,0.0-256.0,jspsych/neutralFaces/BM09NES.JPG,null,100,43,backwardMask,"""","""",11/9/2020 5:16,69.125.145.27,"Mozilla/5.0 (Windows NT 10.0; Win64; x64) AppleWebKit/537.36 (KHTML, like Gecko) Chrome/86.0.4240.183 Safari/537.36",WebKit,Chrome,86.0.4240.183,Windows,10
26,1,null,"""",html-keyboard-response,257,147359,0.0-257.0,"<div style=""font-size:60px;"">+</div>",null,200,43,fixationBtwnNeutralMaskAndPrompt,"""","""",11/9/2020 5:16,69.125.145.27,"Mozilla/5.0 (Windows NT 10.0; Win64; x64) AppleWebKit/537.36 (KHTML, like Gecko) Chrome/86.0.4240.183 Safari/537.36",WebKit,Chrome,86.0.4240.183,Windows,10
26,1,332.28,"""",html-keyboard-response,258,147694,0.0-258.0,"<p> What was the emotion of the hidden face? <br> Press, <b>d</b> for <i>disgust face</i> or <b>n</b> for <i>neutral face</i></p>",68,"""",43,Query,"""",d,11/9/2020 5:16,69.125.145.27,"Mozilla/5.0 (Windows NT 10.0; Win64; x64) AppleWebKit/537.36 (KHTML, like Gecko) Chrome/86.0.4240.183 Safari/537.36",WebKit,Chrome,86.0.4240.183,Windows,10
26,1,null,"""",html-keyboard-response,259,148696,0.0-259.0,"<div style=""font-size:60px;"">+</div>",null,1000,44,ITI,"""","""",11/9/2020 5:16,69.125.145.27,"Mozilla/5.0 (Windows NT 10.0; Win64; x64) AppleWebKit/537.36 (KHTML, like Gecko) Chrome/86.0.4240.183 Safari/537.36",WebKit,Chrome,86.0.4240.183,Windows,10
26,1,null,"""",image-keyboard-response,260,150059,0.0-260.0,jspsych/scrambledDisgustFaces/scrambledAF07DIS.JPG,null,250,44,forwardMask,d,"""",11/9/2020 5:16,69.125.145.27,"Mozilla/5.0 (Windows NT 10.0; Win64; x64) AppleWebKit/537.36 (KHTML, like Gecko) Chrome/86.0.4240.183 Safari/537.36",WebKit,Chrome,86.0.4240.183,Windows,10
26,1,null,"""",image-keyboard-response,261,150193,0.0-261.0,jspsych/disgustFaces/AF07DIS.JPG,null,"function(){
        return jsPsych.randomization.sampleWithoutReplacement(cueDuration, 1)[0]}",44,Cue,"""","""",11/9/2020 5:16,69.125.145.27,"Mozilla/5.0 (Windows NT 10.0; Win64; x64) AppleWebKit/537.36 (KHTML, like Gecko) Chrome/86.0.4240.183 Safari/537.36",WebKit,Chrome,86.0.4240.183,Windows,10
26,1,null,"""",image-keyboard-response,262,150312,0.0-262.0,jspsych/neutralFaces/BF35NES.JPG,null,100,44,backwardMask,"""","""",11/9/2020 5:16,69.125.145.27,"Mozilla/5.0 (Windows NT 10.0; Win64; x64) AppleWebKit/537.36 (KHTML, like Gecko) Chrome/86.0.4240.183 Safari/537.36",WebKit,Chrome,86.0.4240.183,Windows,10
26,1,null,"""",html-keyboard-response,263,150516,0.0-263.0,"<div style=""font-size:60px;"">+</div>",null,200,44,fixationBtwnNeutralMaskAndPrompt,"""","""",11/9/2020 5:16,69.125.145.27,"Mozilla/5.0 (Windows NT 10.0; Win64; x64) AppleWebKit/537.36 (KHTML, like Gecko) Chrome/86.0.4240.183 Safari/537.36",WebKit,Chrome,86.0.4240.183,Windows,10
26,1,145.095,"""",html-keyboard-response,264,150663,0.0-264.0,"<p> What was the emotion of the hidden face? <br> Press, <b>d</b> for <i>disgust face</i> or <b>n</b> for <i>neutral face</i></p>",68,"""",44,Query,"""",d,11/9/2020 5:16,69.125.145.27,"Mozilla/5.0 (Windows NT 10.0; Win64; x64) AppleWebKit/537.36 (KHTML, like Gecko) Chrome/86.0.4240.183 Safari/537.36",WebKit,Chrome,86.0.4240.183,Windows,10
26,1,null,"""",html-keyboard-response,265,151665,0.0-265.0,"<div style=""font-size:60px;"">+</div>",null,1000,45,ITI,"""","""",11/9/2020 5:16,69.125.145.27,"Mozilla/5.0 (Windows NT 10.0; Win64; x64) AppleWebKit/537.36 (KHTML, like Gecko) Chrome/86.0.4240.183 Safari/537.36",WebKit,Chrome,86.0.4240.183,Windows,10
26,1,null,"""",image-keyboard-response,266,151921,0.0-266.0,jspsych/scrambledDisgustFaces/scrambledAF33DIS.JPG,null,250,45,forwardMask,d,"""",11/9/2020 5:16,69.125.145.27,"Mozilla/5.0 (Windows NT 10.0; Win64; x64) AppleWebKit/537.36 (KHTML, like Gecko) Chrome/86.0.4240.183 Safari/537.36",WebKit,Chrome,86.0.4240.183,Windows,10
26,1,null,"""",image-keyboard-response,267,151981,0.0-267.0,jspsych/disgustFaces/AF33DIS.JPG,null,"function(){
        return jsPsych.randomization.sampleWithoutReplacement(cueDuration, 1)[0]}",45,Cue,"""","""",11/9/2020 5:16,69.125.145.27,"Mozilla/5.0 (Windows NT 10.0; Win64; x64) AppleWebKit/537.36 (KHTML, like Gecko) Chrome/86.0.4240.183 Safari/537.36",WebKit,Chrome,86.0.4240.183,Windows,10
26,1,null,"""",image-keyboard-response,268,152088,0.0-268.0,jspsych/neutralFaces/AM05NES.JPG,null,100,45,backwardMask,"""","""",11/9/2020 5:16,69.125.145.27,"Mozilla/5.0 (Windows NT 10.0; Win64; x64) AppleWebKit/537.36 (KHTML, like Gecko) Chrome/86.0.4240.183 Safari/537.36",WebKit,Chrome,86.0.4240.183,Windows,10
26,1,null,"""",html-keyboard-response,269,152291,0.0-269.0,"<div style=""font-size:60px;"">+</div>",null,200,45,fixationBtwnNeutralMaskAndPrompt,"""","""",11/9/2020 5:16,69.125.145.27,"Mozilla/5.0 (Windows NT 10.0; Win64; x64) AppleWebKit/537.36 (KHTML, like Gecko) Chrome/86.0.4240.183 Safari/537.36",WebKit,Chrome,86.0.4240.183,Windows,10
26,1,527.81,"""",html-keyboard-response,270,152820,0.0-270.0,"<p> What was the emotion of the hidden face? <br> Press, <b>d</b> for <i>disgust face</i> or <b>n</b> for <i>neutral face</i></p>",68,"""",45,Query,"""",d,11/9/2020 5:16,69.125.145.27,"Mozilla/5.0 (Windows NT 10.0; Win64; x64) AppleWebKit/537.36 (KHTML, like Gecko) Chrome/86.0.4240.183 Safari/537.36",WebKit,Chrome,86.0.4240.183,Windows,10
26,1,null,"""",html-keyboard-response,271,153829,0.0-271.0,"<div style=""font-size:60px;"">+</div>",null,1000,46,ITI,"""","""",11/9/2020 5:16,69.125.145.27,"Mozilla/5.0 (Windows NT 10.0; Win64; x64) AppleWebKit/537.36 (KHTML, like Gecko) Chrome/86.0.4240.183 Safari/537.36",WebKit,Chrome,86.0.4240.183,Windows,10
26,1,null,"""",image-keyboard-response,272,154092,0.0-272.0,jspsych/scrambledNeutralFaces/scrambledAF24NES.JPG,null,250,46,forwardMask,n,"""",11/9/2020 5:16,69.125.145.27,"Mozilla/5.0 (Windows NT 10.0; Win64; x64) AppleWebKit/537.36 (KHTML, like Gecko) Chrome/86.0.4240.183 Safari/537.36",WebKit,Chrome,86.0.4240.183,Windows,10
26,1,null,"""",image-keyboard-response,273,154198,0.0-273.0,jspsych/neutralFaces/AF24NES.JPG,null,"function(){
        return jsPsych.randomization.sampleWithoutReplacement(cueDuration, 1)[0]}",46,Cue,"""","""",11/9/2020 5:16,69.125.145.27,"Mozilla/5.0 (Windows NT 10.0; Win64; x64) AppleWebKit/537.36 (KHTML, like Gecko) Chrome/86.0.4240.183 Safari/537.36",WebKit,Chrome,86.0.4240.183,Windows,10
26,1,null,"""",image-keyboard-response,274,154305,0.0-274.0,jspsych/neutralFaces/AF28NES.JPG,null,100,46,backwardMask,"""","""",11/9/2020 5:16,69.125.145.27,"Mozilla/5.0 (Windows NT 10.0; Win64; x64) AppleWebKit/537.36 (KHTML, like Gecko) Chrome/86.0.4240.183 Safari/537.36",WebKit,Chrome,86.0.4240.183,Windows,10
26,1,null,"""",html-keyboard-response,275,154529,0.0-275.0,"<div style=""font-size:60px;"">+</div>",null,200,46,fixationBtwnNeutralMaskAndPrompt,"""","""",11/9/2020 5:16,69.125.145.27,"Mozilla/5.0 (Windows NT 10.0; Win64; x64) AppleWebKit/537.36 (KHTML, like Gecko) Chrome/86.0.4240.183 Safari/537.36",WebKit,Chrome,86.0.4240.183,Windows,10
26,1,519.51,"""",html-keyboard-response,276,155050,0.0-276.0,"<p> What was the emotion of the hidden face? <br> Press, <b>d</b> for <i>disgust face</i> or <b>n</b> for <i>neutral face</i></p>",68,"""",46,Query,"""",d,11/9/2020 5:16,69.125.145.27,"Mozilla/5.0 (Windows NT 10.0; Win64; x64) AppleWebKit/537.36 (KHTML, like Gecko) Chrome/86.0.4240.183 Safari/537.36",WebKit,Chrome,86.0.4240.183,Windows,10
26,1,null,"""",html-keyboard-response,277,156056,0.0-277.0,"<div style=""font-size:60px;"">+</div>",null,1000,47,ITI,"""","""",11/9/2020 5:16,69.125.145.27,"Mozilla/5.0 (Windows NT 10.0; Win64; x64) AppleWebKit/537.36 (KHTML, like Gecko) Chrome/86.0.4240.183 Safari/537.36",WebKit,Chrome,86.0.4240.183,Windows,10
26,1,null,"""",image-keyboard-response,278,156327,0.0-278.0,jspsych/scrambledNeutralFaces/scrambledAF05NES.JPG,null,250,47,forwardMask,n,"""",11/9/2020 5:16,69.125.145.27,"Mozilla/5.0 (Windows NT 10.0; Win64; x64) AppleWebKit/537.36 (KHTML, like Gecko) Chrome/86.0.4240.183 Safari/537.36",WebKit,Chrome,86.0.4240.183,Windows,10
26,1,null,"""",image-keyboard-response,279,156346,0.0-279.0,jspsych/neutralFaces/AF05NES.JPG,null,"function(){
        return jsPsych.randomization.sampleWithoutReplacement(cueDuration, 1)[0]}",47,Cue,"""","""",11/9/2020 5:16,69.125.145.27,"Mozilla/5.0 (Windows NT 10.0; Win64; x64) AppleWebKit/537.36 (KHTML, like Gecko) Chrome/86.0.4240.183 Safari/537.36",WebKit,Chrome,86.0.4240.183,Windows,10
26,1,null,"""",image-keyboard-response,280,156449,0.0-280.0,jspsych/neutralFaces/AM29NES.JPG,null,100,47,backwardMask,"""","""",11/9/2020 5:16,69.125.145.27,"Mozilla/5.0 (Windows NT 10.0; Win64; x64) AppleWebKit/537.36 (KHTML, like Gecko) Chrome/86.0.4240.183 Safari/537.36",WebKit,Chrome,86.0.4240.183,Windows,10
26,1,null,"""",html-keyboard-response,281,156677,0.0-281.0,"<div style=""font-size:60px;"">+</div>",null,200,47,fixationBtwnNeutralMaskAndPrompt,"""","""",11/9/2020 5:16,69.125.145.27,"Mozilla/5.0 (Windows NT 10.0; Win64; x64) AppleWebKit/537.36 (KHTML, like Gecko) Chrome/86.0.4240.183 Safari/537.36",WebKit,Chrome,86.0.4240.183,Windows,10
26,1,409.17,"""",html-keyboard-response,282,157097,0.0-282.0,"<p> What was the emotion of the hidden face? <br> Press, <b>d</b> for <i>disgust face</i> or <b>n</b> for <i>neutral face</i></p>",78,"""",47,Query,"""",n,11/9/2020 5:16,69.125.145.27,"Mozilla/5.0 (Windows NT 10.0; Win64; x64) AppleWebKit/537.36 (KHTML, like Gecko) Chrome/86.0.4240.183 Safari/537.36",WebKit,Chrome,86.0.4240.183,Windows,10
26,1,null,"""",html-keyboard-response,283,158106,0.0-283.0,"<div style=""font-size:60px;"">+</div>",null,1000,48,ITI,"""","""",11/9/2020 5:16,69.125.145.27,"Mozilla/5.0 (Windows NT 10.0; Win64; x64) AppleWebKit/537.36 (KHTML, like Gecko) Chrome/86.0.4240.183 Safari/537.36",WebKit,Chrome,86.0.4240.183,Windows,10
26,1,null,"""",image-keyboard-response,284,158362,0.0-284.0,jspsych/scrambledNeutralFaces/scrambledBM01NES.JPG,null,250,48,forwardMask,n,"""",11/9/2020 5:16,69.125.145.27,"Mozilla/5.0 (Windows NT 10.0; Win64; x64) AppleWebKit/537.36 (KHTML, like Gecko) Chrome/86.0.4240.183 Safari/537.36",WebKit,Chrome,86.0.4240.183,Windows,10
26,1,null,"""",image-keyboard-response,285,158405,0.0-285.0,jspsych/neutralFaces/BM01NES.JPG,null,"function(){
        return jsPsych.randomization.sampleWithoutReplacement(cueDuration, 1)[0]}",48,Cue,"""","""",11/9/2020 5:16,69.125.145.27,"Mozilla/5.0 (Windows NT 10.0; Win64; x64) AppleWebKit/537.36 (KHTML, like Gecko) Chrome/86.0.4240.183 Safari/537.36",WebKit,Chrome,86.0.4240.183,Windows,10
