run_id,condition,rt,responses,trial_type,trial_index,time_elapsed,internal_node_id,stimulus,button_pressed,key_press,StimulusDurationSetting,iTrial,Phase,correctResponse,CharacterResponse,recorded_at,ip,user_agent,device,browser,browser_version,platform,platform_version
35,1,8231.44,"{""Q0"":""123""}",survey-text,0,8250,0.0-0.0,"""","""","""","""","""","""","""","""",11/9/2020 14:57,69.125.145.27,"Mozilla/5.0 (Windows NT 10.0; Win64; x64) AppleWebKit/537.36 (KHTML, like Gecko) Chrome/86.0.4240.183 Safari/537.36",WebKit,Chrome,86.0.4240.183,Windows,10
35,1,33242.935,"""",video-button-response,1,41521,0.0-1.0,"""",0,"""","""","""","""","""","""",11/9/2020 14:57,69.125.145.27,"Mozilla/5.0 (Windows NT 10.0; Win64; x64) AppleWebKit/537.36 (KHTML, like Gecko) Chrome/86.0.4240.183 Safari/537.36",WebKit,Chrome,86.0.4240.183,Windows,10
35,1,null,"""",html-keyboard-response,2,42534,0.0-2.0,"<div style=""font-size:60px;"">+</div>","""",null,1000,1,ITI,"""","""",11/9/2020 14:57,69.125.145.27,"Mozilla/5.0 (Windows NT 10.0; Win64; x64) AppleWebKit/537.36 (KHTML, like Gecko) Chrome/86.0.4240.183 Safari/537.36",WebKit,Chrome,86.0.4240.183,Windows,10
35,1,null,"""",image-keyboard-response,3,42790,0.0-3.0,jspsych/scrambledDisgustFaces/scrambledBM05DIS.JPG,"""",null,250,1,forwardMask,d,"""",11/9/2020 14:57,69.125.145.27,"Mozilla/5.0 (Windows NT 10.0; Win64; x64) AppleWebKit/537.36 (KHTML, like Gecko) Chrome/86.0.4240.183 Safari/537.36",WebKit,Chrome,86.0.4240.183,Windows,10
35,1,null,"""",image-keyboard-response,4,42960,0.0-4.0,jspsych/disgustFaces/BM05DIS.JPG,"""",null,160,1,Cue,"""","""",11/9/2020 14:57,69.125.145.27,"Mozilla/5.0 (Windows NT 10.0; Win64; x64) AppleWebKit/537.36 (KHTML, like Gecko) Chrome/86.0.4240.183 Safari/537.36",WebKit,Chrome,86.0.4240.183,Windows,10
35,1,null,"""",image-keyboard-response,5,43068,0.0-5.0,jspsych/neutralFaces/AM22NES.JPG,"""",null,100,1,backwardMask,"""","""",11/9/2020 14:57,69.125.145.27,"Mozilla/5.0 (Windows NT 10.0; Win64; x64) AppleWebKit/537.36 (KHTML, like Gecko) Chrome/86.0.4240.183 Safari/537.36",WebKit,Chrome,86.0.4240.183,Windows,10
35,1,null,"""",html-keyboard-response,6,43273,0.0-6.0,"<div style=""font-size:60px;"">+</div>","""",null,200,1,fixationBtwnNeutralMaskAndPrompt,"""","""",11/9/2020 14:57,69.125.145.27,"Mozilla/5.0 (Windows NT 10.0; Win64; x64) AppleWebKit/537.36 (KHTML, like Gecko) Chrome/86.0.4240.183 Safari/537.36",WebKit,Chrome,86.0.4240.183,Windows,10
35,1,402.4,"""",html-keyboard-response,7,43678,0.0-7.0,"<p> What was the emotion of the hidden face? <br> Press, <b>d</b> for <i>disgust face</i> or <b>n</b> for <i>neutral face</i></p>","""",68,"""",1,Query,"""",d,11/9/2020 14:57,69.125.145.27,"Mozilla/5.0 (Windows NT 10.0; Win64; x64) AppleWebKit/537.36 (KHTML, like Gecko) Chrome/86.0.4240.183 Safari/537.36",WebKit,Chrome,86.0.4240.183,Windows,10
35,1,null,"""",html-keyboard-response,8,44683,0.0-8.0,"<div style=""font-size:60px;"">+</div>","""",null,1000,2,ITI,"""","""",11/9/2020 14:57,69.125.145.27,"Mozilla/5.0 (Windows NT 10.0; Win64; x64) AppleWebKit/537.36 (KHTML, like Gecko) Chrome/86.0.4240.183 Safari/537.36",WebKit,Chrome,86.0.4240.183,Windows,10
35,1,null,"""",image-keyboard-response,9,44943,0.0-9.0,jspsych/scrambledDisgustFaces/scrambledBM20DIS.JPG,"""",null,250,2,forwardMask,d,"""",11/9/2020 14:57,69.125.145.27,"Mozilla/5.0 (Windows NT 10.0; Win64; x64) AppleWebKit/537.36 (KHTML, like Gecko) Chrome/86.0.4240.183 Safari/537.36",WebKit,Chrome,86.0.4240.183,Windows,10
35,1,null,"""",image-keyboard-response,10,45013,0.0-10.0,jspsych/disgustFaces/BM20DIS.JPG,"""",null,67,2,Cue,"""","""",11/9/2020 14:57,69.125.145.27,"Mozilla/5.0 (Windows NT 10.0; Win64; x64) AppleWebKit/537.36 (KHTML, like Gecko) Chrome/86.0.4240.183 Safari/537.36",WebKit,Chrome,86.0.4240.183,Windows,10
35,1,null,"""",image-keyboard-response,11,45123,0.0-11.0,jspsych/neutralFaces/BM11NES.JPG,"""",null,100,2,backwardMask,"""","""",11/9/2020 14:57,69.125.145.27,"Mozilla/5.0 (Windows NT 10.0; Win64; x64) AppleWebKit/537.36 (KHTML, like Gecko) Chrome/86.0.4240.183 Safari/537.36",WebKit,Chrome,86.0.4240.183,Windows,10
35,1,null,"""",html-keyboard-response,12,45325,0.0-12.0,"<div style=""font-size:60px;"">+</div>","""",null,200,2,fixationBtwnNeutralMaskAndPrompt,"""","""",11/9/2020 14:57,69.125.145.27,"Mozilla/5.0 (Windows NT 10.0; Win64; x64) AppleWebKit/537.36 (KHTML, like Gecko) Chrome/86.0.4240.183 Safari/537.36",WebKit,Chrome,86.0.4240.183,Windows,10
35,1,1238.185,"""",html-keyboard-response,13,46565,0.0-13.0,"<p> What was the emotion of the hidden face? <br> Press, <b>d</b> for <i>disgust face</i> or <b>n</b> for <i>neutral face</i></p>","""",68,"""",2,Query,"""",d,11/9/2020 14:57,69.125.145.27,"Mozilla/5.0 (Windows NT 10.0; Win64; x64) AppleWebKit/537.36 (KHTML, like Gecko) Chrome/86.0.4240.183 Safari/537.36",WebKit,Chrome,86.0.4240.183,Windows,10
35,1,null,"""",html-keyboard-response,14,47574,0.0-14.0,"<div style=""font-size:60px;"">+</div>","""",null,1000,3,ITI,"""","""",11/9/2020 14:57,69.125.145.27,"Mozilla/5.0 (Windows NT 10.0; Win64; x64) AppleWebKit/537.36 (KHTML, like Gecko) Chrome/86.0.4240.183 Safari/537.36",WebKit,Chrome,86.0.4240.183,Windows,10
35,1,null,"""",image-keyboard-response,15,47832,0.0-15.0,jspsych/scrambledNeutralFaces/scrambledBF04NES.JPG,"""",null,250,3,forwardMask,n,"""",11/9/2020 14:57,69.125.145.27,"Mozilla/5.0 (Windows NT 10.0; Win64; x64) AppleWebKit/537.36 (KHTML, like Gecko) Chrome/86.0.4240.183 Safari/537.36",WebKit,Chrome,86.0.4240.183,Windows,10
35,1,null,"""",image-keyboard-response,16,47873,0.0-16.0,jspsych/neutralFaces/BF04NES.JPG,"""",null,33,3,Cue,"""","""",11/9/2020 14:57,69.125.145.27,"Mozilla/5.0 (Windows NT 10.0; Win64; x64) AppleWebKit/537.36 (KHTML, like Gecko) Chrome/86.0.4240.183 Safari/537.36",WebKit,Chrome,86.0.4240.183,Windows,10
35,1,null,"""",image-keyboard-response,17,47983,0.0-17.0,jspsych/neutralFaces/BF30NES.JPG,"""",null,100,3,backwardMask,"""","""",11/9/2020 14:57,69.125.145.27,"Mozilla/5.0 (Windows NT 10.0; Win64; x64) AppleWebKit/537.36 (KHTML, like Gecko) Chrome/86.0.4240.183 Safari/537.36",WebKit,Chrome,86.0.4240.183,Windows,10
35,1,null,"""",html-keyboard-response,18,48193,0.0-18.0,"<div style=""font-size:60px;"">+</div>","""",null,200,3,fixationBtwnNeutralMaskAndPrompt,"""","""",11/9/2020 14:57,69.125.145.27,"Mozilla/5.0 (Windows NT 10.0; Win64; x64) AppleWebKit/537.36 (KHTML, like Gecko) Chrome/86.0.4240.183 Safari/537.36",WebKit,Chrome,86.0.4240.183,Windows,10
35,1,772.37,"""",html-keyboard-response,19,48967,0.0-19.0,"<p> What was the emotion of the hidden face? <br> Press, <b>d</b> for <i>disgust face</i> or <b>n</b> for <i>neutral face</i></p>","""",78,"""",3,Query,"""",n,11/9/2020 14:57,69.125.145.27,"Mozilla/5.0 (Windows NT 10.0; Win64; x64) AppleWebKit/537.36 (KHTML, like Gecko) Chrome/86.0.4240.183 Safari/537.36",WebKit,Chrome,86.0.4240.183,Windows,10
35,1,null,"""",html-keyboard-response,20,49974,0.0-20.0,"<div style=""font-size:60px;"">+</div>","""",null,1000,4,ITI,"""","""",11/9/2020 14:57,69.125.145.27,"Mozilla/5.0 (Windows NT 10.0; Win64; x64) AppleWebKit/537.36 (KHTML, like Gecko) Chrome/86.0.4240.183 Safari/537.36",WebKit,Chrome,86.0.4240.183,Windows,10
35,1,null,"""",image-keyboard-response,21,50230,0.0-21.0,jspsych/scrambledDisgustFaces/scrambledBF19DIS.JPG,"""",null,250,4,forwardMask,d,"""",11/9/2020 14:57,69.125.145.27,"Mozilla/5.0 (Windows NT 10.0; Win64; x64) AppleWebKit/537.36 (KHTML, like Gecko) Chrome/86.0.4240.183 Safari/537.36",WebKit,Chrome,86.0.4240.183,Windows,10
35,1,null,"""",image-keyboard-response,22,50337,0.0-22.0,jspsych/disgustFaces/BF19DIS.JPG,"""",null,99,4,Cue,"""","""",11/9/2020 14:57,69.125.145.27,"Mozilla/5.0 (Windows NT 10.0; Win64; x64) AppleWebKit/537.36 (KHTML, like Gecko) Chrome/86.0.4240.183 Safari/537.36",WebKit,Chrome,86.0.4240.183,Windows,10
35,1,null,"""",image-keyboard-response,23,50443,0.0-23.0,jspsych/neutralFaces/BM27NES.JPG,"""",null,100,4,backwardMask,"""","""",11/9/2020 14:57,69.125.145.27,"Mozilla/5.0 (Windows NT 10.0; Win64; x64) AppleWebKit/537.36 (KHTML, like Gecko) Chrome/86.0.4240.183 Safari/537.36",WebKit,Chrome,86.0.4240.183,Windows,10
35,1,null,"""",html-keyboard-response,24,50648,0.0-24.0,"<div style=""font-size:60px;"">+</div>","""",null,200,4,fixationBtwnNeutralMaskAndPrompt,"""","""",11/9/2020 14:57,69.125.145.27,"Mozilla/5.0 (Windows NT 10.0; Win64; x64) AppleWebKit/537.36 (KHTML, like Gecko) Chrome/86.0.4240.183 Safari/537.36",WebKit,Chrome,86.0.4240.183,Windows,10
35,1,255.125,"""",html-keyboard-response,25,50904,0.0-25.0,"<p> What was the emotion of the hidden face? <br> Press, <b>d</b> for <i>disgust face</i> or <b>n</b> for <i>neutral face</i></p>","""",68,"""",4,Query,"""",d,11/9/2020 14:57,69.125.145.27,"Mozilla/5.0 (Windows NT 10.0; Win64; x64) AppleWebKit/537.36 (KHTML, like Gecko) Chrome/86.0.4240.183 Safari/537.36",WebKit,Chrome,86.0.4240.183,Windows,10
35,1,null,"""",html-keyboard-response,26,51913,0.0-26.0,"<div style=""font-size:60px;"">+</div>","""",null,1000,5,ITI,"""","""",11/9/2020 14:57,69.125.145.27,"Mozilla/5.0 (Windows NT 10.0; Win64; x64) AppleWebKit/537.36 (KHTML, like Gecko) Chrome/86.0.4240.183 Safari/537.36",WebKit,Chrome,86.0.4240.183,Windows,10
35,1,null,"""",image-keyboard-response,27,52173,0.0-27.0,jspsych/scrambledDisgustFaces/scrambledBM02DIS.JPG,"""",null,250,5,forwardMask,d,"""",11/9/2020 14:57,69.125.145.27,"Mozilla/5.0 (Windows NT 10.0; Win64; x64) AppleWebKit/537.36 (KHTML, like Gecko) Chrome/86.0.4240.183 Safari/537.36",WebKit,Chrome,86.0.4240.183,Windows,10
35,1,null,"""",image-keyboard-response,28,52312,0.0-28.0,jspsych/disgustFaces/BM02DIS.JPG,"""",null,129,5,Cue,"""","""",11/9/2020 14:57,69.125.145.27,"Mozilla/5.0 (Windows NT 10.0; Win64; x64) AppleWebKit/537.36 (KHTML, like Gecko) Chrome/86.0.4240.183 Safari/537.36",WebKit,Chrome,86.0.4240.183,Windows,10
35,1,null,"""",image-keyboard-response,29,52417,0.0-29.0,jspsych/neutralFaces/AF33NES.JPG,"""",null,100,5,backwardMask,"""","""",11/9/2020 14:57,69.125.145.27,"Mozilla/5.0 (Windows NT 10.0; Win64; x64) AppleWebKit/537.36 (KHTML, like Gecko) Chrome/86.0.4240.183 Safari/537.36",WebKit,Chrome,86.0.4240.183,Windows,10
35,1,null,"""",html-keyboard-response,30,52627,0.0-30.0,"<div style=""font-size:60px;"">+</div>","""",null,200,5,fixationBtwnNeutralMaskAndPrompt,"""","""",11/9/2020 14:57,69.125.145.27,"Mozilla/5.0 (Windows NT 10.0; Win64; x64) AppleWebKit/537.36 (KHTML, like Gecko) Chrome/86.0.4240.183 Safari/537.36",WebKit,Chrome,86.0.4240.183,Windows,10
35,1,178.32,"""",html-keyboard-response,31,52809,0.0-31.0,"<p> What was the emotion of the hidden face? <br> Press, <b>d</b> for <i>disgust face</i> or <b>n</b> for <i>neutral face</i></p>","""",68,"""",5,Query,"""",d,11/9/2020 14:57,69.125.145.27,"Mozilla/5.0 (Windows NT 10.0; Win64; x64) AppleWebKit/537.36 (KHTML, like Gecko) Chrome/86.0.4240.183 Safari/537.36",WebKit,Chrome,86.0.4240.183,Windows,10
35,1,null,"""",html-keyboard-response,32,53813,0.0-32.0,"<div style=""font-size:60px;"">+</div>","""",null,1000,6,ITI,"""","""",11/9/2020 14:57,69.125.145.27,"Mozilla/5.0 (Windows NT 10.0; Win64; x64) AppleWebKit/537.36 (KHTML, like Gecko) Chrome/86.0.4240.183 Safari/537.36",WebKit,Chrome,86.0.4240.183,Windows,10
35,1,null,"""",image-keyboard-response,33,54070,0.0-33.0,jspsych/scrambledNeutralFaces/scrambledBM12NES.JPG,"""",null,250,6,forwardMask,n,"""",11/9/2020 14:57,69.125.145.27,"Mozilla/5.0 (Windows NT 10.0; Win64; x64) AppleWebKit/537.36 (KHTML, like Gecko) Chrome/86.0.4240.183 Safari/537.36",WebKit,Chrome,86.0.4240.183,Windows,10
35,1,null,"""",image-keyboard-response,34,54142,0.0-34.0,jspsych/neutralFaces/BM12NES.JPG,"""",null,67,6,Cue,"""","""",11/9/2020 14:57,69.125.145.27,"Mozilla/5.0 (Windows NT 10.0; Win64; x64) AppleWebKit/537.36 (KHTML, like Gecko) Chrome/86.0.4240.183 Safari/537.36",WebKit,Chrome,86.0.4240.183,Windows,10
35,1,null,"""",image-keyboard-response,35,54258,0.0-35.0,jspsych/neutralFaces/BF12NES.JPG,"""",null,100,6,backwardMask,"""","""",11/9/2020 14:57,69.125.145.27,"Mozilla/5.0 (Windows NT 10.0; Win64; x64) AppleWebKit/537.36 (KHTML, like Gecko) Chrome/86.0.4240.183 Safari/537.36",WebKit,Chrome,86.0.4240.183,Windows,10
35,1,null,"""",html-keyboard-response,36,54466,0.0-36.0,"<div style=""font-size:60px;"">+</div>","""",null,200,6,fixationBtwnNeutralMaskAndPrompt,"""","""",11/9/2020 14:57,69.125.145.27,"Mozilla/5.0 (Windows NT 10.0; Win64; x64) AppleWebKit/537.36 (KHTML, like Gecko) Chrome/86.0.4240.183 Safari/537.36",WebKit,Chrome,86.0.4240.183,Windows,10
35,1,450.135,"""",html-keyboard-response,37,54917,0.0-37.0,"<p> What was the emotion of the hidden face? <br> Press, <b>d</b> for <i>disgust face</i> or <b>n</b> for <i>neutral face</i></p>","""",68,"""",6,Query,"""",d,11/9/2020 14:57,69.125.145.27,"Mozilla/5.0 (Windows NT 10.0; Win64; x64) AppleWebKit/537.36 (KHTML, like Gecko) Chrome/86.0.4240.183 Safari/537.36",WebKit,Chrome,86.0.4240.183,Windows,10
35,1,null,"""",html-keyboard-response,38,55924,0.0-38.0,"<div style=""font-size:60px;"">+</div>","""",null,1000,7,ITI,"""","""",11/9/2020 14:57,69.125.145.27,"Mozilla/5.0 (Windows NT 10.0; Win64; x64) AppleWebKit/537.36 (KHTML, like Gecko) Chrome/86.0.4240.183 Safari/537.36",WebKit,Chrome,86.0.4240.183,Windows,10
35,1,null,"""",image-keyboard-response,39,56187,0.0-39.0,jspsych/scrambledDisgustFaces/scrambledBM26DIS.JPG,"""",null,250,7,forwardMask,d,"""",11/9/2020 14:57,69.125.145.27,"Mozilla/5.0 (Windows NT 10.0; Win64; x64) AppleWebKit/537.36 (KHTML, like Gecko) Chrome/86.0.4240.183 Safari/537.36",WebKit,Chrome,86.0.4240.183,Windows,10
35,1,null,"""",image-keyboard-response,40,56291,0.0-40.0,jspsych/disgustFaces/BM26DIS.JPG,"""",null,99,7,Cue,"""","""",11/9/2020 14:57,69.125.145.27,"Mozilla/5.0 (Windows NT 10.0; Win64; x64) AppleWebKit/537.36 (KHTML, like Gecko) Chrome/86.0.4240.183 Safari/537.36",WebKit,Chrome,86.0.4240.183,Windows,10
35,1,null,"""",image-keyboard-response,41,56400,0.0-41.0,jspsych/neutralFaces/AF20NES.JPG,"""",null,100,7,backwardMask,"""","""",11/9/2020 14:57,69.125.145.27,"Mozilla/5.0 (Windows NT 10.0; Win64; x64) AppleWebKit/537.36 (KHTML, like Gecko) Chrome/86.0.4240.183 Safari/537.36",WebKit,Chrome,86.0.4240.183,Windows,10
35,1,null,"""",html-keyboard-response,42,56610,0.0-42.0,"<div style=""font-size:60px;"">+</div>","""",null,200,7,fixationBtwnNeutralMaskAndPrompt,"""","""",11/9/2020 14:57,69.125.145.27,"Mozilla/5.0 (Windows NT 10.0; Win64; x64) AppleWebKit/537.36 (KHTML, like Gecko) Chrome/86.0.4240.183 Safari/537.36",WebKit,Chrome,86.0.4240.183,Windows,10
35,1,222.38,"""",html-keyboard-response,43,56833,0.0-43.0,"<p> What was the emotion of the hidden face? <br> Press, <b>d</b> for <i>disgust face</i> or <b>n</b> for <i>neutral face</i></p>","""",68,"""",7,Query,"""",d,11/9/2020 14:57,69.125.145.27,"Mozilla/5.0 (Windows NT 10.0; Win64; x64) AppleWebKit/537.36 (KHTML, like Gecko) Chrome/86.0.4240.183 Safari/537.36",WebKit,Chrome,86.0.4240.183,Windows,10
35,1,null,"""",html-keyboard-response,44,57841,0.0-44.0,"<div style=""font-size:60px;"">+</div>","""",null,1000,8,ITI,"""","""",11/9/2020 14:57,69.125.145.27,"Mozilla/5.0 (Windows NT 10.0; Win64; x64) AppleWebKit/537.36 (KHTML, like Gecko) Chrome/86.0.4240.183 Safari/537.36",WebKit,Chrome,86.0.4240.183,Windows,10
35,1,null,"""",image-keyboard-response,45,58099,0.0-45.0,jspsych/scrambledDisgustFaces/scrambledBM14DIS.JPG,"""",null,250,8,forwardMask,d,"""",11/9/2020 14:57,69.125.145.27,"Mozilla/5.0 (Windows NT 10.0; Win64; x64) AppleWebKit/537.36 (KHTML, like Gecko) Chrome/86.0.4240.183 Safari/537.36",WebKit,Chrome,86.0.4240.183,Windows,10
35,1,null,"""",image-keyboard-response,46,58116,0.0-46.0,jspsych/disgustFaces/BM14DIS.JPG,"""",null,16,8,Cue,"""","""",11/9/2020 14:57,69.125.145.27,"Mozilla/5.0 (Windows NT 10.0; Win64; x64) AppleWebKit/537.36 (KHTML, like Gecko) Chrome/86.0.4240.183 Safari/537.36",WebKit,Chrome,86.0.4240.183,Windows,10
35,1,null,"""",image-keyboard-response,47,58224,0.0-47.0,jspsych/neutralFaces/AF26NES.JPG,"""",null,100,8,backwardMask,"""","""",11/9/2020 14:57,69.125.145.27,"Mozilla/5.0 (Windows NT 10.0; Win64; x64) AppleWebKit/537.36 (KHTML, like Gecko) Chrome/86.0.4240.183 Safari/537.36",WebKit,Chrome,86.0.4240.183,Windows,10
35,1,null,"""",html-keyboard-response,48,58433,0.0-48.0,"<div style=""font-size:60px;"">+</div>","""",null,200,8,fixationBtwnNeutralMaskAndPrompt,"""","""",11/9/2020 14:57,69.125.145.27,"Mozilla/5.0 (Windows NT 10.0; Win64; x64) AppleWebKit/537.36 (KHTML, like Gecko) Chrome/86.0.4240.183 Safari/537.36",WebKit,Chrome,86.0.4240.183,Windows,10
35,1,372.925,"""",html-keyboard-response,49,58807,0.0-49.0,"<p> What was the emotion of the hidden face? <br> Press, <b>d</b> for <i>disgust face</i> or <b>n</b> for <i>neutral face</i></p>","""",78,"""",8,Query,"""",n,11/9/2020 14:57,69.125.145.27,"Mozilla/5.0 (Windows NT 10.0; Win64; x64) AppleWebKit/537.36 (KHTML, like Gecko) Chrome/86.0.4240.183 Safari/537.36",WebKit,Chrome,86.0.4240.183,Windows,10
35,1,null,"""",html-keyboard-response,50,59810,0.0-50.0,"<div style=""font-size:60px;"">+</div>","""",null,1000,9,ITI,"""","""",11/9/2020 14:57,69.125.145.27,"Mozilla/5.0 (Windows NT 10.0; Win64; x64) AppleWebKit/537.36 (KHTML, like Gecko) Chrome/86.0.4240.183 Safari/537.36",WebKit,Chrome,86.0.4240.183,Windows,10
35,1,null,"""",image-keyboard-response,51,60073,0.0-51.0,jspsych/scrambledNeutralFaces/scrambledAF27NES.JPG,"""",null,250,9,forwardMask,n,"""",11/9/2020 14:57,69.125.145.27,"Mozilla/5.0 (Windows NT 10.0; Win64; x64) AppleWebKit/537.36 (KHTML, like Gecko) Chrome/86.0.4240.183 Safari/537.36",WebKit,Chrome,86.0.4240.183,Windows,10
35,1,null,"""",image-keyboard-response,52,60178,0.0-52.0,jspsych/neutralFaces/AF27NES.JPG,"""",null,99,9,Cue,"""","""",11/9/2020 14:57,69.125.145.27,"Mozilla/5.0 (Windows NT 10.0; Win64; x64) AppleWebKit/537.36 (KHTML, like Gecko) Chrome/86.0.4240.183 Safari/537.36",WebKit,Chrome,86.0.4240.183,Windows,10
35,1,null,"""",image-keyboard-response,53,60285,0.0-53.0,jspsych/neutralFaces/AM13NES.JPG,"""",null,100,9,backwardMask,"""","""",11/9/2020 14:57,69.125.145.27,"Mozilla/5.0 (Windows NT 10.0; Win64; x64) AppleWebKit/537.36 (KHTML, like Gecko) Chrome/86.0.4240.183 Safari/537.36",WebKit,Chrome,86.0.4240.183,Windows,10
35,1,null,"""",html-keyboard-response,54,60491,0.0-54.0,"<div style=""font-size:60px;"">+</div>","""",null,200,9,fixationBtwnNeutralMaskAndPrompt,"""","""",11/9/2020 14:57,69.125.145.27,"Mozilla/5.0 (Windows NT 10.0; Win64; x64) AppleWebKit/537.36 (KHTML, like Gecko) Chrome/86.0.4240.183 Safari/537.36",WebKit,Chrome,86.0.4240.183,Windows,10
35,1,329.41,"""",html-keyboard-response,55,60822,0.0-55.0,"<p> What was the emotion of the hidden face? <br> Press, <b>d</b> for <i>disgust face</i> or <b>n</b> for <i>neutral face</i></p>","""",78,"""",9,Query,"""",n,11/9/2020 14:57,69.125.145.27,"Mozilla/5.0 (Windows NT 10.0; Win64; x64) AppleWebKit/537.36 (KHTML, like Gecko) Chrome/86.0.4240.183 Safari/537.36",WebKit,Chrome,86.0.4240.183,Windows,10
35,1,null,"""",html-keyboard-response,56,61832,0.0-56.0,"<div style=""font-size:60px;"">+</div>","""",null,1000,10,ITI,"""","""",11/9/2020 14:57,69.125.145.27,"Mozilla/5.0 (Windows NT 10.0; Win64; x64) AppleWebKit/537.36 (KHTML, like Gecko) Chrome/86.0.4240.183 Safari/537.36",WebKit,Chrome,86.0.4240.183,Windows,10
35,1,null,"""",image-keyboard-response,57,62088,0.0-57.0,jspsych/scrambledNeutralFaces/scrambledBF31NES.JPG,"""",null,250,10,forwardMask,n,"""",11/9/2020 14:57,69.125.145.27,"Mozilla/5.0 (Windows NT 10.0; Win64; x64) AppleWebKit/537.36 (KHTML, like Gecko) Chrome/86.0.4240.183 Safari/537.36",WebKit,Chrome,86.0.4240.183,Windows,10
35,1,null,"""",image-keyboard-response,58,62227,0.0-58.0,jspsych/neutralFaces/BF31NES.JPG,"""",null,129,10,Cue,"""","""",11/9/2020 14:57,69.125.145.27,"Mozilla/5.0 (Windows NT 10.0; Win64; x64) AppleWebKit/537.36 (KHTML, like Gecko) Chrome/86.0.4240.183 Safari/537.36",WebKit,Chrome,86.0.4240.183,Windows,10
35,1,null,"""",image-keyboard-response,59,62329,0.0-59.0,jspsych/neutralFaces/BF20NES.JPG,"""",null,100,10,backwardMask,"""","""",11/9/2020 14:57,69.125.145.27,"Mozilla/5.0 (Windows NT 10.0; Win64; x64) AppleWebKit/537.36 (KHTML, like Gecko) Chrome/86.0.4240.183 Safari/537.36",WebKit,Chrome,86.0.4240.183,Windows,10
35,1,null,"""",html-keyboard-response,60,62535,0.0-60.0,"<div style=""font-size:60px;"">+</div>","""",null,200,10,fixationBtwnNeutralMaskAndPrompt,"""","""",11/9/2020 14:57,69.125.145.27,"Mozilla/5.0 (Windows NT 10.0; Win64; x64) AppleWebKit/537.36 (KHTML, like Gecko) Chrome/86.0.4240.183 Safari/537.36",WebKit,Chrome,86.0.4240.183,Windows,10
35,1,606.175,"""",html-keyboard-response,61,63146,0.0-61.0,"<p> What was the emotion of the hidden face? <br> Press, <b>d</b> for <i>disgust face</i> or <b>n</b> for <i>neutral face</i></p>","""",68,"""",10,Query,"""",d,11/9/2020 14:57,69.125.145.27,"Mozilla/5.0 (Windows NT 10.0; Win64; x64) AppleWebKit/537.36 (KHTML, like Gecko) Chrome/86.0.4240.183 Safari/537.36",WebKit,Chrome,86.0.4240.183,Windows,10
35,1,null,"""",html-keyboard-response,62,64152,0.0-62.0,"<div style=""font-size:60px;"">+</div>","""",null,1000,11,ITI,"""","""",11/9/2020 14:57,69.125.145.27,"Mozilla/5.0 (Windows NT 10.0; Win64; x64) AppleWebKit/537.36 (KHTML, like Gecko) Chrome/86.0.4240.183 Safari/537.36",WebKit,Chrome,86.0.4240.183,Windows,10
35,1,null,"""",image-keyboard-response,63,64407,0.0-63.0,jspsych/scrambledNeutralFaces/scrambledBM10NES.JPG,"""",null,250,11,forwardMask,n,"""",11/9/2020 14:57,69.125.145.27,"Mozilla/5.0 (Windows NT 10.0; Win64; x64) AppleWebKit/537.36 (KHTML, like Gecko) Chrome/86.0.4240.183 Safari/537.36",WebKit,Chrome,86.0.4240.183,Windows,10
35,1,null,"""",image-keyboard-response,64,64542,0.0-64.0,jspsych/neutralFaces/BM10NES.JPG,"""",null,129,11,Cue,"""","""",11/9/2020 14:57,69.125.145.27,"Mozilla/5.0 (Windows NT 10.0; Win64; x64) AppleWebKit/537.36 (KHTML, like Gecko) Chrome/86.0.4240.183 Safari/537.36",WebKit,Chrome,86.0.4240.183,Windows,10
35,1,null,"""",image-keyboard-response,65,64649,0.0-65.0,jspsych/neutralFaces/AM10NES.JPG,"""",null,100,11,backwardMask,"""","""",11/9/2020 14:57,69.125.145.27,"Mozilla/5.0 (Windows NT 10.0; Win64; x64) AppleWebKit/537.36 (KHTML, like Gecko) Chrome/86.0.4240.183 Safari/537.36",WebKit,Chrome,86.0.4240.183,Windows,10
35,1,null,"""",html-keyboard-response,66,64857,0.0-66.0,"<div style=""font-size:60px;"">+</div>","""",null,200,11,fixationBtwnNeutralMaskAndPrompt,"""","""",11/9/2020 14:57,69.125.145.27,"Mozilla/5.0 (Windows NT 10.0; Win64; x64) AppleWebKit/537.36 (KHTML, like Gecko) Chrome/86.0.4240.183 Safari/537.36",WebKit,Chrome,86.0.4240.183,Windows,10
35,1,468.305,"""",html-keyboard-response,67,65327,0.0-67.0,"<p> What was the emotion of the hidden face? <br> Press, <b>d</b> for <i>disgust face</i> or <b>n</b> for <i>neutral face</i></p>","""",78,"""",11,Query,"""",n,11/9/2020 14:57,69.125.145.27,"Mozilla/5.0 (Windows NT 10.0; Win64; x64) AppleWebKit/537.36 (KHTML, like Gecko) Chrome/86.0.4240.183 Safari/537.36",WebKit,Chrome,86.0.4240.183,Windows,10
35,1,null,"""",html-keyboard-response,68,66341,0.0-68.0,"<div style=""font-size:60px;"">+</div>","""",null,1000,12,ITI,"""","""",11/9/2020 14:57,69.125.145.27,"Mozilla/5.0 (Windows NT 10.0; Win64; x64) AppleWebKit/537.36 (KHTML, like Gecko) Chrome/86.0.4240.183 Safari/537.36",WebKit,Chrome,86.0.4240.183,Windows,10
35,1,null,"""",image-keyboard-response,69,66603,0.0-69.0,jspsych/scrambledDisgustFaces/scrambledBM28DIS.JPG,"""",null,250,12,forwardMask,d,"""",11/9/2020 14:57,69.125.145.27,"Mozilla/5.0 (Windows NT 10.0; Win64; x64) AppleWebKit/537.36 (KHTML, like Gecko) Chrome/86.0.4240.183 Safari/537.36",WebKit,Chrome,86.0.4240.183,Windows,10
35,1,null,"""",image-keyboard-response,70,66681,0.0-70.0,jspsych/disgustFaces/BM28DIS.JPG,"""",null,67,12,Cue,"""","""",11/9/2020 14:57,69.125.145.27,"Mozilla/5.0 (Windows NT 10.0; Win64; x64) AppleWebKit/537.36 (KHTML, like Gecko) Chrome/86.0.4240.183 Safari/537.36",WebKit,Chrome,86.0.4240.183,Windows,10
35,1,null,"""",image-keyboard-response,71,66790,0.0-71.0,jspsych/neutralFaces/BF31NES.JPG,"""",null,100,12,backwardMask,"""","""",11/9/2020 14:57,69.125.145.27,"Mozilla/5.0 (Windows NT 10.0; Win64; x64) AppleWebKit/537.36 (KHTML, like Gecko) Chrome/86.0.4240.183 Safari/537.36",WebKit,Chrome,86.0.4240.183,Windows,10
35,1,null,"""",html-keyboard-response,72,67000,0.0-72.0,"<div style=""font-size:60px;"">+</div>","""",null,200,12,fixationBtwnNeutralMaskAndPrompt,"""","""",11/9/2020 14:57,69.125.145.27,"Mozilla/5.0 (Windows NT 10.0; Win64; x64) AppleWebKit/537.36 (KHTML, like Gecko) Chrome/86.0.4240.183 Safari/537.36",WebKit,Chrome,86.0.4240.183,Windows,10
35,1,259.42,"""",html-keyboard-response,73,67261,0.0-73.0,"<p> What was the emotion of the hidden face? <br> Press, <b>d</b> for <i>disgust face</i> or <b>n</b> for <i>neutral face</i></p>","""",68,"""",12,Query,"""",d,11/9/2020 14:57,69.125.145.27,"Mozilla/5.0 (Windows NT 10.0; Win64; x64) AppleWebKit/537.36 (KHTML, like Gecko) Chrome/86.0.4240.183 Safari/537.36",WebKit,Chrome,86.0.4240.183,Windows,10
35,1,null,"""",html-keyboard-response,74,68268,0.0-74.0,"<div style=""font-size:60px;"">+</div>","""",null,1000,13,ITI,"""","""",11/9/2020 14:57,69.125.145.27,"Mozilla/5.0 (Windows NT 10.0; Win64; x64) AppleWebKit/537.36 (KHTML, like Gecko) Chrome/86.0.4240.183 Safari/537.36",WebKit,Chrome,86.0.4240.183,Windows,10
35,1,null,"""",image-keyboard-response,75,68523,0.0-75.0,jspsych/scrambledNeutralFaces/scrambledBF03NES.JPG,"""",null,250,13,forwardMask,n,"""",11/9/2020 14:57,69.125.145.27,"Mozilla/5.0 (Windows NT 10.0; Win64; x64) AppleWebKit/537.36 (KHTML, like Gecko) Chrome/86.0.4240.183 Safari/537.36",WebKit,Chrome,86.0.4240.183,Windows,10
35,1,null,"""",image-keyboard-response,76,68594,0.0-76.0,jspsych/neutralFaces/BF03NES.JPG,"""",null,67,13,Cue,"""","""",11/9/2020 14:57,69.125.145.27,"Mozilla/5.0 (Windows NT 10.0; Win64; x64) AppleWebKit/537.36 (KHTML, like Gecko) Chrome/86.0.4240.183 Safari/537.36",WebKit,Chrome,86.0.4240.183,Windows,10
35,1,null,"""",image-keyboard-response,77,68699,0.0-77.0,jspsych/neutralFaces/AM02NES.JPG,"""",null,100,13,backwardMask,"""","""",11/9/2020 14:57,69.125.145.27,"Mozilla/5.0 (Windows NT 10.0; Win64; x64) AppleWebKit/537.36 (KHTML, like Gecko) Chrome/86.0.4240.183 Safari/537.36",WebKit,Chrome,86.0.4240.183,Windows,10
35,1,null,"""",html-keyboard-response,78,68903,0.0-78.0,"<div style=""font-size:60px;"">+</div>","""",null,200,13,fixationBtwnNeutralMaskAndPrompt,"""","""",11/9/2020 14:57,69.125.145.27,"Mozilla/5.0 (Windows NT 10.0; Win64; x64) AppleWebKit/537.36 (KHTML, like Gecko) Chrome/86.0.4240.183 Safari/537.36",WebKit,Chrome,86.0.4240.183,Windows,10
35,1,280.455,"""",html-keyboard-response,79,69184,0.0-79.0,"<p> What was the emotion of the hidden face? <br> Press, <b>d</b> for <i>disgust face</i> or <b>n</b> for <i>neutral face</i></p>","""",78,"""",13,Query,"""",n,11/9/2020 14:57,69.125.145.27,"Mozilla/5.0 (Windows NT 10.0; Win64; x64) AppleWebKit/537.36 (KHTML, like Gecko) Chrome/86.0.4240.183 Safari/537.36",WebKit,Chrome,86.0.4240.183,Windows,10
35,1,null,"""",html-keyboard-response,80,70189,0.0-80.0,"<div style=""font-size:60px;"">+</div>","""",null,1000,14,ITI,"""","""",11/9/2020 14:57,69.125.145.27,"Mozilla/5.0 (Windows NT 10.0; Win64; x64) AppleWebKit/537.36 (KHTML, like Gecko) Chrome/86.0.4240.183 Safari/537.36",WebKit,Chrome,86.0.4240.183,Windows,10
35,1,null,"""",image-keyboard-response,81,70443,0.0-81.0,jspsych/scrambledDisgustFaces/scrambledAM16DIS.JPG,"""",null,250,14,forwardMask,d,"""",11/9/2020 14:57,69.125.145.27,"Mozilla/5.0 (Windows NT 10.0; Win64; x64) AppleWebKit/537.36 (KHTML, like Gecko) Chrome/86.0.4240.183 Safari/537.36",WebKit,Chrome,86.0.4240.183,Windows,10
35,1,null,"""",image-keyboard-response,82,70545,0.0-82.0,jspsych/disgustFaces/AM16DIS.JPG,"""",null,99,14,Cue,"""","""",11/9/2020 14:57,69.125.145.27,"Mozilla/5.0 (Windows NT 10.0; Win64; x64) AppleWebKit/537.36 (KHTML, like Gecko) Chrome/86.0.4240.183 Safari/537.36",WebKit,Chrome,86.0.4240.183,Windows,10
35,1,null,"""",image-keyboard-response,83,70652,0.0-83.0,jspsych/neutralFaces/BF26NES.JPG,"""",null,100,14,backwardMask,"""","""",11/9/2020 14:57,69.125.145.27,"Mozilla/5.0 (Windows NT 10.0; Win64; x64) AppleWebKit/537.36 (KHTML, like Gecko) Chrome/86.0.4240.183 Safari/537.36",WebKit,Chrome,86.0.4240.183,Windows,10
35,1,null,"""",html-keyboard-response,84,70855,0.0-84.0,"<div style=""font-size:60px;"">+</div>","""",null,200,14,fixationBtwnNeutralMaskAndPrompt,"""","""",11/9/2020 14:57,69.125.145.27,"Mozilla/5.0 (Windows NT 10.0; Win64; x64) AppleWebKit/537.36 (KHTML, like Gecko) Chrome/86.0.4240.183 Safari/537.36",WebKit,Chrome,86.0.4240.183,Windows,10
35,1,287.085,"""",html-keyboard-response,85,71143,0.0-85.0,"<p> What was the emotion of the hidden face? <br> Press, <b>d</b> for <i>disgust face</i> or <b>n</b> for <i>neutral face</i></p>","""",68,"""",14,Query,"""",d,11/9/2020 14:57,69.125.145.27,"Mozilla/5.0 (Windows NT 10.0; Win64; x64) AppleWebKit/537.36 (KHTML, like Gecko) Chrome/86.0.4240.183 Safari/537.36",WebKit,Chrome,86.0.4240.183,Windows,10
35,1,null,"""",html-keyboard-response,86,72150,0.0-86.0,"<div style=""font-size:60px;"">+</div>","""",null,1000,15,ITI,"""","""",11/9/2020 14:57,69.125.145.27,"Mozilla/5.0 (Windows NT 10.0; Win64; x64) AppleWebKit/537.36 (KHTML, like Gecko) Chrome/86.0.4240.183 Safari/537.36",WebKit,Chrome,86.0.4240.183,Windows,10
35,1,null,"""",image-keyboard-response,87,72410,0.0-87.0,jspsych/scrambledDisgustFaces/scrambledAF06DIS.JPG,"""",null,250,15,forwardMask,d,"""",11/9/2020 14:57,69.125.145.27,"Mozilla/5.0 (Windows NT 10.0; Win64; x64) AppleWebKit/537.36 (KHTML, like Gecko) Chrome/86.0.4240.183 Safari/537.36",WebKit,Chrome,86.0.4240.183,Windows,10
35,1,null,"""",image-keyboard-response,88,72484,0.0-88.0,jspsych/disgustFaces/AF06DIS.JPG,"""",null,67,15,Cue,"""","""",11/9/2020 14:57,69.125.145.27,"Mozilla/5.0 (Windows NT 10.0; Win64; x64) AppleWebKit/537.36 (KHTML, like Gecko) Chrome/86.0.4240.183 Safari/537.36",WebKit,Chrome,86.0.4240.183,Windows,10
35,1,null,"""",image-keyboard-response,89,72594,0.0-89.0,jspsych/neutralFaces/BF01NES.JPG,"""",null,100,15,backwardMask,"""","""",11/9/2020 14:57,69.125.145.27,"Mozilla/5.0 (Windows NT 10.0; Win64; x64) AppleWebKit/537.36 (KHTML, like Gecko) Chrome/86.0.4240.183 Safari/537.36",WebKit,Chrome,86.0.4240.183,Windows,10
35,1,null,"""",html-keyboard-response,90,72802,0.0-90.0,"<div style=""font-size:60px;"">+</div>","""",null,200,15,fixationBtwnNeutralMaskAndPrompt,"""","""",11/9/2020 14:57,69.125.145.27,"Mozilla/5.0 (Windows NT 10.0; Win64; x64) AppleWebKit/537.36 (KHTML, like Gecko) Chrome/86.0.4240.183 Safari/537.36",WebKit,Chrome,86.0.4240.183,Windows,10
35,1,233.055,"""",html-keyboard-response,91,73036,0.0-91.0,"<p> What was the emotion of the hidden face? <br> Press, <b>d</b> for <i>disgust face</i> or <b>n</b> for <i>neutral face</i></p>","""",68,"""",15,Query,"""",d,11/9/2020 14:57,69.125.145.27,"Mozilla/5.0 (Windows NT 10.0; Win64; x64) AppleWebKit/537.36 (KHTML, like Gecko) Chrome/86.0.4240.183 Safari/537.36",WebKit,Chrome,86.0.4240.183,Windows,10
35,1,null,"""",html-keyboard-response,92,74044,0.0-92.0,"<div style=""font-size:60px;"">+</div>","""",null,1000,16,ITI,"""","""",11/9/2020 14:57,69.125.145.27,"Mozilla/5.0 (Windows NT 10.0; Win64; x64) AppleWebKit/537.36 (KHTML, like Gecko) Chrome/86.0.4240.183 Safari/537.36",WebKit,Chrome,86.0.4240.183,Windows,10
35,1,null,"""",image-keyboard-response,93,74300,0.0-93.0,jspsych/scrambledDisgustFaces/scrambledBM02DIS.JPG,"""",null,250,16,forwardMask,d,"""",11/9/2020 14:57,69.125.145.27,"Mozilla/5.0 (Windows NT 10.0; Win64; x64) AppleWebKit/537.36 (KHTML, like Gecko) Chrome/86.0.4240.183 Safari/537.36",WebKit,Chrome,86.0.4240.183,Windows,10
35,1,null,"""",image-keyboard-response,94,74469,0.0-94.0,jspsych/disgustFaces/BM02DIS.JPG,"""",null,160,16,Cue,"""","""",11/9/2020 14:57,69.125.145.27,"Mozilla/5.0 (Windows NT 10.0; Win64; x64) AppleWebKit/537.36 (KHTML, like Gecko) Chrome/86.0.4240.183 Safari/537.36",WebKit,Chrome,86.0.4240.183,Windows,10
35,1,null,"""",image-keyboard-response,95,74580,0.0-95.0,jspsych/neutralFaces/BF15NES.JPG,"""",null,100,16,backwardMask,"""","""",11/9/2020 14:57,69.125.145.27,"Mozilla/5.0 (Windows NT 10.0; Win64; x64) AppleWebKit/537.36 (KHTML, like Gecko) Chrome/86.0.4240.183 Safari/537.36",WebKit,Chrome,86.0.4240.183,Windows,10
35,1,null,"""",html-keyboard-response,96,74786,0.0-96.0,"<div style=""font-size:60px;"">+</div>","""",null,200,16,fixationBtwnNeutralMaskAndPrompt,"""","""",11/9/2020 14:57,69.125.145.27,"Mozilla/5.0 (Windows NT 10.0; Win64; x64) AppleWebKit/537.36 (KHTML, like Gecko) Chrome/86.0.4240.183 Safari/537.36",WebKit,Chrome,86.0.4240.183,Windows,10
35,1,181.935,"""",html-keyboard-response,97,74969,0.0-97.0,"<p> What was the emotion of the hidden face? <br> Press, <b>d</b> for <i>disgust face</i> or <b>n</b> for <i>neutral face</i></p>","""",68,"""",16,Query,"""",d,11/9/2020 14:57,69.125.145.27,"Mozilla/5.0 (Windows NT 10.0; Win64; x64) AppleWebKit/537.36 (KHTML, like Gecko) Chrome/86.0.4240.183 Safari/537.36",WebKit,Chrome,86.0.4240.183,Windows,10
35,1,null,"""",html-keyboard-response,98,75973,0.0-98.0,"<div style=""font-size:60px;"">+</div>","""",null,1000,17,ITI,"""","""",11/9/2020 14:57,69.125.145.27,"Mozilla/5.0 (Windows NT 10.0; Win64; x64) AppleWebKit/537.36 (KHTML, like Gecko) Chrome/86.0.4240.183 Safari/537.36",WebKit,Chrome,86.0.4240.183,Windows,10
35,1,null,"""",image-keyboard-response,99,76237,0.0-99.0,jspsych/scrambledDisgustFaces/scrambledAM15DIS.JPG,"""",null,250,17,forwardMask,d,"""",11/9/2020 14:57,69.125.145.27,"Mozilla/5.0 (Windows NT 10.0; Win64; x64) AppleWebKit/537.36 (KHTML, like Gecko) Chrome/86.0.4240.183 Safari/537.36",WebKit,Chrome,86.0.4240.183,Windows,10
35,1,null,"""",image-keyboard-response,100,76402,0.0-100.0,jspsych/disgustFaces/AM15DIS.JPG,"""",null,160,17,Cue,"""","""",11/9/2020 14:57,69.125.145.27,"Mozilla/5.0 (Windows NT 10.0; Win64; x64) AppleWebKit/537.36 (KHTML, like Gecko) Chrome/86.0.4240.183 Safari/537.36",WebKit,Chrome,86.0.4240.183,Windows,10
35,1,null,"""",image-keyboard-response,101,76511,0.0-101.0,jspsych/neutralFaces/BM10NES.JPG,"""",null,100,17,backwardMask,"""","""",11/9/2020 14:57,69.125.145.27,"Mozilla/5.0 (Windows NT 10.0; Win64; x64) AppleWebKit/537.36 (KHTML, like Gecko) Chrome/86.0.4240.183 Safari/537.36",WebKit,Chrome,86.0.4240.183,Windows,10
35,1,null,"""",html-keyboard-response,102,76720,0.0-102.0,"<div style=""font-size:60px;"">+</div>","""",null,200,17,fixationBtwnNeutralMaskAndPrompt,"""","""",11/9/2020 14:57,69.125.145.27,"Mozilla/5.0 (Windows NT 10.0; Win64; x64) AppleWebKit/537.36 (KHTML, like Gecko) Chrome/86.0.4240.183 Safari/537.36",WebKit,Chrome,86.0.4240.183,Windows,10
35,1,202.925,"""",html-keyboard-response,103,76924,0.0-103.0,"<p> What was the emotion of the hidden face? <br> Press, <b>d</b> for <i>disgust face</i> or <b>n</b> for <i>neutral face</i></p>","""",68,"""",17,Query,"""",d,11/9/2020 14:57,69.125.145.27,"Mozilla/5.0 (Windows NT 10.0; Win64; x64) AppleWebKit/537.36 (KHTML, like Gecko) Chrome/86.0.4240.183 Safari/537.36",WebKit,Chrome,86.0.4240.183,Windows,10
35,1,null,"""",html-keyboard-response,104,77932,0.0-104.0,"<div style=""font-size:60px;"">+</div>","""",null,1000,18,ITI,"""","""",11/9/2020 14:57,69.125.145.27,"Mozilla/5.0 (Windows NT 10.0; Win64; x64) AppleWebKit/537.36 (KHTML, like Gecko) Chrome/86.0.4240.183 Safari/537.36",WebKit,Chrome,86.0.4240.183,Windows,10
35,1,null,"""",image-keyboard-response,105,78192,0.0-105.0,jspsych/scrambledNeutralFaces/scrambledAF12NES.JPG,"""",null,250,18,forwardMask,n,"""",11/9/2020 14:57,69.125.145.27,"Mozilla/5.0 (Windows NT 10.0; Win64; x64) AppleWebKit/537.36 (KHTML, like Gecko) Chrome/86.0.4240.183 Safari/537.36",WebKit,Chrome,86.0.4240.183,Windows,10
35,1,null,"""",image-keyboard-response,106,78294,0.0-106.0,jspsych/neutralFaces/AF12NES.JPG,"""",null,99,18,Cue,"""","""",11/9/2020 14:57,69.125.145.27,"Mozilla/5.0 (Windows NT 10.0; Win64; x64) AppleWebKit/537.36 (KHTML, like Gecko) Chrome/86.0.4240.183 Safari/537.36",WebKit,Chrome,86.0.4240.183,Windows,10
35,1,null,"""",image-keyboard-response,107,78400,0.0-107.0,jspsych/neutralFaces/BF20NES.JPG,"""",null,100,18,backwardMask,"""","""",11/9/2020 14:57,69.125.145.27,"Mozilla/5.0 (Windows NT 10.0; Win64; x64) AppleWebKit/537.36 (KHTML, like Gecko) Chrome/86.0.4240.183 Safari/537.36",WebKit,Chrome,86.0.4240.183,Windows,10
35,1,null,"""",html-keyboard-response,108,78610,0.0-108.0,"<div style=""font-size:60px;"">+</div>","""",null,200,18,fixationBtwnNeutralMaskAndPrompt,"""","""",11/9/2020 14:57,69.125.145.27,"Mozilla/5.0 (Windows NT 10.0; Win64; x64) AppleWebKit/537.36 (KHTML, like Gecko) Chrome/86.0.4240.183 Safari/537.36",WebKit,Chrome,86.0.4240.183,Windows,10
35,1,291.02,"""",html-keyboard-response,109,78902,0.0-109.0,"<p> What was the emotion of the hidden face? <br> Press, <b>d</b> for <i>disgust face</i> or <b>n</b> for <i>neutral face</i></p>","""",78,"""",18,Query,"""",n,11/9/2020 14:57,69.125.145.27,"Mozilla/5.0 (Windows NT 10.0; Win64; x64) AppleWebKit/537.36 (KHTML, like Gecko) Chrome/86.0.4240.183 Safari/537.36",WebKit,Chrome,86.0.4240.183,Windows,10
35,1,null,"""",html-keyboard-response,110,79911,0.0-110.0,"<div style=""font-size:60px;"">+</div>","""",null,1000,19,ITI,"""","""",11/9/2020 14:57,69.125.145.27,"Mozilla/5.0 (Windows NT 10.0; Win64; x64) AppleWebKit/537.36 (KHTML, like Gecko) Chrome/86.0.4240.183 Safari/537.36",WebKit,Chrome,86.0.4240.183,Windows,10
35,1,null,"""",image-keyboard-response,111,80166,0.0-111.0,jspsych/scrambledDisgustFaces/scrambledAM15DIS.JPG,"""",null,250,19,forwardMask,d,"""",11/9/2020 14:57,69.125.145.27,"Mozilla/5.0 (Windows NT 10.0; Win64; x64) AppleWebKit/537.36 (KHTML, like Gecko) Chrome/86.0.4240.183 Safari/537.36",WebKit,Chrome,86.0.4240.183,Windows,10
35,1,null,"""",image-keyboard-response,112,80188,0.0-112.0,jspsych/disgustFaces/AM15DIS.JPG,"""",null,16,19,Cue,"""","""",11/9/2020 14:57,69.125.145.27,"Mozilla/5.0 (Windows NT 10.0; Win64; x64) AppleWebKit/537.36 (KHTML, like Gecko) Chrome/86.0.4240.183 Safari/537.36",WebKit,Chrome,86.0.4240.183,Windows,10
35,1,null,"""",image-keyboard-response,113,80298,0.0-113.0,jspsych/neutralFaces/BM22NES.JPG,"""",null,100,19,backwardMask,"""","""",11/9/2020 14:57,69.125.145.27,"Mozilla/5.0 (Windows NT 10.0; Win64; x64) AppleWebKit/537.36 (KHTML, like Gecko) Chrome/86.0.4240.183 Safari/537.36",WebKit,Chrome,86.0.4240.183,Windows,10
35,1,null,"""",html-keyboard-response,114,80507,0.0-114.0,"<div style=""font-size:60px;"">+</div>","""",null,200,19,fixationBtwnNeutralMaskAndPrompt,"""","""",11/9/2020 14:57,69.125.145.27,"Mozilla/5.0 (Windows NT 10.0; Win64; x64) AppleWebKit/537.36 (KHTML, like Gecko) Chrome/86.0.4240.183 Safari/537.36",WebKit,Chrome,86.0.4240.183,Windows,10
35,1,371.015,"""",html-keyboard-response,115,80880,0.0-115.0,"<p> What was the emotion of the hidden face? <br> Press, <b>d</b> for <i>disgust face</i> or <b>n</b> for <i>neutral face</i></p>","""",68,"""",19,Query,"""",d,11/9/2020 14:57,69.125.145.27,"Mozilla/5.0 (Windows NT 10.0; Win64; x64) AppleWebKit/537.36 (KHTML, like Gecko) Chrome/86.0.4240.183 Safari/537.36",WebKit,Chrome,86.0.4240.183,Windows,10
35,1,null,"""",html-keyboard-response,116,81888,0.0-116.0,"<div style=""font-size:60px;"">+</div>","""",null,1000,20,ITI,"""","""",11/9/2020 14:57,69.125.145.27,"Mozilla/5.0 (Windows NT 10.0; Win64; x64) AppleWebKit/537.36 (KHTML, like Gecko) Chrome/86.0.4240.183 Safari/537.36",WebKit,Chrome,86.0.4240.183,Windows,10
35,1,null,"""",image-keyboard-response,117,82149,0.0-117.0,jspsych/scrambledDisgustFaces/scrambledBM34DIS.JPG,"""",null,250,20,forwardMask,d,"""",11/9/2020 14:57,69.125.145.27,"Mozilla/5.0 (Windows NT 10.0; Win64; x64) AppleWebKit/537.36 (KHTML, like Gecko) Chrome/86.0.4240.183 Safari/537.36",WebKit,Chrome,86.0.4240.183,Windows,10
35,1,null,"""",image-keyboard-response,118,82289,0.0-118.0,jspsych/disgustFaces/BM34DIS.JPG,"""",null,129,20,Cue,"""","""",11/9/2020 14:57,69.125.145.27,"Mozilla/5.0 (Windows NT 10.0; Win64; x64) AppleWebKit/537.36 (KHTML, like Gecko) Chrome/86.0.4240.183 Safari/537.36",WebKit,Chrome,86.0.4240.183,Windows,10
35,1,null,"""",image-keyboard-response,119,82394,0.0-119.0,jspsych/neutralFaces/AM10NES.JPG,"""",null,100,20,backwardMask,"""","""",11/9/2020 14:57,69.125.145.27,"Mozilla/5.0 (Windows NT 10.0; Win64; x64) AppleWebKit/537.36 (KHTML, like Gecko) Chrome/86.0.4240.183 Safari/537.36",WebKit,Chrome,86.0.4240.183,Windows,10
35,1,null,"""",html-keyboard-response,120,82602,0.0-120.0,"<div style=""font-size:60px;"">+</div>","""",null,200,20,fixationBtwnNeutralMaskAndPrompt,"""","""",11/9/2020 14:57,69.125.145.27,"Mozilla/5.0 (Windows NT 10.0; Win64; x64) AppleWebKit/537.36 (KHTML, like Gecko) Chrome/86.0.4240.183 Safari/537.36",WebKit,Chrome,86.0.4240.183,Windows,10
35,1,260.165,"""",html-keyboard-response,121,82863,0.0-121.0,"<p> What was the emotion of the hidden face? <br> Press, <b>d</b> for <i>disgust face</i> or <b>n</b> for <i>neutral face</i></p>","""",68,"""",20,Query,"""",d,11/9/2020 14:57,69.125.145.27,"Mozilla/5.0 (Windows NT 10.0; Win64; x64) AppleWebKit/537.36 (KHTML, like Gecko) Chrome/86.0.4240.183 Safari/537.36",WebKit,Chrome,86.0.4240.183,Windows,10
35,1,null,"""",html-keyboard-response,122,83866,0.0-122.0,"<div style=""font-size:60px;"">+</div>","""",null,1000,21,ITI,"""","""",11/9/2020 14:57,69.125.145.27,"Mozilla/5.0 (Windows NT 10.0; Win64; x64) AppleWebKit/537.36 (KHTML, like Gecko) Chrome/86.0.4240.183 Safari/537.36",WebKit,Chrome,86.0.4240.183,Windows,10
35,1,null,"""",image-keyboard-response,123,84128,0.0-123.0,jspsych/scrambledNeutralFaces/scrambledBF05NES.JPG,"""",null,250,21,forwardMask,n,"""",11/9/2020 14:57,69.125.145.27,"Mozilla/5.0 (Windows NT 10.0; Win64; x64) AppleWebKit/537.36 (KHTML, like Gecko) Chrome/86.0.4240.183 Safari/537.36",WebKit,Chrome,86.0.4240.183,Windows,10
35,1,null,"""",image-keyboard-response,124,84197,0.0-124.0,jspsych/neutralFaces/BF05NES.JPG,"""",null,67,21,Cue,"""","""",11/9/2020 14:57,69.125.145.27,"Mozilla/5.0 (Windows NT 10.0; Win64; x64) AppleWebKit/537.36 (KHTML, like Gecko) Chrome/86.0.4240.183 Safari/537.36",WebKit,Chrome,86.0.4240.183,Windows,10
35,1,null,"""",image-keyboard-response,125,84301,0.0-125.0,jspsych/neutralFaces/BM08NES.JPG,"""",null,100,21,backwardMask,"""","""",11/9/2020 14:57,69.125.145.27,"Mozilla/5.0 (Windows NT 10.0; Win64; x64) AppleWebKit/537.36 (KHTML, like Gecko) Chrome/86.0.4240.183 Safari/537.36",WebKit,Chrome,86.0.4240.183,Windows,10
35,1,null,"""",html-keyboard-response,126,84511,0.0-126.0,"<div style=""font-size:60px;"">+</div>","""",null,200,21,fixationBtwnNeutralMaskAndPrompt,"""","""",11/9/2020 14:57,69.125.145.27,"Mozilla/5.0 (Windows NT 10.0; Win64; x64) AppleWebKit/537.36 (KHTML, like Gecko) Chrome/86.0.4240.183 Safari/537.36",WebKit,Chrome,86.0.4240.183,Windows,10
35,1,274.65,"""",html-keyboard-response,127,84787,0.0-127.0,"<p> What was the emotion of the hidden face? <br> Press, <b>d</b> for <i>disgust face</i> or <b>n</b> for <i>neutral face</i></p>","""",78,"""",21,Query,"""",n,11/9/2020 14:57,69.125.145.27,"Mozilla/5.0 (Windows NT 10.0; Win64; x64) AppleWebKit/537.36 (KHTML, like Gecko) Chrome/86.0.4240.183 Safari/537.36",WebKit,Chrome,86.0.4240.183,Windows,10
35,1,null,"""",html-keyboard-response,128,85794,0.0-128.0,"<div style=""font-size:60px;"">+</div>","""",null,1000,22,ITI,"""","""",11/9/2020 14:57,69.125.145.27,"Mozilla/5.0 (Windows NT 10.0; Win64; x64) AppleWebKit/537.36 (KHTML, like Gecko) Chrome/86.0.4240.183 Safari/537.36",WebKit,Chrome,86.0.4240.183,Windows,10
35,1,null,"""",image-keyboard-response,129,86049,0.0-129.0,jspsych/scrambledNeutralFaces/scrambledBF25NES.JPG,"""",null,250,22,forwardMask,n,"""",11/9/2020 14:57,69.125.145.27,"Mozilla/5.0 (Windows NT 10.0; Win64; x64) AppleWebKit/537.36 (KHTML, like Gecko) Chrome/86.0.4240.183 Safari/537.36",WebKit,Chrome,86.0.4240.183,Windows,10
35,1,null,"""",image-keyboard-response,130,86122,0.0-130.0,jspsych/neutralFaces/BF25NES.JPG,"""",null,67,22,Cue,"""","""",11/9/2020 14:57,69.125.145.27,"Mozilla/5.0 (Windows NT 10.0; Win64; x64) AppleWebKit/537.36 (KHTML, like Gecko) Chrome/86.0.4240.183 Safari/537.36",WebKit,Chrome,86.0.4240.183,Windows,10
35,1,null,"""",image-keyboard-response,131,86231,0.0-131.0,jspsych/neutralFaces/AF21NES.JPG,"""",null,100,22,backwardMask,"""","""",11/9/2020 14:57,69.125.145.27,"Mozilla/5.0 (Windows NT 10.0; Win64; x64) AppleWebKit/537.36 (KHTML, like Gecko) Chrome/86.0.4240.183 Safari/537.36",WebKit,Chrome,86.0.4240.183,Windows,10
35,1,null,"""",html-keyboard-response,132,86439,0.0-132.0,"<div style=""font-size:60px;"">+</div>","""",null,200,22,fixationBtwnNeutralMaskAndPrompt,"""","""",11/9/2020 14:57,69.125.145.27,"Mozilla/5.0 (Windows NT 10.0; Win64; x64) AppleWebKit/537.36 (KHTML, like Gecko) Chrome/86.0.4240.183 Safari/537.36",WebKit,Chrome,86.0.4240.183,Windows,10
35,1,209.42,"""",html-keyboard-response,133,86650,0.0-133.0,"<p> What was the emotion of the hidden face? <br> Press, <b>d</b> for <i>disgust face</i> or <b>n</b> for <i>neutral face</i></p>","""",78,"""",22,Query,"""",n,11/9/2020 14:57,69.125.145.27,"Mozilla/5.0 (Windows NT 10.0; Win64; x64) AppleWebKit/537.36 (KHTML, like Gecko) Chrome/86.0.4240.183 Safari/537.36",WebKit,Chrome,86.0.4240.183,Windows,10
35,1,null,"""",html-keyboard-response,134,87658,0.0-134.0,"<div style=""font-size:60px;"">+</div>","""",null,1000,23,ITI,"""","""",11/9/2020 14:57,69.125.145.27,"Mozilla/5.0 (Windows NT 10.0; Win64; x64) AppleWebKit/537.36 (KHTML, like Gecko) Chrome/86.0.4240.183 Safari/537.36",WebKit,Chrome,86.0.4240.183,Windows,10
35,1,null,"""",image-keyboard-response,135,87916,0.0-135.0,jspsych/scrambledNeutralFaces/scrambledAF26NES.JPG,"""",null,250,23,forwardMask,n,"""",11/9/2020 14:57,69.125.145.27,"Mozilla/5.0 (Windows NT 10.0; Win64; x64) AppleWebKit/537.36 (KHTML, like Gecko) Chrome/86.0.4240.183 Safari/537.36",WebKit,Chrome,86.0.4240.183,Windows,10
35,1,null,"""",image-keyboard-response,136,88079,0.0-136.0,jspsych/neutralFaces/AF26NES.JPG,"""",null,160,23,Cue,"""","""",11/9/2020 14:57,69.125.145.27,"Mozilla/5.0 (Windows NT 10.0; Win64; x64) AppleWebKit/537.36 (KHTML, like Gecko) Chrome/86.0.4240.183 Safari/537.36",WebKit,Chrome,86.0.4240.183,Windows,10
35,1,null,"""",image-keyboard-response,137,88183,0.0-137.0,jspsych/neutralFaces/AF28NES.JPG,"""",null,100,23,backwardMask,"""","""",11/9/2020 14:57,69.125.145.27,"Mozilla/5.0 (Windows NT 10.0; Win64; x64) AppleWebKit/537.36 (KHTML, like Gecko) Chrome/86.0.4240.183 Safari/537.36",WebKit,Chrome,86.0.4240.183,Windows,10
35,1,null,"""",html-keyboard-response,138,88393,0.0-138.0,"<div style=""font-size:60px;"">+</div>","""",null,200,23,fixationBtwnNeutralMaskAndPrompt,"""","""",11/9/2020 14:57,69.125.145.27,"Mozilla/5.0 (Windows NT 10.0; Win64; x64) AppleWebKit/537.36 (KHTML, like Gecko) Chrome/86.0.4240.183 Safari/537.36",WebKit,Chrome,86.0.4240.183,Windows,10
35,1,321.77,"""",html-keyboard-response,139,88716,0.0-139.0,"<p> What was the emotion of the hidden face? <br> Press, <b>d</b> for <i>disgust face</i> or <b>n</b> for <i>neutral face</i></p>","""",68,"""",23,Query,"""",d,11/9/2020 14:57,69.125.145.27,"Mozilla/5.0 (Windows NT 10.0; Win64; x64) AppleWebKit/537.36 (KHTML, like Gecko) Chrome/86.0.4240.183 Safari/537.36",WebKit,Chrome,86.0.4240.183,Windows,10
35,1,null,"""",html-keyboard-response,140,89721,0.0-140.0,"<div style=""font-size:60px;"">+</div>","""",null,1000,24,ITI,"""","""",11/9/2020 14:57,69.125.145.27,"Mozilla/5.0 (Windows NT 10.0; Win64; x64) AppleWebKit/537.36 (KHTML, like Gecko) Chrome/86.0.4240.183 Safari/537.36",WebKit,Chrome,86.0.4240.183,Windows,10
35,1,null,"""",image-keyboard-response,141,89979,0.0-141.0,jspsych/scrambledNeutralFaces/scrambledBM34NES.JPG,"""",null,250,24,forwardMask,n,"""",11/9/2020 14:57,69.125.145.27,"Mozilla/5.0 (Windows NT 10.0; Win64; x64) AppleWebKit/537.36 (KHTML, like Gecko) Chrome/86.0.4240.183 Safari/537.36",WebKit,Chrome,86.0.4240.183,Windows,10
35,1,null,"""",image-keyboard-response,142,90004,0.0-142.0,jspsych/neutralFaces/BM34NES.JPG,"""",null,16,24,Cue,"""","""",11/9/2020 14:57,69.125.145.27,"Mozilla/5.0 (Windows NT 10.0; Win64; x64) AppleWebKit/537.36 (KHTML, like Gecko) Chrome/86.0.4240.183 Safari/537.36",WebKit,Chrome,86.0.4240.183,Windows,10
35,1,null,"""",image-keyboard-response,143,90117,0.0-143.0,jspsych/neutralFaces/AM21NES.JPG,"""",null,100,24,backwardMask,"""","""",11/9/2020 14:57,69.125.145.27,"Mozilla/5.0 (Windows NT 10.0; Win64; x64) AppleWebKit/537.36 (KHTML, like Gecko) Chrome/86.0.4240.183 Safari/537.36",WebKit,Chrome,86.0.4240.183,Windows,10
35,1,null,"""",html-keyboard-response,144,90321,0.0-144.0,"<div style=""font-size:60px;"">+</div>","""",null,200,24,fixationBtwnNeutralMaskAndPrompt,"""","""",11/9/2020 14:57,69.125.145.27,"Mozilla/5.0 (Windows NT 10.0; Win64; x64) AppleWebKit/537.36 (KHTML, like Gecko) Chrome/86.0.4240.183 Safari/537.36",WebKit,Chrome,86.0.4240.183,Windows,10
35,1,340.54,"""",html-keyboard-response,145,90663,0.0-145.0,"<p> What was the emotion of the hidden face? <br> Press, <b>d</b> for <i>disgust face</i> or <b>n</b> for <i>neutral face</i></p>","""",78,"""",24,Query,"""",n,11/9/2020 14:57,69.125.145.27,"Mozilla/5.0 (Windows NT 10.0; Win64; x64) AppleWebKit/537.36 (KHTML, like Gecko) Chrome/86.0.4240.183 Safari/537.36",WebKit,Chrome,86.0.4240.183,Windows,10
35,1,null,"""",html-keyboard-response,146,91677,0.0-146.0,"<div style=""font-size:60px;"">+</div>","""",null,1000,25,ITI,"""","""",11/9/2020 14:57,69.125.145.27,"Mozilla/5.0 (Windows NT 10.0; Win64; x64) AppleWebKit/537.36 (KHTML, like Gecko) Chrome/86.0.4240.183 Safari/537.36",WebKit,Chrome,86.0.4240.183,Windows,10
35,1,null,"""",image-keyboard-response,147,91942,0.0-147.0,jspsych/scrambledDisgustFaces/scrambledBF29DIS.JPG,"""",null,250,25,forwardMask,d,"""",11/9/2020 14:57,69.125.145.27,"Mozilla/5.0 (Windows NT 10.0; Win64; x64) AppleWebKit/537.36 (KHTML, like Gecko) Chrome/86.0.4240.183 Safari/537.36",WebKit,Chrome,86.0.4240.183,Windows,10
35,1,null,"""",image-keyboard-response,148,92049,0.0-148.0,jspsych/disgustFaces/BF29DIS.JPG,"""",null,99,25,Cue,"""","""",11/9/2020 14:57,69.125.145.27,"Mozilla/5.0 (Windows NT 10.0; Win64; x64) AppleWebKit/537.36 (KHTML, like Gecko) Chrome/86.0.4240.183 Safari/537.36",WebKit,Chrome,86.0.4240.183,Windows,10
35,1,null,"""",image-keyboard-response,149,92155,0.0-149.0,jspsych/neutralFaces/BM09NES.JPG,"""",null,100,25,backwardMask,"""","""",11/9/2020 14:57,69.125.145.27,"Mozilla/5.0 (Windows NT 10.0; Win64; x64) AppleWebKit/537.36 (KHTML, like Gecko) Chrome/86.0.4240.183 Safari/537.36",WebKit,Chrome,86.0.4240.183,Windows,10
35,1,null,"""",html-keyboard-response,150,92361,0.0-150.0,"<div style=""font-size:60px;"">+</div>","""",null,200,25,fixationBtwnNeutralMaskAndPrompt,"""","""",11/9/2020 14:57,69.125.145.27,"Mozilla/5.0 (Windows NT 10.0; Win64; x64) AppleWebKit/537.36 (KHTML, like Gecko) Chrome/86.0.4240.183 Safari/537.36",WebKit,Chrome,86.0.4240.183,Windows,10
35,1,216.95,"""",html-keyboard-response,151,92579,0.0-151.0,"<p> What was the emotion of the hidden face? <br> Press, <b>d</b> for <i>disgust face</i> or <b>n</b> for <i>neutral face</i></p>","""",68,"""",25,Query,"""",d,11/9/2020 14:57,69.125.145.27,"Mozilla/5.0 (Windows NT 10.0; Win64; x64) AppleWebKit/537.36 (KHTML, like Gecko) Chrome/86.0.4240.183 Safari/537.36",WebKit,Chrome,86.0.4240.183,Windows,10
35,1,null,"""",html-keyboard-response,152,93582,0.0-152.0,"<div style=""font-size:60px;"">+</div>","""",null,1000,26,ITI,"""","""",11/9/2020 14:57,69.125.145.27,"Mozilla/5.0 (Windows NT 10.0; Win64; x64) AppleWebKit/537.36 (KHTML, like Gecko) Chrome/86.0.4240.183 Safari/537.36",WebKit,Chrome,86.0.4240.183,Windows,10
35,1,null,"""",image-keyboard-response,153,93844,0.0-153.0,jspsych/scrambledDisgustFaces/scrambledBM03DIS.JPG,"""",null,250,26,forwardMask,d,"""",11/9/2020 14:57,69.125.145.27,"Mozilla/5.0 (Windows NT 10.0; Win64; x64) AppleWebKit/537.36 (KHTML, like Gecko) Chrome/86.0.4240.183 Safari/537.36",WebKit,Chrome,86.0.4240.183,Windows,10
35,1,null,"""",image-keyboard-response,154,94013,0.0-154.0,jspsych/disgustFaces/BM03DIS.JPG,"""",null,160,26,Cue,"""","""",11/9/2020 14:57,69.125.145.27,"Mozilla/5.0 (Windows NT 10.0; Win64; x64) AppleWebKit/537.36 (KHTML, like Gecko) Chrome/86.0.4240.183 Safari/537.36",WebKit,Chrome,86.0.4240.183,Windows,10
35,1,null,"""",image-keyboard-response,155,94120,0.0-155.0,jspsych/neutralFaces/BM21NES.JPG,"""",null,100,26,backwardMask,"""","""",11/9/2020 14:57,69.125.145.27,"Mozilla/5.0 (Windows NT 10.0; Win64; x64) AppleWebKit/537.36 (KHTML, like Gecko) Chrome/86.0.4240.183 Safari/537.36",WebKit,Chrome,86.0.4240.183,Windows,10
35,1,null,"""",html-keyboard-response,156,94332,0.0-156.0,"<div style=""font-size:60px;"">+</div>","""",null,200,26,fixationBtwnNeutralMaskAndPrompt,"""","""",11/9/2020 14:57,69.125.145.27,"Mozilla/5.0 (Windows NT 10.0; Win64; x64) AppleWebKit/537.36 (KHTML, like Gecko) Chrome/86.0.4240.183 Safari/537.36",WebKit,Chrome,86.0.4240.183,Windows,10
35,1,370.93,"""",html-keyboard-response,157,94704,0.0-157.0,"<p> What was the emotion of the hidden face? <br> Press, <b>d</b> for <i>disgust face</i> or <b>n</b> for <i>neutral face</i></p>","""",68,"""",26,Query,"""",d,11/9/2020 14:57,69.125.145.27,"Mozilla/5.0 (Windows NT 10.0; Win64; x64) AppleWebKit/537.36 (KHTML, like Gecko) Chrome/86.0.4240.183 Safari/537.36",WebKit,Chrome,86.0.4240.183,Windows,10
35,1,null,"""",html-keyboard-response,158,95714,0.0-158.0,"<div style=""font-size:60px;"">+</div>","""",null,1000,27,ITI,"""","""",11/9/2020 14:57,69.125.145.27,"Mozilla/5.0 (Windows NT 10.0; Win64; x64) AppleWebKit/537.36 (KHTML, like Gecko) Chrome/86.0.4240.183 Safari/537.36",WebKit,Chrome,86.0.4240.183,Windows,10
35,1,null,"""",image-keyboard-response,159,95972,0.0-159.0,jspsych/scrambledNeutralFaces/scrambledAM07NES.JPG,"""",null,250,27,forwardMask,n,"""",11/9/2020 14:57,69.125.145.27,"Mozilla/5.0 (Windows NT 10.0; Win64; x64) AppleWebKit/537.36 (KHTML, like Gecko) Chrome/86.0.4240.183 Safari/537.36",WebKit,Chrome,86.0.4240.183,Windows,10
35,1,null,"""",image-keyboard-response,160,96142,0.0-160.0,jspsych/neutralFaces/AM07NES.JPG,"""",null,160,27,Cue,"""","""",11/9/2020 14:57,69.125.145.27,"Mozilla/5.0 (Windows NT 10.0; Win64; x64) AppleWebKit/537.36 (KHTML, like Gecko) Chrome/86.0.4240.183 Safari/537.36",WebKit,Chrome,86.0.4240.183,Windows,10
35,1,null,"""",image-keyboard-response,161,96247,0.0-161.0,jspsych/neutralFaces/BM01NES.JPG,"""",null,100,27,backwardMask,"""","""",11/9/2020 14:57,69.125.145.27,"Mozilla/5.0 (Windows NT 10.0; Win64; x64) AppleWebKit/537.36 (KHTML, like Gecko) Chrome/86.0.4240.183 Safari/537.36",WebKit,Chrome,86.0.4240.183,Windows,10
35,1,null,"""",html-keyboard-response,162,96458,0.0-162.0,"<div style=""font-size:60px;"">+</div>","""",null,200,27,fixationBtwnNeutralMaskAndPrompt,"""","""",11/9/2020 14:57,69.125.145.27,"Mozilla/5.0 (Windows NT 10.0; Win64; x64) AppleWebKit/537.36 (KHTML, like Gecko) Chrome/86.0.4240.183 Safari/537.36",WebKit,Chrome,86.0.4240.183,Windows,10
35,1,253.26,"""",html-keyboard-response,163,96712,0.0-163.0,"<p> What was the emotion of the hidden face? <br> Press, <b>d</b> for <i>disgust face</i> or <b>n</b> for <i>neutral face</i></p>","""",78,"""",27,Query,"""",n,11/9/2020 14:57,69.125.145.27,"Mozilla/5.0 (Windows NT 10.0; Win64; x64) AppleWebKit/537.36 (KHTML, like Gecko) Chrome/86.0.4240.183 Safari/537.36",WebKit,Chrome,86.0.4240.183,Windows,10
35,1,null,"""",html-keyboard-response,164,97720,0.0-164.0,"<div style=""font-size:60px;"">+</div>","""",null,1000,28,ITI,"""","""",11/9/2020 14:57,69.125.145.27,"Mozilla/5.0 (Windows NT 10.0; Win64; x64) AppleWebKit/537.36 (KHTML, like Gecko) Chrome/86.0.4240.183 Safari/537.36",WebKit,Chrome,86.0.4240.183,Windows,10
35,1,null,"""",image-keyboard-response,165,97976,0.0-165.0,jspsych/scrambledNeutralFaces/scrambledBF16NES.JPG,"""",null,250,28,forwardMask,n,"""",11/9/2020 14:57,69.125.145.27,"Mozilla/5.0 (Windows NT 10.0; Win64; x64) AppleWebKit/537.36 (KHTML, like Gecko) Chrome/86.0.4240.183 Safari/537.36",WebKit,Chrome,86.0.4240.183,Windows,10
35,1,null,"""",image-keyboard-response,166,98012,0.0-166.0,jspsych/neutralFaces/BF16NES.JPG,"""",null,33,28,Cue,"""","""",11/9/2020 14:57,69.125.145.27,"Mozilla/5.0 (Windows NT 10.0; Win64; x64) AppleWebKit/537.36 (KHTML, like Gecko) Chrome/86.0.4240.183 Safari/537.36",WebKit,Chrome,86.0.4240.183,Windows,10
35,1,null,"""",image-keyboard-response,167,98117,0.0-167.0,jspsych/neutralFaces/AF07NES.JPG,"""",null,100,28,backwardMask,"""","""",11/9/2020 14:57,69.125.145.27,"Mozilla/5.0 (Windows NT 10.0; Win64; x64) AppleWebKit/537.36 (KHTML, like Gecko) Chrome/86.0.4240.183 Safari/537.36",WebKit,Chrome,86.0.4240.183,Windows,10
35,1,null,"""",html-keyboard-response,168,98323,0.0-168.0,"<div style=""font-size:60px;"">+</div>","""",null,200,28,fixationBtwnNeutralMaskAndPrompt,"""","""",11/9/2020 14:57,69.125.145.27,"Mozilla/5.0 (Windows NT 10.0; Win64; x64) AppleWebKit/537.36 (KHTML, like Gecko) Chrome/86.0.4240.183 Safari/537.36",WebKit,Chrome,86.0.4240.183,Windows,10
35,1,227.85,"""",html-keyboard-response,169,98552,0.0-169.0,"<p> What was the emotion of the hidden face? <br> Press, <b>d</b> for <i>disgust face</i> or <b>n</b> for <i>neutral face</i></p>","""",78,"""",28,Query,"""",n,11/9/2020 14:57,69.125.145.27,"Mozilla/5.0 (Windows NT 10.0; Win64; x64) AppleWebKit/537.36 (KHTML, like Gecko) Chrome/86.0.4240.183 Safari/537.36",WebKit,Chrome,86.0.4240.183,Windows,10
35,1,null,"""",html-keyboard-response,170,99557,0.0-170.0,"<div style=""font-size:60px;"">+</div>","""",null,1000,29,ITI,"""","""",11/9/2020 14:57,69.125.145.27,"Mozilla/5.0 (Windows NT 10.0; Win64; x64) AppleWebKit/537.36 (KHTML, like Gecko) Chrome/86.0.4240.183 Safari/537.36",WebKit,Chrome,86.0.4240.183,Windows,10
35,1,null,"""",image-keyboard-response,171,99815,0.0-171.0,jspsych/scrambledDisgustFaces/scrambledBM03DIS.JPG,"""",null,250,29,forwardMask,d,"""",11/9/2020 14:57,69.125.145.27,"Mozilla/5.0 (Windows NT 10.0; Win64; x64) AppleWebKit/537.36 (KHTML, like Gecko) Chrome/86.0.4240.183 Safari/537.36",WebKit,Chrome,86.0.4240.183,Windows,10
35,1,null,"""",image-keyboard-response,172,99982,0.0-172.0,jspsych/disgustFaces/BM03DIS.JPG,"""",null,160,29,Cue,"""","""",11/9/2020 14:57,69.125.145.27,"Mozilla/5.0 (Windows NT 10.0; Win64; x64) AppleWebKit/537.36 (KHTML, like Gecko) Chrome/86.0.4240.183 Safari/537.36",WebKit,Chrome,86.0.4240.183,Windows,10
35,1,null,"""",image-keyboard-response,173,100092,0.0-173.0,jspsych/neutralFaces/AF20NES.JPG,"""",null,100,29,backwardMask,"""","""",11/9/2020 14:57,69.125.145.27,"Mozilla/5.0 (Windows NT 10.0; Win64; x64) AppleWebKit/537.36 (KHTML, like Gecko) Chrome/86.0.4240.183 Safari/537.36",WebKit,Chrome,86.0.4240.183,Windows,10
35,1,null,"""",html-keyboard-response,174,100294,0.0-174.0,"<div style=""font-size:60px;"">+</div>","""",null,200,29,fixationBtwnNeutralMaskAndPrompt,"""","""",11/9/2020 14:57,69.125.145.27,"Mozilla/5.0 (Windows NT 10.0; Win64; x64) AppleWebKit/537.36 (KHTML, like Gecko) Chrome/86.0.4240.183 Safari/537.36",WebKit,Chrome,86.0.4240.183,Windows,10
35,1,221.04,"""",html-keyboard-response,175,100517,0.0-175.0,"<p> What was the emotion of the hidden face? <br> Press, <b>d</b> for <i>disgust face</i> or <b>n</b> for <i>neutral face</i></p>","""",68,"""",29,Query,"""",d,11/9/2020 14:57,69.125.145.27,"Mozilla/5.0 (Windows NT 10.0; Win64; x64) AppleWebKit/537.36 (KHTML, like Gecko) Chrome/86.0.4240.183 Safari/537.36",WebKit,Chrome,86.0.4240.183,Windows,10
35,1,null,"""",html-keyboard-response,176,101523,0.0-176.0,"<div style=""font-size:60px;"">+</div>","""",null,1000,30,ITI,"""","""",11/9/2020 14:57,69.125.145.27,"Mozilla/5.0 (Windows NT 10.0; Win64; x64) AppleWebKit/537.36 (KHTML, like Gecko) Chrome/86.0.4240.183 Safari/537.36",WebKit,Chrome,86.0.4240.183,Windows,10
35,1,null,"""",image-keyboard-response,177,101779,0.0-177.0,jspsych/scrambledNeutralFaces/scrambledAM33NES.JPG,"""",null,250,30,forwardMask,n,"""",11/9/2020 14:57,69.125.145.27,"Mozilla/5.0 (Windows NT 10.0; Win64; x64) AppleWebKit/537.36 (KHTML, like Gecko) Chrome/86.0.4240.183 Safari/537.36",WebKit,Chrome,86.0.4240.183,Windows,10
35,1,null,"""",image-keyboard-response,178,101853,0.0-178.0,jspsych/neutralFaces/AM33NES.JPG,"""",null,67,30,Cue,"""","""",11/9/2020 14:57,69.125.145.27,"Mozilla/5.0 (Windows NT 10.0; Win64; x64) AppleWebKit/537.36 (KHTML, like Gecko) Chrome/86.0.4240.183 Safari/537.36",WebKit,Chrome,86.0.4240.183,Windows,10
35,1,null,"""",image-keyboard-response,179,101962,0.0-179.0,jspsych/neutralFaces/BM02NES.JPG,"""",null,100,30,backwardMask,"""","""",11/9/2020 14:57,69.125.145.27,"Mozilla/5.0 (Windows NT 10.0; Win64; x64) AppleWebKit/537.36 (KHTML, like Gecko) Chrome/86.0.4240.183 Safari/537.36",WebKit,Chrome,86.0.4240.183,Windows,10
35,1,null,"""",html-keyboard-response,180,102170,0.0-180.0,"<div style=""font-size:60px;"">+</div>","""",null,200,30,fixationBtwnNeutralMaskAndPrompt,"""","""",11/9/2020 14:57,69.125.145.27,"Mozilla/5.0 (Windows NT 10.0; Win64; x64) AppleWebKit/537.36 (KHTML, like Gecko) Chrome/86.0.4240.183 Safari/537.36",WebKit,Chrome,86.0.4240.183,Windows,10
35,1,291.175,"""",html-keyboard-response,181,102462,0.0-181.0,"<p> What was the emotion of the hidden face? <br> Press, <b>d</b> for <i>disgust face</i> or <b>n</b> for <i>neutral face</i></p>","""",78,"""",30,Query,"""",n,11/9/2020 14:57,69.125.145.27,"Mozilla/5.0 (Windows NT 10.0; Win64; x64) AppleWebKit/537.36 (KHTML, like Gecko) Chrome/86.0.4240.183 Safari/537.36",WebKit,Chrome,86.0.4240.183,Windows,10
35,1,null,"""",html-keyboard-response,182,103469,0.0-182.0,"<div style=""font-size:60px;"">+</div>","""",null,1000,31,ITI,"""","""",11/9/2020 14:57,69.125.145.27,"Mozilla/5.0 (Windows NT 10.0; Win64; x64) AppleWebKit/537.36 (KHTML, like Gecko) Chrome/86.0.4240.183 Safari/537.36",WebKit,Chrome,86.0.4240.183,Windows,10
35,1,null,"""",image-keyboard-response,183,103732,0.0-183.0,jspsych/scrambledDisgustFaces/scrambledBM25DIS.JPG,"""",null,250,31,forwardMask,d,"""",11/9/2020 14:57,69.125.145.27,"Mozilla/5.0 (Windows NT 10.0; Win64; x64) AppleWebKit/537.36 (KHTML, like Gecko) Chrome/86.0.4240.183 Safari/537.36",WebKit,Chrome,86.0.4240.183,Windows,10
35,1,null,"""",image-keyboard-response,184,103803,0.0-184.0,jspsych/disgustFaces/BM25DIS.JPG,"""",null,67,31,Cue,"""","""",11/9/2020 14:57,69.125.145.27,"Mozilla/5.0 (Windows NT 10.0; Win64; x64) AppleWebKit/537.36 (KHTML, like Gecko) Chrome/86.0.4240.183 Safari/537.36",WebKit,Chrome,86.0.4240.183,Windows,10
35,1,null,"""",image-keyboard-response,185,103914,0.0-185.0,jspsych/neutralFaces/AM25NES.JPG,"""",null,100,31,backwardMask,"""","""",11/9/2020 14:57,69.125.145.27,"Mozilla/5.0 (Windows NT 10.0; Win64; x64) AppleWebKit/537.36 (KHTML, like Gecko) Chrome/86.0.4240.183 Safari/537.36",WebKit,Chrome,86.0.4240.183,Windows,10
35,1,null,"""",html-keyboard-response,186,104123,0.0-186.0,"<div style=""font-size:60px;"">+</div>","""",null,200,31,fixationBtwnNeutralMaskAndPrompt,"""","""",11/9/2020 14:57,69.125.145.27,"Mozilla/5.0 (Windows NT 10.0; Win64; x64) AppleWebKit/537.36 (KHTML, like Gecko) Chrome/86.0.4240.183 Safari/537.36",WebKit,Chrome,86.0.4240.183,Windows,10
35,1,228.25,"""",html-keyboard-response,187,104353,0.0-187.0,"<p> What was the emotion of the hidden face? <br> Press, <b>d</b> for <i>disgust face</i> or <b>n</b> for <i>neutral face</i></p>","""",68,"""",31,Query,"""",d,11/9/2020 14:57,69.125.145.27,"Mozilla/5.0 (Windows NT 10.0; Win64; x64) AppleWebKit/537.36 (KHTML, like Gecko) Chrome/86.0.4240.183 Safari/537.36",WebKit,Chrome,86.0.4240.183,Windows,10
35,1,null,"""",html-keyboard-response,188,105360,0.0-188.0,"<div style=""font-size:60px;"">+</div>","""",null,1000,32,ITI,"""","""",11/9/2020 14:57,69.125.145.27,"Mozilla/5.0 (Windows NT 10.0; Win64; x64) AppleWebKit/537.36 (KHTML, like Gecko) Chrome/86.0.4240.183 Safari/537.36",WebKit,Chrome,86.0.4240.183,Windows,10
35,1,null,"""",image-keyboard-response,189,105615,0.0-189.0,jspsych/scrambledDisgustFaces/scrambledAM20DIS.JPG,"""",null,250,32,forwardMask,d,"""",11/9/2020 14:57,69.125.145.27,"Mozilla/5.0 (Windows NT 10.0; Win64; x64) AppleWebKit/537.36 (KHTML, like Gecko) Chrome/86.0.4240.183 Safari/537.36",WebKit,Chrome,86.0.4240.183,Windows,10
35,1,null,"""",image-keyboard-response,190,105780,0.0-190.0,jspsych/disgustFaces/AM20DIS.JPG,"""",null,160,32,Cue,"""","""",11/9/2020 14:57,69.125.145.27,"Mozilla/5.0 (Windows NT 10.0; Win64; x64) AppleWebKit/537.36 (KHTML, like Gecko) Chrome/86.0.4240.183 Safari/537.36",WebKit,Chrome,86.0.4240.183,Windows,10
35,1,null,"""",image-keyboard-response,191,105885,0.0-191.0,jspsych/neutralFaces/AF05NES.JPG,"""",null,100,32,backwardMask,"""","""",11/9/2020 14:57,69.125.145.27,"Mozilla/5.0 (Windows NT 10.0; Win64; x64) AppleWebKit/537.36 (KHTML, like Gecko) Chrome/86.0.4240.183 Safari/537.36",WebKit,Chrome,86.0.4240.183,Windows,10
35,1,null,"""",html-keyboard-response,192,106089,0.0-192.0,"<div style=""font-size:60px;"">+</div>","""",null,200,32,fixationBtwnNeutralMaskAndPrompt,"""","""",11/9/2020 14:57,69.125.145.27,"Mozilla/5.0 (Windows NT 10.0; Win64; x64) AppleWebKit/537.36 (KHTML, like Gecko) Chrome/86.0.4240.183 Safari/537.36",WebKit,Chrome,86.0.4240.183,Windows,10
35,1,263.43,"""",html-keyboard-response,193,106354,0.0-193.0,"<p> What was the emotion of the hidden face? <br> Press, <b>d</b> for <i>disgust face</i> or <b>n</b> for <i>neutral face</i></p>","""",68,"""",32,Query,"""",d,11/9/2020 14:57,69.125.145.27,"Mozilla/5.0 (Windows NT 10.0; Win64; x64) AppleWebKit/537.36 (KHTML, like Gecko) Chrome/86.0.4240.183 Safari/537.36",WebKit,Chrome,86.0.4240.183,Windows,10
35,1,null,"""",html-keyboard-response,194,107363,0.0-194.0,"<div style=""font-size:60px;"">+</div>","""",null,1000,33,ITI,"""","""",11/9/2020 14:57,69.125.145.27,"Mozilla/5.0 (Windows NT 10.0; Win64; x64) AppleWebKit/537.36 (KHTML, like Gecko) Chrome/86.0.4240.183 Safari/537.36",WebKit,Chrome,86.0.4240.183,Windows,10
35,1,null,"""",image-keyboard-response,195,107618,0.0-195.0,jspsych/scrambledNeutralFaces/scrambledAM26NES.JPG,"""",null,250,33,forwardMask,n,"""",11/9/2020 14:57,69.125.145.27,"Mozilla/5.0 (Windows NT 10.0; Win64; x64) AppleWebKit/537.36 (KHTML, like Gecko) Chrome/86.0.4240.183 Safari/537.36",WebKit,Chrome,86.0.4240.183,Windows,10
35,1,null,"""",image-keyboard-response,196,107789,0.0-196.0,jspsych/neutralFaces/AM26NES.JPG,"""",null,160,33,Cue,"""","""",11/9/2020 14:57,69.125.145.27,"Mozilla/5.0 (Windows NT 10.0; Win64; x64) AppleWebKit/537.36 (KHTML, like Gecko) Chrome/86.0.4240.183 Safari/537.36",WebKit,Chrome,86.0.4240.183,Windows,10
35,1,null,"""",image-keyboard-response,197,107900,0.0-197.0,jspsych/neutralFaces/AM07NES.JPG,"""",null,100,33,backwardMask,"""","""",11/9/2020 14:57,69.125.145.27,"Mozilla/5.0 (Windows NT 10.0; Win64; x64) AppleWebKit/537.36 (KHTML, like Gecko) Chrome/86.0.4240.183 Safari/537.36",WebKit,Chrome,86.0.4240.183,Windows,10
35,1,null,"""",html-keyboard-response,198,108110,0.0-198.0,"<div style=""font-size:60px;"">+</div>","""",null,200,33,fixationBtwnNeutralMaskAndPrompt,"""","""",11/9/2020 14:57,69.125.145.27,"Mozilla/5.0 (Windows NT 10.0; Win64; x64) AppleWebKit/537.36 (KHTML, like Gecko) Chrome/86.0.4240.183 Safari/537.36",WebKit,Chrome,86.0.4240.183,Windows,10
35,1,301.43,"""",html-keyboard-response,199,108412,0.0-199.0,"<p> What was the emotion of the hidden face? <br> Press, <b>d</b> for <i>disgust face</i> or <b>n</b> for <i>neutral face</i></p>","""",78,"""",33,Query,"""",n,11/9/2020 14:57,69.125.145.27,"Mozilla/5.0 (Windows NT 10.0; Win64; x64) AppleWebKit/537.36 (KHTML, like Gecko) Chrome/86.0.4240.183 Safari/537.36",WebKit,Chrome,86.0.4240.183,Windows,10
35,1,null,"""",html-keyboard-response,200,109420,0.0-200.0,"<div style=""font-size:60px;"">+</div>","""",null,1000,34,ITI,"""","""",11/9/2020 14:57,69.125.145.27,"Mozilla/5.0 (Windows NT 10.0; Win64; x64) AppleWebKit/537.36 (KHTML, like Gecko) Chrome/86.0.4240.183 Safari/537.36",WebKit,Chrome,86.0.4240.183,Windows,10
35,1,null,"""",image-keyboard-response,201,109679,0.0-201.0,jspsych/scrambledNeutralFaces/scrambledAM08NES.JPG,"""",null,250,34,forwardMask,n,"""",11/9/2020 14:57,69.125.145.27,"Mozilla/5.0 (Windows NT 10.0; Win64; x64) AppleWebKit/537.36 (KHTML, like Gecko) Chrome/86.0.4240.183 Safari/537.36",WebKit,Chrome,86.0.4240.183,Windows,10
35,1,null,"""",image-keyboard-response,202,109757,0.0-202.0,jspsych/neutralFaces/AM08NES.JPG,"""",null,67,34,Cue,"""","""",11/9/2020 14:57,69.125.145.27,"Mozilla/5.0 (Windows NT 10.0; Win64; x64) AppleWebKit/537.36 (KHTML, like Gecko) Chrome/86.0.4240.183 Safari/537.36",WebKit,Chrome,86.0.4240.183,Windows,10
35,1,null,"""",image-keyboard-response,203,109860,0.0-203.0,jspsych/neutralFaces/BM24NES.JPG,"""",null,100,34,backwardMask,"""","""",11/9/2020 14:57,69.125.145.27,"Mozilla/5.0 (Windows NT 10.0; Win64; x64) AppleWebKit/537.36 (KHTML, like Gecko) Chrome/86.0.4240.183 Safari/537.36",WebKit,Chrome,86.0.4240.183,Windows,10
35,1,null,"""",html-keyboard-response,204,110071,0.0-204.0,"<div style=""font-size:60px;"">+</div>","""",null,200,34,fixationBtwnNeutralMaskAndPrompt,"""","""",11/9/2020 14:57,69.125.145.27,"Mozilla/5.0 (Windows NT 10.0; Win64; x64) AppleWebKit/537.36 (KHTML, like Gecko) Chrome/86.0.4240.183 Safari/537.36",WebKit,Chrome,86.0.4240.183,Windows,10
35,1,346.08,"""",html-keyboard-response,205,110418,0.0-205.0,"<p> What was the emotion of the hidden face? <br> Press, <b>d</b> for <i>disgust face</i> or <b>n</b> for <i>neutral face</i></p>","""",78,"""",34,Query,"""",n,11/9/2020 14:57,69.125.145.27,"Mozilla/5.0 (Windows NT 10.0; Win64; x64) AppleWebKit/537.36 (KHTML, like Gecko) Chrome/86.0.4240.183 Safari/537.36",WebKit,Chrome,86.0.4240.183,Windows,10
35,1,null,"""",html-keyboard-response,206,111432,0.0-206.0,"<div style=""font-size:60px;"">+</div>","""",null,1000,35,ITI,"""","""",11/9/2020 14:57,69.125.145.27,"Mozilla/5.0 (Windows NT 10.0; Win64; x64) AppleWebKit/537.36 (KHTML, like Gecko) Chrome/86.0.4240.183 Safari/537.36",WebKit,Chrome,86.0.4240.183,Windows,10
35,1,null,"""",image-keyboard-response,207,111690,0.0-207.0,jspsych/scrambledNeutralFaces/scrambledAF26NES.JPG,"""",null,250,35,forwardMask,n,"""",11/9/2020 14:57,69.125.145.27,"Mozilla/5.0 (Windows NT 10.0; Win64; x64) AppleWebKit/537.36 (KHTML, like Gecko) Chrome/86.0.4240.183 Safari/537.36",WebKit,Chrome,86.0.4240.183,Windows,10
35,1,null,"""",image-keyboard-response,208,111797,0.0-208.0,jspsych/neutralFaces/AF26NES.JPG,"""",null,99,35,Cue,"""","""",11/9/2020 14:57,69.125.145.27,"Mozilla/5.0 (Windows NT 10.0; Win64; x64) AppleWebKit/537.36 (KHTML, like Gecko) Chrome/86.0.4240.183 Safari/537.36",WebKit,Chrome,86.0.4240.183,Windows,10
35,1,null,"""",image-keyboard-response,209,111901,0.0-209.0,jspsych/neutralFaces/BM24NES.JPG,"""",null,100,35,backwardMask,"""","""",11/9/2020 14:57,69.125.145.27,"Mozilla/5.0 (Windows NT 10.0; Win64; x64) AppleWebKit/537.36 (KHTML, like Gecko) Chrome/86.0.4240.183 Safari/537.36",WebKit,Chrome,86.0.4240.183,Windows,10
35,1,null,"""",html-keyboard-response,210,112113,0.0-210.0,"<div style=""font-size:60px;"">+</div>","""",null,200,35,fixationBtwnNeutralMaskAndPrompt,"""","""",11/9/2020 14:57,69.125.145.27,"Mozilla/5.0 (Windows NT 10.0; Win64; x64) AppleWebKit/537.36 (KHTML, like Gecko) Chrome/86.0.4240.183 Safari/537.36",WebKit,Chrome,86.0.4240.183,Windows,10
35,1,297.435,"""",html-keyboard-response,211,112412,0.0-211.0,"<p> What was the emotion of the hidden face? <br> Press, <b>d</b> for <i>disgust face</i> or <b>n</b> for <i>neutral face</i></p>","""",68,"""",35,Query,"""",d,11/9/2020 14:57,69.125.145.27,"Mozilla/5.0 (Windows NT 10.0; Win64; x64) AppleWebKit/537.36 (KHTML, like Gecko) Chrome/86.0.4240.183 Safari/537.36",WebKit,Chrome,86.0.4240.183,Windows,10
35,1,null,"""",html-keyboard-response,212,113421,0.0-212.0,"<div style=""font-size:60px;"">+</div>","""",null,1000,36,ITI,"""","""",11/9/2020 14:57,69.125.145.27,"Mozilla/5.0 (Windows NT 10.0; Win64; x64) AppleWebKit/537.36 (KHTML, like Gecko) Chrome/86.0.4240.183 Safari/537.36",WebKit,Chrome,86.0.4240.183,Windows,10
35,1,null,"""",image-keyboard-response,213,113678,0.0-213.0,jspsych/scrambledDisgustFaces/scrambledBM32DIS.JPG,"""",null,250,36,forwardMask,d,"""",11/9/2020 14:57,69.125.145.27,"Mozilla/5.0 (Windows NT 10.0; Win64; x64) AppleWebKit/537.36 (KHTML, like Gecko) Chrome/86.0.4240.183 Safari/537.36",WebKit,Chrome,86.0.4240.183,Windows,10
35,1,null,"""",image-keyboard-response,214,113781,0.0-214.0,jspsych/disgustFaces/BM32DIS.JPG,"""",null,99,36,Cue,"""","""",11/9/2020 14:57,69.125.145.27,"Mozilla/5.0 (Windows NT 10.0; Win64; x64) AppleWebKit/537.36 (KHTML, like Gecko) Chrome/86.0.4240.183 Safari/537.36",WebKit,Chrome,86.0.4240.183,Windows,10
35,1,null,"""",image-keyboard-response,215,113885,0.0-215.0,jspsych/neutralFaces/BM08NES.JPG,"""",null,100,36,backwardMask,"""","""",11/9/2020 14:57,69.125.145.27,"Mozilla/5.0 (Windows NT 10.0; Win64; x64) AppleWebKit/537.36 (KHTML, like Gecko) Chrome/86.0.4240.183 Safari/537.36",WebKit,Chrome,86.0.4240.183,Windows,10
35,1,null,"""",html-keyboard-response,216,114093,0.0-216.0,"<div style=""font-size:60px;"">+</div>","""",null,200,36,fixationBtwnNeutralMaskAndPrompt,"""","""",11/9/2020 14:57,69.125.145.27,"Mozilla/5.0 (Windows NT 10.0; Win64; x64) AppleWebKit/537.36 (KHTML, like Gecko) Chrome/86.0.4240.183 Safari/537.36",WebKit,Chrome,86.0.4240.183,Windows,10
35,1,348.08,"""",html-keyboard-response,217,114443,0.0-217.0,"<p> What was the emotion of the hidden face? <br> Press, <b>d</b> for <i>disgust face</i> or <b>n</b> for <i>neutral face</i></p>","""",78,"""",36,Query,"""",n,11/9/2020 14:57,69.125.145.27,"Mozilla/5.0 (Windows NT 10.0; Win64; x64) AppleWebKit/537.36 (KHTML, like Gecko) Chrome/86.0.4240.183 Safari/537.36",WebKit,Chrome,86.0.4240.183,Windows,10
35,1,null,"""",html-keyboard-response,218,115450,0.0-218.0,"<div style=""font-size:60px;"">+</div>","""",null,1000,37,ITI,"""","""",11/9/2020 14:57,69.125.145.27,"Mozilla/5.0 (Windows NT 10.0; Win64; x64) AppleWebKit/537.36 (KHTML, like Gecko) Chrome/86.0.4240.183 Safari/537.36",WebKit,Chrome,86.0.4240.183,Windows,10
35,1,null,"""",image-keyboard-response,219,115704,0.0-219.0,jspsych/scrambledNeutralFaces/scrambledBF32NES.JPG,"""",null,250,37,forwardMask,n,"""",11/9/2020 14:57,69.125.145.27,"Mozilla/5.0 (Windows NT 10.0; Win64; x64) AppleWebKit/537.36 (KHTML, like Gecko) Chrome/86.0.4240.183 Safari/537.36",WebKit,Chrome,86.0.4240.183,Windows,10
35,1,null,"""",image-keyboard-response,220,115776,0.0-220.0,jspsych/neutralFaces/BF32NES.JPG,"""",null,67,37,Cue,"""","""",11/9/2020 14:57,69.125.145.27,"Mozilla/5.0 (Windows NT 10.0; Win64; x64) AppleWebKit/537.36 (KHTML, like Gecko) Chrome/86.0.4240.183 Safari/537.36",WebKit,Chrome,86.0.4240.183,Windows,10
35,1,null,"""",image-keyboard-response,221,115884,0.0-221.0,jspsych/neutralFaces/AF24NES.JPG,"""",null,100,37,backwardMask,"""","""",11/9/2020 14:57,69.125.145.27,"Mozilla/5.0 (Windows NT 10.0; Win64; x64) AppleWebKit/537.36 (KHTML, like Gecko) Chrome/86.0.4240.183 Safari/537.36",WebKit,Chrome,86.0.4240.183,Windows,10
35,1,null,"""",html-keyboard-response,222,116086,0.0-222.0,"<div style=""font-size:60px;"">+</div>","""",null,200,37,fixationBtwnNeutralMaskAndPrompt,"""","""",11/9/2020 14:57,69.125.145.27,"Mozilla/5.0 (Windows NT 10.0; Win64; x64) AppleWebKit/537.36 (KHTML, like Gecko) Chrome/86.0.4240.183 Safari/537.36",WebKit,Chrome,86.0.4240.183,Windows,10
35,1,399.91,"""",html-keyboard-response,223,116489,0.0-223.0,"<p> What was the emotion of the hidden face? <br> Press, <b>d</b> for <i>disgust face</i> or <b>n</b> for <i>neutral face</i></p>","""",78,"""",37,Query,"""",n,11/9/2020 14:57,69.125.145.27,"Mozilla/5.0 (Windows NT 10.0; Win64; x64) AppleWebKit/537.36 (KHTML, like Gecko) Chrome/86.0.4240.183 Safari/537.36",WebKit,Chrome,86.0.4240.183,Windows,10
35,1,null,"""",html-keyboard-response,224,117501,0.0-224.0,"<div style=""font-size:60px;"">+</div>","""",null,1000,38,ITI,"""","""",11/9/2020 14:57,69.125.145.27,"Mozilla/5.0 (Windows NT 10.0; Win64; x64) AppleWebKit/537.36 (KHTML, like Gecko) Chrome/86.0.4240.183 Safari/537.36",WebKit,Chrome,86.0.4240.183,Windows,10
35,1,null,"""",image-keyboard-response,225,117756,0.0-225.0,jspsych/scrambledNeutralFaces/scrambledAF24NES.JPG,"""",null,250,38,forwardMask,n,"""",11/9/2020 14:57,69.125.145.27,"Mozilla/5.0 (Windows NT 10.0; Win64; x64) AppleWebKit/537.36 (KHTML, like Gecko) Chrome/86.0.4240.183 Safari/537.36",WebKit,Chrome,86.0.4240.183,Windows,10
35,1,null,"""",image-keyboard-response,226,117792,0.0-226.0,jspsych/neutralFaces/AF24NES.JPG,"""",null,33,38,Cue,"""","""",11/9/2020 14:57,69.125.145.27,"Mozilla/5.0 (Windows NT 10.0; Win64; x64) AppleWebKit/537.36 (KHTML, like Gecko) Chrome/86.0.4240.183 Safari/537.36",WebKit,Chrome,86.0.4240.183,Windows,10
35,1,null,"""",image-keyboard-response,227,117902,0.0-227.0,jspsych/neutralFaces/AM23NES.JPG,"""",null,100,38,backwardMask,"""","""",11/9/2020 14:57,69.125.145.27,"Mozilla/5.0 (Windows NT 10.0; Win64; x64) AppleWebKit/537.36 (KHTML, like Gecko) Chrome/86.0.4240.183 Safari/537.36",WebKit,Chrome,86.0.4240.183,Windows,10
35,1,null,"""",html-keyboard-response,228,118106,0.0-228.0,"<div style=""font-size:60px;"">+</div>","""",null,200,38,fixationBtwnNeutralMaskAndPrompt,"""","""",11/9/2020 14:57,69.125.145.27,"Mozilla/5.0 (Windows NT 10.0; Win64; x64) AppleWebKit/537.36 (KHTML, like Gecko) Chrome/86.0.4240.183 Safari/537.36",WebKit,Chrome,86.0.4240.183,Windows,10
35,1,208.765,"""",html-keyboard-response,229,118317,0.0-229.0,"<p> What was the emotion of the hidden face? <br> Press, <b>d</b> for <i>disgust face</i> or <b>n</b> for <i>neutral face</i></p>","""",78,"""",38,Query,"""",n,11/9/2020 14:57,69.125.145.27,"Mozilla/5.0 (Windows NT 10.0; Win64; x64) AppleWebKit/537.36 (KHTML, like Gecko) Chrome/86.0.4240.183 Safari/537.36",WebKit,Chrome,86.0.4240.183,Windows,10
35,1,null,"""",html-keyboard-response,230,119323,0.0-230.0,"<div style=""font-size:60px;"">+</div>","""",null,1000,39,ITI,"""","""",11/9/2020 14:57,69.125.145.27,"Mozilla/5.0 (Windows NT 10.0; Win64; x64) AppleWebKit/537.36 (KHTML, like Gecko) Chrome/86.0.4240.183 Safari/537.36",WebKit,Chrome,86.0.4240.183,Windows,10
35,1,null,"""",image-keyboard-response,231,119582,0.0-231.0,jspsych/scrambledNeutralFaces/scrambledAM10NES.JPG,"""",null,250,39,forwardMask,n,"""",11/9/2020 14:57,69.125.145.27,"Mozilla/5.0 (Windows NT 10.0; Win64; x64) AppleWebKit/537.36 (KHTML, like Gecko) Chrome/86.0.4240.183 Safari/537.36",WebKit,Chrome,86.0.4240.183,Windows,10
35,1,null,"""",image-keyboard-response,232,119659,0.0-232.0,jspsych/neutralFaces/AM10NES.JPG,"""",null,67,39,Cue,"""","""",11/9/2020 14:57,69.125.145.27,"Mozilla/5.0 (Windows NT 10.0; Win64; x64) AppleWebKit/537.36 (KHTML, like Gecko) Chrome/86.0.4240.183 Safari/537.36",WebKit,Chrome,86.0.4240.183,Windows,10
35,1,null,"""",image-keyboard-response,233,119767,0.0-233.0,jspsych/neutralFaces/AF23NES.JPG,"""",null,100,39,backwardMask,"""","""",11/9/2020 14:57,69.125.145.27,"Mozilla/5.0 (Windows NT 10.0; Win64; x64) AppleWebKit/537.36 (KHTML, like Gecko) Chrome/86.0.4240.183 Safari/537.36",WebKit,Chrome,86.0.4240.183,Windows,10
35,1,null,"""",html-keyboard-response,234,119977,0.0-234.0,"<div style=""font-size:60px;"">+</div>","""",null,200,39,fixationBtwnNeutralMaskAndPrompt,"""","""",11/9/2020 14:57,69.125.145.27,"Mozilla/5.0 (Windows NT 10.0; Win64; x64) AppleWebKit/537.36 (KHTML, like Gecko) Chrome/86.0.4240.183 Safari/537.36",WebKit,Chrome,86.0.4240.183,Windows,10
35,1,227.995,"""",html-keyboard-response,235,120206,0.0-235.0,"<p> What was the emotion of the hidden face? <br> Press, <b>d</b> for <i>disgust face</i> or <b>n</b> for <i>neutral face</i></p>","""",78,"""",39,Query,"""",n,11/9/2020 14:57,69.125.145.27,"Mozilla/5.0 (Windows NT 10.0; Win64; x64) AppleWebKit/537.36 (KHTML, like Gecko) Chrome/86.0.4240.183 Safari/537.36",WebKit,Chrome,86.0.4240.183,Windows,10
35,1,null,"""",html-keyboard-response,236,121211,0.0-236.0,"<div style=""font-size:60px;"">+</div>","""",null,1000,40,ITI,"""","""",11/9/2020 14:57,69.125.145.27,"Mozilla/5.0 (Windows NT 10.0; Win64; x64) AppleWebKit/537.36 (KHTML, like Gecko) Chrome/86.0.4240.183 Safari/537.36",WebKit,Chrome,86.0.4240.183,Windows,10
35,1,null,"""",image-keyboard-response,237,121472,0.0-237.0,jspsych/scrambledNeutralFaces/scrambledBF14NES.JPG,"""",null,250,40,forwardMask,n,"""",11/9/2020 14:57,69.125.145.27,"Mozilla/5.0 (Windows NT 10.0; Win64; x64) AppleWebKit/537.36 (KHTML, like Gecko) Chrome/86.0.4240.183 Safari/537.36",WebKit,Chrome,86.0.4240.183,Windows,10
35,1,null,"""",image-keyboard-response,238,121578,0.0-238.0,jspsych/neutralFaces/BF14NES.JPG,"""",null,99,40,Cue,"""","""",11/9/2020 14:57,69.125.145.27,"Mozilla/5.0 (Windows NT 10.0; Win64; x64) AppleWebKit/537.36 (KHTML, like Gecko) Chrome/86.0.4240.183 Safari/537.36",WebKit,Chrome,86.0.4240.183,Windows,10
35,1,null,"""",image-keyboard-response,239,121690,0.0-239.0,jspsych/neutralFaces/BF13NES.JPG,"""",null,100,40,backwardMask,"""","""",11/9/2020 14:57,69.125.145.27,"Mozilla/5.0 (Windows NT 10.0; Win64; x64) AppleWebKit/537.36 (KHTML, like Gecko) Chrome/86.0.4240.183 Safari/537.36",WebKit,Chrome,86.0.4240.183,Windows,10
35,1,null,"""",html-keyboard-response,240,121896,0.0-240.0,"<div style=""font-size:60px;"">+</div>","""",null,200,40,fixationBtwnNeutralMaskAndPrompt,"""","""",11/9/2020 14:57,69.125.145.27,"Mozilla/5.0 (Windows NT 10.0; Win64; x64) AppleWebKit/537.36 (KHTML, like Gecko) Chrome/86.0.4240.183 Safari/537.36",WebKit,Chrome,86.0.4240.183,Windows,10
35,1,374.18,"""",html-keyboard-response,241,122271,0.0-241.0,"<p> What was the emotion of the hidden face? <br> Press, <b>d</b> for <i>disgust face</i> or <b>n</b> for <i>neutral face</i></p>","""",78,"""",40,Query,"""",n,11/9/2020 14:57,69.125.145.27,"Mozilla/5.0 (Windows NT 10.0; Win64; x64) AppleWebKit/537.36 (KHTML, like Gecko) Chrome/86.0.4240.183 Safari/537.36",WebKit,Chrome,86.0.4240.183,Windows,10
35,1,null,"""",html-keyboard-response,242,123285,0.0-242.0,"<div style=""font-size:60px;"">+</div>","""",null,1000,41,ITI,"""","""",11/9/2020 14:57,69.125.145.27,"Mozilla/5.0 (Windows NT 10.0; Win64; x64) AppleWebKit/537.36 (KHTML, like Gecko) Chrome/86.0.4240.183 Safari/537.36",WebKit,Chrome,86.0.4240.183,Windows,10
35,1,null,"""",image-keyboard-response,243,123541,0.0-243.0,jspsych/scrambledNeutralFaces/scrambledBF13NES.JPG,"""",null,250,41,forwardMask,n,"""",11/9/2020 14:57,69.125.145.27,"Mozilla/5.0 (Windows NT 10.0; Win64; x64) AppleWebKit/537.36 (KHTML, like Gecko) Chrome/86.0.4240.183 Safari/537.36",WebKit,Chrome,86.0.4240.183,Windows,10
35,1,null,"""",image-keyboard-response,244,123613,0.0-244.0,jspsych/neutralFaces/BF13NES.JPG,"""",null,67,41,Cue,"""","""",11/9/2020 14:57,69.125.145.27,"Mozilla/5.0 (Windows NT 10.0; Win64; x64) AppleWebKit/537.36 (KHTML, like Gecko) Chrome/86.0.4240.183 Safari/537.36",WebKit,Chrome,86.0.4240.183,Windows,10
35,1,null,"""",image-keyboard-response,245,123716,0.0-245.0,jspsych/neutralFaces/BM05NES.JPG,"""",null,100,41,backwardMask,"""","""",11/9/2020 14:57,69.125.145.27,"Mozilla/5.0 (Windows NT 10.0; Win64; x64) AppleWebKit/537.36 (KHTML, like Gecko) Chrome/86.0.4240.183 Safari/537.36",WebKit,Chrome,86.0.4240.183,Windows,10
35,1,null,"""",html-keyboard-response,246,123928,0.0-246.0,"<div style=""font-size:60px;"">+</div>","""",null,200,41,fixationBtwnNeutralMaskAndPrompt,"""","""",11/9/2020 14:57,69.125.145.27,"Mozilla/5.0 (Windows NT 10.0; Win64; x64) AppleWebKit/537.36 (KHTML, like Gecko) Chrome/86.0.4240.183 Safari/537.36",WebKit,Chrome,86.0.4240.183,Windows,10
35,1,286.86,"""",html-keyboard-response,247,124216,0.0-247.0,"<p> What was the emotion of the hidden face? <br> Press, <b>d</b> for <i>disgust face</i> or <b>n</b> for <i>neutral face</i></p>","""",78,"""",41,Query,"""",n,11/9/2020 14:57,69.125.145.27,"Mozilla/5.0 (Windows NT 10.0; Win64; x64) AppleWebKit/537.36 (KHTML, like Gecko) Chrome/86.0.4240.183 Safari/537.36",WebKit,Chrome,86.0.4240.183,Windows,10
35,1,null,"""",html-keyboard-response,248,125222,0.0-248.0,"<div style=""font-size:60px;"">+</div>","""",null,1000,42,ITI,"""","""",11/9/2020 14:57,69.125.145.27,"Mozilla/5.0 (Windows NT 10.0; Win64; x64) AppleWebKit/537.36 (KHTML, like Gecko) Chrome/86.0.4240.183 Safari/537.36",WebKit,Chrome,86.0.4240.183,Windows,10
35,1,null,"""",image-keyboard-response,249,125475,0.0-249.0,jspsych/scrambledDisgustFaces/scrambledBF30DIS.JPG,"""",null,250,42,forwardMask,d,"""",11/9/2020 14:57,69.125.145.27,"Mozilla/5.0 (Windows NT 10.0; Win64; x64) AppleWebKit/537.36 (KHTML, like Gecko) Chrome/86.0.4240.183 Safari/537.36",WebKit,Chrome,86.0.4240.183,Windows,10
35,1,null,"""",image-keyboard-response,250,125643,0.0-250.0,jspsych/disgustFaces/BF30DIS.JPG,"""",null,160,42,Cue,"""","""",11/9/2020 14:57,69.125.145.27,"Mozilla/5.0 (Windows NT 10.0; Win64; x64) AppleWebKit/537.36 (KHTML, like Gecko) Chrome/86.0.4240.183 Safari/537.36",WebKit,Chrome,86.0.4240.183,Windows,10
35,1,null,"""",image-keyboard-response,251,125746,0.0-251.0,jspsych/neutralFaces/AM13NES.JPG,"""",null,100,42,backwardMask,"""","""",11/9/2020 14:57,69.125.145.27,"Mozilla/5.0 (Windows NT 10.0; Win64; x64) AppleWebKit/537.36 (KHTML, like Gecko) Chrome/86.0.4240.183 Safari/537.36",WebKit,Chrome,86.0.4240.183,Windows,10
35,1,null,"""",html-keyboard-response,252,125949,0.0-252.0,"<div style=""font-size:60px;"">+</div>","""",null,200,42,fixationBtwnNeutralMaskAndPrompt,"""","""",11/9/2020 14:57,69.125.145.27,"Mozilla/5.0 (Windows NT 10.0; Win64; x64) AppleWebKit/537.36 (KHTML, like Gecko) Chrome/86.0.4240.183 Safari/537.36",WebKit,Chrome,86.0.4240.183,Windows,10
35,1,160.28,"""",html-keyboard-response,253,126111,0.0-253.0,"<p> What was the emotion of the hidden face? <br> Press, <b>d</b> for <i>disgust face</i> or <b>n</b> for <i>neutral face</i></p>","""",68,"""",42,Query,"""",d,11/9/2020 14:57,69.125.145.27,"Mozilla/5.0 (Windows NT 10.0; Win64; x64) AppleWebKit/537.36 (KHTML, like Gecko) Chrome/86.0.4240.183 Safari/537.36",WebKit,Chrome,86.0.4240.183,Windows,10
35,1,null,"""",html-keyboard-response,254,127114,0.0-254.0,"<div style=""font-size:60px;"">+</div>","""",null,1000,43,ITI,"""","""",11/9/2020 14:57,69.125.145.27,"Mozilla/5.0 (Windows NT 10.0; Win64; x64) AppleWebKit/537.36 (KHTML, like Gecko) Chrome/86.0.4240.183 Safari/537.36",WebKit,Chrome,86.0.4240.183,Windows,10
35,1,null,"""",image-keyboard-response,255,127372,0.0-255.0,jspsych/scrambledNeutralFaces/scrambledBF04NES.JPG,"""",null,250,43,forwardMask,n,"""",11/9/2020 14:57,69.125.145.27,"Mozilla/5.0 (Windows NT 10.0; Win64; x64) AppleWebKit/537.36 (KHTML, like Gecko) Chrome/86.0.4240.183 Safari/537.36",WebKit,Chrome,86.0.4240.183,Windows,10
35,1,null,"""",image-keyboard-response,256,127444,0.0-256.0,jspsych/neutralFaces/BF04NES.JPG,"""",null,67,43,Cue,"""","""",11/9/2020 14:57,69.125.145.27,"Mozilla/5.0 (Windows NT 10.0; Win64; x64) AppleWebKit/537.36 (KHTML, like Gecko) Chrome/86.0.4240.183 Safari/537.36",WebKit,Chrome,86.0.4240.183,Windows,10
35,1,null,"""",image-keyboard-response,257,127557,0.0-257.0,jspsych/neutralFaces/AF15NES.JPG,"""",null,100,43,backwardMask,"""","""",11/9/2020 14:57,69.125.145.27,"Mozilla/5.0 (Windows NT 10.0; Win64; x64) AppleWebKit/537.36 (KHTML, like Gecko) Chrome/86.0.4240.183 Safari/537.36",WebKit,Chrome,86.0.4240.183,Windows,10
35,1,null,"""",html-keyboard-response,258,127762,0.0-258.0,"<div style=""font-size:60px;"">+</div>","""",null,200,43,fixationBtwnNeutralMaskAndPrompt,"""","""",11/9/2020 14:57,69.125.145.27,"Mozilla/5.0 (Windows NT 10.0; Win64; x64) AppleWebKit/537.36 (KHTML, like Gecko) Chrome/86.0.4240.183 Safari/537.36",WebKit,Chrome,86.0.4240.183,Windows,10
35,1,396.3,"""",html-keyboard-response,259,128160,0.0-259.0,"<p> What was the emotion of the hidden face? <br> Press, <b>d</b> for <i>disgust face</i> or <b>n</b> for <i>neutral face</i></p>","""",78,"""",43,Query,"""",n,11/9/2020 14:57,69.125.145.27,"Mozilla/5.0 (Windows NT 10.0; Win64; x64) AppleWebKit/537.36 (KHTML, like Gecko) Chrome/86.0.4240.183 Safari/537.36",WebKit,Chrome,86.0.4240.183,Windows,10
35,1,null,"""",html-keyboard-response,260,129162,0.0-260.0,"<div style=""font-size:60px;"">+</div>","""",null,1000,44,ITI,"""","""",11/9/2020 14:57,69.125.145.27,"Mozilla/5.0 (Windows NT 10.0; Win64; x64) AppleWebKit/537.36 (KHTML, like Gecko) Chrome/86.0.4240.183 Safari/537.36",WebKit,Chrome,86.0.4240.183,Windows,10
35,1,null,"""",image-keyboard-response,261,129420,0.0-261.0,jspsych/scrambledDisgustFaces/scrambledAF29DIS.JPG,"""",null,250,44,forwardMask,d,"""",11/9/2020 14:57,69.125.145.27,"Mozilla/5.0 (Windows NT 10.0; Win64; x64) AppleWebKit/537.36 (KHTML, like Gecko) Chrome/86.0.4240.183 Safari/537.36",WebKit,Chrome,86.0.4240.183,Windows,10
35,1,null,"""",image-keyboard-response,262,129590,0.0-262.0,jspsych/disgustFaces/AF29DIS.JPG,"""",null,160,44,Cue,"""","""",11/9/2020 14:57,69.125.145.27,"Mozilla/5.0 (Windows NT 10.0; Win64; x64) AppleWebKit/537.36 (KHTML, like Gecko) Chrome/86.0.4240.183 Safari/537.36",WebKit,Chrome,86.0.4240.183,Windows,10
35,1,null,"""",image-keyboard-response,263,129700,0.0-263.0,jspsych/neutralFaces/AM32NES.JPG,"""",null,100,44,backwardMask,"""","""",11/9/2020 14:57,69.125.145.27,"Mozilla/5.0 (Windows NT 10.0; Win64; x64) AppleWebKit/537.36 (KHTML, like Gecko) Chrome/86.0.4240.183 Safari/537.36",WebKit,Chrome,86.0.4240.183,Windows,10
35,1,null,"""",html-keyboard-response,264,129908,0.0-264.0,"<div style=""font-size:60px;"">+</div>","""",null,200,44,fixationBtwnNeutralMaskAndPrompt,"""","""",11/9/2020 14:57,69.125.145.27,"Mozilla/5.0 (Windows NT 10.0; Win64; x64) AppleWebKit/537.36 (KHTML, like Gecko) Chrome/86.0.4240.183 Safari/537.36",WebKit,Chrome,86.0.4240.183,Windows,10
35,1,294.15,"""",html-keyboard-response,265,130204,0.0-265.0,"<p> What was the emotion of the hidden face? <br> Press, <b>d</b> for <i>disgust face</i> or <b>n</b> for <i>neutral face</i></p>","""",68,"""",44,Query,"""",d,11/9/2020 14:57,69.125.145.27,"Mozilla/5.0 (Windows NT 10.0; Win64; x64) AppleWebKit/537.36 (KHTML, like Gecko) Chrome/86.0.4240.183 Safari/537.36",WebKit,Chrome,86.0.4240.183,Windows,10
35,1,null,"""",html-keyboard-response,266,131213,0.0-266.0,"<div style=""font-size:60px;"">+</div>","""",null,1000,45,ITI,"""","""",11/9/2020 14:57,69.125.145.27,"Mozilla/5.0 (Windows NT 10.0; Win64; x64) AppleWebKit/537.36 (KHTML, like Gecko) Chrome/86.0.4240.183 Safari/537.36",WebKit,Chrome,86.0.4240.183,Windows,10
35,1,null,"""",image-keyboard-response,267,131470,0.0-267.0,jspsych/scrambledNeutralFaces/scrambledBF07NES.JPG,"""",null,250,45,forwardMask,n,"""",11/9/2020 14:57,69.125.145.27,"Mozilla/5.0 (Windows NT 10.0; Win64; x64) AppleWebKit/537.36 (KHTML, like Gecko) Chrome/86.0.4240.183 Safari/537.36",WebKit,Chrome,86.0.4240.183,Windows,10
35,1,null,"""",image-keyboard-response,268,131492,0.0-268.0,jspsych/neutralFaces/BF07NES.JPG,"""",null,16,45,Cue,"""","""",11/9/2020 14:57,69.125.145.27,"Mozilla/5.0 (Windows NT 10.0; Win64; x64) AppleWebKit/537.36 (KHTML, like Gecko) Chrome/86.0.4240.183 Safari/537.36",WebKit,Chrome,86.0.4240.183,Windows,10
35,1,null,"""",image-keyboard-response,269,131601,0.0-269.0,jspsych/neutralFaces/AF05NES.JPG,"""",null,100,45,backwardMask,"""","""",11/9/2020 14:57,69.125.145.27,"Mozilla/5.0 (Windows NT 10.0; Win64; x64) AppleWebKit/537.36 (KHTML, like Gecko) Chrome/86.0.4240.183 Safari/537.36",WebKit,Chrome,86.0.4240.183,Windows,10
35,1,null,"""",html-keyboard-response,270,131803,0.0-270.0,"<div style=""font-size:60px;"">+</div>","""",null,200,45,fixationBtwnNeutralMaskAndPrompt,"""","""",11/9/2020 14:57,69.125.145.27,"Mozilla/5.0 (Windows NT 10.0; Win64; x64) AppleWebKit/537.36 (KHTML, like Gecko) Chrome/86.0.4240.183 Safari/537.36",WebKit,Chrome,86.0.4240.183,Windows,10
35,1,407.795,"""",html-keyboard-response,271,132213,0.0-271.0,"<p> What was the emotion of the hidden face? <br> Press, <b>d</b> for <i>disgust face</i> or <b>n</b> for <i>neutral face</i></p>","""",78,"""",45,Query,"""",n,11/9/2020 14:57,69.125.145.27,"Mozilla/5.0 (Windows NT 10.0; Win64; x64) AppleWebKit/537.36 (KHTML, like Gecko) Chrome/86.0.4240.183 Safari/537.36",WebKit,Chrome,86.0.4240.183,Windows,10
35,1,null,"""",html-keyboard-response,272,133222,0.0-272.0,"<div style=""font-size:60px;"">+</div>","""",null,1000,46,ITI,"""","""",11/9/2020 14:57,69.125.145.27,"Mozilla/5.0 (Windows NT 10.0; Win64; x64) AppleWebKit/537.36 (KHTML, like Gecko) Chrome/86.0.4240.183 Safari/537.36",WebKit,Chrome,86.0.4240.183,Windows,10
35,1,null,"""",image-keyboard-response,273,133483,0.0-273.0,jspsych/scrambledDisgustFaces/scrambledAM33DIS.JPG,"""",null,250,46,forwardMask,d,"""",11/9/2020 14:57,69.125.145.27,"Mozilla/5.0 (Windows NT 10.0; Win64; x64) AppleWebKit/537.36 (KHTML, like Gecko) Chrome/86.0.4240.183 Safari/537.36",WebKit,Chrome,86.0.4240.183,Windows,10
35,1,null,"""",image-keyboard-response,274,133619,0.0-274.0,jspsych/disgustFaces/AM33DIS.JPG,"""",null,129,46,Cue,"""","""",11/9/2020 14:57,69.125.145.27,"Mozilla/5.0 (Windows NT 10.0; Win64; x64) AppleWebKit/537.36 (KHTML, like Gecko) Chrome/86.0.4240.183 Safari/537.36",WebKit,Chrome,86.0.4240.183,Windows,10
35,1,null,"""",image-keyboard-response,275,133722,0.0-275.0,jspsych/neutralFaces/BM04NES.JPG,"""",null,100,46,backwardMask,"""","""",11/9/2020 14:57,69.125.145.27,"Mozilla/5.0 (Windows NT 10.0; Win64; x64) AppleWebKit/537.36 (KHTML, like Gecko) Chrome/86.0.4240.183 Safari/537.36",WebKit,Chrome,86.0.4240.183,Windows,10
35,1,null,"""",html-keyboard-response,276,133929,0.0-276.0,"<div style=""font-size:60px;"">+</div>","""",null,200,46,fixationBtwnNeutralMaskAndPrompt,"""","""",11/9/2020 14:57,69.125.145.27,"Mozilla/5.0 (Windows NT 10.0; Win64; x64) AppleWebKit/537.36 (KHTML, like Gecko) Chrome/86.0.4240.183 Safari/537.36",WebKit,Chrome,86.0.4240.183,Windows,10
35,1,310.76,"""",html-keyboard-response,277,134241,0.0-277.0,"<p> What was the emotion of the hidden face? <br> Press, <b>d</b> for <i>disgust face</i> or <b>n</b> for <i>neutral face</i></p>","""",68,"""",46,Query,"""",d,11/9/2020 14:57,69.125.145.27,"Mozilla/5.0 (Windows NT 10.0; Win64; x64) AppleWebKit/537.36 (KHTML, like Gecko) Chrome/86.0.4240.183 Safari/537.36",WebKit,Chrome,86.0.4240.183,Windows,10
35,1,null,"""",html-keyboard-response,278,135245,0.0-278.0,"<div style=""font-size:60px;"">+</div>","""",null,1000,47,ITI,"""","""",11/9/2020 14:57,69.125.145.27,"Mozilla/5.0 (Windows NT 10.0; Win64; x64) AppleWebKit/537.36 (KHTML, like Gecko) Chrome/86.0.4240.183 Safari/537.36",WebKit,Chrome,86.0.4240.183,Windows,10
35,1,null,"""",image-keyboard-response,279,135503,0.0-279.0,jspsych/scrambledNeutralFaces/scrambledAM14NES.JPG,"""",null,250,47,forwardMask,n,"""",11/9/2020 14:57,69.125.145.27,"Mozilla/5.0 (Windows NT 10.0; Win64; x64) AppleWebKit/537.36 (KHTML, like Gecko) Chrome/86.0.4240.183 Safari/537.36",WebKit,Chrome,86.0.4240.183,Windows,10
35,1,null,"""",image-keyboard-response,280,135531,0.0-280.0,jspsych/neutralFaces/AM14NES.JPG,"""",null,16,47,Cue,"""","""",11/9/2020 14:57,69.125.145.27,"Mozilla/5.0 (Windows NT 10.0; Win64; x64) AppleWebKit/537.36 (KHTML, like Gecko) Chrome/86.0.4240.183 Safari/537.36",WebKit,Chrome,86.0.4240.183,Windows,10
35,1,null,"""",image-keyboard-response,281,135633,0.0-281.0,jspsych/neutralFaces/AF25NES.JPG,"""",null,100,47,backwardMask,"""","""",11/9/2020 14:57,69.125.145.27,"Mozilla/5.0 (Windows NT 10.0; Win64; x64) AppleWebKit/537.36 (KHTML, like Gecko) Chrome/86.0.4240.183 Safari/537.36",WebKit,Chrome,86.0.4240.183,Windows,10
35,1,null,"""",html-keyboard-response,282,135839,0.0-282.0,"<div style=""font-size:60px;"">+</div>","""",null,200,47,fixationBtwnNeutralMaskAndPrompt,"""","""",11/9/2020 14:57,69.125.145.27,"Mozilla/5.0 (Windows NT 10.0; Win64; x64) AppleWebKit/537.36 (KHTML, like Gecko) Chrome/86.0.4240.183 Safari/537.36",WebKit,Chrome,86.0.4240.183,Windows,10
35,1,303.35,"""",html-keyboard-response,283,136144,0.0-283.0,"<p> What was the emotion of the hidden face? <br> Press, <b>d</b> for <i>disgust face</i> or <b>n</b> for <i>neutral face</i></p>","""",78,"""",47,Query,"""",n,11/9/2020 14:57,69.125.145.27,"Mozilla/5.0 (Windows NT 10.0; Win64; x64) AppleWebKit/537.36 (KHTML, like Gecko) Chrome/86.0.4240.183 Safari/537.36",WebKit,Chrome,86.0.4240.183,Windows,10
35,1,null,"""",html-keyboard-response,284,137150,0.0-284.0,"<div style=""font-size:60px;"">+</div>","""",null,1000,48,ITI,"""","""",11/9/2020 14:57,69.125.145.27,"Mozilla/5.0 (Windows NT 10.0; Win64; x64) AppleWebKit/537.36 (KHTML, like Gecko) Chrome/86.0.4240.183 Safari/537.36",WebKit,Chrome,86.0.4240.183,Windows,10
35,1,null,"""",image-keyboard-response,285,137410,0.0-285.0,jspsych/scrambledNeutralFaces/scrambledBF09NES.JPG,"""",null,250,48,forwardMask,n,"""",11/9/2020 14:57,69.125.145.27,"Mozilla/5.0 (Windows NT 10.0; Win64; x64) AppleWebKit/537.36 (KHTML, like Gecko) Chrome/86.0.4240.183 Safari/537.36",WebKit,Chrome,86.0.4240.183,Windows,10
35,1,null,"""",image-keyboard-response,286,137449,0.0-286.0,jspsych/neutralFaces/BF09NES.JPG,"""",null,33,48,Cue,"""","""",11/9/2020 14:57,69.125.145.27,"Mozilla/5.0 (Windows NT 10.0; Win64; x64) AppleWebKit/537.36 (KHTML, like Gecko) Chrome/86.0.4240.183 Safari/537.36",WebKit,Chrome,86.0.4240.183,Windows,10
35,1,null,"""",image-keyboard-response,287,137559,0.0-287.0,jspsych/neutralFaces/BM03NES.JPG,"""",null,100,48,backwardMask,"""","""",11/9/2020 14:57,69.125.145.27,"Mozilla/5.0 (Windows NT 10.0; Win64; x64) AppleWebKit/537.36 (KHTML, like Gecko) Chrome/86.0.4240.183 Safari/537.36",WebKit,Chrome,86.0.4240.183,Windows,10
35,1,null,"""",html-keyboard-response,288,137769,0.0-288.0,"<div style=""font-size:60px;"">+</div>","""",null,200,48,fixationBtwnNeutralMaskAndPrompt,"""","""",11/9/2020 14:57,69.125.145.27,"Mozilla/5.0 (Windows NT 10.0; Win64; x64) AppleWebKit/537.36 (KHTML, like Gecko) Chrome/86.0.4240.183 Safari/537.36",WebKit,Chrome,86.0.4240.183,Windows,10
35,1,355.725,"""",html-keyboard-response,289,138126,0.0-289.0,"<p> What was the emotion of the hidden face? <br> Press, <b>d</b> for <i>disgust face</i> or <b>n</b> for <i>neutral face</i></p>","""",68,"""",48,Query,"""",d,11/9/2020 14:57,69.125.145.27,"Mozilla/5.0 (Windows NT 10.0; Win64; x64) AppleWebKit/537.36 (KHTML, like Gecko) Chrome/86.0.4240.183 Safari/537.36",WebKit,Chrome,86.0.4240.183,Windows,10
35,1,null,"""",html-keyboard-response,290,139129,0.0-290.0,"<div style=""font-size:60px;"">+</div>","""",null,1000,49,ITI,"""","""",11/9/2020 14:57,69.125.145.27,"Mozilla/5.0 (Windows NT 10.0; Win64; x64) AppleWebKit/537.36 (KHTML, like Gecko) Chrome/86.0.4240.183 Safari/537.36",WebKit,Chrome,86.0.4240.183,Windows,10
35,1,null,"""",image-keyboard-response,291,139390,0.0-291.0,jspsych/scrambledDisgustFaces/scrambledBM17DIS.JPG,"""",null,250,49,forwardMask,d,"""",11/9/2020 14:57,69.125.145.27,"Mozilla/5.0 (Windows NT 10.0; Win64; x64) AppleWebKit/537.36 (KHTML, like Gecko) Chrome/86.0.4240.183 Safari/537.36",WebKit,Chrome,86.0.4240.183,Windows,10
35,1,null,"""",image-keyboard-response,292,139470,0.0-292.0,jspsych/disgustFaces/BM17DIS.JPG,"""",null,67,49,Cue,"""","""",11/9/2020 14:57,69.125.145.27,"Mozilla/5.0 (Windows NT 10.0; Win64; x64) AppleWebKit/537.36 (KHTML, like Gecko) Chrome/86.0.4240.183 Safari/537.36",WebKit,Chrome,86.0.4240.183,Windows,10
35,1,null,"""",image-keyboard-response,293,139581,0.0-293.0,jspsych/neutralFaces/BF25NES.JPG,"""",null,100,49,backwardMask,"""","""",11/9/2020 14:57,69.125.145.27,"Mozilla/5.0 (Windows NT 10.0; Win64; x64) AppleWebKit/537.36 (KHTML, like Gecko) Chrome/86.0.4240.183 Safari/537.36",WebKit,Chrome,86.0.4240.183,Windows,10
35,1,null,"""",html-keyboard-response,294,139791,0.0-294.0,"<div style=""font-size:60px;"">+</div>","""",null,200,49,fixationBtwnNeutralMaskAndPrompt,"""","""",11/9/2020 14:57,69.125.145.27,"Mozilla/5.0 (Windows NT 10.0; Win64; x64) AppleWebKit/537.36 (KHTML, like Gecko) Chrome/86.0.4240.183 Safari/537.36",WebKit,Chrome,86.0.4240.183,Windows,10
