run_id,condition,rt,stimulus,key_press,trial_type,trial_index,time_elapsed,internal_node_id,iTrial,Phase,StimulusDurationSetting,correctResponse,recorded_at,ip,user_agent,device,browser,browser_version,platform,platform_version
40,1,1731.56,Press Key to Begin Experiment,78,html-keyboard-response,0,1734,0.0-0.0,1,welcomeScreen,"""","""",10/23/2020 21:00,69.125.145.27,"Mozilla/5.0 (Windows NT 10.0; Win64; x64) AppleWebKit/537.36 (KHTML, like Gecko) Chrome/86.0.4240.111 Safari/537.36",WebKit,Chrome,86.0.4240.111,Windows,10
40,1,null,"<div style=""font-size:60px;"">+</div>",null,html-keyboard-response,1,1816,0.0-1.0,1,ITI,10,"""",10/23/2020 21:00,69.125.145.27,"Mozilla/5.0 (Windows NT 10.0; Win64; x64) AppleWebKit/537.36 (KHTML, like Gecko) Chrome/86.0.4240.111 Safari/537.36",WebKit,Chrome,86.0.4240.111,Windows,10
40,1,null,jspsych/allScrambledFaces/scrambledBM35DIS.JPG,null,image-keyboard-response,2,1888,0.0-2.0,0,forwardMask,20,d,10/23/2020 21:00,69.125.145.27,"Mozilla/5.0 (Windows NT 10.0; Win64; x64) AppleWebKit/537.36 (KHTML, like Gecko) Chrome/86.0.4240.111 Safari/537.36",WebKit,Chrome,86.0.4240.111,Windows,10
40,1,null,jspsych/allFaces/BM35DIS.JPG,null,image-keyboard-response,3,1912,0.0-3.0,0,Cue,"function(){
        return jsPsych.randomization.sampleWithoutReplacement(cueDuration, 1)[0]}","""",10/23/2020 21:00,69.125.145.27,"Mozilla/5.0 (Windows NT 10.0; Win64; x64) AppleWebKit/537.36 (KHTML, like Gecko) Chrome/86.0.4240.111 Safari/537.36",WebKit,Chrome,86.0.4240.111,Windows,10
40,1,null,jspsych/allFaces/BM04NES.JPG,null,image-keyboard-response,4,1938,0.0-4.0,0,backwardMask,20,"""",10/23/2020 21:00,69.125.145.27,"Mozilla/5.0 (Windows NT 10.0; Win64; x64) AppleWebKit/537.36 (KHTML, like Gecko) Chrome/86.0.4240.111 Safari/537.36",WebKit,Chrome,86.0.4240.111,Windows,10
40,1,null,"<div style=""font-size:60px;"">+</div>",null,html-keyboard-response,5,1956,0.0-5.0,0,fixationBtwnNeutralMaskAndPrompt,10,"""",10/23/2020 21:00,69.125.145.27,"Mozilla/5.0 (Windows NT 10.0; Win64; x64) AppleWebKit/537.36 (KHTML, like Gecko) Chrome/86.0.4240.111 Safari/537.36",WebKit,Chrome,86.0.4240.111,Windows,10
40,1,null,"<div style=""font-size:60px;"">+</div>",null,html-keyboard-response,6,1976,0.0-6.0,2,ITI,10,"""",10/23/2020 21:00,69.125.145.27,"Mozilla/5.0 (Windows NT 10.0; Win64; x64) AppleWebKit/537.36 (KHTML, like Gecko) Chrome/86.0.4240.111 Safari/537.36",WebKit,Chrome,86.0.4240.111,Windows,10
40,1,null,jspsych/allScrambledFaces/scrambledBF17DIS.JPG,null,image-keyboard-response,7,1999,0.0-7.0,1,forwardMask,20,d,10/23/2020 21:00,69.125.145.27,"Mozilla/5.0 (Windows NT 10.0; Win64; x64) AppleWebKit/537.36 (KHTML, like Gecko) Chrome/86.0.4240.111 Safari/537.36",WebKit,Chrome,86.0.4240.111,Windows,10
40,1,null,jspsych/allFaces/BF17DIS.JPG,null,image-keyboard-response,8,2027,0.0-8.0,1,Cue,"function(){
        return jsPsych.randomization.sampleWithoutReplacement(cueDuration, 1)[0]}","""",10/23/2020 21:00,69.125.145.27,"Mozilla/5.0 (Windows NT 10.0; Win64; x64) AppleWebKit/537.36 (KHTML, like Gecko) Chrome/86.0.4240.111 Safari/537.36",WebKit,Chrome,86.0.4240.111,Windows,10
40,1,null,jspsych/allFaces/AM08NES.JPG,null,image-keyboard-response,9,2058,0.0-9.0,1,backwardMask,20,"""",10/23/2020 21:00,69.125.145.27,"Mozilla/5.0 (Windows NT 10.0; Win64; x64) AppleWebKit/537.36 (KHTML, like Gecko) Chrome/86.0.4240.111 Safari/537.36",WebKit,Chrome,86.0.4240.111,Windows,10
40,1,null,"<div style=""font-size:60px;"">+</div>",null,html-keyboard-response,10,2076,0.0-10.0,1,fixationBtwnNeutralMaskAndPrompt,10,"""",10/23/2020 21:00,69.125.145.27,"Mozilla/5.0 (Windows NT 10.0; Win64; x64) AppleWebKit/537.36 (KHTML, like Gecko) Chrome/86.0.4240.111 Safari/537.36",WebKit,Chrome,86.0.4240.111,Windows,10
40,1,null,"<div style=""font-size:60px;"">+</div>",null,html-keyboard-response,11,2096,0.0-11.0,3,ITI,10,"""",10/23/2020 21:00,69.125.145.27,"Mozilla/5.0 (Windows NT 10.0; Win64; x64) AppleWebKit/537.36 (KHTML, like Gecko) Chrome/86.0.4240.111 Safari/537.36",WebKit,Chrome,86.0.4240.111,Windows,10
40,1,null,jspsych/allScrambledFaces/scrambledAF19DIS.JPG,null,image-keyboard-response,12,2126,0.0-12.0,2,forwardMask,20,d,10/23/2020 21:00,69.125.145.27,"Mozilla/5.0 (Windows NT 10.0; Win64; x64) AppleWebKit/537.36 (KHTML, like Gecko) Chrome/86.0.4240.111 Safari/537.36",WebKit,Chrome,86.0.4240.111,Windows,10
40,1,null,jspsych/allFaces/AF19DIS.JPG,null,image-keyboard-response,13,2156,0.0-13.0,2,Cue,"function(){
        return jsPsych.randomization.sampleWithoutReplacement(cueDuration, 1)[0]}","""",10/23/2020 21:00,69.125.145.27,"Mozilla/5.0 (Windows NT 10.0; Win64; x64) AppleWebKit/537.36 (KHTML, like Gecko) Chrome/86.0.4240.111 Safari/537.36",WebKit,Chrome,86.0.4240.111,Windows,10
40,1,null,jspsych/allFaces/BM32NES.JPG,null,image-keyboard-response,14,2181,0.0-14.0,2,backwardMask,20,"""",10/23/2020 21:00,69.125.145.27,"Mozilla/5.0 (Windows NT 10.0; Win64; x64) AppleWebKit/537.36 (KHTML, like Gecko) Chrome/86.0.4240.111 Safari/537.36",WebKit,Chrome,86.0.4240.111,Windows,10
40,1,null,"<div style=""font-size:60px;"">+</div>",null,html-keyboard-response,15,2198,0.0-15.0,2,fixationBtwnNeutralMaskAndPrompt,10,"""",10/23/2020 21:00,69.125.145.27,"Mozilla/5.0 (Windows NT 10.0; Win64; x64) AppleWebKit/537.36 (KHTML, like Gecko) Chrome/86.0.4240.111 Safari/537.36",WebKit,Chrome,86.0.4240.111,Windows,10
40,1,null,"<div style=""font-size:60px;"">+</div>",null,html-keyboard-response,16,2216,0.0-16.0,4,ITI,10,"""",10/23/2020 21:00,69.125.145.27,"Mozilla/5.0 (Windows NT 10.0; Win64; x64) AppleWebKit/537.36 (KHTML, like Gecko) Chrome/86.0.4240.111 Safari/537.36",WebKit,Chrome,86.0.4240.111,Windows,10
40,1,null,jspsych/allScrambledFaces/scrambledBF12DIS.JPG,null,image-keyboard-response,17,2246,0.0-17.0,3,forwardMask,20,d,10/23/2020 21:00,69.125.145.27,"Mozilla/5.0 (Windows NT 10.0; Win64; x64) AppleWebKit/537.36 (KHTML, like Gecko) Chrome/86.0.4240.111 Safari/537.36",WebKit,Chrome,86.0.4240.111,Windows,10
40,1,null,jspsych/allFaces/BF12DIS.JPG,null,image-keyboard-response,18,2320,0.0-18.0,3,Cue,"function(){
        return jsPsych.randomization.sampleWithoutReplacement(cueDuration, 1)[0]}","""",10/23/2020 21:00,69.125.145.27,"Mozilla/5.0 (Windows NT 10.0; Win64; x64) AppleWebKit/537.36 (KHTML, like Gecko) Chrome/86.0.4240.111 Safari/537.36",WebKit,Chrome,86.0.4240.111,Windows,10
40,1,null,jspsych/allFaces/BM09NES.JPG,null,image-keyboard-response,19,2393,0.0-19.0,3,backwardMask,20,"""",10/23/2020 21:00,69.125.145.27,"Mozilla/5.0 (Windows NT 10.0; Win64; x64) AppleWebKit/537.36 (KHTML, like Gecko) Chrome/86.0.4240.111 Safari/537.36",WebKit,Chrome,86.0.4240.111,Windows,10
40,1,null,"<div style=""font-size:60px;"">+</div>",null,html-keyboard-response,20,2453,0.0-20.0,3,fixationBtwnNeutralMaskAndPrompt,10,"""",10/23/2020 21:00,69.125.145.27,"Mozilla/5.0 (Windows NT 10.0; Win64; x64) AppleWebKit/537.36 (KHTML, like Gecko) Chrome/86.0.4240.111 Safari/537.36",WebKit,Chrome,86.0.4240.111,Windows,10
40,1,null,"<div style=""font-size:60px;"">+</div>",null,html-keyboard-response,21,2609,0.0-21.0,5,ITI,10,"""",10/23/2020 21:00,69.125.145.27,"Mozilla/5.0 (Windows NT 10.0; Win64; x64) AppleWebKit/537.36 (KHTML, like Gecko) Chrome/86.0.4240.111 Safari/537.36",WebKit,Chrome,86.0.4240.111,Windows,10
40,1,null,jspsych/allScrambledFaces/scrambledAM21NES.JPG,null,image-keyboard-response,22,2738,0.0-22.0,4,forwardMask,20,n,10/23/2020 21:00,69.125.145.27,"Mozilla/5.0 (Windows NT 10.0; Win64; x64) AppleWebKit/537.36 (KHTML, like Gecko) Chrome/86.0.4240.111 Safari/537.36",WebKit,Chrome,86.0.4240.111,Windows,10
40,1,null,jspsych/allFaces/AM21NES.JPG,null,image-keyboard-response,23,2819,0.0-23.0,4,Cue,"function(){
        return jsPsych.randomization.sampleWithoutReplacement(cueDuration, 1)[0]}","""",10/23/2020 21:00,69.125.145.27,"Mozilla/5.0 (Windows NT 10.0; Win64; x64) AppleWebKit/537.36 (KHTML, like Gecko) Chrome/86.0.4240.111 Safari/537.36",WebKit,Chrome,86.0.4240.111,Windows,10
40,1,null,jspsych/allFaces/BF24NES.JPG,null,image-keyboard-response,24,2882,0.0-24.0,4,backwardMask,20,"""",10/23/2020 21:00,69.125.145.27,"Mozilla/5.0 (Windows NT 10.0; Win64; x64) AppleWebKit/537.36 (KHTML, like Gecko) Chrome/86.0.4240.111 Safari/537.36",WebKit,Chrome,86.0.4240.111,Windows,10
40,1,null,"<div style=""font-size:60px;"">+</div>",null,html-keyboard-response,25,2896,0.0-25.0,4,fixationBtwnNeutralMaskAndPrompt,10,"""",10/23/2020 21:00,69.125.145.27,"Mozilla/5.0 (Windows NT 10.0; Win64; x64) AppleWebKit/537.36 (KHTML, like Gecko) Chrome/86.0.4240.111 Safari/537.36",WebKit,Chrome,86.0.4240.111,Windows,10
40,1,null,"<div style=""font-size:60px;"">+</div>",null,html-keyboard-response,26,2914,0.0-26.0,6,ITI,10,"""",10/23/2020 21:00,69.125.145.27,"Mozilla/5.0 (Windows NT 10.0; Win64; x64) AppleWebKit/537.36 (KHTML, like Gecko) Chrome/86.0.4240.111 Safari/537.36",WebKit,Chrome,86.0.4240.111,Windows,10
40,1,null,jspsych/allScrambledFaces/scrambledAF33NES.JPG,null,image-keyboard-response,27,2958,0.0-27.0,5,forwardMask,20,n,10/23/2020 21:00,69.125.145.27,"Mozilla/5.0 (Windows NT 10.0; Win64; x64) AppleWebKit/537.36 (KHTML, like Gecko) Chrome/86.0.4240.111 Safari/537.36",WebKit,Chrome,86.0.4240.111,Windows,10
40,1,null,jspsych/allFaces/AF33NES.JPG,null,image-keyboard-response,28,2980,0.0-28.0,5,Cue,"function(){
        return jsPsych.randomization.sampleWithoutReplacement(cueDuration, 1)[0]}","""",10/23/2020 21:00,69.125.145.27,"Mozilla/5.0 (Windows NT 10.0; Win64; x64) AppleWebKit/537.36 (KHTML, like Gecko) Chrome/86.0.4240.111 Safari/537.36",WebKit,Chrome,86.0.4240.111,Windows,10
40,1,null,jspsych/allFaces/AM13NES.JPG,null,image-keyboard-response,29,3006,0.0-29.0,5,backwardMask,20,"""",10/23/2020 21:00,69.125.145.27,"Mozilla/5.0 (Windows NT 10.0; Win64; x64) AppleWebKit/537.36 (KHTML, like Gecko) Chrome/86.0.4240.111 Safari/537.36",WebKit,Chrome,86.0.4240.111,Windows,10
40,1,null,"<div style=""font-size:60px;"">+</div>",null,html-keyboard-response,30,3021,0.0-30.0,5,fixationBtwnNeutralMaskAndPrompt,10,"""",10/23/2020 21:00,69.125.145.27,"Mozilla/5.0 (Windows NT 10.0; Win64; x64) AppleWebKit/537.36 (KHTML, like Gecko) Chrome/86.0.4240.111 Safari/537.36",WebKit,Chrome,86.0.4240.111,Windows,10
40,1,null,"<div style=""font-size:60px;"">+</div>",null,html-keyboard-response,31,3033,0.0-31.0,7,ITI,10,"""",10/23/2020 21:00,69.125.145.27,"Mozilla/5.0 (Windows NT 10.0; Win64; x64) AppleWebKit/537.36 (KHTML, like Gecko) Chrome/86.0.4240.111 Safari/537.36",WebKit,Chrome,86.0.4240.111,Windows,10
40,1,null,jspsych/allScrambledFaces/scrambledBF06NES.JPG,null,image-keyboard-response,32,3064,0.0-32.0,6,forwardMask,20,n,10/23/2020 21:00,69.125.145.27,"Mozilla/5.0 (Windows NT 10.0; Win64; x64) AppleWebKit/537.36 (KHTML, like Gecko) Chrome/86.0.4240.111 Safari/537.36",WebKit,Chrome,86.0.4240.111,Windows,10
40,1,null,jspsych/allFaces/BF06NES.JPG,null,image-keyboard-response,33,3089,0.0-33.0,6,Cue,"function(){
        return jsPsych.randomization.sampleWithoutReplacement(cueDuration, 1)[0]}","""",10/23/2020 21:00,69.125.145.27,"Mozilla/5.0 (Windows NT 10.0; Win64; x64) AppleWebKit/537.36 (KHTML, like Gecko) Chrome/86.0.4240.111 Safari/537.36",WebKit,Chrome,86.0.4240.111,Windows,10
40,1,null,jspsych/allFaces/AM06NES.JPG,null,image-keyboard-response,34,3114,0.0-34.0,6,backwardMask,20,"""",10/23/2020 21:00,69.125.145.27,"Mozilla/5.0 (Windows NT 10.0; Win64; x64) AppleWebKit/537.36 (KHTML, like Gecko) Chrome/86.0.4240.111 Safari/537.36",WebKit,Chrome,86.0.4240.111,Windows,10
40,1,null,"<div style=""font-size:60px;"">+</div>",null,html-keyboard-response,35,3126,0.0-35.0,6,fixationBtwnNeutralMaskAndPrompt,10,"""",10/23/2020 21:00,69.125.145.27,"Mozilla/5.0 (Windows NT 10.0; Win64; x64) AppleWebKit/537.36 (KHTML, like Gecko) Chrome/86.0.4240.111 Safari/537.36",WebKit,Chrome,86.0.4240.111,Windows,10
40,1,null,"<div style=""font-size:60px;"">+</div>",null,html-keyboard-response,36,3147,0.0-36.0,8,ITI,10,"""",10/23/2020 21:00,69.125.145.27,"Mozilla/5.0 (Windows NT 10.0; Win64; x64) AppleWebKit/537.36 (KHTML, like Gecko) Chrome/86.0.4240.111 Safari/537.36",WebKit,Chrome,86.0.4240.111,Windows,10
40,1,null,jspsych/allScrambledFaces/scrambledBF23DIS.JPG,null,image-keyboard-response,37,3176,0.0-37.0,7,forwardMask,20,d,10/23/2020 21:00,69.125.145.27,"Mozilla/5.0 (Windows NT 10.0; Win64; x64) AppleWebKit/537.36 (KHTML, like Gecko) Chrome/86.0.4240.111 Safari/537.36",WebKit,Chrome,86.0.4240.111,Windows,10
40,1,null,jspsych/allFaces/BF23DIS.JPG,null,image-keyboard-response,38,3200,0.0-38.0,7,Cue,"function(){
        return jsPsych.randomization.sampleWithoutReplacement(cueDuration, 1)[0]}","""",10/23/2020 21:00,69.125.145.27,"Mozilla/5.0 (Windows NT 10.0; Win64; x64) AppleWebKit/537.36 (KHTML, like Gecko) Chrome/86.0.4240.111 Safari/537.36",WebKit,Chrome,86.0.4240.111,Windows,10
40,1,null,jspsych/allFaces/AM26NES.JPG,null,image-keyboard-response,39,3226,0.0-39.0,7,backwardMask,20,"""",10/23/2020 21:00,69.125.145.27,"Mozilla/5.0 (Windows NT 10.0; Win64; x64) AppleWebKit/537.36 (KHTML, like Gecko) Chrome/86.0.4240.111 Safari/537.36",WebKit,Chrome,86.0.4240.111,Windows,10
40,1,null,"<div style=""font-size:60px;"">+</div>",null,html-keyboard-response,40,3247,0.0-40.0,7,fixationBtwnNeutralMaskAndPrompt,10,"""",10/23/2020 21:00,69.125.145.27,"Mozilla/5.0 (Windows NT 10.0; Win64; x64) AppleWebKit/537.36 (KHTML, like Gecko) Chrome/86.0.4240.111 Safari/537.36",WebKit,Chrome,86.0.4240.111,Windows,10
40,1,null,"<div style=""font-size:60px;"">+</div>",null,html-keyboard-response,41,3265,0.0-41.0,9,ITI,10,"""",10/23/2020 21:00,69.125.145.27,"Mozilla/5.0 (Windows NT 10.0; Win64; x64) AppleWebKit/537.36 (KHTML, like Gecko) Chrome/86.0.4240.111 Safari/537.36",WebKit,Chrome,86.0.4240.111,Windows,10
40,1,null,jspsych/allScrambledFaces/scrambledBF30NES.JPG,null,image-keyboard-response,42,3298,0.0-42.0,8,forwardMask,20,n,10/23/2020 21:00,69.125.145.27,"Mozilla/5.0 (Windows NT 10.0; Win64; x64) AppleWebKit/537.36 (KHTML, like Gecko) Chrome/86.0.4240.111 Safari/537.36",WebKit,Chrome,86.0.4240.111,Windows,10
40,1,null,jspsych/allFaces/BF30NES.JPG,null,image-keyboard-response,43,3326,0.0-43.0,8,Cue,"function(){
        return jsPsych.randomization.sampleWithoutReplacement(cueDuration, 1)[0]}","""",10/23/2020 21:00,69.125.145.27,"Mozilla/5.0 (Windows NT 10.0; Win64; x64) AppleWebKit/537.36 (KHTML, like Gecko) Chrome/86.0.4240.111 Safari/537.36",WebKit,Chrome,86.0.4240.111,Windows,10
40,1,null,jspsych/allFaces/AM10NES.JPG,null,image-keyboard-response,44,3350,0.0-44.0,8,backwardMask,20,"""",10/23/2020 21:00,69.125.145.27,"Mozilla/5.0 (Windows NT 10.0; Win64; x64) AppleWebKit/537.36 (KHTML, like Gecko) Chrome/86.0.4240.111 Safari/537.36",WebKit,Chrome,86.0.4240.111,Windows,10
40,1,null,"<div style=""font-size:60px;"">+</div>",null,html-keyboard-response,45,3393,0.0-45.0,8,fixationBtwnNeutralMaskAndPrompt,10,"""",10/23/2020 21:00,69.125.145.27,"Mozilla/5.0 (Windows NT 10.0; Win64; x64) AppleWebKit/537.36 (KHTML, like Gecko) Chrome/86.0.4240.111 Safari/537.36",WebKit,Chrome,86.0.4240.111,Windows,10
40,1,null,"<div style=""font-size:60px;"">+</div>",null,html-keyboard-response,46,3433,0.0-46.0,10,ITI,10,"""",10/23/2020 21:00,69.125.145.27,"Mozilla/5.0 (Windows NT 10.0; Win64; x64) AppleWebKit/537.36 (KHTML, like Gecko) Chrome/86.0.4240.111 Safari/537.36",WebKit,Chrome,86.0.4240.111,Windows,10
40,1,null,jspsych/allScrambledFaces/scrambledBF17DIS.JPG,null,image-keyboard-response,47,3497,0.0-47.0,9,forwardMask,20,d,10/23/2020 21:00,69.125.145.27,"Mozilla/5.0 (Windows NT 10.0; Win64; x64) AppleWebKit/537.36 (KHTML, like Gecko) Chrome/86.0.4240.111 Safari/537.36",WebKit,Chrome,86.0.4240.111,Windows,10
40,1,null,jspsych/allFaces/BF17DIS.JPG,null,image-keyboard-response,48,3583,0.0-48.0,9,Cue,"function(){
        return jsPsych.randomization.sampleWithoutReplacement(cueDuration, 1)[0]}","""",10/23/2020 21:00,69.125.145.27,"Mozilla/5.0 (Windows NT 10.0; Win64; x64) AppleWebKit/537.36 (KHTML, like Gecko) Chrome/86.0.4240.111 Safari/537.36",WebKit,Chrome,86.0.4240.111,Windows,10
40,1,null,jspsych/allFaces/AF07NES.JPG,null,image-keyboard-response,49,3692,0.0-49.0,9,backwardMask,20,"""",10/23/2020 21:00,69.125.145.27,"Mozilla/5.0 (Windows NT 10.0; Win64; x64) AppleWebKit/537.36 (KHTML, like Gecko) Chrome/86.0.4240.111 Safari/537.36",WebKit,Chrome,86.0.4240.111,Windows,10
40,1,null,"<div style=""font-size:60px;"">+</div>",null,html-keyboard-response,50,3810,0.0-50.0,9,fixationBtwnNeutralMaskAndPrompt,10,"""",10/23/2020 21:00,69.125.145.27,"Mozilla/5.0 (Windows NT 10.0; Win64; x64) AppleWebKit/537.36 (KHTML, like Gecko) Chrome/86.0.4240.111 Safari/537.36",WebKit,Chrome,86.0.4240.111,Windows,10
40,1,null,"<div style=""font-size:60px;"">+</div>",null,html-keyboard-response,51,3880,0.0-51.0,11,ITI,10,"""",10/23/2020 21:00,69.125.145.27,"Mozilla/5.0 (Windows NT 10.0; Win64; x64) AppleWebKit/537.36 (KHTML, like Gecko) Chrome/86.0.4240.111 Safari/537.36",WebKit,Chrome,86.0.4240.111,Windows,10
40,1,null,jspsych/allScrambledFaces/scrambledBM12DIS.JPG,null,image-keyboard-response,52,3969,0.0-52.0,10,forwardMask,20,d,10/23/2020 21:00,69.125.145.27,"Mozilla/5.0 (Windows NT 10.0; Win64; x64) AppleWebKit/537.36 (KHTML, like Gecko) Chrome/86.0.4240.111 Safari/537.36",WebKit,Chrome,86.0.4240.111,Windows,10
40,1,null,jspsych/allFaces/BM12DIS.JPG,null,image-keyboard-response,53,4006,0.0-53.0,10,Cue,"function(){
        return jsPsych.randomization.sampleWithoutReplacement(cueDuration, 1)[0]}","""",10/23/2020 21:00,69.125.145.27,"Mozilla/5.0 (Windows NT 10.0; Win64; x64) AppleWebKit/537.36 (KHTML, like Gecko) Chrome/86.0.4240.111 Safari/537.36",WebKit,Chrome,86.0.4240.111,Windows,10
40,1,null,jspsych/allFaces/AF30NES.JPG,null,image-keyboard-response,54,4027,0.0-54.0,10,backwardMask,20,"""",10/23/2020 21:00,69.125.145.27,"Mozilla/5.0 (Windows NT 10.0; Win64; x64) AppleWebKit/537.36 (KHTML, like Gecko) Chrome/86.0.4240.111 Safari/537.36",WebKit,Chrome,86.0.4240.111,Windows,10
40,1,null,"<div style=""font-size:60px;"">+</div>",null,html-keyboard-response,55,4046,0.0-55.0,10,fixationBtwnNeutralMaskAndPrompt,10,"""",10/23/2020 21:00,69.125.145.27,"Mozilla/5.0 (Windows NT 10.0; Win64; x64) AppleWebKit/537.36 (KHTML, like Gecko) Chrome/86.0.4240.111 Safari/537.36",WebKit,Chrome,86.0.4240.111,Windows,10
40,1,null,"<div style=""font-size:60px;"">+</div>",null,html-keyboard-response,56,4063,0.0-56.0,12,ITI,10,"""",10/23/2020 21:00,69.125.145.27,"Mozilla/5.0 (Windows NT 10.0; Win64; x64) AppleWebKit/537.36 (KHTML, like Gecko) Chrome/86.0.4240.111 Safari/537.36",WebKit,Chrome,86.0.4240.111,Windows,10
40,1,null,jspsych/allScrambledFaces/scrambledBF25DIS.JPG,null,image-keyboard-response,57,4088,0.0-57.0,11,forwardMask,20,d,10/23/2020 21:00,69.125.145.27,"Mozilla/5.0 (Windows NT 10.0; Win64; x64) AppleWebKit/537.36 (KHTML, like Gecko) Chrome/86.0.4240.111 Safari/537.36",WebKit,Chrome,86.0.4240.111,Windows,10
40,1,null,jspsych/allFaces/BF25DIS.JPG,null,image-keyboard-response,58,4112,0.0-58.0,11,Cue,"function(){
        return jsPsych.randomization.sampleWithoutReplacement(cueDuration, 1)[0]}","""",10/23/2020 21:00,69.125.145.27,"Mozilla/5.0 (Windows NT 10.0; Win64; x64) AppleWebKit/537.36 (KHTML, like Gecko) Chrome/86.0.4240.111 Safari/537.36",WebKit,Chrome,86.0.4240.111,Windows,10
40,1,null,jspsych/allFaces/BF02NES.JPG,null,image-keyboard-response,59,4135,0.0-59.0,11,backwardMask,20,"""",10/23/2020 21:00,69.125.145.27,"Mozilla/5.0 (Windows NT 10.0; Win64; x64) AppleWebKit/537.36 (KHTML, like Gecko) Chrome/86.0.4240.111 Safari/537.36",WebKit,Chrome,86.0.4240.111,Windows,10
40,1,null,"<div style=""font-size:60px;"">+</div>",null,html-keyboard-response,60,4156,0.0-60.0,11,fixationBtwnNeutralMaskAndPrompt,10,"""",10/23/2020 21:00,69.125.145.27,"Mozilla/5.0 (Windows NT 10.0; Win64; x64) AppleWebKit/537.36 (KHTML, like Gecko) Chrome/86.0.4240.111 Safari/537.36",WebKit,Chrome,86.0.4240.111,Windows,10
40,1,null,"<div style=""font-size:60px;"">+</div>",null,html-keyboard-response,61,4176,0.0-61.0,13,ITI,10,"""",10/23/2020 21:00,69.125.145.27,"Mozilla/5.0 (Windows NT 10.0; Win64; x64) AppleWebKit/537.36 (KHTML, like Gecko) Chrome/86.0.4240.111 Safari/537.36",WebKit,Chrome,86.0.4240.111,Windows,10
40,1,null,jspsych/allScrambledFaces/scrambledAF29DIS.JPG,null,image-keyboard-response,62,4206,0.0-62.0,12,forwardMask,20,d,10/23/2020 21:00,69.125.145.27,"Mozilla/5.0 (Windows NT 10.0; Win64; x64) AppleWebKit/537.36 (KHTML, like Gecko) Chrome/86.0.4240.111 Safari/537.36",WebKit,Chrome,86.0.4240.111,Windows,10
40,1,null,jspsych/allFaces/AF29DIS.JPG,null,image-keyboard-response,63,4230,0.0-63.0,12,Cue,"function(){
        return jsPsych.randomization.sampleWithoutReplacement(cueDuration, 1)[0]}","""",10/23/2020 21:00,69.125.145.27,"Mozilla/5.0 (Windows NT 10.0; Win64; x64) AppleWebKit/537.36 (KHTML, like Gecko) Chrome/86.0.4240.111 Safari/537.36",WebKit,Chrome,86.0.4240.111,Windows,10
40,1,null,jspsych/allFaces/AF25NES.JPG,null,image-keyboard-response,64,4256,0.0-64.0,12,backwardMask,20,"""",10/23/2020 21:00,69.125.145.27,"Mozilla/5.0 (Windows NT 10.0; Win64; x64) AppleWebKit/537.36 (KHTML, like Gecko) Chrome/86.0.4240.111 Safari/537.36",WebKit,Chrome,86.0.4240.111,Windows,10
40,1,null,"<div style=""font-size:60px;"">+</div>",null,html-keyboard-response,65,4276,0.0-65.0,12,fixationBtwnNeutralMaskAndPrompt,10,"""",10/23/2020 21:00,69.125.145.27,"Mozilla/5.0 (Windows NT 10.0; Win64; x64) AppleWebKit/537.36 (KHTML, like Gecko) Chrome/86.0.4240.111 Safari/537.36",WebKit,Chrome,86.0.4240.111,Windows,10
40,1,null,"<div style=""font-size:60px;"">+</div>",null,html-keyboard-response,66,4297,0.0-66.0,14,ITI,10,"""",10/23/2020 21:00,69.125.145.27,"Mozilla/5.0 (Windows NT 10.0; Win64; x64) AppleWebKit/537.36 (KHTML, like Gecko) Chrome/86.0.4240.111 Safari/537.36",WebKit,Chrome,86.0.4240.111,Windows,10
40,1,null,jspsych/allScrambledFaces/scrambledBF26DIS.JPG,null,image-keyboard-response,67,4326,0.0-67.0,13,forwardMask,20,d,10/23/2020 21:00,69.125.145.27,"Mozilla/5.0 (Windows NT 10.0; Win64; x64) AppleWebKit/537.36 (KHTML, like Gecko) Chrome/86.0.4240.111 Safari/537.36",WebKit,Chrome,86.0.4240.111,Windows,10
40,1,null,jspsych/allFaces/BF26DIS.JPG,null,image-keyboard-response,68,4356,0.0-68.0,13,Cue,"function(){
        return jsPsych.randomization.sampleWithoutReplacement(cueDuration, 1)[0]}","""",10/23/2020 21:00,69.125.145.27,"Mozilla/5.0 (Windows NT 10.0; Win64; x64) AppleWebKit/537.36 (KHTML, like Gecko) Chrome/86.0.4240.111 Safari/537.36",WebKit,Chrome,86.0.4240.111,Windows,10
40,1,null,jspsych/allFaces/AM06NES.JPG,null,image-keyboard-response,69,4386,0.0-69.0,13,backwardMask,20,"""",10/23/2020 21:00,69.125.145.27,"Mozilla/5.0 (Windows NT 10.0; Win64; x64) AppleWebKit/537.36 (KHTML, like Gecko) Chrome/86.0.4240.111 Safari/537.36",WebKit,Chrome,86.0.4240.111,Windows,10
40,1,null,"<div style=""font-size:60px;"">+</div>",null,html-keyboard-response,70,4406,0.0-70.0,13,fixationBtwnNeutralMaskAndPrompt,10,"""",10/23/2020 21:00,69.125.145.27,"Mozilla/5.0 (Windows NT 10.0; Win64; x64) AppleWebKit/537.36 (KHTML, like Gecko) Chrome/86.0.4240.111 Safari/537.36",WebKit,Chrome,86.0.4240.111,Windows,10
40,1,null,"<div style=""font-size:60px;"">+</div>",null,html-keyboard-response,71,4426,0.0-71.0,15,ITI,10,"""",10/23/2020 21:00,69.125.145.27,"Mozilla/5.0 (Windows NT 10.0; Win64; x64) AppleWebKit/537.36 (KHTML, like Gecko) Chrome/86.0.4240.111 Safari/537.36",WebKit,Chrome,86.0.4240.111,Windows,10
40,1,null,jspsych/allScrambledFaces/scrambledAM35DIS.JPG,null,image-keyboard-response,72,4451,0.0-72.0,14,forwardMask,20,d,10/23/2020 21:00,69.125.145.27,"Mozilla/5.0 (Windows NT 10.0; Win64; x64) AppleWebKit/537.36 (KHTML, like Gecko) Chrome/86.0.4240.111 Safari/537.36",WebKit,Chrome,86.0.4240.111,Windows,10
40,1,null,jspsych/allFaces/AM35DIS.JPG,null,image-keyboard-response,73,4476,0.0-73.0,14,Cue,"function(){
        return jsPsych.randomization.sampleWithoutReplacement(cueDuration, 1)[0]}","""",10/23/2020 21:00,69.125.145.27,"Mozilla/5.0 (Windows NT 10.0; Win64; x64) AppleWebKit/537.36 (KHTML, like Gecko) Chrome/86.0.4240.111 Safari/537.36",WebKit,Chrome,86.0.4240.111,Windows,10
40,1,null,jspsych/allFaces/AM18NES.JPG,null,image-keyboard-response,74,4499,0.0-74.0,14,backwardMask,20,"""",10/23/2020 21:00,69.125.145.27,"Mozilla/5.0 (Windows NT 10.0; Win64; x64) AppleWebKit/537.36 (KHTML, like Gecko) Chrome/86.0.4240.111 Safari/537.36",WebKit,Chrome,86.0.4240.111,Windows,10
40,1,null,"<div style=""font-size:60px;"">+</div>",null,html-keyboard-response,75,4512,0.0-75.0,14,fixationBtwnNeutralMaskAndPrompt,10,"""",10/23/2020 21:00,69.125.145.27,"Mozilla/5.0 (Windows NT 10.0; Win64; x64) AppleWebKit/537.36 (KHTML, like Gecko) Chrome/86.0.4240.111 Safari/537.36",WebKit,Chrome,86.0.4240.111,Windows,10
40,1,null,"<div style=""font-size:60px;"">+</div>",null,html-keyboard-response,76,4526,0.0-76.0,16,ITI,10,"""",10/23/2020 21:00,69.125.145.27,"Mozilla/5.0 (Windows NT 10.0; Win64; x64) AppleWebKit/537.36 (KHTML, like Gecko) Chrome/86.0.4240.111 Safari/537.36",WebKit,Chrome,86.0.4240.111,Windows,10
40,1,null,jspsych/allScrambledFaces/scrambledAM06NES.JPG,null,image-keyboard-response,77,4568,0.0-77.0,15,forwardMask,20,n,10/23/2020 21:00,69.125.145.27,"Mozilla/5.0 (Windows NT 10.0; Win64; x64) AppleWebKit/537.36 (KHTML, like Gecko) Chrome/86.0.4240.111 Safari/537.36",WebKit,Chrome,86.0.4240.111,Windows,10
40,1,null,jspsych/allFaces/AM06NES.JPG,null,image-keyboard-response,78,4618,0.0-78.0,15,Cue,"function(){
        return jsPsych.randomization.sampleWithoutReplacement(cueDuration, 1)[0]}","""",10/23/2020 21:00,69.125.145.27,"Mozilla/5.0 (Windows NT 10.0; Win64; x64) AppleWebKit/537.36 (KHTML, like Gecko) Chrome/86.0.4240.111 Safari/537.36",WebKit,Chrome,86.0.4240.111,Windows,10
40,1,null,jspsych/allFaces/BM33NES.JPG,null,image-keyboard-response,79,4693,0.0-79.0,15,backwardMask,20,"""",10/23/2020 21:00,69.125.145.27,"Mozilla/5.0 (Windows NT 10.0; Win64; x64) AppleWebKit/537.36 (KHTML, like Gecko) Chrome/86.0.4240.111 Safari/537.36",WebKit,Chrome,86.0.4240.111,Windows,10
40,1,null,"<div style=""font-size:60px;"">+</div>",null,html-keyboard-response,80,4771,0.0-80.0,15,fixationBtwnNeutralMaskAndPrompt,10,"""",10/23/2020 21:00,69.125.145.27,"Mozilla/5.0 (Windows NT 10.0; Win64; x64) AppleWebKit/537.36 (KHTML, like Gecko) Chrome/86.0.4240.111 Safari/537.36",WebKit,Chrome,86.0.4240.111,Windows,10
40,1,null,"<div style=""font-size:60px;"">+</div>",null,html-keyboard-response,81,4809,0.0-81.0,17,ITI,10,"""",10/23/2020 21:00,69.125.145.27,"Mozilla/5.0 (Windows NT 10.0; Win64; x64) AppleWebKit/537.36 (KHTML, like Gecko) Chrome/86.0.4240.111 Safari/537.36",WebKit,Chrome,86.0.4240.111,Windows,10
40,1,null,jspsych/allScrambledFaces/scrambledBF13NES.JPG,null,image-keyboard-response,82,4864,0.0-82.0,16,forwardMask,20,n,10/23/2020 21:00,69.125.145.27,"Mozilla/5.0 (Windows NT 10.0; Win64; x64) AppleWebKit/537.36 (KHTML, like Gecko) Chrome/86.0.4240.111 Safari/537.36",WebKit,Chrome,86.0.4240.111,Windows,10
40,1,null,jspsych/allFaces/BF13NES.JPG,null,image-keyboard-response,83,4906,0.0-83.0,16,Cue,"function(){
        return jsPsych.randomization.sampleWithoutReplacement(cueDuration, 1)[0]}","""",10/23/2020 21:00,69.125.145.27,"Mozilla/5.0 (Windows NT 10.0; Win64; x64) AppleWebKit/537.36 (KHTML, like Gecko) Chrome/86.0.4240.111 Safari/537.36",WebKit,Chrome,86.0.4240.111,Windows,10
40,1,null,jspsych/allFaces/BF27NES.JPG,null,image-keyboard-response,84,4932,0.0-84.0,16,backwardMask,20,"""",10/23/2020 21:00,69.125.145.27,"Mozilla/5.0 (Windows NT 10.0; Win64; x64) AppleWebKit/537.36 (KHTML, like Gecko) Chrome/86.0.4240.111 Safari/537.36",WebKit,Chrome,86.0.4240.111,Windows,10
40,1,null,"<div style=""font-size:60px;"">+</div>",null,html-keyboard-response,85,4945,0.0-85.0,16,fixationBtwnNeutralMaskAndPrompt,10,"""",10/23/2020 21:00,69.125.145.27,"Mozilla/5.0 (Windows NT 10.0; Win64; x64) AppleWebKit/537.36 (KHTML, like Gecko) Chrome/86.0.4240.111 Safari/537.36",WebKit,Chrome,86.0.4240.111,Windows,10
40,1,null,"<div style=""font-size:60px;"">+</div>",null,html-keyboard-response,86,4958,0.0-86.0,18,ITI,10,"""",10/23/2020 21:00,69.125.145.27,"Mozilla/5.0 (Windows NT 10.0; Win64; x64) AppleWebKit/537.36 (KHTML, like Gecko) Chrome/86.0.4240.111 Safari/537.36",WebKit,Chrome,86.0.4240.111,Windows,10
40,1,null,jspsych/allScrambledFaces/scrambledBF16NES.JPG,null,image-keyboard-response,87,4981,0.0-87.0,17,forwardMask,20,n,10/23/2020 21:00,69.125.145.27,"Mozilla/5.0 (Windows NT 10.0; Win64; x64) AppleWebKit/537.36 (KHTML, like Gecko) Chrome/86.0.4240.111 Safari/537.36",WebKit,Chrome,86.0.4240.111,Windows,10
40,1,null,jspsych/allFaces/BF16NES.JPG,null,image-keyboard-response,88,5005,0.0-88.0,17,Cue,"function(){
        return jsPsych.randomization.sampleWithoutReplacement(cueDuration, 1)[0]}","""",10/23/2020 21:00,69.125.145.27,"Mozilla/5.0 (Windows NT 10.0; Win64; x64) AppleWebKit/537.36 (KHTML, like Gecko) Chrome/86.0.4240.111 Safari/537.36",WebKit,Chrome,86.0.4240.111,Windows,10
40,1,null,jspsych/allFaces/AM33NES.JPG,null,image-keyboard-response,89,5031,0.0-89.0,17,backwardMask,20,"""",10/23/2020 21:00,69.125.145.27,"Mozilla/5.0 (Windows NT 10.0; Win64; x64) AppleWebKit/537.36 (KHTML, like Gecko) Chrome/86.0.4240.111 Safari/537.36",WebKit,Chrome,86.0.4240.111,Windows,10
40,1,null,"<div style=""font-size:60px;"">+</div>",null,html-keyboard-response,90,5047,0.0-90.0,17,fixationBtwnNeutralMaskAndPrompt,10,"""",10/23/2020 21:00,69.125.145.27,"Mozilla/5.0 (Windows NT 10.0; Win64; x64) AppleWebKit/537.36 (KHTML, like Gecko) Chrome/86.0.4240.111 Safari/537.36",WebKit,Chrome,86.0.4240.111,Windows,10
40,1,null,"<div style=""font-size:60px;"">+</div>",null,html-keyboard-response,91,5061,0.0-91.0,19,ITI,10,"""",10/23/2020 21:00,69.125.145.27,"Mozilla/5.0 (Windows NT 10.0; Win64; x64) AppleWebKit/537.36 (KHTML, like Gecko) Chrome/86.0.4240.111 Safari/537.36",WebKit,Chrome,86.0.4240.111,Windows,10
40,1,null,jspsych/allScrambledFaces/scrambledAF33NES.JPG,null,image-keyboard-response,92,5087,0.0-92.0,18,forwardMask,20,n,10/23/2020 21:00,69.125.145.27,"Mozilla/5.0 (Windows NT 10.0; Win64; x64) AppleWebKit/537.36 (KHTML, like Gecko) Chrome/86.0.4240.111 Safari/537.36",WebKit,Chrome,86.0.4240.111,Windows,10
40,1,null,jspsych/allFaces/AF33NES.JPG,null,image-keyboard-response,93,5114,0.0-93.0,18,Cue,"function(){
        return jsPsych.randomization.sampleWithoutReplacement(cueDuration, 1)[0]}","""",10/23/2020 21:00,69.125.145.27,"Mozilla/5.0 (Windows NT 10.0; Win64; x64) AppleWebKit/537.36 (KHTML, like Gecko) Chrome/86.0.4240.111 Safari/537.36",WebKit,Chrome,86.0.4240.111,Windows,10
40,1,null,jspsych/allFaces/,null,image-keyboard-response,94,5136,0.0-94.0,18,backwardMask,20,"""",10/23/2020 21:00,69.125.145.27,"Mozilla/5.0 (Windows NT 10.0; Win64; x64) AppleWebKit/537.36 (KHTML, like Gecko) Chrome/86.0.4240.111 Safari/537.36",WebKit,Chrome,86.0.4240.111,Windows,10
40,1,null,"<div style=""font-size:60px;"">+</div>",null,html-keyboard-response,95,5156,0.0-95.0,18,fixationBtwnNeutralMaskAndPrompt,10,"""",10/23/2020 21:00,69.125.145.27,"Mozilla/5.0 (Windows NT 10.0; Win64; x64) AppleWebKit/537.36 (KHTML, like Gecko) Chrome/86.0.4240.111 Safari/537.36",WebKit,Chrome,86.0.4240.111,Windows,10
40,1,null,"<div style=""font-size:60px;"">+</div>",null,html-keyboard-response,96,5176,0.0-96.0,20,ITI,10,"""",10/23/2020 21:00,69.125.145.27,"Mozilla/5.0 (Windows NT 10.0; Win64; x64) AppleWebKit/537.36 (KHTML, like Gecko) Chrome/86.0.4240.111 Safari/537.36",WebKit,Chrome,86.0.4240.111,Windows,10
40,1,null,jspsych/allScrambledFaces/scrambledAM32NES.JPG,null,image-keyboard-response,97,5206,0.0-97.0,19,forwardMask,20,n,10/23/2020 21:00,69.125.145.27,"Mozilla/5.0 (Windows NT 10.0; Win64; x64) AppleWebKit/537.36 (KHTML, like Gecko) Chrome/86.0.4240.111 Safari/537.36",WebKit,Chrome,86.0.4240.111,Windows,10
40,1,null,jspsych/allFaces/AM32NES.JPG,null,image-keyboard-response,98,5240,0.0-98.0,19,Cue,"function(){
        return jsPsych.randomization.sampleWithoutReplacement(cueDuration, 1)[0]}","""",10/23/2020 21:00,69.125.145.27,"Mozilla/5.0 (Windows NT 10.0; Win64; x64) AppleWebKit/537.36 (KHTML, like Gecko) Chrome/86.0.4240.111 Safari/537.36",WebKit,Chrome,86.0.4240.111,Windows,10
40,1,null,jspsych/allFaces/BF24NES.JPG,null,image-keyboard-response,99,5263,0.0-99.0,19,backwardMask,20,"""",10/23/2020 21:00,69.125.145.27,"Mozilla/5.0 (Windows NT 10.0; Win64; x64) AppleWebKit/537.36 (KHTML, like Gecko) Chrome/86.0.4240.111 Safari/537.36",WebKit,Chrome,86.0.4240.111,Windows,10
40,1,null,"<div style=""font-size:60px;"">+</div>",null,html-keyboard-response,100,5275,0.0-100.0,19,fixationBtwnNeutralMaskAndPrompt,10,"""",10/23/2020 21:00,69.125.145.27,"Mozilla/5.0 (Windows NT 10.0; Win64; x64) AppleWebKit/537.36 (KHTML, like Gecko) Chrome/86.0.4240.111 Safari/537.36",WebKit,Chrome,86.0.4240.111,Windows,10
40,1,null,"<div style=""font-size:60px;"">+</div>",null,html-keyboard-response,101,5295,0.0-101.0,21,ITI,10,"""",10/23/2020 21:00,69.125.145.27,"Mozilla/5.0 (Windows NT 10.0; Win64; x64) AppleWebKit/537.36 (KHTML, like Gecko) Chrome/86.0.4240.111 Safari/537.36",WebKit,Chrome,86.0.4240.111,Windows,10
40,1,null,jspsych/allScrambledFaces/scrambledAM27DIS.JPG,null,image-keyboard-response,102,5326,0.0-102.0,20,forwardMask,20,d,10/23/2020 21:00,69.125.145.27,"Mozilla/5.0 (Windows NT 10.0; Win64; x64) AppleWebKit/537.36 (KHTML, like Gecko) Chrome/86.0.4240.111 Safari/537.36",WebKit,Chrome,86.0.4240.111,Windows,10
40,1,null,jspsych/allFaces/AM27DIS.JPG,null,image-keyboard-response,103,5354,0.0-103.0,20,Cue,"function(){
        return jsPsych.randomization.sampleWithoutReplacement(cueDuration, 1)[0]}","""",10/23/2020 21:00,69.125.145.27,"Mozilla/5.0 (Windows NT 10.0; Win64; x64) AppleWebKit/537.36 (KHTML, like Gecko) Chrome/86.0.4240.111 Safari/537.36",WebKit,Chrome,86.0.4240.111,Windows,10
40,1,null,jspsych/allFaces/AM07NES.JPG,null,image-keyboard-response,104,5376,0.0-104.0,20,backwardMask,20,"""",10/23/2020 21:00,69.125.145.27,"Mozilla/5.0 (Windows NT 10.0; Win64; x64) AppleWebKit/537.36 (KHTML, like Gecko) Chrome/86.0.4240.111 Safari/537.36",WebKit,Chrome,86.0.4240.111,Windows,10
40,1,null,"<div style=""font-size:60px;"">+</div>",null,html-keyboard-response,105,5395,0.0-105.0,20,fixationBtwnNeutralMaskAndPrompt,10,"""",10/23/2020 21:00,69.125.145.27,"Mozilla/5.0 (Windows NT 10.0; Win64; x64) AppleWebKit/537.36 (KHTML, like Gecko) Chrome/86.0.4240.111 Safari/537.36",WebKit,Chrome,86.0.4240.111,Windows,10
40,1,null,"<div style=""font-size:60px;"">+</div>",null,html-keyboard-response,106,5411,0.0-106.0,22,ITI,10,"""",10/23/2020 21:00,69.125.145.27,"Mozilla/5.0 (Windows NT 10.0; Win64; x64) AppleWebKit/537.36 (KHTML, like Gecko) Chrome/86.0.4240.111 Safari/537.36",WebKit,Chrome,86.0.4240.111,Windows,10
40,1,null,jspsych/allScrambledFaces/scrambledBF11DIS.JPG,null,image-keyboard-response,107,5438,0.0-107.0,21,forwardMask,20,d,10/23/2020 21:00,69.125.145.27,"Mozilla/5.0 (Windows NT 10.0; Win64; x64) AppleWebKit/537.36 (KHTML, like Gecko) Chrome/86.0.4240.111 Safari/537.36",WebKit,Chrome,86.0.4240.111,Windows,10
40,1,null,jspsych/allFaces/BF11DIS.JPG,null,image-keyboard-response,108,5461,0.0-108.0,21,Cue,"function(){
        return jsPsych.randomization.sampleWithoutReplacement(cueDuration, 1)[0]}","""",10/23/2020 21:00,69.125.145.27,"Mozilla/5.0 (Windows NT 10.0; Win64; x64) AppleWebKit/537.36 (KHTML, like Gecko) Chrome/86.0.4240.111 Safari/537.36",WebKit,Chrome,86.0.4240.111,Windows,10
40,1,null,jspsych/allFaces/BM09NES.JPG,null,image-keyboard-response,109,5485,0.0-109.0,21,backwardMask,20,"""",10/23/2020 21:00,69.125.145.27,"Mozilla/5.0 (Windows NT 10.0; Win64; x64) AppleWebKit/537.36 (KHTML, like Gecko) Chrome/86.0.4240.111 Safari/537.36",WebKit,Chrome,86.0.4240.111,Windows,10
40,1,null,"<div style=""font-size:60px;"">+</div>",null,html-keyboard-response,110,5503,0.0-110.0,21,fixationBtwnNeutralMaskAndPrompt,10,"""",10/23/2020 21:00,69.125.145.27,"Mozilla/5.0 (Windows NT 10.0; Win64; x64) AppleWebKit/537.36 (KHTML, like Gecko) Chrome/86.0.4240.111 Safari/537.36",WebKit,Chrome,86.0.4240.111,Windows,10
40,1,null,"<div style=""font-size:60px;"">+</div>",null,html-keyboard-response,111,5526,0.0-111.0,23,ITI,10,"""",10/23/2020 21:00,69.125.145.27,"Mozilla/5.0 (Windows NT 10.0; Win64; x64) AppleWebKit/537.36 (KHTML, like Gecko) Chrome/86.0.4240.111 Safari/537.36",WebKit,Chrome,86.0.4240.111,Windows,10
40,1,null,jspsych/allScrambledFaces/scrambledBM21NES.JPG,null,image-keyboard-response,112,5556,0.0-112.0,22,forwardMask,20,n,10/23/2020 21:00,69.125.145.27,"Mozilla/5.0 (Windows NT 10.0; Win64; x64) AppleWebKit/537.36 (KHTML, like Gecko) Chrome/86.0.4240.111 Safari/537.36",WebKit,Chrome,86.0.4240.111,Windows,10
40,1,null,jspsych/allFaces/BM21NES.JPG,null,image-keyboard-response,113,5579,0.0-113.0,22,Cue,"function(){
        return jsPsych.randomization.sampleWithoutReplacement(cueDuration, 1)[0]}","""",10/23/2020 21:00,69.125.145.27,"Mozilla/5.0 (Windows NT 10.0; Win64; x64) AppleWebKit/537.36 (KHTML, like Gecko) Chrome/86.0.4240.111 Safari/537.36",WebKit,Chrome,86.0.4240.111,Windows,10
40,1,null,jspsych/allFaces/AM01NES.JPG,null,image-keyboard-response,114,5606,0.0-114.0,22,backwardMask,20,"""",10/23/2020 21:00,69.125.145.27,"Mozilla/5.0 (Windows NT 10.0; Win64; x64) AppleWebKit/537.36 (KHTML, like Gecko) Chrome/86.0.4240.111 Safari/537.36",WebKit,Chrome,86.0.4240.111,Windows,10
40,1,null,"<div style=""font-size:60px;"">+</div>",null,html-keyboard-response,115,5625,0.0-115.0,22,fixationBtwnNeutralMaskAndPrompt,10,"""",10/23/2020 21:00,69.125.145.27,"Mozilla/5.0 (Windows NT 10.0; Win64; x64) AppleWebKit/537.36 (KHTML, like Gecko) Chrome/86.0.4240.111 Safari/537.36",WebKit,Chrome,86.0.4240.111,Windows,10
40,1,null,"<div style=""font-size:60px;"">+</div>",null,html-keyboard-response,116,5644,0.0-116.0,24,ITI,10,"""",10/23/2020 21:00,69.125.145.27,"Mozilla/5.0 (Windows NT 10.0; Win64; x64) AppleWebKit/537.36 (KHTML, like Gecko) Chrome/86.0.4240.111 Safari/537.36",WebKit,Chrome,86.0.4240.111,Windows,10
40,1,null,jspsych/allScrambledFaces/scrambledBF14NES.JPG,null,image-keyboard-response,117,5668,0.0-117.0,23,forwardMask,20,n,10/23/2020 21:00,69.125.145.27,"Mozilla/5.0 (Windows NT 10.0; Win64; x64) AppleWebKit/537.36 (KHTML, like Gecko) Chrome/86.0.4240.111 Safari/537.36",WebKit,Chrome,86.0.4240.111,Windows,10
40,1,null,jspsych/allFaces/BF14NES.JPG,null,image-keyboard-response,118,5693,0.0-118.0,23,Cue,"function(){
        return jsPsych.randomization.sampleWithoutReplacement(cueDuration, 1)[0]}","""",10/23/2020 21:00,69.125.145.27,"Mozilla/5.0 (Windows NT 10.0; Win64; x64) AppleWebKit/537.36 (KHTML, like Gecko) Chrome/86.0.4240.111 Safari/537.36",WebKit,Chrome,86.0.4240.111,Windows,10
40,1,null,jspsych/allFaces/BF06NES.JPG,null,image-keyboard-response,119,5721,0.0-119.0,23,backwardMask,20,"""",10/23/2020 21:00,69.125.145.27,"Mozilla/5.0 (Windows NT 10.0; Win64; x64) AppleWebKit/537.36 (KHTML, like Gecko) Chrome/86.0.4240.111 Safari/537.36",WebKit,Chrome,86.0.4240.111,Windows,10
40,1,null,"<div style=""font-size:60px;"">+</div>",null,html-keyboard-response,120,5759,0.0-120.0,23,fixationBtwnNeutralMaskAndPrompt,10,"""",10/23/2020 21:00,69.125.145.27,"Mozilla/5.0 (Windows NT 10.0; Win64; x64) AppleWebKit/537.36 (KHTML, like Gecko) Chrome/86.0.4240.111 Safari/537.36",WebKit,Chrome,86.0.4240.111,Windows,10
40,1,null,"<div style=""font-size:60px;"">+</div>",null,html-keyboard-response,121,5778,0.0-121.0,25,ITI,10,"""",10/23/2020 21:00,69.125.145.27,"Mozilla/5.0 (Windows NT 10.0; Win64; x64) AppleWebKit/537.36 (KHTML, like Gecko) Chrome/86.0.4240.111 Safari/537.36",WebKit,Chrome,86.0.4240.111,Windows,10
40,1,null,jspsych/allScrambledFaces/scrambledBF11DIS.JPG,null,image-keyboard-response,122,5816,0.0-122.0,24,forwardMask,20,d,10/23/2020 21:00,69.125.145.27,"Mozilla/5.0 (Windows NT 10.0; Win64; x64) AppleWebKit/537.36 (KHTML, like Gecko) Chrome/86.0.4240.111 Safari/537.36",WebKit,Chrome,86.0.4240.111,Windows,10
40,1,null,jspsych/allFaces/BF11DIS.JPG,null,image-keyboard-response,123,5859,0.0-123.0,24,Cue,"function(){
        return jsPsych.randomization.sampleWithoutReplacement(cueDuration, 1)[0]}","""",10/23/2020 21:00,69.125.145.27,"Mozilla/5.0 (Windows NT 10.0; Win64; x64) AppleWebKit/537.36 (KHTML, like Gecko) Chrome/86.0.4240.111 Safari/537.36",WebKit,Chrome,86.0.4240.111,Windows,10
40,1,null,jspsych/allFaces/AM06NES.JPG,null,image-keyboard-response,124,5917,0.0-124.0,24,backwardMask,20,"""",10/23/2020 21:00,69.125.145.27,"Mozilla/5.0 (Windows NT 10.0; Win64; x64) AppleWebKit/537.36 (KHTML, like Gecko) Chrome/86.0.4240.111 Safari/537.36",WebKit,Chrome,86.0.4240.111,Windows,10
40,1,null,"<div style=""font-size:60px;"">+</div>",null,html-keyboard-response,125,5954,0.0-125.0,24,fixationBtwnNeutralMaskAndPrompt,10,"""",10/23/2020 21:00,69.125.145.27,"Mozilla/5.0 (Windows NT 10.0; Win64; x64) AppleWebKit/537.36 (KHTML, like Gecko) Chrome/86.0.4240.111 Safari/537.36",WebKit,Chrome,86.0.4240.111,Windows,10
40,1,null,"<div style=""font-size:60px;"">+</div>",null,html-keyboard-response,126,5980,0.0-126.0,26,ITI,10,"""",10/23/2020 21:00,69.125.145.27,"Mozilla/5.0 (Windows NT 10.0; Win64; x64) AppleWebKit/537.36 (KHTML, like Gecko) Chrome/86.0.4240.111 Safari/537.36",WebKit,Chrome,86.0.4240.111,Windows,10
40,1,null,jspsych/allScrambledFaces/scrambledBF30DIS.JPG,null,image-keyboard-response,127,6027,0.0-127.0,25,forwardMask,20,d,10/23/2020 21:00,69.125.145.27,"Mozilla/5.0 (Windows NT 10.0; Win64; x64) AppleWebKit/537.36 (KHTML, like Gecko) Chrome/86.0.4240.111 Safari/537.36",WebKit,Chrome,86.0.4240.111,Windows,10
40,1,null,jspsych/allFaces/BF30DIS.JPG,null,image-keyboard-response,128,6054,0.0-128.0,25,Cue,"function(){
        return jsPsych.randomization.sampleWithoutReplacement(cueDuration, 1)[0]}","""",10/23/2020 21:00,69.125.145.27,"Mozilla/5.0 (Windows NT 10.0; Win64; x64) AppleWebKit/537.36 (KHTML, like Gecko) Chrome/86.0.4240.111 Safari/537.36",WebKit,Chrome,86.0.4240.111,Windows,10
40,1,null,jspsych/allFaces/AF04NES.JPG,null,image-keyboard-response,129,6077,0.0-129.0,25,backwardMask,20,"""",10/23/2020 21:00,69.125.145.27,"Mozilla/5.0 (Windows NT 10.0; Win64; x64) AppleWebKit/537.36 (KHTML, like Gecko) Chrome/86.0.4240.111 Safari/537.36",WebKit,Chrome,86.0.4240.111,Windows,10
40,1,null,"<div style=""font-size:60px;"">+</div>",null,html-keyboard-response,130,6096,0.0-130.0,25,fixationBtwnNeutralMaskAndPrompt,10,"""",10/23/2020 21:00,69.125.145.27,"Mozilla/5.0 (Windows NT 10.0; Win64; x64) AppleWebKit/537.36 (KHTML, like Gecko) Chrome/86.0.4240.111 Safari/537.36",WebKit,Chrome,86.0.4240.111,Windows,10
40,1,null,"<div style=""font-size:60px;"">+</div>",null,html-keyboard-response,131,6111,0.0-131.0,27,ITI,10,"""",10/23/2020 21:00,69.125.145.27,"Mozilla/5.0 (Windows NT 10.0; Win64; x64) AppleWebKit/537.36 (KHTML, like Gecko) Chrome/86.0.4240.111 Safari/537.36",WebKit,Chrome,86.0.4240.111,Windows,10
40,1,null,jspsych/allScrambledFaces/scrambledAM31DIS.JPG,null,image-keyboard-response,132,6135,0.0-132.0,26,forwardMask,20,d,10/23/2020 21:00,69.125.145.27,"Mozilla/5.0 (Windows NT 10.0; Win64; x64) AppleWebKit/537.36 (KHTML, like Gecko) Chrome/86.0.4240.111 Safari/537.36",WebKit,Chrome,86.0.4240.111,Windows,10
40,1,null,jspsych/allFaces/AM31DIS.JPG,null,image-keyboard-response,133,6165,0.0-133.0,26,Cue,"function(){
        return jsPsych.randomization.sampleWithoutReplacement(cueDuration, 1)[0]}","""",10/23/2020 21:00,69.125.145.27,"Mozilla/5.0 (Windows NT 10.0; Win64; x64) AppleWebKit/537.36 (KHTML, like Gecko) Chrome/86.0.4240.111 Safari/537.36",WebKit,Chrome,86.0.4240.111,Windows,10
40,1,null,jspsych/allFaces/BM23NES.JPG,null,image-keyboard-response,134,6192,0.0-134.0,26,backwardMask,20,"""",10/23/2020 21:00,69.125.145.27,"Mozilla/5.0 (Windows NT 10.0; Win64; x64) AppleWebKit/537.36 (KHTML, like Gecko) Chrome/86.0.4240.111 Safari/537.36",WebKit,Chrome,86.0.4240.111,Windows,10
40,1,null,"<div style=""font-size:60px;"">+</div>",null,html-keyboard-response,135,6207,0.0-135.0,26,fixationBtwnNeutralMaskAndPrompt,10,"""",10/23/2020 21:00,69.125.145.27,"Mozilla/5.0 (Windows NT 10.0; Win64; x64) AppleWebKit/537.36 (KHTML, like Gecko) Chrome/86.0.4240.111 Safari/537.36",WebKit,Chrome,86.0.4240.111,Windows,10
40,1,null,"<div style=""font-size:60px;"">+</div>",null,html-keyboard-response,136,6224,0.0-136.0,28,ITI,10,"""",10/23/2020 21:00,69.125.145.27,"Mozilla/5.0 (Windows NT 10.0; Win64; x64) AppleWebKit/537.36 (KHTML, like Gecko) Chrome/86.0.4240.111 Safari/537.36",WebKit,Chrome,86.0.4240.111,Windows,10
40,1,null,jspsych/allScrambledFaces/scrambledAF22NES.JPG,null,image-keyboard-response,137,6256,0.0-137.0,27,forwardMask,20,n,10/23/2020 21:00,69.125.145.27,"Mozilla/5.0 (Windows NT 10.0; Win64; x64) AppleWebKit/537.36 (KHTML, like Gecko) Chrome/86.0.4240.111 Safari/537.36",WebKit,Chrome,86.0.4240.111,Windows,10
40,1,null,jspsych/allFaces/AF22NES.JPG,null,image-keyboard-response,138,6284,0.0-138.0,27,Cue,"function(){
        return jsPsych.randomization.sampleWithoutReplacement(cueDuration, 1)[0]}","""",10/23/2020 21:00,69.125.145.27,"Mozilla/5.0 (Windows NT 10.0; Win64; x64) AppleWebKit/537.36 (KHTML, like Gecko) Chrome/86.0.4240.111 Safari/537.36",WebKit,Chrome,86.0.4240.111,Windows,10
40,1,null,jspsych/allFaces/AF20NES.JPG,null,image-keyboard-response,139,6313,0.0-139.0,27,backwardMask,20,"""",10/23/2020 21:00,69.125.145.27,"Mozilla/5.0 (Windows NT 10.0; Win64; x64) AppleWebKit/537.36 (KHTML, like Gecko) Chrome/86.0.4240.111 Safari/537.36",WebKit,Chrome,86.0.4240.111,Windows,10
40,1,null,"<div style=""font-size:60px;"">+</div>",null,html-keyboard-response,140,6326,0.0-140.0,27,fixationBtwnNeutralMaskAndPrompt,10,"""",10/23/2020 21:00,69.125.145.27,"Mozilla/5.0 (Windows NT 10.0; Win64; x64) AppleWebKit/537.36 (KHTML, like Gecko) Chrome/86.0.4240.111 Safari/537.36",WebKit,Chrome,86.0.4240.111,Windows,10
40,1,null,"<div style=""font-size:60px;"">+</div>",null,html-keyboard-response,141,6344,0.0-141.0,29,ITI,10,"""",10/23/2020 21:00,69.125.145.27,"Mozilla/5.0 (Windows NT 10.0; Win64; x64) AppleWebKit/537.36 (KHTML, like Gecko) Chrome/86.0.4240.111 Safari/537.36",WebKit,Chrome,86.0.4240.111,Windows,10
40,1,null,jspsych/allScrambledFaces/scrambledBM21DIS.JPG,null,image-keyboard-response,142,6368,0.0-142.0,28,forwardMask,20,d,10/23/2020 21:00,69.125.145.27,"Mozilla/5.0 (Windows NT 10.0; Win64; x64) AppleWebKit/537.36 (KHTML, like Gecko) Chrome/86.0.4240.111 Safari/537.36",WebKit,Chrome,86.0.4240.111,Windows,10
40,1,null,jspsych/allFaces/BM21DIS.JPG,null,image-keyboard-response,143,6394,0.0-143.0,28,Cue,"function(){
        return jsPsych.randomization.sampleWithoutReplacement(cueDuration, 1)[0]}","""",10/23/2020 21:00,69.125.145.27,"Mozilla/5.0 (Windows NT 10.0; Win64; x64) AppleWebKit/537.36 (KHTML, like Gecko) Chrome/86.0.4240.111 Safari/537.36",WebKit,Chrome,86.0.4240.111,Windows,10
40,1,null,jspsych/allFaces/BM34NES.JPG,null,image-keyboard-response,144,6420,0.0-144.0,28,backwardMask,20,"""",10/23/2020 21:00,69.125.145.27,"Mozilla/5.0 (Windows NT 10.0; Win64; x64) AppleWebKit/537.36 (KHTML, like Gecko) Chrome/86.0.4240.111 Safari/537.36",WebKit,Chrome,86.0.4240.111,Windows,10
40,1,null,"<div style=""font-size:60px;"">+</div>",null,html-keyboard-response,145,6435,0.0-145.0,28,fixationBtwnNeutralMaskAndPrompt,10,"""",10/23/2020 21:00,69.125.145.27,"Mozilla/5.0 (Windows NT 10.0; Win64; x64) AppleWebKit/537.36 (KHTML, like Gecko) Chrome/86.0.4240.111 Safari/537.36",WebKit,Chrome,86.0.4240.111,Windows,10
40,1,null,"<div style=""font-size:60px;"">+</div>",null,html-keyboard-response,146,6449,0.0-146.0,30,ITI,10,"""",10/23/2020 21:00,69.125.145.27,"Mozilla/5.0 (Windows NT 10.0; Win64; x64) AppleWebKit/537.36 (KHTML, like Gecko) Chrome/86.0.4240.111 Safari/537.36",WebKit,Chrome,86.0.4240.111,Windows,10
40,1,null,jspsych/allScrambledFaces/scrambledAF32DIS.JPG,null,image-keyboard-response,147,6477,0.0-147.0,29,forwardMask,20,d,10/23/2020 21:00,69.125.145.27,"Mozilla/5.0 (Windows NT 10.0; Win64; x64) AppleWebKit/537.36 (KHTML, like Gecko) Chrome/86.0.4240.111 Safari/537.36",WebKit,Chrome,86.0.4240.111,Windows,10
40,1,null,jspsych/allFaces/AF32DIS.JPG,null,image-keyboard-response,148,6500,0.0-148.0,29,Cue,"function(){
        return jsPsych.randomization.sampleWithoutReplacement(cueDuration, 1)[0]}","""",10/23/2020 21:00,69.125.145.27,"Mozilla/5.0 (Windows NT 10.0; Win64; x64) AppleWebKit/537.36 (KHTML, like Gecko) Chrome/86.0.4240.111 Safari/537.36",WebKit,Chrome,86.0.4240.111,Windows,10
40,1,null,jspsych/allFaces/BM21NES.JPG,null,image-keyboard-response,149,6528,0.0-149.0,29,backwardMask,20,"""",10/23/2020 21:00,69.125.145.27,"Mozilla/5.0 (Windows NT 10.0; Win64; x64) AppleWebKit/537.36 (KHTML, like Gecko) Chrome/86.0.4240.111 Safari/537.36",WebKit,Chrome,86.0.4240.111,Windows,10
40,1,null,"<div style=""font-size:60px;"">+</div>",null,html-keyboard-response,150,6547,0.0-150.0,29,fixationBtwnNeutralMaskAndPrompt,10,"""",10/23/2020 21:00,69.125.145.27,"Mozilla/5.0 (Windows NT 10.0; Win64; x64) AppleWebKit/537.36 (KHTML, like Gecko) Chrome/86.0.4240.111 Safari/537.36",WebKit,Chrome,86.0.4240.111,Windows,10
40,1,null,"<div style=""font-size:60px;"">+</div>",null,html-keyboard-response,151,6559,0.0-151.0,31,ITI,10,"""",10/23/2020 21:00,69.125.145.27,"Mozilla/5.0 (Windows NT 10.0; Win64; x64) AppleWebKit/537.36 (KHTML, like Gecko) Chrome/86.0.4240.111 Safari/537.36",WebKit,Chrome,86.0.4240.111,Windows,10
40,1,null,jspsych/allScrambledFaces/scrambledBM27DIS.JPG,null,image-keyboard-response,152,6588,0.0-152.0,30,forwardMask,20,d,10/23/2020 21:00,69.125.145.27,"Mozilla/5.0 (Windows NT 10.0; Win64; x64) AppleWebKit/537.36 (KHTML, like Gecko) Chrome/86.0.4240.111 Safari/537.36",WebKit,Chrome,86.0.4240.111,Windows,10
40,1,null,jspsych/allFaces/BM27DIS.JPG,null,image-keyboard-response,153,6621,0.0-153.0,30,Cue,"function(){
        return jsPsych.randomization.sampleWithoutReplacement(cueDuration, 1)[0]}","""",10/23/2020 21:00,69.125.145.27,"Mozilla/5.0 (Windows NT 10.0; Win64; x64) AppleWebKit/537.36 (KHTML, like Gecko) Chrome/86.0.4240.111 Safari/537.36",WebKit,Chrome,86.0.4240.111,Windows,10
40,1,null,jspsych/allFaces/AM31NES.JPG,null,image-keyboard-response,154,6655,0.0-154.0,30,backwardMask,20,"""",10/23/2020 21:00,69.125.145.27,"Mozilla/5.0 (Windows NT 10.0; Win64; x64) AppleWebKit/537.36 (KHTML, like Gecko) Chrome/86.0.4240.111 Safari/537.36",WebKit,Chrome,86.0.4240.111,Windows,10
40,1,null,"<div style=""font-size:60px;"">+</div>",null,html-keyboard-response,155,6679,0.0-155.0,30,fixationBtwnNeutralMaskAndPrompt,10,"""",10/23/2020 21:00,69.125.145.27,"Mozilla/5.0 (Windows NT 10.0; Win64; x64) AppleWebKit/537.36 (KHTML, like Gecko) Chrome/86.0.4240.111 Safari/537.36",WebKit,Chrome,86.0.4240.111,Windows,10
40,1,null,"<div style=""font-size:60px;"">+</div>",null,html-keyboard-response,156,6693,0.0-156.0,32,ITI,10,"""",10/23/2020 21:00,69.125.145.27,"Mozilla/5.0 (Windows NT 10.0; Win64; x64) AppleWebKit/537.36 (KHTML, like Gecko) Chrome/86.0.4240.111 Safari/537.36",WebKit,Chrome,86.0.4240.111,Windows,10
40,1,null,jspsych/allScrambledFaces/scrambledAF06DIS.JPG,null,image-keyboard-response,157,6717,0.0-157.0,31,forwardMask,20,d,10/23/2020 21:00,69.125.145.27,"Mozilla/5.0 (Windows NT 10.0; Win64; x64) AppleWebKit/537.36 (KHTML, like Gecko) Chrome/86.0.4240.111 Safari/537.36",WebKit,Chrome,86.0.4240.111,Windows,10
40,1,null,jspsych/allFaces/AF06DIS.JPG,null,image-keyboard-response,158,6743,0.0-158.0,31,Cue,"function(){
        return jsPsych.randomization.sampleWithoutReplacement(cueDuration, 1)[0]}","""",10/23/2020 21:00,69.125.145.27,"Mozilla/5.0 (Windows NT 10.0; Win64; x64) AppleWebKit/537.36 (KHTML, like Gecko) Chrome/86.0.4240.111 Safari/537.36",WebKit,Chrome,86.0.4240.111,Windows,10
40,1,null,jspsych/allFaces/BM34NES.JPG,null,image-keyboard-response,159,6765,0.0-159.0,31,backwardMask,20,"""",10/23/2020 21:00,69.125.145.27,"Mozilla/5.0 (Windows NT 10.0; Win64; x64) AppleWebKit/537.36 (KHTML, like Gecko) Chrome/86.0.4240.111 Safari/537.36",WebKit,Chrome,86.0.4240.111,Windows,10
40,1,null,"<div style=""font-size:60px;"">+</div>",null,html-keyboard-response,160,6777,0.0-160.0,31,fixationBtwnNeutralMaskAndPrompt,10,"""",10/23/2020 21:00,69.125.145.27,"Mozilla/5.0 (Windows NT 10.0; Win64; x64) AppleWebKit/537.36 (KHTML, like Gecko) Chrome/86.0.4240.111 Safari/537.36",WebKit,Chrome,86.0.4240.111,Windows,10
40,1,null,"<div style=""font-size:60px;"">+</div>",null,html-keyboard-response,161,6793,0.0-161.0,33,ITI,10,"""",10/23/2020 21:00,69.125.145.27,"Mozilla/5.0 (Windows NT 10.0; Win64; x64) AppleWebKit/537.36 (KHTML, like Gecko) Chrome/86.0.4240.111 Safari/537.36",WebKit,Chrome,86.0.4240.111,Windows,10
40,1,null,jspsych/allScrambledFaces/scrambledBF23DIS.JPG,null,image-keyboard-response,162,6816,0.0-162.0,32,forwardMask,20,d,10/23/2020 21:00,69.125.145.27,"Mozilla/5.0 (Windows NT 10.0; Win64; x64) AppleWebKit/537.36 (KHTML, like Gecko) Chrome/86.0.4240.111 Safari/537.36",WebKit,Chrome,86.0.4240.111,Windows,10
40,1,null,jspsych/allFaces/BF23DIS.JPG,null,image-keyboard-response,163,6846,0.0-163.0,32,Cue,"function(){
        return jsPsych.randomization.sampleWithoutReplacement(cueDuration, 1)[0]}","""",10/23/2020 21:00,69.125.145.27,"Mozilla/5.0 (Windows NT 10.0; Win64; x64) AppleWebKit/537.36 (KHTML, like Gecko) Chrome/86.0.4240.111 Safari/537.36",WebKit,Chrome,86.0.4240.111,Windows,10
40,1,null,jspsych/allFaces/AM04NES.JPG,null,image-keyboard-response,164,6891,0.0-164.0,32,backwardMask,20,"""",10/23/2020 21:00,69.125.145.27,"Mozilla/5.0 (Windows NT 10.0; Win64; x64) AppleWebKit/537.36 (KHTML, like Gecko) Chrome/86.0.4240.111 Safari/537.36",WebKit,Chrome,86.0.4240.111,Windows,10
40,1,null,"<div style=""font-size:60px;"">+</div>",null,html-keyboard-response,165,6915,0.0-165.0,32,fixationBtwnNeutralMaskAndPrompt,10,"""",10/23/2020 21:00,69.125.145.27,"Mozilla/5.0 (Windows NT 10.0; Win64; x64) AppleWebKit/537.36 (KHTML, like Gecko) Chrome/86.0.4240.111 Safari/537.36",WebKit,Chrome,86.0.4240.111,Windows,10
40,1,null,"<div style=""font-size:60px;"">+</div>",null,html-keyboard-response,166,6928,0.0-166.0,34,ITI,10,"""",10/23/2020 21:00,69.125.145.27,"Mozilla/5.0 (Windows NT 10.0; Win64; x64) AppleWebKit/537.36 (KHTML, like Gecko) Chrome/86.0.4240.111 Safari/537.36",WebKit,Chrome,86.0.4240.111,Windows,10
40,1,null,jspsych/allScrambledFaces/scrambledBF26DIS.JPG,null,image-keyboard-response,167,6956,0.0-167.0,33,forwardMask,20,d,10/23/2020 21:00,69.125.145.27,"Mozilla/5.0 (Windows NT 10.0; Win64; x64) AppleWebKit/537.36 (KHTML, like Gecko) Chrome/86.0.4240.111 Safari/537.36",WebKit,Chrome,86.0.4240.111,Windows,10
40,1,null,jspsych/allFaces/BF26DIS.JPG,null,image-keyboard-response,168,6986,0.0-168.0,33,Cue,"function(){
        return jsPsych.randomization.sampleWithoutReplacement(cueDuration, 1)[0]}","""",10/23/2020 21:00,69.125.145.27,"Mozilla/5.0 (Windows NT 10.0; Win64; x64) AppleWebKit/537.36 (KHTML, like Gecko) Chrome/86.0.4240.111 Safari/537.36",WebKit,Chrome,86.0.4240.111,Windows,10
40,1,null,jspsych/allFaces/BM26NES.JPG,null,image-keyboard-response,169,7011,0.0-169.0,33,backwardMask,20,"""",10/23/2020 21:00,69.125.145.27,"Mozilla/5.0 (Windows NT 10.0; Win64; x64) AppleWebKit/537.36 (KHTML, like Gecko) Chrome/86.0.4240.111 Safari/537.36",WebKit,Chrome,86.0.4240.111,Windows,10
40,1,null,"<div style=""font-size:60px;"">+</div>",null,html-keyboard-response,170,7028,0.0-170.0,33,fixationBtwnNeutralMaskAndPrompt,10,"""",10/23/2020 21:00,69.125.145.27,"Mozilla/5.0 (Windows NT 10.0; Win64; x64) AppleWebKit/537.36 (KHTML, like Gecko) Chrome/86.0.4240.111 Safari/537.36",WebKit,Chrome,86.0.4240.111,Windows,10
40,1,null,"<div style=""font-size:60px;"">+</div>",null,html-keyboard-response,171,7040,0.0-171.0,35,ITI,10,"""",10/23/2020 21:00,69.125.145.27,"Mozilla/5.0 (Windows NT 10.0; Win64; x64) AppleWebKit/537.36 (KHTML, like Gecko) Chrome/86.0.4240.111 Safari/537.36",WebKit,Chrome,86.0.4240.111,Windows,10
40,1,null,jspsych/allScrambledFaces/scrambledAM24DIS.JPG,null,image-keyboard-response,172,7066,0.0-172.0,34,forwardMask,20,d,10/23/2020 21:00,69.125.145.27,"Mozilla/5.0 (Windows NT 10.0; Win64; x64) AppleWebKit/537.36 (KHTML, like Gecko) Chrome/86.0.4240.111 Safari/537.36",WebKit,Chrome,86.0.4240.111,Windows,10
40,1,null,jspsych/allFaces/AM24DIS.JPG,null,image-keyboard-response,173,7093,0.0-173.0,34,Cue,"function(){
        return jsPsych.randomization.sampleWithoutReplacement(cueDuration, 1)[0]}","""",10/23/2020 21:00,69.125.145.27,"Mozilla/5.0 (Windows NT 10.0; Win64; x64) AppleWebKit/537.36 (KHTML, like Gecko) Chrome/86.0.4240.111 Safari/537.36",WebKit,Chrome,86.0.4240.111,Windows,10
40,1,null,jspsych/allFaces/BM10NES.JPG,null,image-keyboard-response,174,7123,0.0-174.0,34,backwardMask,20,"""",10/23/2020 21:00,69.125.145.27,"Mozilla/5.0 (Windows NT 10.0; Win64; x64) AppleWebKit/537.36 (KHTML, like Gecko) Chrome/86.0.4240.111 Safari/537.36",WebKit,Chrome,86.0.4240.111,Windows,10
40,1,null,"<div style=""font-size:60px;"">+</div>",null,html-keyboard-response,175,7143,0.0-175.0,34,fixationBtwnNeutralMaskAndPrompt,10,"""",10/23/2020 21:00,69.125.145.27,"Mozilla/5.0 (Windows NT 10.0; Win64; x64) AppleWebKit/537.36 (KHTML, like Gecko) Chrome/86.0.4240.111 Safari/537.36",WebKit,Chrome,86.0.4240.111,Windows,10
40,1,null,"<div style=""font-size:60px;"">+</div>",null,html-keyboard-response,176,7160,0.0-176.0,36,ITI,10,"""",10/23/2020 21:00,69.125.145.27,"Mozilla/5.0 (Windows NT 10.0; Win64; x64) AppleWebKit/537.36 (KHTML, like Gecko) Chrome/86.0.4240.111 Safari/537.36",WebKit,Chrome,86.0.4240.111,Windows,10
40,1,null,jspsych/allScrambledFaces/scrambledAM13NES.JPG,null,image-keyboard-response,177,7184,0.0-177.0,35,forwardMask,20,n,10/23/2020 21:00,69.125.145.27,"Mozilla/5.0 (Windows NT 10.0; Win64; x64) AppleWebKit/537.36 (KHTML, like Gecko) Chrome/86.0.4240.111 Safari/537.36",WebKit,Chrome,86.0.4240.111,Windows,10
40,1,null,jspsych/allFaces/AM13NES.JPG,null,image-keyboard-response,178,7221,0.0-178.0,35,Cue,"function(){
        return jsPsych.randomization.sampleWithoutReplacement(cueDuration, 1)[0]}","""",10/23/2020 21:00,69.125.145.27,"Mozilla/5.0 (Windows NT 10.0; Win64; x64) AppleWebKit/537.36 (KHTML, like Gecko) Chrome/86.0.4240.111 Safari/537.36",WebKit,Chrome,86.0.4240.111,Windows,10
40,1,null,jspsych/allFaces/BF09NES.JPG,null,image-keyboard-response,179,7260,0.0-179.0,35,backwardMask,20,"""",10/23/2020 21:00,69.125.145.27,"Mozilla/5.0 (Windows NT 10.0; Win64; x64) AppleWebKit/537.36 (KHTML, like Gecko) Chrome/86.0.4240.111 Safari/537.36",WebKit,Chrome,86.0.4240.111,Windows,10
40,1,null,"<div style=""font-size:60px;"">+</div>",null,html-keyboard-response,180,7278,0.0-180.0,35,fixationBtwnNeutralMaskAndPrompt,10,"""",10/23/2020 21:00,69.125.145.27,"Mozilla/5.0 (Windows NT 10.0; Win64; x64) AppleWebKit/537.36 (KHTML, like Gecko) Chrome/86.0.4240.111 Safari/537.36",WebKit,Chrome,86.0.4240.111,Windows,10
40,1,null,"<div style=""font-size:60px;"">+</div>",null,html-keyboard-response,181,7295,0.0-181.0,37,ITI,10,"""",10/23/2020 21:00,69.125.145.27,"Mozilla/5.0 (Windows NT 10.0; Win64; x64) AppleWebKit/537.36 (KHTML, like Gecko) Chrome/86.0.4240.111 Safari/537.36",WebKit,Chrome,86.0.4240.111,Windows,10
40,1,null,jspsych/allScrambledFaces/scrambledBM30NES.JPG,null,image-keyboard-response,182,7323,0.0-182.0,36,forwardMask,20,n,10/23/2020 21:00,69.125.145.27,"Mozilla/5.0 (Windows NT 10.0; Win64; x64) AppleWebKit/537.36 (KHTML, like Gecko) Chrome/86.0.4240.111 Safari/537.36",WebKit,Chrome,86.0.4240.111,Windows,10
40,1,null,jspsych/allFaces/BM30NES.JPG,null,image-keyboard-response,183,7347,0.0-183.0,36,Cue,"function(){
        return jsPsych.randomization.sampleWithoutReplacement(cueDuration, 1)[0]}","""",10/23/2020 21:00,69.125.145.27,"Mozilla/5.0 (Windows NT 10.0; Win64; x64) AppleWebKit/537.36 (KHTML, like Gecko) Chrome/86.0.4240.111 Safari/537.36",WebKit,Chrome,86.0.4240.111,Windows,10
40,1,null,jspsych/allFaces/AM27NES.JPG,null,image-keyboard-response,184,7372,0.0-184.0,36,backwardMask,20,"""",10/23/2020 21:00,69.125.145.27,"Mozilla/5.0 (Windows NT 10.0; Win64; x64) AppleWebKit/537.36 (KHTML, like Gecko) Chrome/86.0.4240.111 Safari/537.36",WebKit,Chrome,86.0.4240.111,Windows,10
40,1,null,"<div style=""font-size:60px;"">+</div>",null,html-keyboard-response,185,7386,0.0-185.0,36,fixationBtwnNeutralMaskAndPrompt,10,"""",10/23/2020 21:00,69.125.145.27,"Mozilla/5.0 (Windows NT 10.0; Win64; x64) AppleWebKit/537.36 (KHTML, like Gecko) Chrome/86.0.4240.111 Safari/537.36",WebKit,Chrome,86.0.4240.111,Windows,10
40,1,null,"<div style=""font-size:60px;"">+</div>",null,html-keyboard-response,186,7398,0.0-186.0,38,ITI,10,"""",10/23/2020 21:00,69.125.145.27,"Mozilla/5.0 (Windows NT 10.0; Win64; x64) AppleWebKit/537.36 (KHTML, like Gecko) Chrome/86.0.4240.111 Safari/537.36",WebKit,Chrome,86.0.4240.111,Windows,10
40,1,null,jspsych/allScrambledFaces/scrambledBM35DIS.JPG,null,image-keyboard-response,187,7426,0.0-187.0,37,forwardMask,20,d,10/23/2020 21:00,69.125.145.27,"Mozilla/5.0 (Windows NT 10.0; Win64; x64) AppleWebKit/537.36 (KHTML, like Gecko) Chrome/86.0.4240.111 Safari/537.36",WebKit,Chrome,86.0.4240.111,Windows,10
40,1,null,jspsych/allFaces/BM35DIS.JPG,null,image-keyboard-response,188,7456,0.0-188.0,37,Cue,"function(){
        return jsPsych.randomization.sampleWithoutReplacement(cueDuration, 1)[0]}","""",10/23/2020 21:00,69.125.145.27,"Mozilla/5.0 (Windows NT 10.0; Win64; x64) AppleWebKit/537.36 (KHTML, like Gecko) Chrome/86.0.4240.111 Safari/537.36",WebKit,Chrome,86.0.4240.111,Windows,10
40,1,null,jspsych/allFaces/BF04NES.JPG,null,image-keyboard-response,189,7486,0.0-189.0,37,backwardMask,20,"""",10/23/2020 21:00,69.125.145.27,"Mozilla/5.0 (Windows NT 10.0; Win64; x64) AppleWebKit/537.36 (KHTML, like Gecko) Chrome/86.0.4240.111 Safari/537.36",WebKit,Chrome,86.0.4240.111,Windows,10
40,1,null,"<div style=""font-size:60px;"">+</div>",null,html-keyboard-response,190,7506,0.0-190.0,37,fixationBtwnNeutralMaskAndPrompt,10,"""",10/23/2020 21:00,69.125.145.27,"Mozilla/5.0 (Windows NT 10.0; Win64; x64) AppleWebKit/537.36 (KHTML, like Gecko) Chrome/86.0.4240.111 Safari/537.36",WebKit,Chrome,86.0.4240.111,Windows,10
40,1,null,"<div style=""font-size:60px;"">+</div>",null,html-keyboard-response,191,7528,0.0-191.0,39,ITI,10,"""",10/23/2020 21:00,69.125.145.27,"Mozilla/5.0 (Windows NT 10.0; Win64; x64) AppleWebKit/537.36 (KHTML, like Gecko) Chrome/86.0.4240.111 Safari/537.36",WebKit,Chrome,86.0.4240.111,Windows,10
40,1,null,jspsych/allScrambledFaces/scrambledAM17NES.JPG,null,image-keyboard-response,192,7551,0.0-192.0,38,forwardMask,20,n,10/23/2020 21:00,69.125.145.27,"Mozilla/5.0 (Windows NT 10.0; Win64; x64) AppleWebKit/537.36 (KHTML, like Gecko) Chrome/86.0.4240.111 Safari/537.36",WebKit,Chrome,86.0.4240.111,Windows,10
40,1,null,jspsych/allFaces/AM17NES.JPG,null,image-keyboard-response,193,7601,0.0-193.0,38,Cue,"function(){
        return jsPsych.randomization.sampleWithoutReplacement(cueDuration, 1)[0]}","""",10/23/2020 21:00,69.125.145.27,"Mozilla/5.0 (Windows NT 10.0; Win64; x64) AppleWebKit/537.36 (KHTML, like Gecko) Chrome/86.0.4240.111 Safari/537.36",WebKit,Chrome,86.0.4240.111,Windows,10
40,1,null,jspsych/allFaces/AM29NES.JPG,null,image-keyboard-response,194,7629,0.0-194.0,38,backwardMask,20,"""",10/23/2020 21:00,69.125.145.27,"Mozilla/5.0 (Windows NT 10.0; Win64; x64) AppleWebKit/537.36 (KHTML, like Gecko) Chrome/86.0.4240.111 Safari/537.36",WebKit,Chrome,86.0.4240.111,Windows,10
40,1,null,"<div style=""font-size:60px;"">+</div>",null,html-keyboard-response,195,7642,0.0-195.0,38,fixationBtwnNeutralMaskAndPrompt,10,"""",10/23/2020 21:00,69.125.145.27,"Mozilla/5.0 (Windows NT 10.0; Win64; x64) AppleWebKit/537.36 (KHTML, like Gecko) Chrome/86.0.4240.111 Safari/537.36",WebKit,Chrome,86.0.4240.111,Windows,10
40,1,null,"<div style=""font-size:60px;"">+</div>",null,html-keyboard-response,196,7656,0.0-196.0,40,ITI,10,"""",10/23/2020 21:00,69.125.145.27,"Mozilla/5.0 (Windows NT 10.0; Win64; x64) AppleWebKit/537.36 (KHTML, like Gecko) Chrome/86.0.4240.111 Safari/537.36",WebKit,Chrome,86.0.4240.111,Windows,10
40,1,null,jspsych/allScrambledFaces/scrambledBM05DIS.JPG,null,image-keyboard-response,197,7684,0.0-197.0,39,forwardMask,20,d,10/23/2020 21:00,69.125.145.27,"Mozilla/5.0 (Windows NT 10.0; Win64; x64) AppleWebKit/537.36 (KHTML, like Gecko) Chrome/86.0.4240.111 Safari/537.36",WebKit,Chrome,86.0.4240.111,Windows,10
40,1,null,jspsych/allFaces/BM05DIS.JPG,null,image-keyboard-response,198,7707,0.0-198.0,39,Cue,"function(){
        return jsPsych.randomization.sampleWithoutReplacement(cueDuration, 1)[0]}","""",10/23/2020 21:00,69.125.145.27,"Mozilla/5.0 (Windows NT 10.0; Win64; x64) AppleWebKit/537.36 (KHTML, like Gecko) Chrome/86.0.4240.111 Safari/537.36",WebKit,Chrome,86.0.4240.111,Windows,10
40,1,null,jspsych/allFaces/BM10NES.JPG,null,image-keyboard-response,199,7729,0.0-199.0,39,backwardMask,20,"""",10/23/2020 21:00,69.125.145.27,"Mozilla/5.0 (Windows NT 10.0; Win64; x64) AppleWebKit/537.36 (KHTML, like Gecko) Chrome/86.0.4240.111 Safari/537.36",WebKit,Chrome,86.0.4240.111,Windows,10
40,1,null,"<div style=""font-size:60px;"">+</div>",null,html-keyboard-response,200,7742,0.0-200.0,39,fixationBtwnNeutralMaskAndPrompt,10,"""",10/23/2020 21:00,69.125.145.27,"Mozilla/5.0 (Windows NT 10.0; Win64; x64) AppleWebKit/537.36 (KHTML, like Gecko) Chrome/86.0.4240.111 Safari/537.36",WebKit,Chrome,86.0.4240.111,Windows,10
40,1,null,"<div style=""font-size:60px;"">+</div>",null,html-keyboard-response,201,7754,0.0-201.0,41,ITI,10,"""",10/23/2020 21:00,69.125.145.27,"Mozilla/5.0 (Windows NT 10.0; Win64; x64) AppleWebKit/537.36 (KHTML, like Gecko) Chrome/86.0.4240.111 Safari/537.36",WebKit,Chrome,86.0.4240.111,Windows,10
40,1,null,jspsych/allScrambledFaces/scrambledBF31DIS.JPG,null,image-keyboard-response,202,7775,0.0-202.0,40,forwardMask,20,d,10/23/2020 21:00,69.125.145.27,"Mozilla/5.0 (Windows NT 10.0; Win64; x64) AppleWebKit/537.36 (KHTML, like Gecko) Chrome/86.0.4240.111 Safari/537.36",WebKit,Chrome,86.0.4240.111,Windows,10
40,1,null,jspsych/allFaces/BF31DIS.JPG,null,image-keyboard-response,203,7805,0.0-203.0,40,Cue,"function(){
        return jsPsych.randomization.sampleWithoutReplacement(cueDuration, 1)[0]}","""",10/23/2020 21:00,69.125.145.27,"Mozilla/5.0 (Windows NT 10.0; Win64; x64) AppleWebKit/537.36 (KHTML, like Gecko) Chrome/86.0.4240.111 Safari/537.36",WebKit,Chrome,86.0.4240.111,Windows,10
40,1,null,jspsych/allFaces/AF24NES.JPG,null,image-keyboard-response,204,7835,0.0-204.0,40,backwardMask,20,"""",10/23/2020 21:00,69.125.145.27,"Mozilla/5.0 (Windows NT 10.0; Win64; x64) AppleWebKit/537.36 (KHTML, like Gecko) Chrome/86.0.4240.111 Safari/537.36",WebKit,Chrome,86.0.4240.111,Windows,10
40,1,null,"<div style=""font-size:60px;"">+</div>",null,html-keyboard-response,205,7856,0.0-205.0,40,fixationBtwnNeutralMaskAndPrompt,10,"""",10/23/2020 21:00,69.125.145.27,"Mozilla/5.0 (Windows NT 10.0; Win64; x64) AppleWebKit/537.36 (KHTML, like Gecko) Chrome/86.0.4240.111 Safari/537.36",WebKit,Chrome,86.0.4240.111,Windows,10
40,1,null,"<div style=""font-size:60px;"">+</div>",null,html-keyboard-response,206,7874,0.0-206.0,42,ITI,10,"""",10/23/2020 21:00,69.125.145.27,"Mozilla/5.0 (Windows NT 10.0; Win64; x64) AppleWebKit/537.36 (KHTML, like Gecko) Chrome/86.0.4240.111 Safari/537.36",WebKit,Chrome,86.0.4240.111,Windows,10
40,1,null,jspsych/allScrambledFaces/scrambledAF34NES.JPG,null,image-keyboard-response,207,7898,0.0-207.0,41,forwardMask,20,n,10/23/2020 21:00,69.125.145.27,"Mozilla/5.0 (Windows NT 10.0; Win64; x64) AppleWebKit/537.36 (KHTML, like Gecko) Chrome/86.0.4240.111 Safari/537.36",WebKit,Chrome,86.0.4240.111,Windows,10
40,1,null,jspsych/allFaces/AF34NES.JPG,null,image-keyboard-response,208,7922,0.0-208.0,41,Cue,"function(){
        return jsPsych.randomization.sampleWithoutReplacement(cueDuration, 1)[0]}","""",10/23/2020 21:00,69.125.145.27,"Mozilla/5.0 (Windows NT 10.0; Win64; x64) AppleWebKit/537.36 (KHTML, like Gecko) Chrome/86.0.4240.111 Safari/537.36",WebKit,Chrome,86.0.4240.111,Windows,10
40,1,null,jspsych/allFaces/BM35NES.JPG,null,image-keyboard-response,209,7953,0.0-209.0,41,backwardMask,20,"""",10/23/2020 21:00,69.125.145.27,"Mozilla/5.0 (Windows NT 10.0; Win64; x64) AppleWebKit/537.36 (KHTML, like Gecko) Chrome/86.0.4240.111 Safari/537.36",WebKit,Chrome,86.0.4240.111,Windows,10
40,1,null,"<div style=""font-size:60px;"">+</div>",null,html-keyboard-response,210,7978,0.0-210.0,41,fixationBtwnNeutralMaskAndPrompt,10,"""",10/23/2020 21:00,69.125.145.27,"Mozilla/5.0 (Windows NT 10.0; Win64; x64) AppleWebKit/537.36 (KHTML, like Gecko) Chrome/86.0.4240.111 Safari/537.36",WebKit,Chrome,86.0.4240.111,Windows,10
40,1,null,"<div style=""font-size:60px;"">+</div>",null,html-keyboard-response,211,7993,0.0-211.0,43,ITI,10,"""",10/23/2020 21:00,69.125.145.27,"Mozilla/5.0 (Windows NT 10.0; Win64; x64) AppleWebKit/537.36 (KHTML, like Gecko) Chrome/86.0.4240.111 Safari/537.36",WebKit,Chrome,86.0.4240.111,Windows,10
40,1,null,jspsych/allScrambledFaces/scrambledAM09NES.JPG,null,image-keyboard-response,212,8022,0.0-212.0,42,forwardMask,20,n,10/23/2020 21:00,69.125.145.27,"Mozilla/5.0 (Windows NT 10.0; Win64; x64) AppleWebKit/537.36 (KHTML, like Gecko) Chrome/86.0.4240.111 Safari/537.36",WebKit,Chrome,86.0.4240.111,Windows,10
40,1,null,jspsych/allFaces/AM09NES.JPG,null,image-keyboard-response,213,8046,0.0-213.0,42,Cue,"function(){
        return jsPsych.randomization.sampleWithoutReplacement(cueDuration, 1)[0]}","""",10/23/2020 21:00,69.125.145.27,"Mozilla/5.0 (Windows NT 10.0; Win64; x64) AppleWebKit/537.36 (KHTML, like Gecko) Chrome/86.0.4240.111 Safari/537.36",WebKit,Chrome,86.0.4240.111,Windows,10
40,1,null,jspsych/allFaces/BM32NES.JPG,null,image-keyboard-response,214,8076,0.0-214.0,42,backwardMask,20,"""",10/23/2020 21:00,69.125.145.27,"Mozilla/5.0 (Windows NT 10.0; Win64; x64) AppleWebKit/537.36 (KHTML, like Gecko) Chrome/86.0.4240.111 Safari/537.36",WebKit,Chrome,86.0.4240.111,Windows,10
40,1,null,"<div style=""font-size:60px;"">+</div>",null,html-keyboard-response,215,8088,0.0-215.0,42,fixationBtwnNeutralMaskAndPrompt,10,"""",10/23/2020 21:00,69.125.145.27,"Mozilla/5.0 (Windows NT 10.0; Win64; x64) AppleWebKit/537.36 (KHTML, like Gecko) Chrome/86.0.4240.111 Safari/537.36",WebKit,Chrome,86.0.4240.111,Windows,10
40,1,null,"<div style=""font-size:60px;"">+</div>",null,html-keyboard-response,216,8106,0.0-216.0,44,ITI,10,"""",10/23/2020 21:00,69.125.145.27,"Mozilla/5.0 (Windows NT 10.0; Win64; x64) AppleWebKit/537.36 (KHTML, like Gecko) Chrome/86.0.4240.111 Safari/537.36",WebKit,Chrome,86.0.4240.111,Windows,10
40,1,null,jspsych/allScrambledFaces/scrambledBM04NES.JPG,null,image-keyboard-response,217,8136,0.0-217.0,43,forwardMask,20,n,10/23/2020 21:00,69.125.145.27,"Mozilla/5.0 (Windows NT 10.0; Win64; x64) AppleWebKit/537.36 (KHTML, like Gecko) Chrome/86.0.4240.111 Safari/537.36",WebKit,Chrome,86.0.4240.111,Windows,10
40,1,null,jspsych/allFaces/BM04NES.JPG,null,image-keyboard-response,218,8166,0.0-218.0,43,Cue,"function(){
        return jsPsych.randomization.sampleWithoutReplacement(cueDuration, 1)[0]}","""",10/23/2020 21:00,69.125.145.27,"Mozilla/5.0 (Windows NT 10.0; Win64; x64) AppleWebKit/537.36 (KHTML, like Gecko) Chrome/86.0.4240.111 Safari/537.36",WebKit,Chrome,86.0.4240.111,Windows,10
40,1,null,jspsych/allFaces/AF07NES.JPG,null,image-keyboard-response,219,8194,0.0-219.0,43,backwardMask,20,"""",10/23/2020 21:00,69.125.145.27,"Mozilla/5.0 (Windows NT 10.0; Win64; x64) AppleWebKit/537.36 (KHTML, like Gecko) Chrome/86.0.4240.111 Safari/537.36",WebKit,Chrome,86.0.4240.111,Windows,10
40,1,null,"<div style=""font-size:60px;"">+</div>",null,html-keyboard-response,220,8206,0.0-220.0,43,fixationBtwnNeutralMaskAndPrompt,10,"""",10/23/2020 21:00,69.125.145.27,"Mozilla/5.0 (Windows NT 10.0; Win64; x64) AppleWebKit/537.36 (KHTML, like Gecko) Chrome/86.0.4240.111 Safari/537.36",WebKit,Chrome,86.0.4240.111,Windows,10
40,1,null,"<div style=""font-size:60px;"">+</div>",null,html-keyboard-response,221,8222,0.0-221.0,45,ITI,10,"""",10/23/2020 21:00,69.125.145.27,"Mozilla/5.0 (Windows NT 10.0; Win64; x64) AppleWebKit/537.36 (KHTML, like Gecko) Chrome/86.0.4240.111 Safari/537.36",WebKit,Chrome,86.0.4240.111,Windows,10
40,1,null,jspsych/allScrambledFaces/scrambledBF34NES.JPG,null,image-keyboard-response,222,8245,0.0-222.0,44,forwardMask,20,n,10/23/2020 21:00,69.125.145.27,"Mozilla/5.0 (Windows NT 10.0; Win64; x64) AppleWebKit/537.36 (KHTML, like Gecko) Chrome/86.0.4240.111 Safari/537.36",WebKit,Chrome,86.0.4240.111,Windows,10
40,1,null,jspsych/allFaces/BF34NES.JPG,null,image-keyboard-response,223,8275,0.0-223.0,44,Cue,"function(){
        return jsPsych.randomization.sampleWithoutReplacement(cueDuration, 1)[0]}","""",10/23/2020 21:00,69.125.145.27,"Mozilla/5.0 (Windows NT 10.0; Win64; x64) AppleWebKit/537.36 (KHTML, like Gecko) Chrome/86.0.4240.111 Safari/537.36",WebKit,Chrome,86.0.4240.111,Windows,10
40,1,null,jspsych/allFaces/BF31NES.JPG,null,image-keyboard-response,224,8316,0.0-224.0,44,backwardMask,20,"""",10/23/2020 21:00,69.125.145.27,"Mozilla/5.0 (Windows NT 10.0; Win64; x64) AppleWebKit/537.36 (KHTML, like Gecko) Chrome/86.0.4240.111 Safari/537.36",WebKit,Chrome,86.0.4240.111,Windows,10
40,1,null,"<div style=""font-size:60px;"">+</div>",null,html-keyboard-response,225,8332,0.0-225.0,44,fixationBtwnNeutralMaskAndPrompt,10,"""",10/23/2020 21:00,69.125.145.27,"Mozilla/5.0 (Windows NT 10.0; Win64; x64) AppleWebKit/537.36 (KHTML, like Gecko) Chrome/86.0.4240.111 Safari/537.36",WebKit,Chrome,86.0.4240.111,Windows,10
40,1,null,"<div style=""font-size:60px;"">+</div>",null,html-keyboard-response,226,8356,0.0-226.0,46,ITI,10,"""",10/23/2020 21:00,69.125.145.27,"Mozilla/5.0 (Windows NT 10.0; Win64; x64) AppleWebKit/537.36 (KHTML, like Gecko) Chrome/86.0.4240.111 Safari/537.36",WebKit,Chrome,86.0.4240.111,Windows,10
40,1,null,jspsych/allScrambledFaces/scrambledBM10DIS.JPG,null,image-keyboard-response,227,8386,0.0-227.0,45,forwardMask,20,d,10/23/2020 21:00,69.125.145.27,"Mozilla/5.0 (Windows NT 10.0; Win64; x64) AppleWebKit/537.36 (KHTML, like Gecko) Chrome/86.0.4240.111 Safari/537.36",WebKit,Chrome,86.0.4240.111,Windows,10
40,1,null,jspsych/allFaces/BM10DIS.JPG,null,image-keyboard-response,228,8409,0.0-228.0,45,Cue,"function(){
        return jsPsych.randomization.sampleWithoutReplacement(cueDuration, 1)[0]}","""",10/23/2020 21:00,69.125.145.27,"Mozilla/5.0 (Windows NT 10.0; Win64; x64) AppleWebKit/537.36 (KHTML, like Gecko) Chrome/86.0.4240.111 Safari/537.36",WebKit,Chrome,86.0.4240.111,Windows,10
40,1,null,jspsych/allFaces/BF06NES.JPG,null,image-keyboard-response,229,8436,0.0-229.0,45,backwardMask,20,"""",10/23/2020 21:00,69.125.145.27,"Mozilla/5.0 (Windows NT 10.0; Win64; x64) AppleWebKit/537.36 (KHTML, like Gecko) Chrome/86.0.4240.111 Safari/537.36",WebKit,Chrome,86.0.4240.111,Windows,10
40,1,null,"<div style=""font-size:60px;"">+</div>",null,html-keyboard-response,230,8450,0.0-230.0,45,fixationBtwnNeutralMaskAndPrompt,10,"""",10/23/2020 21:00,69.125.145.27,"Mozilla/5.0 (Windows NT 10.0; Win64; x64) AppleWebKit/537.36 (KHTML, like Gecko) Chrome/86.0.4240.111 Safari/537.36",WebKit,Chrome,86.0.4240.111,Windows,10
40,1,null,"<div style=""font-size:60px;"">+</div>",null,html-keyboard-response,231,8462,0.0-231.0,47,ITI,10,"""",10/23/2020 21:00,69.125.145.27,"Mozilla/5.0 (Windows NT 10.0; Win64; x64) AppleWebKit/537.36 (KHTML, like Gecko) Chrome/86.0.4240.111 Safari/537.36",WebKit,Chrome,86.0.4240.111,Windows,10
40,1,null,jspsych/allScrambledFaces/scrambledAF10NES.JPG,null,image-keyboard-response,232,8486,0.0-232.0,46,forwardMask,20,n,10/23/2020 21:00,69.125.145.27,"Mozilla/5.0 (Windows NT 10.0; Win64; x64) AppleWebKit/537.36 (KHTML, like Gecko) Chrome/86.0.4240.111 Safari/537.36",WebKit,Chrome,86.0.4240.111,Windows,10
40,1,null,jspsych/allFaces/AF10NES.JPG,null,image-keyboard-response,233,8508,0.0-233.0,46,Cue,"function(){
        return jsPsych.randomization.sampleWithoutReplacement(cueDuration, 1)[0]}","""",10/23/2020 21:00,69.125.145.27,"Mozilla/5.0 (Windows NT 10.0; Win64; x64) AppleWebKit/537.36 (KHTML, like Gecko) Chrome/86.0.4240.111 Safari/537.36",WebKit,Chrome,86.0.4240.111,Windows,10
40,1,null,jspsych/allFaces/AM26NES.JPG,null,image-keyboard-response,234,8536,0.0-234.0,46,backwardMask,20,"""",10/23/2020 21:00,69.125.145.27,"Mozilla/5.0 (Windows NT 10.0; Win64; x64) AppleWebKit/537.36 (KHTML, like Gecko) Chrome/86.0.4240.111 Safari/537.36",WebKit,Chrome,86.0.4240.111,Windows,10
40,1,null,"<div style=""font-size:60px;"">+</div>",null,html-keyboard-response,235,8556,0.0-235.0,46,fixationBtwnNeutralMaskAndPrompt,10,"""",10/23/2020 21:00,69.125.145.27,"Mozilla/5.0 (Windows NT 10.0; Win64; x64) AppleWebKit/537.36 (KHTML, like Gecko) Chrome/86.0.4240.111 Safari/537.36",WebKit,Chrome,86.0.4240.111,Windows,10
40,1,null,"<div style=""font-size:60px;"">+</div>",null,html-keyboard-response,236,8575,0.0-236.0,48,ITI,10,"""",10/23/2020 21:00,69.125.145.27,"Mozilla/5.0 (Windows NT 10.0; Win64; x64) AppleWebKit/537.36 (KHTML, like Gecko) Chrome/86.0.4240.111 Safari/537.36",WebKit,Chrome,86.0.4240.111,Windows,10
40,1,null,jspsych/allScrambledFaces/scrambledAM11NES.JPG,null,image-keyboard-response,237,8606,0.0-237.0,47,forwardMask,20,n,10/23/2020 21:00,69.125.145.27,"Mozilla/5.0 (Windows NT 10.0; Win64; x64) AppleWebKit/537.36 (KHTML, like Gecko) Chrome/86.0.4240.111 Safari/537.36",WebKit,Chrome,86.0.4240.111,Windows,10
40,1,null,jspsych/allFaces/AM11NES.JPG,null,image-keyboard-response,238,8636,0.0-238.0,47,Cue,"function(){
        return jsPsych.randomization.sampleWithoutReplacement(cueDuration, 1)[0]}","""",10/23/2020 21:00,69.125.145.27,"Mozilla/5.0 (Windows NT 10.0; Win64; x64) AppleWebKit/537.36 (KHTML, like Gecko) Chrome/86.0.4240.111 Safari/537.36",WebKit,Chrome,86.0.4240.111,Windows,10
40,1,null,jspsych/allFaces/BM05NES.JPG,null,image-keyboard-response,239,8671,0.0-239.0,47,backwardMask,20,"""",10/23/2020 21:00,69.125.145.27,"Mozilla/5.0 (Windows NT 10.0; Win64; x64) AppleWebKit/537.36 (KHTML, like Gecko) Chrome/86.0.4240.111 Safari/537.36",WebKit,Chrome,86.0.4240.111,Windows,10
40,1,null,"<div style=""font-size:60px;"">+</div>",null,html-keyboard-response,240,8702,0.0-240.0,47,fixationBtwnNeutralMaskAndPrompt,10,"""",10/23/2020 21:00,69.125.145.27,"Mozilla/5.0 (Windows NT 10.0; Win64; x64) AppleWebKit/537.36 (KHTML, like Gecko) Chrome/86.0.4240.111 Safari/537.36",WebKit,Chrome,86.0.4240.111,Windows,10
40,1,null,"<div style=""font-size:60px;"">+</div>",null,html-keyboard-response,241,8715,0.0-241.0,49,ITI,10,"""",10/23/2020 21:00,69.125.145.27,"Mozilla/5.0 (Windows NT 10.0; Win64; x64) AppleWebKit/537.36 (KHTML, like Gecko) Chrome/86.0.4240.111 Safari/537.36",WebKit,Chrome,86.0.4240.111,Windows,10
40,1,null,jspsych/allScrambledFaces/scrambledAM22NES.JPG,null,image-keyboard-response,242,8741,0.0-242.0,48,forwardMask,20,n,10/23/2020 21:00,69.125.145.27,"Mozilla/5.0 (Windows NT 10.0; Win64; x64) AppleWebKit/537.36 (KHTML, like Gecko) Chrome/86.0.4240.111 Safari/537.36",WebKit,Chrome,86.0.4240.111,Windows,10
40,1,null,jspsych/allFaces/AM22NES.JPG,null,image-keyboard-response,243,8765,0.0-243.0,48,Cue,"function(){
        return jsPsych.randomization.sampleWithoutReplacement(cueDuration, 1)[0]}","""",10/23/2020 21:00,69.125.145.27,"Mozilla/5.0 (Windows NT 10.0; Win64; x64) AppleWebKit/537.36 (KHTML, like Gecko) Chrome/86.0.4240.111 Safari/537.36",WebKit,Chrome,86.0.4240.111,Windows,10
40,1,null,jspsych/allFaces/AF25NES.JPG,null,image-keyboard-response,244,8791,0.0-244.0,48,backwardMask,20,"""",10/23/2020 21:00,69.125.145.27,"Mozilla/5.0 (Windows NT 10.0; Win64; x64) AppleWebKit/537.36 (KHTML, like Gecko) Chrome/86.0.4240.111 Safari/537.36",WebKit,Chrome,86.0.4240.111,Windows,10
40,1,null,"<div style=""font-size:60px;"">+</div>",null,html-keyboard-response,245,8805,0.0-245.0,48,fixationBtwnNeutralMaskAndPrompt,10,"""",10/23/2020 21:00,69.125.145.27,"Mozilla/5.0 (Windows NT 10.0; Win64; x64) AppleWebKit/537.36 (KHTML, like Gecko) Chrome/86.0.4240.111 Safari/537.36",WebKit,Chrome,86.0.4240.111,Windows,10
40,1,null,"<div style=""font-size:60px;"">+</div>",null,html-keyboard-response,246,8822,0.0-246.0,50,ITI,10,"""",10/23/2020 21:00,69.125.145.27,"Mozilla/5.0 (Windows NT 10.0; Win64; x64) AppleWebKit/537.36 (KHTML, like Gecko) Chrome/86.0.4240.111 Safari/537.36",WebKit,Chrome,86.0.4240.111,Windows,10
40,1,null,jspsych/allScrambledFaces/scrambledBF32NES.JPG,null,image-keyboard-response,247,8853,0.0-247.0,49,forwardMask,20,n,10/23/2020 21:00,69.125.145.27,"Mozilla/5.0 (Windows NT 10.0; Win64; x64) AppleWebKit/537.36 (KHTML, like Gecko) Chrome/86.0.4240.111 Safari/537.36",WebKit,Chrome,86.0.4240.111,Windows,10
40,1,null,jspsych/allFaces/BF32NES.JPG,null,image-keyboard-response,248,8883,0.0-248.0,49,Cue,"function(){
        return jsPsych.randomization.sampleWithoutReplacement(cueDuration, 1)[0]}","""",10/23/2020 21:00,69.125.145.27,"Mozilla/5.0 (Windows NT 10.0; Win64; x64) AppleWebKit/537.36 (KHTML, like Gecko) Chrome/86.0.4240.111 Safari/537.36",WebKit,Chrome,86.0.4240.111,Windows,10
40,1,null,jspsych/allFaces/AM28NES.JPG,null,image-keyboard-response,249,8916,0.0-249.0,49,backwardMask,20,"""",10/23/2020 21:00,69.125.145.27,"Mozilla/5.0 (Windows NT 10.0; Win64; x64) AppleWebKit/537.36 (KHTML, like Gecko) Chrome/86.0.4240.111 Safari/537.36",WebKit,Chrome,86.0.4240.111,Windows,10
40,1,null,"<div style=""font-size:60px;"">+</div>",null,html-keyboard-response,250,8935,0.0-250.0,49,fixationBtwnNeutralMaskAndPrompt,10,"""",10/23/2020 21:00,69.125.145.27,"Mozilla/5.0 (Windows NT 10.0; Win64; x64) AppleWebKit/537.36 (KHTML, like Gecko) Chrome/86.0.4240.111 Safari/537.36",WebKit,Chrome,86.0.4240.111,Windows,10
40,1,null,"<div style=""font-size:60px;"">+</div>",null,html-keyboard-response,251,8955,0.0-251.0,51,ITI,10,"""",10/23/2020 21:00,69.125.145.27,"Mozilla/5.0 (Windows NT 10.0; Win64; x64) AppleWebKit/537.36 (KHTML, like Gecko) Chrome/86.0.4240.111 Safari/537.36",WebKit,Chrome,86.0.4240.111,Windows,10
40,1,null,jspsych/allScrambledFaces/scrambledBM35DIS.JPG,null,image-keyboard-response,252,8986,0.0-252.0,50,forwardMask,20,d,10/23/2020 21:00,69.125.145.27,"Mozilla/5.0 (Windows NT 10.0; Win64; x64) AppleWebKit/537.36 (KHTML, like Gecko) Chrome/86.0.4240.111 Safari/537.36",WebKit,Chrome,86.0.4240.111,Windows,10
40,1,null,jspsych/allFaces/BM35DIS.JPG,null,image-keyboard-response,253,9016,0.0-253.0,50,Cue,"function(){
        return jsPsych.randomization.sampleWithoutReplacement(cueDuration, 1)[0]}","""",10/23/2020 21:00,69.125.145.27,"Mozilla/5.0 (Windows NT 10.0; Win64; x64) AppleWebKit/537.36 (KHTML, like Gecko) Chrome/86.0.4240.111 Safari/537.36",WebKit,Chrome,86.0.4240.111,Windows,10
40,1,null,jspsych/allFaces/BF25NES.JPG,null,image-keyboard-response,254,9060,0.0-254.0,50,backwardMask,20,"""",10/23/2020 21:00,69.125.145.27,"Mozilla/5.0 (Windows NT 10.0; Win64; x64) AppleWebKit/537.36 (KHTML, like Gecko) Chrome/86.0.4240.111 Safari/537.36",WebKit,Chrome,86.0.4240.111,Windows,10
40,1,null,"<div style=""font-size:60px;"">+</div>",null,html-keyboard-response,255,9075,0.0-255.0,50,fixationBtwnNeutralMaskAndPrompt,10,"""",10/23/2020 21:00,69.125.145.27,"Mozilla/5.0 (Windows NT 10.0; Win64; x64) AppleWebKit/537.36 (KHTML, like Gecko) Chrome/86.0.4240.111 Safari/537.36",WebKit,Chrome,86.0.4240.111,Windows,10
40,1,null,"<div style=""font-size:60px;"">+</div>",null,html-keyboard-response,256,9092,0.0-256.0,52,ITI,10,"""",10/23/2020 21:00,69.125.145.27,"Mozilla/5.0 (Windows NT 10.0; Win64; x64) AppleWebKit/537.36 (KHTML, like Gecko) Chrome/86.0.4240.111 Safari/537.36",WebKit,Chrome,86.0.4240.111,Windows,10
40,1,null,jspsych/allScrambledFaces/scrambledAM26NES.JPG,null,image-keyboard-response,257,9120,0.0-257.0,51,forwardMask,20,n,10/23/2020 21:00,69.125.145.27,"Mozilla/5.0 (Windows NT 10.0; Win64; x64) AppleWebKit/537.36 (KHTML, like Gecko) Chrome/86.0.4240.111 Safari/537.36",WebKit,Chrome,86.0.4240.111,Windows,10
40,1,null,jspsych/allFaces/AM26NES.JPG,null,image-keyboard-response,258,9146,0.0-258.0,51,Cue,"function(){
        return jsPsych.randomization.sampleWithoutReplacement(cueDuration, 1)[0]}","""",10/23/2020 21:00,69.125.145.27,"Mozilla/5.0 (Windows NT 10.0; Win64; x64) AppleWebKit/537.36 (KHTML, like Gecko) Chrome/86.0.4240.111 Safari/537.36",WebKit,Chrome,86.0.4240.111,Windows,10
40,1,null,jspsych/allFaces/BF24NES.JPG,null,image-keyboard-response,259,9175,0.0-259.0,51,backwardMask,20,"""",10/23/2020 21:00,69.125.145.27,"Mozilla/5.0 (Windows NT 10.0; Win64; x64) AppleWebKit/537.36 (KHTML, like Gecko) Chrome/86.0.4240.111 Safari/537.36",WebKit,Chrome,86.0.4240.111,Windows,10
40,1,null,"<div style=""font-size:60px;"">+</div>",null,html-keyboard-response,260,9190,0.0-260.0,51,fixationBtwnNeutralMaskAndPrompt,10,"""",10/23/2020 21:00,69.125.145.27,"Mozilla/5.0 (Windows NT 10.0; Win64; x64) AppleWebKit/537.36 (KHTML, like Gecko) Chrome/86.0.4240.111 Safari/537.36",WebKit,Chrome,86.0.4240.111,Windows,10
40,1,null,"<div style=""font-size:60px;"">+</div>",null,html-keyboard-response,261,9205,0.0-261.0,53,ITI,10,"""",10/23/2020 21:00,69.125.145.27,"Mozilla/5.0 (Windows NT 10.0; Win64; x64) AppleWebKit/537.36 (KHTML, like Gecko) Chrome/86.0.4240.111 Safari/537.36",WebKit,Chrome,86.0.4240.111,Windows,10
40,1,null,jspsych/allScrambledFaces/scrambledAF20DIS.JPG,null,image-keyboard-response,262,9229,0.0-262.0,52,forwardMask,20,d,10/23/2020 21:00,69.125.145.27,"Mozilla/5.0 (Windows NT 10.0; Win64; x64) AppleWebKit/537.36 (KHTML, like Gecko) Chrome/86.0.4240.111 Safari/537.36",WebKit,Chrome,86.0.4240.111,Windows,10
40,1,null,jspsych/allFaces/AF20DIS.JPG,null,image-keyboard-response,263,9256,0.0-263.0,52,Cue,"function(){
        return jsPsych.randomization.sampleWithoutReplacement(cueDuration, 1)[0]}","""",10/23/2020 21:00,69.125.145.27,"Mozilla/5.0 (Windows NT 10.0; Win64; x64) AppleWebKit/537.36 (KHTML, like Gecko) Chrome/86.0.4240.111 Safari/537.36",WebKit,Chrome,86.0.4240.111,Windows,10
40,1,null,jspsych/allFaces/AM14NES.JPG,null,image-keyboard-response,264,9286,0.0-264.0,52,backwardMask,20,"""",10/23/2020 21:00,69.125.145.27,"Mozilla/5.0 (Windows NT 10.0; Win64; x64) AppleWebKit/537.36 (KHTML, like Gecko) Chrome/86.0.4240.111 Safari/537.36",WebKit,Chrome,86.0.4240.111,Windows,10
40,1,null,"<div style=""font-size:60px;"">+</div>",null,html-keyboard-response,265,9305,0.0-265.0,52,fixationBtwnNeutralMaskAndPrompt,10,"""",10/23/2020 21:00,69.125.145.27,"Mozilla/5.0 (Windows NT 10.0; Win64; x64) AppleWebKit/537.36 (KHTML, like Gecko) Chrome/86.0.4240.111 Safari/537.36",WebKit,Chrome,86.0.4240.111,Windows,10
40,1,null,"<div style=""font-size:60px;"">+</div>",null,html-keyboard-response,266,9324,0.0-266.0,54,ITI,10,"""",10/23/2020 21:00,69.125.145.27,"Mozilla/5.0 (Windows NT 10.0; Win64; x64) AppleWebKit/537.36 (KHTML, like Gecko) Chrome/86.0.4240.111 Safari/537.36",WebKit,Chrome,86.0.4240.111,Windows,10
40,1,null,jspsych/allScrambledFaces/scrambledAF29DIS.JPG,null,image-keyboard-response,267,9346,0.0-267.0,53,forwardMask,20,d,10/23/2020 21:00,69.125.145.27,"Mozilla/5.0 (Windows NT 10.0; Win64; x64) AppleWebKit/537.36 (KHTML, like Gecko) Chrome/86.0.4240.111 Safari/537.36",WebKit,Chrome,86.0.4240.111,Windows,10
40,1,null,jspsych/allFaces/AF29DIS.JPG,null,image-keyboard-response,268,9374,0.0-268.0,53,Cue,"function(){
        return jsPsych.randomization.sampleWithoutReplacement(cueDuration, 1)[0]}","""",10/23/2020 21:00,69.125.145.27,"Mozilla/5.0 (Windows NT 10.0; Win64; x64) AppleWebKit/537.36 (KHTML, like Gecko) Chrome/86.0.4240.111 Safari/537.36",WebKit,Chrome,86.0.4240.111,Windows,10
40,1,null,jspsych/allFaces/BM22NES.JPG,null,image-keyboard-response,269,9421,0.0-269.0,53,backwardMask,20,"""",10/23/2020 21:00,69.125.145.27,"Mozilla/5.0 (Windows NT 10.0; Win64; x64) AppleWebKit/537.36 (KHTML, like Gecko) Chrome/86.0.4240.111 Safari/537.36",WebKit,Chrome,86.0.4240.111,Windows,10
40,1,null,"<div style=""font-size:60px;"">+</div>",null,html-keyboard-response,270,9437,0.0-270.0,53,fixationBtwnNeutralMaskAndPrompt,10,"""",10/23/2020 21:00,69.125.145.27,"Mozilla/5.0 (Windows NT 10.0; Win64; x64) AppleWebKit/537.36 (KHTML, like Gecko) Chrome/86.0.4240.111 Safari/537.36",WebKit,Chrome,86.0.4240.111,Windows,10
40,1,null,"<div style=""font-size:60px;"">+</div>",null,html-keyboard-response,271,9455,0.0-271.0,55,ITI,10,"""",10/23/2020 21:00,69.125.145.27,"Mozilla/5.0 (Windows NT 10.0; Win64; x64) AppleWebKit/537.36 (KHTML, like Gecko) Chrome/86.0.4240.111 Safari/537.36",WebKit,Chrome,86.0.4240.111,Windows,10
40,1,null,jspsych/allScrambledFaces/scrambledBF11NES.JPG,null,image-keyboard-response,272,9486,0.0-272.0,54,forwardMask,20,n,10/23/2020 21:00,69.125.145.27,"Mozilla/5.0 (Windows NT 10.0; Win64; x64) AppleWebKit/537.36 (KHTML, like Gecko) Chrome/86.0.4240.111 Safari/537.36",WebKit,Chrome,86.0.4240.111,Windows,10
40,1,null,jspsych/allFaces/BF11NES.JPG,null,image-keyboard-response,273,9516,0.0-273.0,54,Cue,"function(){
        return jsPsych.randomization.sampleWithoutReplacement(cueDuration, 1)[0]}","""",10/23/2020 21:00,69.125.145.27,"Mozilla/5.0 (Windows NT 10.0; Win64; x64) AppleWebKit/537.36 (KHTML, like Gecko) Chrome/86.0.4240.111 Safari/537.36",WebKit,Chrome,86.0.4240.111,Windows,10
40,1,null,jspsych/allFaces/BF19NES.JPG,null,image-keyboard-response,274,9540,0.0-274.0,54,backwardMask,20,"""",10/23/2020 21:00,69.125.145.27,"Mozilla/5.0 (Windows NT 10.0; Win64; x64) AppleWebKit/537.36 (KHTML, like Gecko) Chrome/86.0.4240.111 Safari/537.36",WebKit,Chrome,86.0.4240.111,Windows,10
40,1,null,"<div style=""font-size:60px;"">+</div>",null,html-keyboard-response,275,9573,0.0-275.0,54,fixationBtwnNeutralMaskAndPrompt,10,"""",10/23/2020 21:00,69.125.145.27,"Mozilla/5.0 (Windows NT 10.0; Win64; x64) AppleWebKit/537.36 (KHTML, like Gecko) Chrome/86.0.4240.111 Safari/537.36",WebKit,Chrome,86.0.4240.111,Windows,10
40,1,null,"<div style=""font-size:60px;"">+</div>",null,html-keyboard-response,276,9587,0.0-276.0,56,ITI,10,"""",10/23/2020 21:00,69.125.145.27,"Mozilla/5.0 (Windows NT 10.0; Win64; x64) AppleWebKit/537.36 (KHTML, like Gecko) Chrome/86.0.4240.111 Safari/537.36",WebKit,Chrome,86.0.4240.111,Windows,10
40,1,null,jspsych/allScrambledFaces/scrambledAM35DIS.JPG,null,image-keyboard-response,277,9616,0.0-277.0,55,forwardMask,20,d,10/23/2020 21:00,69.125.145.27,"Mozilla/5.0 (Windows NT 10.0; Win64; x64) AppleWebKit/537.36 (KHTML, like Gecko) Chrome/86.0.4240.111 Safari/537.36",WebKit,Chrome,86.0.4240.111,Windows,10
40,1,null,jspsych/allFaces/AM35DIS.JPG,null,image-keyboard-response,278,9640,0.0-278.0,55,Cue,"function(){
        return jsPsych.randomization.sampleWithoutReplacement(cueDuration, 1)[0]}","""",10/23/2020 21:00,69.125.145.27,"Mozilla/5.0 (Windows NT 10.0; Win64; x64) AppleWebKit/537.36 (KHTML, like Gecko) Chrome/86.0.4240.111 Safari/537.36",WebKit,Chrome,86.0.4240.111,Windows,10
40,1,null,jspsych/allFaces/BM04NES.JPG,null,image-keyboard-response,279,9664,0.0-279.0,55,backwardMask,20,"""",10/23/2020 21:00,69.125.145.27,"Mozilla/5.0 (Windows NT 10.0; Win64; x64) AppleWebKit/537.36 (KHTML, like Gecko) Chrome/86.0.4240.111 Safari/537.36",WebKit,Chrome,86.0.4240.111,Windows,10
40,1,null,"<div style=""font-size:60px;"">+</div>",null,html-keyboard-response,280,9685,0.0-280.0,55,fixationBtwnNeutralMaskAndPrompt,10,"""",10/23/2020 21:00,69.125.145.27,"Mozilla/5.0 (Windows NT 10.0; Win64; x64) AppleWebKit/537.36 (KHTML, like Gecko) Chrome/86.0.4240.111 Safari/537.36",WebKit,Chrome,86.0.4240.111,Windows,10
40,1,null,"<div style=""font-size:60px;"">+</div>",null,html-keyboard-response,281,9705,0.0-281.0,57,ITI,10,"""",10/23/2020 21:00,69.125.145.27,"Mozilla/5.0 (Windows NT 10.0; Win64; x64) AppleWebKit/537.36 (KHTML, like Gecko) Chrome/86.0.4240.111 Safari/537.36",WebKit,Chrome,86.0.4240.111,Windows,10
40,1,null,jspsych/allScrambledFaces/scrambledAM28NES.JPG,null,image-keyboard-response,282,9736,0.0-282.0,56,forwardMask,20,n,10/23/2020 21:00,69.125.145.27,"Mozilla/5.0 (Windows NT 10.0; Win64; x64) AppleWebKit/537.36 (KHTML, like Gecko) Chrome/86.0.4240.111 Safari/537.36",WebKit,Chrome,86.0.4240.111,Windows,10
40,1,null,jspsych/allFaces/AM28NES.JPG,null,image-keyboard-response,283,9765,0.0-283.0,56,Cue,"function(){
        return jsPsych.randomization.sampleWithoutReplacement(cueDuration, 1)[0]}","""",10/23/2020 21:00,69.125.145.27,"Mozilla/5.0 (Windows NT 10.0; Win64; x64) AppleWebKit/537.36 (KHTML, like Gecko) Chrome/86.0.4240.111 Safari/537.36",WebKit,Chrome,86.0.4240.111,Windows,10
40,1,null,jspsych/allFaces/BF12NES.JPG,null,image-keyboard-response,284,9796,0.0-284.0,56,backwardMask,20,"""",10/23/2020 21:00,69.125.145.27,"Mozilla/5.0 (Windows NT 10.0; Win64; x64) AppleWebKit/537.36 (KHTML, like Gecko) Chrome/86.0.4240.111 Safari/537.36",WebKit,Chrome,86.0.4240.111,Windows,10
40,1,null,"<div style=""font-size:60px;"">+</div>",null,html-keyboard-response,285,9815,0.0-285.0,56,fixationBtwnNeutralMaskAndPrompt,10,"""",10/23/2020 21:00,69.125.145.27,"Mozilla/5.0 (Windows NT 10.0; Win64; x64) AppleWebKit/537.36 (KHTML, like Gecko) Chrome/86.0.4240.111 Safari/537.36",WebKit,Chrome,86.0.4240.111,Windows,10
40,1,null,"<div style=""font-size:60px;"">+</div>",null,html-keyboard-response,286,9835,0.0-286.0,58,ITI,10,"""",10/23/2020 21:00,69.125.145.27,"Mozilla/5.0 (Windows NT 10.0; Win64; x64) AppleWebKit/537.36 (KHTML, like Gecko) Chrome/86.0.4240.111 Safari/537.36",WebKit,Chrome,86.0.4240.111,Windows,10
40,1,null,jspsych/allScrambledFaces/scrambledAM27NES.JPG,null,image-keyboard-response,287,9866,0.0-287.0,57,forwardMask,20,n,10/23/2020 21:00,69.125.145.27,"Mozilla/5.0 (Windows NT 10.0; Win64; x64) AppleWebKit/537.36 (KHTML, like Gecko) Chrome/86.0.4240.111 Safari/537.36",WebKit,Chrome,86.0.4240.111,Windows,10
40,1,null,jspsych/allFaces/AM27NES.JPG,null,image-keyboard-response,288,9896,0.0-288.0,57,Cue,"function(){
        return jsPsych.randomization.sampleWithoutReplacement(cueDuration, 1)[0]}","""",10/23/2020 21:00,69.125.145.27,"Mozilla/5.0 (Windows NT 10.0; Win64; x64) AppleWebKit/537.36 (KHTML, like Gecko) Chrome/86.0.4240.111 Safari/537.36",WebKit,Chrome,86.0.4240.111,Windows,10
40,1,null,jspsych/allFaces/BM27NES.JPG,null,image-keyboard-response,289,9923,0.0-289.0,57,backwardMask,20,"""",10/23/2020 21:00,69.125.145.27,"Mozilla/5.0 (Windows NT 10.0; Win64; x64) AppleWebKit/537.36 (KHTML, like Gecko) Chrome/86.0.4240.111 Safari/537.36",WebKit,Chrome,86.0.4240.111,Windows,10
40,1,null,"<div style=""font-size:60px;"">+</div>",null,html-keyboard-response,290,9936,0.0-290.0,57,fixationBtwnNeutralMaskAndPrompt,10,"""",10/23/2020 21:00,69.125.145.27,"Mozilla/5.0 (Windows NT 10.0; Win64; x64) AppleWebKit/537.36 (KHTML, like Gecko) Chrome/86.0.4240.111 Safari/537.36",WebKit,Chrome,86.0.4240.111,Windows,10
40,1,null,"<div style=""font-size:60px;"">+</div>",null,html-keyboard-response,291,9956,0.0-291.0,59,ITI,10,"""",10/23/2020 21:00,69.125.145.27,"Mozilla/5.0 (Windows NT 10.0; Win64; x64) AppleWebKit/537.36 (KHTML, like Gecko) Chrome/86.0.4240.111 Safari/537.36",WebKit,Chrome,86.0.4240.111,Windows,10
40,1,null,jspsych/allScrambledFaces/scrambledAF07NES.JPG,null,image-keyboard-response,292,9982,0.0-292.0,58,forwardMask,20,n,10/23/2020 21:00,69.125.145.27,"Mozilla/5.0 (Windows NT 10.0; Win64; x64) AppleWebKit/537.36 (KHTML, like Gecko) Chrome/86.0.4240.111 Safari/537.36",WebKit,Chrome,86.0.4240.111,Windows,10
40,1,null,jspsych/allFaces/AF07NES.JPG,null,image-keyboard-response,293,10006,0.0-293.0,58,Cue,"function(){
        return jsPsych.randomization.sampleWithoutReplacement(cueDuration, 1)[0]}","""",10/23/2020 21:00,69.125.145.27,"Mozilla/5.0 (Windows NT 10.0; Win64; x64) AppleWebKit/537.36 (KHTML, like Gecko) Chrome/86.0.4240.111 Safari/537.36",WebKit,Chrome,86.0.4240.111,Windows,10
40,1,null,jspsych/allFaces/AF28NES.JPG,null,image-keyboard-response,294,10036,0.0-294.0,58,backwardMask,20,"""",10/23/2020 21:00,69.125.145.27,"Mozilla/5.0 (Windows NT 10.0; Win64; x64) AppleWebKit/537.36 (KHTML, like Gecko) Chrome/86.0.4240.111 Safari/537.36",WebKit,Chrome,86.0.4240.111,Windows,10
40,1,null,"<div style=""font-size:60px;"">+</div>",null,html-keyboard-response,295,10056,0.0-295.0,58,fixationBtwnNeutralMaskAndPrompt,10,"""",10/23/2020 21:00,69.125.145.27,"Mozilla/5.0 (Windows NT 10.0; Win64; x64) AppleWebKit/537.36 (KHTML, like Gecko) Chrome/86.0.4240.111 Safari/537.36",WebKit,Chrome,86.0.4240.111,Windows,10
40,1,null,"<div style=""font-size:60px;"">+</div>",null,html-keyboard-response,296,10073,0.0-296.0,60,ITI,10,"""",10/23/2020 21:00,69.125.145.27,"Mozilla/5.0 (Windows NT 10.0; Win64; x64) AppleWebKit/537.36 (KHTML, like Gecko) Chrome/86.0.4240.111 Safari/537.36",WebKit,Chrome,86.0.4240.111,Windows,10
40,1,null,jspsych/allScrambledFaces/scrambledAM03DIS.JPG,null,image-keyboard-response,297,10100,0.0-297.0,59,forwardMask,20,d,10/23/2020 21:00,69.125.145.27,"Mozilla/5.0 (Windows NT 10.0; Win64; x64) AppleWebKit/537.36 (KHTML, like Gecko) Chrome/86.0.4240.111 Safari/537.36",WebKit,Chrome,86.0.4240.111,Windows,10
40,1,null,jspsych/allFaces/AM03DIS.JPG,null,image-keyboard-response,298,10125,0.0-298.0,59,Cue,"function(){
        return jsPsych.randomization.sampleWithoutReplacement(cueDuration, 1)[0]}","""",10/23/2020 21:00,69.125.145.27,"Mozilla/5.0 (Windows NT 10.0; Win64; x64) AppleWebKit/537.36 (KHTML, like Gecko) Chrome/86.0.4240.111 Safari/537.36",WebKit,Chrome,86.0.4240.111,Windows,10
40,1,null,jspsych/allFaces/BF04NES.JPG,null,image-keyboard-response,299,10157,0.0-299.0,59,backwardMask,20,"""",10/23/2020 21:00,69.125.145.27,"Mozilla/5.0 (Windows NT 10.0; Win64; x64) AppleWebKit/537.36 (KHTML, like Gecko) Chrome/86.0.4240.111 Safari/537.36",WebKit,Chrome,86.0.4240.111,Windows,10
40,1,null,"<div style=""font-size:60px;"">+</div>",null,html-keyboard-response,300,10173,0.0-300.0,59,fixationBtwnNeutralMaskAndPrompt,10,"""",10/23/2020 21:00,69.125.145.27,"Mozilla/5.0 (Windows NT 10.0; Win64; x64) AppleWebKit/537.36 (KHTML, like Gecko) Chrome/86.0.4240.111 Safari/537.36",WebKit,Chrome,86.0.4240.111,Windows,10
40,1,null,"<div style=""font-size:60px;"">+</div>",null,html-keyboard-response,301,10186,0.0-301.0,61,ITI,10,"""",10/23/2020 21:00,69.125.145.27,"Mozilla/5.0 (Windows NT 10.0; Win64; x64) AppleWebKit/537.36 (KHTML, like Gecko) Chrome/86.0.4240.111 Safari/537.36",WebKit,Chrome,86.0.4240.111,Windows,10
40,1,null,jspsych/allScrambledFaces/scrambledBF09NES.JPG,null,image-keyboard-response,302,10216,0.0-302.0,60,forwardMask,20,n,10/23/2020 21:00,69.125.145.27,"Mozilla/5.0 (Windows NT 10.0; Win64; x64) AppleWebKit/537.36 (KHTML, like Gecko) Chrome/86.0.4240.111 Safari/537.36",WebKit,Chrome,86.0.4240.111,Windows,10
40,1,null,jspsych/allFaces/BF09NES.JPG,null,image-keyboard-response,303,10246,0.0-303.0,60,Cue,"function(){
        return jsPsych.randomization.sampleWithoutReplacement(cueDuration, 1)[0]}","""",10/23/2020 21:00,69.125.145.27,"Mozilla/5.0 (Windows NT 10.0; Win64; x64) AppleWebKit/537.36 (KHTML, like Gecko) Chrome/86.0.4240.111 Safari/537.36",WebKit,Chrome,86.0.4240.111,Windows,10
40,1,null,jspsych/allFaces/AF02NES.JPG,null,image-keyboard-response,304,10273,0.0-304.0,60,backwardMask,20,"""",10/23/2020 21:00,69.125.145.27,"Mozilla/5.0 (Windows NT 10.0; Win64; x64) AppleWebKit/537.36 (KHTML, like Gecko) Chrome/86.0.4240.111 Safari/537.36",WebKit,Chrome,86.0.4240.111,Windows,10
40,1,null,"<div style=""font-size:60px;"">+</div>",null,html-keyboard-response,305,10286,0.0-305.0,60,fixationBtwnNeutralMaskAndPrompt,10,"""",10/23/2020 21:00,69.125.145.27,"Mozilla/5.0 (Windows NT 10.0; Win64; x64) AppleWebKit/537.36 (KHTML, like Gecko) Chrome/86.0.4240.111 Safari/537.36",WebKit,Chrome,86.0.4240.111,Windows,10
40,1,null,"<div style=""font-size:60px;"">+</div>",null,html-keyboard-response,306,10307,0.0-306.0,62,ITI,10,"""",10/23/2020 21:00,69.125.145.27,"Mozilla/5.0 (Windows NT 10.0; Win64; x64) AppleWebKit/537.36 (KHTML, like Gecko) Chrome/86.0.4240.111 Safari/537.36",WebKit,Chrome,86.0.4240.111,Windows,10
