run_id,condition,rt,stimulus,key_press,trial_type,trial_index,time_elapsed,internal_node_id,iTrial,Phase,StimulusDurationSetting,correctResponse,recorded_at,ip,user_agent,device,browser,browser_version,platform,platform_version
42,1,1159.06,Press Key to Begin Experiment,68,html-keyboard-response,0,1164,0.0-0.0,1,welcomeScreen,"""","""",10/23/2020 21:25,69.125.145.27,"Mozilla/5.0 (Windows NT 10.0; Win64; x64) AppleWebKit/537.36 (KHTML, like Gecko) Chrome/86.0.4240.111 Safari/537.36",WebKit,Chrome,86.0.4240.111,Windows,10
42,1,null,"<div style=""font-size:60px;"">+</div>",null,html-keyboard-response,1,1333,0.0-1.0,1,ITI,50,"""",10/23/2020 21:25,69.125.145.27,"Mozilla/5.0 (Windows NT 10.0; Win64; x64) AppleWebKit/537.36 (KHTML, like Gecko) Chrome/86.0.4240.111 Safari/537.36",WebKit,Chrome,86.0.4240.111,Windows,10
42,1,null,jspsych/allScrambledFaces/scrambledBM06DIS.JPG,null,image-keyboard-response,2,1539,0.0-2.0,1,forwardMask,50,d,10/23/2020 21:25,69.125.145.27,"Mozilla/5.0 (Windows NT 10.0; Win64; x64) AppleWebKit/537.36 (KHTML, like Gecko) Chrome/86.0.4240.111 Safari/537.36",WebKit,Chrome,86.0.4240.111,Windows,10
42,1,null,jspsych/allFaces/BM06DIS.JPG,null,image-keyboard-response,3,1700,0.0-3.0,1,Cue,"function(){
        return jsPsych.randomization.sampleWithoutReplacement(cueDuration, 1)[0]}","""",10/23/2020 21:25,69.125.145.27,"Mozilla/5.0 (Windows NT 10.0; Win64; x64) AppleWebKit/537.36 (KHTML, like Gecko) Chrome/86.0.4240.111 Safari/537.36",WebKit,Chrome,86.0.4240.111,Windows,10
42,1,null,jspsych/allFaces/BM27NES.JPG,null,image-keyboard-response,4,1759,0.0-4.0,1,backwardMask,50,"""",10/23/2020 21:25,69.125.145.27,"Mozilla/5.0 (Windows NT 10.0; Win64; x64) AppleWebKit/537.36 (KHTML, like Gecko) Chrome/86.0.4240.111 Safari/537.36",WebKit,Chrome,86.0.4240.111,Windows,10
42,1,null,"<div style=""font-size:60px;"">+</div>",null,html-keyboard-response,5,1817,0.0-5.0,1,fixationBtwnNeutralMaskAndPrompt,50,"""",10/23/2020 21:25,69.125.145.27,"Mozilla/5.0 (Windows NT 10.0; Win64; x64) AppleWebKit/537.36 (KHTML, like Gecko) Chrome/86.0.4240.111 Safari/537.36",WebKit,Chrome,86.0.4240.111,Windows,10
42,1,null,"<div style=""font-size:60px;"">+</div>",null,html-keyboard-response,6,1878,0.0-6.0,2,ITI,50,"""",10/23/2020 21:25,69.125.145.27,"Mozilla/5.0 (Windows NT 10.0; Win64; x64) AppleWebKit/537.36 (KHTML, like Gecko) Chrome/86.0.4240.111 Safari/537.36",WebKit,Chrome,86.0.4240.111,Windows,10
42,1,null,jspsych/allScrambledFaces/scrambledAM25NES.JPG,null,image-keyboard-response,7,1943,0.0-7.0,2,forwardMask,50,n,10/23/2020 21:25,69.125.145.27,"Mozilla/5.0 (Windows NT 10.0; Win64; x64) AppleWebKit/537.36 (KHTML, like Gecko) Chrome/86.0.4240.111 Safari/537.36",WebKit,Chrome,86.0.4240.111,Windows,10
42,1,null,jspsych/allFaces/AM25NES.JPG,null,image-keyboard-response,8,2008,0.0-8.0,2,Cue,"function(){
        return jsPsych.randomization.sampleWithoutReplacement(cueDuration, 1)[0]}","""",10/23/2020 21:25,69.125.145.27,"Mozilla/5.0 (Windows NT 10.0; Win64; x64) AppleWebKit/537.36 (KHTML, like Gecko) Chrome/86.0.4240.111 Safari/537.36",WebKit,Chrome,86.0.4240.111,Windows,10
42,1,null,jspsych/allFaces/AF33NES.JPG,null,image-keyboard-response,9,2065,0.0-9.0,2,backwardMask,50,"""",10/23/2020 21:25,69.125.145.27,"Mozilla/5.0 (Windows NT 10.0; Win64; x64) AppleWebKit/537.36 (KHTML, like Gecko) Chrome/86.0.4240.111 Safari/537.36",WebKit,Chrome,86.0.4240.111,Windows,10
42,1,null,"<div style=""font-size:60px;"">+</div>",null,html-keyboard-response,10,2120,0.0-10.0,2,fixationBtwnNeutralMaskAndPrompt,50,"""",10/23/2020 21:25,69.125.145.27,"Mozilla/5.0 (Windows NT 10.0; Win64; x64) AppleWebKit/537.36 (KHTML, like Gecko) Chrome/86.0.4240.111 Safari/537.36",WebKit,Chrome,86.0.4240.111,Windows,10
42,1,null,"<div style=""font-size:60px;"">+</div>",null,html-keyboard-response,11,2181,0.0-11.0,3,ITI,50,"""",10/23/2020 21:25,69.125.145.27,"Mozilla/5.0 (Windows NT 10.0; Win64; x64) AppleWebKit/537.36 (KHTML, like Gecko) Chrome/86.0.4240.111 Safari/537.36",WebKit,Chrome,86.0.4240.111,Windows,10
42,1,null,jspsych/allScrambledFaces/scrambledAM05DIS.JPG,null,image-keyboard-response,12,2236,0.0-12.0,3,forwardMask,50,d,10/23/2020 21:25,69.125.145.27,"Mozilla/5.0 (Windows NT 10.0; Win64; x64) AppleWebKit/537.36 (KHTML, like Gecko) Chrome/86.0.4240.111 Safari/537.36",WebKit,Chrome,86.0.4240.111,Windows,10
42,1,null,jspsych/allFaces/AM05DIS.JPG,null,image-keyboard-response,13,2360,0.0-13.0,3,Cue,"function(){
        return jsPsych.randomization.sampleWithoutReplacement(cueDuration, 1)[0]}","""",10/23/2020 21:25,69.125.145.27,"Mozilla/5.0 (Windows NT 10.0; Win64; x64) AppleWebKit/537.36 (KHTML, like Gecko) Chrome/86.0.4240.111 Safari/537.36",WebKit,Chrome,86.0.4240.111,Windows,10
42,1,null,jspsych/allFaces/AF06NES.JPG,null,image-keyboard-response,14,2484,0.0-14.0,3,backwardMask,50,"""",10/23/2020 21:25,69.125.145.27,"Mozilla/5.0 (Windows NT 10.0; Win64; x64) AppleWebKit/537.36 (KHTML, like Gecko) Chrome/86.0.4240.111 Safari/537.36",WebKit,Chrome,86.0.4240.111,Windows,10
42,1,null,"<div style=""font-size:60px;"">+</div>",null,html-keyboard-response,15,2616,0.0-15.0,3,fixationBtwnNeutralMaskAndPrompt,50,"""",10/23/2020 21:25,69.125.145.27,"Mozilla/5.0 (Windows NT 10.0; Win64; x64) AppleWebKit/537.36 (KHTML, like Gecko) Chrome/86.0.4240.111 Safari/537.36",WebKit,Chrome,86.0.4240.111,Windows,10
42,1,null,"<div style=""font-size:60px;"">+</div>",null,html-keyboard-response,16,2669,0.0-16.0,4,ITI,50,"""",10/23/2020 21:25,69.125.145.27,"Mozilla/5.0 (Windows NT 10.0; Win64; x64) AppleWebKit/537.36 (KHTML, like Gecko) Chrome/86.0.4240.111 Safari/537.36",WebKit,Chrome,86.0.4240.111,Windows,10
42,1,null,jspsych/allScrambledFaces/scrambledBM04DIS.JPG,null,image-keyboard-response,17,2722,0.0-17.0,4,forwardMask,50,d,10/23/2020 21:25,69.125.145.27,"Mozilla/5.0 (Windows NT 10.0; Win64; x64) AppleWebKit/537.36 (KHTML, like Gecko) Chrome/86.0.4240.111 Safari/537.36",WebKit,Chrome,86.0.4240.111,Windows,10
42,1,null,jspsych/allFaces/BM04DIS.JPG,null,image-keyboard-response,18,2782,0.0-18.0,4,Cue,"function(){
        return jsPsych.randomization.sampleWithoutReplacement(cueDuration, 1)[0]}","""",10/23/2020 21:25,69.125.145.27,"Mozilla/5.0 (Windows NT 10.0; Win64; x64) AppleWebKit/537.36 (KHTML, like Gecko) Chrome/86.0.4240.111 Safari/537.36",WebKit,Chrome,86.0.4240.111,Windows,10
42,1,null,jspsych/allFaces/AF03NES.JPG,null,image-keyboard-response,19,2839,0.0-19.0,4,backwardMask,50,"""",10/23/2020 21:25,69.125.145.27,"Mozilla/5.0 (Windows NT 10.0; Win64; x64) AppleWebKit/537.36 (KHTML, like Gecko) Chrome/86.0.4240.111 Safari/537.36",WebKit,Chrome,86.0.4240.111,Windows,10
42,1,null,"<div style=""font-size:60px;"">+</div>",null,html-keyboard-response,20,2898,0.0-20.0,4,fixationBtwnNeutralMaskAndPrompt,50,"""",10/23/2020 21:25,69.125.145.27,"Mozilla/5.0 (Windows NT 10.0; Win64; x64) AppleWebKit/537.36 (KHTML, like Gecko) Chrome/86.0.4240.111 Safari/537.36",WebKit,Chrome,86.0.4240.111,Windows,10
42,1,null,"<div style=""font-size:60px;"">+</div>",null,html-keyboard-response,21,2991,0.0-21.0,5,ITI,50,"""",10/23/2020 21:25,69.125.145.27,"Mozilla/5.0 (Windows NT 10.0; Win64; x64) AppleWebKit/537.36 (KHTML, like Gecko) Chrome/86.0.4240.111 Safari/537.36",WebKit,Chrome,86.0.4240.111,Windows,10
42,1,null,jspsych/allScrambledFaces/scrambledBF21NES.JPG,null,image-keyboard-response,22,3046,0.0-22.0,5,forwardMask,50,n,10/23/2020 21:25,69.125.145.27,"Mozilla/5.0 (Windows NT 10.0; Win64; x64) AppleWebKit/537.36 (KHTML, like Gecko) Chrome/86.0.4240.111 Safari/537.36",WebKit,Chrome,86.0.4240.111,Windows,10
42,1,null,jspsych/allFaces/BF21NES.JPG,null,image-keyboard-response,23,3100,0.0-23.0,5,Cue,"function(){
        return jsPsych.randomization.sampleWithoutReplacement(cueDuration, 1)[0]}","""",10/23/2020 21:25,69.125.145.27,"Mozilla/5.0 (Windows NT 10.0; Win64; x64) AppleWebKit/537.36 (KHTML, like Gecko) Chrome/86.0.4240.111 Safari/537.36",WebKit,Chrome,86.0.4240.111,Windows,10
42,1,null,jspsych/allFaces/BF28NES.JPG,null,image-keyboard-response,24,3165,0.0-24.0,5,backwardMask,50,"""",10/23/2020 21:25,69.125.145.27,"Mozilla/5.0 (Windows NT 10.0; Win64; x64) AppleWebKit/537.36 (KHTML, like Gecko) Chrome/86.0.4240.111 Safari/537.36",WebKit,Chrome,86.0.4240.111,Windows,10
42,1,null,"<div style=""font-size:60px;"">+</div>",null,html-keyboard-response,25,3220,0.0-25.0,5,fixationBtwnNeutralMaskAndPrompt,50,"""",10/23/2020 21:25,69.125.145.27,"Mozilla/5.0 (Windows NT 10.0; Win64; x64) AppleWebKit/537.36 (KHTML, like Gecko) Chrome/86.0.4240.111 Safari/537.36",WebKit,Chrome,86.0.4240.111,Windows,10
42,1,null,"<div style=""font-size:60px;"">+</div>",null,html-keyboard-response,26,3281,0.0-26.0,6,ITI,50,"""",10/23/2020 21:25,69.125.145.27,"Mozilla/5.0 (Windows NT 10.0; Win64; x64) AppleWebKit/537.36 (KHTML, like Gecko) Chrome/86.0.4240.111 Safari/537.36",WebKit,Chrome,86.0.4240.111,Windows,10
42,1,null,jspsych/allScrambledFaces/scrambledAF04DIS.JPG,null,image-keyboard-response,27,3341,0.0-27.0,6,forwardMask,50,d,10/23/2020 21:25,69.125.145.27,"Mozilla/5.0 (Windows NT 10.0; Win64; x64) AppleWebKit/537.36 (KHTML, like Gecko) Chrome/86.0.4240.111 Safari/537.36",WebKit,Chrome,86.0.4240.111,Windows,10
42,1,null,jspsych/allFaces/AF04DIS.JPG,null,image-keyboard-response,28,3410,0.0-28.0,6,Cue,"function(){
        return jsPsych.randomization.sampleWithoutReplacement(cueDuration, 1)[0]}","""",10/23/2020 21:25,69.125.145.27,"Mozilla/5.0 (Windows NT 10.0; Win64; x64) AppleWebKit/537.36 (KHTML, like Gecko) Chrome/86.0.4240.111 Safari/537.36",WebKit,Chrome,86.0.4240.111,Windows,10
42,1,null,jspsych/allFaces/BM14NES.JPG,null,image-keyboard-response,29,3508,0.0-29.0,6,backwardMask,50,"""",10/23/2020 21:25,69.125.145.27,"Mozilla/5.0 (Windows NT 10.0; Win64; x64) AppleWebKit/537.36 (KHTML, like Gecko) Chrome/86.0.4240.111 Safari/537.36",WebKit,Chrome,86.0.4240.111,Windows,10
42,1,null,"<div style=""font-size:60px;"">+</div>",null,html-keyboard-response,30,3610,0.0-30.0,6,fixationBtwnNeutralMaskAndPrompt,50,"""",10/23/2020 21:25,69.125.145.27,"Mozilla/5.0 (Windows NT 10.0; Win64; x64) AppleWebKit/537.36 (KHTML, like Gecko) Chrome/86.0.4240.111 Safari/537.36",WebKit,Chrome,86.0.4240.111,Windows,10
42,1,null,"<div style=""font-size:60px;"">+</div>",null,html-keyboard-response,31,3701,0.0-31.0,7,ITI,50,"""",10/23/2020 21:25,69.125.145.27,"Mozilla/5.0 (Windows NT 10.0; Win64; x64) AppleWebKit/537.36 (KHTML, like Gecko) Chrome/86.0.4240.111 Safari/537.36",WebKit,Chrome,86.0.4240.111,Windows,10
42,1,null,jspsych/allScrambledFaces/scrambledBF09DIS.JPG,null,image-keyboard-response,32,3784,0.0-32.0,7,forwardMask,50,d,10/23/2020 21:25,69.125.145.27,"Mozilla/5.0 (Windows NT 10.0; Win64; x64) AppleWebKit/537.36 (KHTML, like Gecko) Chrome/86.0.4240.111 Safari/537.36",WebKit,Chrome,86.0.4240.111,Windows,10
42,1,null,jspsych/allFaces/BF09DIS.JPG,null,image-keyboard-response,33,3842,0.0-33.0,7,Cue,"function(){
        return jsPsych.randomization.sampleWithoutReplacement(cueDuration, 1)[0]}","""",10/23/2020 21:25,69.125.145.27,"Mozilla/5.0 (Windows NT 10.0; Win64; x64) AppleWebKit/537.36 (KHTML, like Gecko) Chrome/86.0.4240.111 Safari/537.36",WebKit,Chrome,86.0.4240.111,Windows,10
42,1,null,jspsych/allFaces/BF26NES.JPG,null,image-keyboard-response,34,3924,0.0-34.0,7,backwardMask,50,"""",10/23/2020 21:25,69.125.145.27,"Mozilla/5.0 (Windows NT 10.0; Win64; x64) AppleWebKit/537.36 (KHTML, like Gecko) Chrome/86.0.4240.111 Safari/537.36",WebKit,Chrome,86.0.4240.111,Windows,10
42,1,null,"<div style=""font-size:60px;"">+</div>",null,html-keyboard-response,35,3977,0.0-35.0,7,fixationBtwnNeutralMaskAndPrompt,50,"""",10/23/2020 21:25,69.125.145.27,"Mozilla/5.0 (Windows NT 10.0; Win64; x64) AppleWebKit/537.36 (KHTML, like Gecko) Chrome/86.0.4240.111 Safari/537.36",WebKit,Chrome,86.0.4240.111,Windows,10
42,1,null,"<div style=""font-size:60px;"">+</div>",null,html-keyboard-response,36,4061,0.0-36.0,8,ITI,50,"""",10/23/2020 21:25,69.125.145.27,"Mozilla/5.0 (Windows NT 10.0; Win64; x64) AppleWebKit/537.36 (KHTML, like Gecko) Chrome/86.0.4240.111 Safari/537.36",WebKit,Chrome,86.0.4240.111,Windows,10
42,1,null,jspsych/allScrambledFaces/scrambledAM01NES.JPG,null,image-keyboard-response,37,4128,0.0-37.0,8,forwardMask,50,n,10/23/2020 21:25,69.125.145.27,"Mozilla/5.0 (Windows NT 10.0; Win64; x64) AppleWebKit/537.36 (KHTML, like Gecko) Chrome/86.0.4240.111 Safari/537.36",WebKit,Chrome,86.0.4240.111,Windows,10
42,1,null,jspsych/allFaces/AM01NES.JPG,null,image-keyboard-response,38,4193,0.0-38.0,8,Cue,"function(){
        return jsPsych.randomization.sampleWithoutReplacement(cueDuration, 1)[0]}","""",10/23/2020 21:25,69.125.145.27,"Mozilla/5.0 (Windows NT 10.0; Win64; x64) AppleWebKit/537.36 (KHTML, like Gecko) Chrome/86.0.4240.111 Safari/537.36",WebKit,Chrome,86.0.4240.111,Windows,10
42,1,null,jspsych/allFaces/BM06NES.JPG,null,image-keyboard-response,39,4253,0.0-39.0,8,backwardMask,50,"""",10/23/2020 21:25,69.125.145.27,"Mozilla/5.0 (Windows NT 10.0; Win64; x64) AppleWebKit/537.36 (KHTML, like Gecko) Chrome/86.0.4240.111 Safari/537.36",WebKit,Chrome,86.0.4240.111,Windows,10
42,1,null,"<div style=""font-size:60px;"">+</div>",null,html-keyboard-response,40,4310,0.0-40.0,8,fixationBtwnNeutralMaskAndPrompt,50,"""",10/23/2020 21:25,69.125.145.27,"Mozilla/5.0 (Windows NT 10.0; Win64; x64) AppleWebKit/537.36 (KHTML, like Gecko) Chrome/86.0.4240.111 Safari/537.36",WebKit,Chrome,86.0.4240.111,Windows,10
42,1,null,"<div style=""font-size:60px;"">+</div>",null,html-keyboard-response,41,4371,0.0-41.0,9,ITI,50,"""",10/23/2020 21:25,69.125.145.27,"Mozilla/5.0 (Windows NT 10.0; Win64; x64) AppleWebKit/537.36 (KHTML, like Gecko) Chrome/86.0.4240.111 Safari/537.36",WebKit,Chrome,86.0.4240.111,Windows,10
42,1,null,jspsych/allScrambledFaces/scrambledAM35DIS.JPG,null,image-keyboard-response,42,4429,0.0-42.0,9,forwardMask,50,d,10/23/2020 21:25,69.125.145.27,"Mozilla/5.0 (Windows NT 10.0; Win64; x64) AppleWebKit/537.36 (KHTML, like Gecko) Chrome/86.0.4240.111 Safari/537.36",WebKit,Chrome,86.0.4240.111,Windows,10
42,1,null,jspsych/allFaces/AM35DIS.JPG,null,image-keyboard-response,43,4490,0.0-43.0,9,Cue,"function(){
        return jsPsych.randomization.sampleWithoutReplacement(cueDuration, 1)[0]}","""",10/23/2020 21:25,69.125.145.27,"Mozilla/5.0 (Windows NT 10.0; Win64; x64) AppleWebKit/537.36 (KHTML, like Gecko) Chrome/86.0.4240.111 Safari/537.36",WebKit,Chrome,86.0.4240.111,Windows,10
42,1,null,jspsych/allFaces/BF07NES.JPG,null,image-keyboard-response,44,4549,0.0-44.0,9,backwardMask,50,"""",10/23/2020 21:25,69.125.145.27,"Mozilla/5.0 (Windows NT 10.0; Win64; x64) AppleWebKit/537.36 (KHTML, like Gecko) Chrome/86.0.4240.111 Safari/537.36",WebKit,Chrome,86.0.4240.111,Windows,10
42,1,null,"<div style=""font-size:60px;"">+</div>",null,html-keyboard-response,45,4634,0.0-45.0,9,fixationBtwnNeutralMaskAndPrompt,50,"""",10/23/2020 21:25,69.125.145.27,"Mozilla/5.0 (Windows NT 10.0; Win64; x64) AppleWebKit/537.36 (KHTML, like Gecko) Chrome/86.0.4240.111 Safari/537.36",WebKit,Chrome,86.0.4240.111,Windows,10
42,1,null,"<div style=""font-size:60px;"">+</div>",null,html-keyboard-response,46,4715,0.0-46.0,10,ITI,50,"""",10/23/2020 21:25,69.125.145.27,"Mozilla/5.0 (Windows NT 10.0; Win64; x64) AppleWebKit/537.36 (KHTML, like Gecko) Chrome/86.0.4240.111 Safari/537.36",WebKit,Chrome,86.0.4240.111,Windows,10
42,1,null,jspsych/allScrambledFaces/scrambledAM28NES.JPG,null,image-keyboard-response,47,4793,0.0-47.0,10,forwardMask,50,n,10/23/2020 21:25,69.125.145.27,"Mozilla/5.0 (Windows NT 10.0; Win64; x64) AppleWebKit/537.36 (KHTML, like Gecko) Chrome/86.0.4240.111 Safari/537.36",WebKit,Chrome,86.0.4240.111,Windows,10
42,1,null,jspsych/allFaces/AM28NES.JPG,null,image-keyboard-response,48,4871,0.0-48.0,10,Cue,"function(){
        return jsPsych.randomization.sampleWithoutReplacement(cueDuration, 1)[0]}","""",10/23/2020 21:25,69.125.145.27,"Mozilla/5.0 (Windows NT 10.0; Win64; x64) AppleWebKit/537.36 (KHTML, like Gecko) Chrome/86.0.4240.111 Safari/537.36",WebKit,Chrome,86.0.4240.111,Windows,10
42,1,null,jspsych/allFaces/AF13NES.JPG,null,image-keyboard-response,49,4922,0.0-49.0,10,backwardMask,50,"""",10/23/2020 21:25,69.125.145.27,"Mozilla/5.0 (Windows NT 10.0; Win64; x64) AppleWebKit/537.36 (KHTML, like Gecko) Chrome/86.0.4240.111 Safari/537.36",WebKit,Chrome,86.0.4240.111,Windows,10
42,1,null,"<div style=""font-size:60px;"">+</div>",null,html-keyboard-response,50,4979,0.0-50.0,10,fixationBtwnNeutralMaskAndPrompt,50,"""",10/23/2020 21:25,69.125.145.27,"Mozilla/5.0 (Windows NT 10.0; Win64; x64) AppleWebKit/537.36 (KHTML, like Gecko) Chrome/86.0.4240.111 Safari/537.36",WebKit,Chrome,86.0.4240.111,Windows,10
42,1,null,"<div style=""font-size:60px;"">+</div>",null,html-keyboard-response,51,5044,0.0-51.0,11,ITI,50,"""",10/23/2020 21:25,69.125.145.27,"Mozilla/5.0 (Windows NT 10.0; Win64; x64) AppleWebKit/537.36 (KHTML, like Gecko) Chrome/86.0.4240.111 Safari/537.36",WebKit,Chrome,86.0.4240.111,Windows,10
42,1,null,jspsych/allScrambledFaces/scrambledBM25DIS.JPG,null,image-keyboard-response,52,5098,0.0-52.0,11,forwardMask,50,d,10/23/2020 21:25,69.125.145.27,"Mozilla/5.0 (Windows NT 10.0; Win64; x64) AppleWebKit/537.36 (KHTML, like Gecko) Chrome/86.0.4240.111 Safari/537.36",WebKit,Chrome,86.0.4240.111,Windows,10
42,1,null,jspsych/allFaces/BM25DIS.JPG,null,image-keyboard-response,53,5165,0.0-53.0,11,Cue,"function(){
        return jsPsych.randomization.sampleWithoutReplacement(cueDuration, 1)[0]}","""",10/23/2020 21:25,69.125.145.27,"Mozilla/5.0 (Windows NT 10.0; Win64; x64) AppleWebKit/537.36 (KHTML, like Gecko) Chrome/86.0.4240.111 Safari/537.36",WebKit,Chrome,86.0.4240.111,Windows,10
42,1,null,jspsych/allFaces/AM18NES.JPG,null,image-keyboard-response,54,5229,0.0-54.0,11,backwardMask,50,"""",10/23/2020 21:25,69.125.145.27,"Mozilla/5.0 (Windows NT 10.0; Win64; x64) AppleWebKit/537.36 (KHTML, like Gecko) Chrome/86.0.4240.111 Safari/537.36",WebKit,Chrome,86.0.4240.111,Windows,10
42,1,null,"<div style=""font-size:60px;"">+</div>",null,html-keyboard-response,55,5282,0.0-55.0,11,fixationBtwnNeutralMaskAndPrompt,50,"""",10/23/2020 21:25,69.125.145.27,"Mozilla/5.0 (Windows NT 10.0; Win64; x64) AppleWebKit/537.36 (KHTML, like Gecko) Chrome/86.0.4240.111 Safari/537.36",WebKit,Chrome,86.0.4240.111,Windows,10
42,1,null,"<div style=""font-size:60px;"">+</div>",null,html-keyboard-response,56,5334,0.0-56.0,12,ITI,50,"""",10/23/2020 21:25,69.125.145.27,"Mozilla/5.0 (Windows NT 10.0; Win64; x64) AppleWebKit/537.36 (KHTML, like Gecko) Chrome/86.0.4240.111 Safari/537.36",WebKit,Chrome,86.0.4240.111,Windows,10
42,1,null,jspsych/allScrambledFaces/scrambledBF10DIS.JPG,null,image-keyboard-response,57,5431,0.0-57.0,12,forwardMask,50,d,10/23/2020 21:25,69.125.145.27,"Mozilla/5.0 (Windows NT 10.0; Win64; x64) AppleWebKit/537.36 (KHTML, like Gecko) Chrome/86.0.4240.111 Safari/537.36",WebKit,Chrome,86.0.4240.111,Windows,10
42,1,null,jspsych/allFaces/BF10DIS.JPG,null,image-keyboard-response,58,5482,0.0-58.0,12,Cue,"function(){
        return jsPsych.randomization.sampleWithoutReplacement(cueDuration, 1)[0]}","""",10/23/2020 21:25,69.125.145.27,"Mozilla/5.0 (Windows NT 10.0; Win64; x64) AppleWebKit/537.36 (KHTML, like Gecko) Chrome/86.0.4240.111 Safari/537.36",WebKit,Chrome,86.0.4240.111,Windows,10
42,1,null,jspsych/allFaces/AM14NES.JPG,null,image-keyboard-response,59,5551,0.0-59.0,12,backwardMask,50,"""",10/23/2020 21:25,69.125.145.27,"Mozilla/5.0 (Windows NT 10.0; Win64; x64) AppleWebKit/537.36 (KHTML, like Gecko) Chrome/86.0.4240.111 Safari/537.36",WebKit,Chrome,86.0.4240.111,Windows,10
42,1,null,"<div style=""font-size:60px;"">+</div>",null,html-keyboard-response,60,5610,0.0-60.0,12,fixationBtwnNeutralMaskAndPrompt,50,"""",10/23/2020 21:25,69.125.145.27,"Mozilla/5.0 (Windows NT 10.0; Win64; x64) AppleWebKit/537.36 (KHTML, like Gecko) Chrome/86.0.4240.111 Safari/537.36",WebKit,Chrome,86.0.4240.111,Windows,10
42,1,null,"<div style=""font-size:60px;"">+</div>",null,html-keyboard-response,61,5667,0.0-61.0,13,ITI,50,"""",10/23/2020 21:25,69.125.145.27,"Mozilla/5.0 (Windows NT 10.0; Win64; x64) AppleWebKit/537.36 (KHTML, like Gecko) Chrome/86.0.4240.111 Safari/537.36",WebKit,Chrome,86.0.4240.111,Windows,10
42,1,null,jspsych/allScrambledFaces/scrambledBF30NES.JPG,null,image-keyboard-response,62,5721,0.0-62.0,13,forwardMask,50,n,10/23/2020 21:25,69.125.145.27,"Mozilla/5.0 (Windows NT 10.0; Win64; x64) AppleWebKit/537.36 (KHTML, like Gecko) Chrome/86.0.4240.111 Safari/537.36",WebKit,Chrome,86.0.4240.111,Windows,10
42,1,null,jspsych/allFaces/BF30NES.JPG,null,image-keyboard-response,63,5776,0.0-63.0,13,Cue,"function(){
        return jsPsych.randomization.sampleWithoutReplacement(cueDuration, 1)[0]}","""",10/23/2020 21:25,69.125.145.27,"Mozilla/5.0 (Windows NT 10.0; Win64; x64) AppleWebKit/537.36 (KHTML, like Gecko) Chrome/86.0.4240.111 Safari/537.36",WebKit,Chrome,86.0.4240.111,Windows,10
42,1,null,jspsych/allFaces/BF01NES.JPG,null,image-keyboard-response,64,5829,0.0-64.0,13,backwardMask,50,"""",10/23/2020 21:25,69.125.145.27,"Mozilla/5.0 (Windows NT 10.0; Win64; x64) AppleWebKit/537.36 (KHTML, like Gecko) Chrome/86.0.4240.111 Safari/537.36",WebKit,Chrome,86.0.4240.111,Windows,10
42,1,null,"<div style=""font-size:60px;"">+</div>",null,html-keyboard-response,65,5890,0.0-65.0,13,fixationBtwnNeutralMaskAndPrompt,50,"""",10/23/2020 21:25,69.125.145.27,"Mozilla/5.0 (Windows NT 10.0; Win64; x64) AppleWebKit/537.36 (KHTML, like Gecko) Chrome/86.0.4240.111 Safari/537.36",WebKit,Chrome,86.0.4240.111,Windows,10
42,1,null,"<div style=""font-size:60px;"">+</div>",null,html-keyboard-response,66,5948,0.0-66.0,14,ITI,50,"""",10/23/2020 21:25,69.125.145.27,"Mozilla/5.0 (Windows NT 10.0; Win64; x64) AppleWebKit/537.36 (KHTML, like Gecko) Chrome/86.0.4240.111 Safari/537.36",WebKit,Chrome,86.0.4240.111,Windows,10
42,1,null,jspsych/allScrambledFaces/scrambledBF15NES.JPG,null,image-keyboard-response,67,6001,0.0-67.0,14,forwardMask,50,n,10/23/2020 21:25,69.125.145.27,"Mozilla/5.0 (Windows NT 10.0; Win64; x64) AppleWebKit/537.36 (KHTML, like Gecko) Chrome/86.0.4240.111 Safari/537.36",WebKit,Chrome,86.0.4240.111,Windows,10
42,1,null,jspsych/allFaces/BF15NES.JPG,null,image-keyboard-response,68,6061,0.0-68.0,14,Cue,"function(){
        return jsPsych.randomization.sampleWithoutReplacement(cueDuration, 1)[0]}","""",10/23/2020 21:25,69.125.145.27,"Mozilla/5.0 (Windows NT 10.0; Win64; x64) AppleWebKit/537.36 (KHTML, like Gecko) Chrome/86.0.4240.111 Safari/537.36",WebKit,Chrome,86.0.4240.111,Windows,10
42,1,null,jspsych/allFaces/BM05NES.JPG,null,image-keyboard-response,69,6119,0.0-69.0,14,backwardMask,50,"""",10/23/2020 21:25,69.125.145.27,"Mozilla/5.0 (Windows NT 10.0; Win64; x64) AppleWebKit/537.36 (KHTML, like Gecko) Chrome/86.0.4240.111 Safari/537.36",WebKit,Chrome,86.0.4240.111,Windows,10
42,1,null,"<div style=""font-size:60px;"">+</div>",null,html-keyboard-response,70,6171,0.0-70.0,14,fixationBtwnNeutralMaskAndPrompt,50,"""",10/23/2020 21:25,69.125.145.27,"Mozilla/5.0 (Windows NT 10.0; Win64; x64) AppleWebKit/537.36 (KHTML, like Gecko) Chrome/86.0.4240.111 Safari/537.36",WebKit,Chrome,86.0.4240.111,Windows,10
42,1,null,"<div style=""font-size:60px;"">+</div>",null,html-keyboard-response,71,6229,0.0-71.0,15,ITI,50,"""",10/23/2020 21:25,69.125.145.27,"Mozilla/5.0 (Windows NT 10.0; Win64; x64) AppleWebKit/537.36 (KHTML, like Gecko) Chrome/86.0.4240.111 Safari/537.36",WebKit,Chrome,86.0.4240.111,Windows,10
42,1,null,jspsych/allScrambledFaces/scrambledBF29NES.JPG,null,image-keyboard-response,72,6287,0.0-72.0,15,forwardMask,50,n,10/23/2020 21:25,69.125.145.27,"Mozilla/5.0 (Windows NT 10.0; Win64; x64) AppleWebKit/537.36 (KHTML, like Gecko) Chrome/86.0.4240.111 Safari/537.36",WebKit,Chrome,86.0.4240.111,Windows,10
42,1,null,jspsych/allFaces/BF29NES.JPG,null,image-keyboard-response,73,6358,0.0-73.0,15,Cue,"function(){
        return jsPsych.randomization.sampleWithoutReplacement(cueDuration, 1)[0]}","""",10/23/2020 21:25,69.125.145.27,"Mozilla/5.0 (Windows NT 10.0; Win64; x64) AppleWebKit/537.36 (KHTML, like Gecko) Chrome/86.0.4240.111 Safari/537.36",WebKit,Chrome,86.0.4240.111,Windows,10
42,1,null,jspsych/allFaces/AM03NES.JPG,null,image-keyboard-response,74,6412,0.0-74.0,15,backwardMask,50,"""",10/23/2020 21:25,69.125.145.27,"Mozilla/5.0 (Windows NT 10.0; Win64; x64) AppleWebKit/537.36 (KHTML, like Gecko) Chrome/86.0.4240.111 Safari/537.36",WebKit,Chrome,86.0.4240.111,Windows,10
42,1,null,"<div style=""font-size:60px;"">+</div>",null,html-keyboard-response,75,6470,0.0-75.0,15,fixationBtwnNeutralMaskAndPrompt,50,"""",10/23/2020 21:25,69.125.145.27,"Mozilla/5.0 (Windows NT 10.0; Win64; x64) AppleWebKit/537.36 (KHTML, like Gecko) Chrome/86.0.4240.111 Safari/537.36",WebKit,Chrome,86.0.4240.111,Windows,10
42,1,null,"<div style=""font-size:60px;"">+</div>",null,html-keyboard-response,76,6522,0.0-76.0,16,ITI,50,"""",10/23/2020 21:25,69.125.145.27,"Mozilla/5.0 (Windows NT 10.0; Win64; x64) AppleWebKit/537.36 (KHTML, like Gecko) Chrome/86.0.4240.111 Safari/537.36",WebKit,Chrome,86.0.4240.111,Windows,10
42,1,null,jspsych/allScrambledFaces/scrambledAF24NES.JPG,null,image-keyboard-response,77,6577,0.0-77.0,16,forwardMask,50,n,10/23/2020 21:25,69.125.145.27,"Mozilla/5.0 (Windows NT 10.0; Win64; x64) AppleWebKit/537.36 (KHTML, like Gecko) Chrome/86.0.4240.111 Safari/537.36",WebKit,Chrome,86.0.4240.111,Windows,10
42,1,null,jspsych/allFaces/AF24NES.JPG,null,image-keyboard-response,78,6644,0.0-78.0,16,Cue,"function(){
        return jsPsych.randomization.sampleWithoutReplacement(cueDuration, 1)[0]}","""",10/23/2020 21:25,69.125.145.27,"Mozilla/5.0 (Windows NT 10.0; Win64; x64) AppleWebKit/537.36 (KHTML, like Gecko) Chrome/86.0.4240.111 Safari/537.36",WebKit,Chrome,86.0.4240.111,Windows,10
42,1,null,jspsych/allFaces/BF30NES.JPG,null,image-keyboard-response,79,6708,0.0-79.0,16,backwardMask,50,"""",10/23/2020 21:25,69.125.145.27,"Mozilla/5.0 (Windows NT 10.0; Win64; x64) AppleWebKit/537.36 (KHTML, like Gecko) Chrome/86.0.4240.111 Safari/537.36",WebKit,Chrome,86.0.4240.111,Windows,10
42,1,null,"<div style=""font-size:60px;"">+</div>",null,html-keyboard-response,80,6761,0.0-80.0,16,fixationBtwnNeutralMaskAndPrompt,50,"""",10/23/2020 21:25,69.125.145.27,"Mozilla/5.0 (Windows NT 10.0; Win64; x64) AppleWebKit/537.36 (KHTML, like Gecko) Chrome/86.0.4240.111 Safari/537.36",WebKit,Chrome,86.0.4240.111,Windows,10
42,1,null,"<div style=""font-size:60px;"">+</div>",null,html-keyboard-response,81,6821,0.0-81.0,17,ITI,50,"""",10/23/2020 21:25,69.125.145.27,"Mozilla/5.0 (Windows NT 10.0; Win64; x64) AppleWebKit/537.36 (KHTML, like Gecko) Chrome/86.0.4240.111 Safari/537.36",WebKit,Chrome,86.0.4240.111,Windows,10
42,1,null,jspsych/allScrambledFaces/scrambledAF14DIS.JPG,null,image-keyboard-response,82,6877,0.0-82.0,17,forwardMask,50,d,10/23/2020 21:25,69.125.145.27,"Mozilla/5.0 (Windows NT 10.0; Win64; x64) AppleWebKit/537.36 (KHTML, like Gecko) Chrome/86.0.4240.111 Safari/537.36",WebKit,Chrome,86.0.4240.111,Windows,10
42,1,null,jspsych/allFaces/AF14DIS.JPG,null,image-keyboard-response,83,6933,0.0-83.0,17,Cue,"function(){
        return jsPsych.randomization.sampleWithoutReplacement(cueDuration, 1)[0]}","""",10/23/2020 21:25,69.125.145.27,"Mozilla/5.0 (Windows NT 10.0; Win64; x64) AppleWebKit/537.36 (KHTML, like Gecko) Chrome/86.0.4240.111 Safari/537.36",WebKit,Chrome,86.0.4240.111,Windows,10
42,1,null,jspsych/allFaces/AM01NES.JPG,null,image-keyboard-response,84,6993,0.0-84.0,17,backwardMask,50,"""",10/23/2020 21:25,69.125.145.27,"Mozilla/5.0 (Windows NT 10.0; Win64; x64) AppleWebKit/537.36 (KHTML, like Gecko) Chrome/86.0.4240.111 Safari/537.36",WebKit,Chrome,86.0.4240.111,Windows,10
42,1,null,"<div style=""font-size:60px;"">+</div>",null,html-keyboard-response,85,7051,0.0-85.0,17,fixationBtwnNeutralMaskAndPrompt,50,"""",10/23/2020 21:25,69.125.145.27,"Mozilla/5.0 (Windows NT 10.0; Win64; x64) AppleWebKit/537.36 (KHTML, like Gecko) Chrome/86.0.4240.111 Safari/537.36",WebKit,Chrome,86.0.4240.111,Windows,10
42,1,null,"<div style=""font-size:60px;"">+</div>",null,html-keyboard-response,86,7107,0.0-86.0,18,ITI,50,"""",10/23/2020 21:25,69.125.145.27,"Mozilla/5.0 (Windows NT 10.0; Win64; x64) AppleWebKit/537.36 (KHTML, like Gecko) Chrome/86.0.4240.111 Safari/537.36",WebKit,Chrome,86.0.4240.111,Windows,10
42,1,null,jspsych/allScrambledFaces/scrambledAM32DIS.JPG,null,image-keyboard-response,87,7160,0.0-87.0,18,forwardMask,50,d,10/23/2020 21:25,69.125.145.27,"Mozilla/5.0 (Windows NT 10.0; Win64; x64) AppleWebKit/537.36 (KHTML, like Gecko) Chrome/86.0.4240.111 Safari/537.36",WebKit,Chrome,86.0.4240.111,Windows,10
42,1,null,jspsych/allFaces/AM32DIS.JPG,null,image-keyboard-response,88,7220,0.0-88.0,18,Cue,"function(){
        return jsPsych.randomization.sampleWithoutReplacement(cueDuration, 1)[0]}","""",10/23/2020 21:25,69.125.145.27,"Mozilla/5.0 (Windows NT 10.0; Win64; x64) AppleWebKit/537.36 (KHTML, like Gecko) Chrome/86.0.4240.111 Safari/537.36",WebKit,Chrome,86.0.4240.111,Windows,10
42,1,null,jspsych/allFaces/BF06NES.JPG,null,image-keyboard-response,89,7276,0.0-89.0,18,backwardMask,50,"""",10/23/2020 21:25,69.125.145.27,"Mozilla/5.0 (Windows NT 10.0; Win64; x64) AppleWebKit/537.36 (KHTML, like Gecko) Chrome/86.0.4240.111 Safari/537.36",WebKit,Chrome,86.0.4240.111,Windows,10
42,1,null,"<div style=""font-size:60px;"">+</div>",null,html-keyboard-response,90,7333,0.0-90.0,18,fixationBtwnNeutralMaskAndPrompt,50,"""",10/23/2020 21:25,69.125.145.27,"Mozilla/5.0 (Windows NT 10.0; Win64; x64) AppleWebKit/537.36 (KHTML, like Gecko) Chrome/86.0.4240.111 Safari/537.36",WebKit,Chrome,86.0.4240.111,Windows,10
42,1,null,"<div style=""font-size:60px;"">+</div>",null,html-keyboard-response,91,7393,0.0-91.0,19,ITI,50,"""",10/23/2020 21:25,69.125.145.27,"Mozilla/5.0 (Windows NT 10.0; Win64; x64) AppleWebKit/537.36 (KHTML, like Gecko) Chrome/86.0.4240.111 Safari/537.36",WebKit,Chrome,86.0.4240.111,Windows,10
42,1,null,jspsych/allScrambledFaces/scrambledBM32NES.JPG,null,image-keyboard-response,92,7450,0.0-92.0,19,forwardMask,50,n,10/23/2020 21:25,69.125.145.27,"Mozilla/5.0 (Windows NT 10.0; Win64; x64) AppleWebKit/537.36 (KHTML, like Gecko) Chrome/86.0.4240.111 Safari/537.36",WebKit,Chrome,86.0.4240.111,Windows,10
42,1,null,jspsych/allFaces/BM32NES.JPG,null,image-keyboard-response,93,7508,0.0-93.0,19,Cue,"function(){
        return jsPsych.randomization.sampleWithoutReplacement(cueDuration, 1)[0]}","""",10/23/2020 21:25,69.125.145.27,"Mozilla/5.0 (Windows NT 10.0; Win64; x64) AppleWebKit/537.36 (KHTML, like Gecko) Chrome/86.0.4240.111 Safari/537.36",WebKit,Chrome,86.0.4240.111,Windows,10
42,1,null,jspsych/allFaces/AF27NES.JPG,null,image-keyboard-response,94,7570,0.0-94.0,19,backwardMask,50,"""",10/23/2020 21:25,69.125.145.27,"Mozilla/5.0 (Windows NT 10.0; Win64; x64) AppleWebKit/537.36 (KHTML, like Gecko) Chrome/86.0.4240.111 Safari/537.36",WebKit,Chrome,86.0.4240.111,Windows,10
42,1,null,"<div style=""font-size:60px;"">+</div>",null,html-keyboard-response,95,7627,0.0-95.0,19,fixationBtwnNeutralMaskAndPrompt,50,"""",10/23/2020 21:25,69.125.145.27,"Mozilla/5.0 (Windows NT 10.0; Win64; x64) AppleWebKit/537.36 (KHTML, like Gecko) Chrome/86.0.4240.111 Safari/537.36",WebKit,Chrome,86.0.4240.111,Windows,10
42,1,null,"<div style=""font-size:60px;"">+</div>",null,html-keyboard-response,96,7691,0.0-96.0,20,ITI,50,"""",10/23/2020 21:25,69.125.145.27,"Mozilla/5.0 (Windows NT 10.0; Win64; x64) AppleWebKit/537.36 (KHTML, like Gecko) Chrome/86.0.4240.111 Safari/537.36",WebKit,Chrome,86.0.4240.111,Windows,10
42,1,null,jspsych/allScrambledFaces/scrambledBM20DIS.JPG,null,image-keyboard-response,97,7750,0.0-97.0,20,forwardMask,50,d,10/23/2020 21:25,69.125.145.27,"Mozilla/5.0 (Windows NT 10.0; Win64; x64) AppleWebKit/537.36 (KHTML, like Gecko) Chrome/86.0.4240.111 Safari/537.36",WebKit,Chrome,86.0.4240.111,Windows,10
42,1,null,jspsych/allFaces/BM20DIS.JPG,null,image-keyboard-response,98,7809,0.0-98.0,20,Cue,"function(){
        return jsPsych.randomization.sampleWithoutReplacement(cueDuration, 1)[0]}","""",10/23/2020 21:25,69.125.145.27,"Mozilla/5.0 (Windows NT 10.0; Win64; x64) AppleWebKit/537.36 (KHTML, like Gecko) Chrome/86.0.4240.111 Safari/537.36",WebKit,Chrome,86.0.4240.111,Windows,10
42,1,null,jspsych/allFaces/BM16NES.JPG,null,image-keyboard-response,99,7860,0.0-99.0,20,backwardMask,50,"""",10/23/2020 21:25,69.125.145.27,"Mozilla/5.0 (Windows NT 10.0; Win64; x64) AppleWebKit/537.36 (KHTML, like Gecko) Chrome/86.0.4240.111 Safari/537.36",WebKit,Chrome,86.0.4240.111,Windows,10
42,1,null,"<div style=""font-size:60px;"">+</div>",null,html-keyboard-response,100,7920,0.0-100.0,20,fixationBtwnNeutralMaskAndPrompt,50,"""",10/23/2020 21:25,69.125.145.27,"Mozilla/5.0 (Windows NT 10.0; Win64; x64) AppleWebKit/537.36 (KHTML, like Gecko) Chrome/86.0.4240.111 Safari/537.36",WebKit,Chrome,86.0.4240.111,Windows,10
42,1,null,"<div style=""font-size:60px;"">+</div>",null,html-keyboard-response,101,7989,0.0-101.0,21,ITI,50,"""",10/23/2020 21:25,69.125.145.27,"Mozilla/5.0 (Windows NT 10.0; Win64; x64) AppleWebKit/537.36 (KHTML, like Gecko) Chrome/86.0.4240.111 Safari/537.36",WebKit,Chrome,86.0.4240.111,Windows,10
42,1,null,jspsych/allScrambledFaces/scrambledAM31DIS.JPG,null,image-keyboard-response,102,8048,0.0-102.0,21,forwardMask,50,d,10/23/2020 21:25,69.125.145.27,"Mozilla/5.0 (Windows NT 10.0; Win64; x64) AppleWebKit/537.36 (KHTML, like Gecko) Chrome/86.0.4240.111 Safari/537.36",WebKit,Chrome,86.0.4240.111,Windows,10
42,1,null,jspsych/allFaces/AM31DIS.JPG,null,image-keyboard-response,103,8112,0.0-103.0,21,Cue,"function(){
        return jsPsych.randomization.sampleWithoutReplacement(cueDuration, 1)[0]}","""",10/23/2020 21:25,69.125.145.27,"Mozilla/5.0 (Windows NT 10.0; Win64; x64) AppleWebKit/537.36 (KHTML, like Gecko) Chrome/86.0.4240.111 Safari/537.36",WebKit,Chrome,86.0.4240.111,Windows,10
42,1,null,jspsych/allFaces/AF21NES.JPG,null,image-keyboard-response,104,8176,0.0-104.0,21,backwardMask,50,"""",10/23/2020 21:25,69.125.145.27,"Mozilla/5.0 (Windows NT 10.0; Win64; x64) AppleWebKit/537.36 (KHTML, like Gecko) Chrome/86.0.4240.111 Safari/537.36",WebKit,Chrome,86.0.4240.111,Windows,10
42,1,null,"<div style=""font-size:60px;"">+</div>",null,html-keyboard-response,105,8243,0.0-105.0,21,fixationBtwnNeutralMaskAndPrompt,50,"""",10/23/2020 21:25,69.125.145.27,"Mozilla/5.0 (Windows NT 10.0; Win64; x64) AppleWebKit/537.36 (KHTML, like Gecko) Chrome/86.0.4240.111 Safari/537.36",WebKit,Chrome,86.0.4240.111,Windows,10
42,1,null,"<div style=""font-size:60px;"">+</div>",null,html-keyboard-response,106,8309,0.0-106.0,22,ITI,50,"""",10/23/2020 21:25,69.125.145.27,"Mozilla/5.0 (Windows NT 10.0; Win64; x64) AppleWebKit/537.36 (KHTML, like Gecko) Chrome/86.0.4240.111 Safari/537.36",WebKit,Chrome,86.0.4240.111,Windows,10
42,1,null,jspsych/allScrambledFaces/scrambledBF23NES.JPG,null,image-keyboard-response,107,8377,0.0-107.0,22,forwardMask,50,n,10/23/2020 21:25,69.125.145.27,"Mozilla/5.0 (Windows NT 10.0; Win64; x64) AppleWebKit/537.36 (KHTML, like Gecko) Chrome/86.0.4240.111 Safari/537.36",WebKit,Chrome,86.0.4240.111,Windows,10
42,1,null,jspsych/allFaces/BF23NES.JPG,null,image-keyboard-response,108,8442,0.0-108.0,22,Cue,"function(){
        return jsPsych.randomization.sampleWithoutReplacement(cueDuration, 1)[0]}","""",10/23/2020 21:25,69.125.145.27,"Mozilla/5.0 (Windows NT 10.0; Win64; x64) AppleWebKit/537.36 (KHTML, like Gecko) Chrome/86.0.4240.111 Safari/537.36",WebKit,Chrome,86.0.4240.111,Windows,10
42,1,null,jspsych/allFaces/AM23NES.JPG,null,image-keyboard-response,109,8500,0.0-109.0,22,backwardMask,50,"""",10/23/2020 21:25,69.125.145.27,"Mozilla/5.0 (Windows NT 10.0; Win64; x64) AppleWebKit/537.36 (KHTML, like Gecko) Chrome/86.0.4240.111 Safari/537.36",WebKit,Chrome,86.0.4240.111,Windows,10
42,1,null,"<div style=""font-size:60px;"">+</div>",null,html-keyboard-response,110,8561,0.0-110.0,22,fixationBtwnNeutralMaskAndPrompt,50,"""",10/23/2020 21:25,69.125.145.27,"Mozilla/5.0 (Windows NT 10.0; Win64; x64) AppleWebKit/537.36 (KHTML, like Gecko) Chrome/86.0.4240.111 Safari/537.36",WebKit,Chrome,86.0.4240.111,Windows,10
42,1,null,"<div style=""font-size:60px;"">+</div>",null,html-keyboard-response,111,8616,0.0-111.0,23,ITI,50,"""",10/23/2020 21:25,69.125.145.27,"Mozilla/5.0 (Windows NT 10.0; Win64; x64) AppleWebKit/537.36 (KHTML, like Gecko) Chrome/86.0.4240.111 Safari/537.36",WebKit,Chrome,86.0.4240.111,Windows,10
42,1,null,jspsych/allScrambledFaces/scrambledBF35DIS.JPG,null,image-keyboard-response,112,8672,0.0-112.0,23,forwardMask,50,d,10/23/2020 21:25,69.125.145.27,"Mozilla/5.0 (Windows NT 10.0; Win64; x64) AppleWebKit/537.36 (KHTML, like Gecko) Chrome/86.0.4240.111 Safari/537.36",WebKit,Chrome,86.0.4240.111,Windows,10
42,1,null,jspsych/allFaces/BF35DIS.JPG,null,image-keyboard-response,113,8727,0.0-113.0,23,Cue,"function(){
        return jsPsych.randomization.sampleWithoutReplacement(cueDuration, 1)[0]}","""",10/23/2020 21:25,69.125.145.27,"Mozilla/5.0 (Windows NT 10.0; Win64; x64) AppleWebKit/537.36 (KHTML, like Gecko) Chrome/86.0.4240.111 Safari/537.36",WebKit,Chrome,86.0.4240.111,Windows,10
42,1,null,jspsych/allFaces/AF26NES.JPG,null,image-keyboard-response,114,8792,0.0-114.0,23,backwardMask,50,"""",10/23/2020 21:25,69.125.145.27,"Mozilla/5.0 (Windows NT 10.0; Win64; x64) AppleWebKit/537.36 (KHTML, like Gecko) Chrome/86.0.4240.111 Safari/537.36",WebKit,Chrome,86.0.4240.111,Windows,10
42,1,null,"<div style=""font-size:60px;"">+</div>",null,html-keyboard-response,115,8851,0.0-115.0,23,fixationBtwnNeutralMaskAndPrompt,50,"""",10/23/2020 21:25,69.125.145.27,"Mozilla/5.0 (Windows NT 10.0; Win64; x64) AppleWebKit/537.36 (KHTML, like Gecko) Chrome/86.0.4240.111 Safari/537.36",WebKit,Chrome,86.0.4240.111,Windows,10
42,1,null,"<div style=""font-size:60px;"">+</div>",null,html-keyboard-response,116,8916,0.0-116.0,24,ITI,50,"""",10/23/2020 21:25,69.125.145.27,"Mozilla/5.0 (Windows NT 10.0; Win64; x64) AppleWebKit/537.36 (KHTML, like Gecko) Chrome/86.0.4240.111 Safari/537.36",WebKit,Chrome,86.0.4240.111,Windows,10
42,1,null,jspsych/allScrambledFaces/scrambledBM11NES.JPG,null,image-keyboard-response,117,8974,0.0-117.0,24,forwardMask,50,n,10/23/2020 21:25,69.125.145.27,"Mozilla/5.0 (Windows NT 10.0; Win64; x64) AppleWebKit/537.36 (KHTML, like Gecko) Chrome/86.0.4240.111 Safari/537.36",WebKit,Chrome,86.0.4240.111,Windows,10
42,1,null,jspsych/allFaces/BM11NES.JPG,null,image-keyboard-response,118,9028,0.0-118.0,24,Cue,"function(){
        return jsPsych.randomization.sampleWithoutReplacement(cueDuration, 1)[0]}","""",10/23/2020 21:25,69.125.145.27,"Mozilla/5.0 (Windows NT 10.0; Win64; x64) AppleWebKit/537.36 (KHTML, like Gecko) Chrome/86.0.4240.111 Safari/537.36",WebKit,Chrome,86.0.4240.111,Windows,10
42,1,null,jspsych/allFaces/AF13NES.JPG,null,image-keyboard-response,119,9093,0.0-119.0,24,backwardMask,50,"""",10/23/2020 21:25,69.125.145.27,"Mozilla/5.0 (Windows NT 10.0; Win64; x64) AppleWebKit/537.36 (KHTML, like Gecko) Chrome/86.0.4240.111 Safari/537.36",WebKit,Chrome,86.0.4240.111,Windows,10
42,1,null,"<div style=""font-size:60px;"">+</div>",null,html-keyboard-response,120,9147,0.0-120.0,24,fixationBtwnNeutralMaskAndPrompt,50,"""",10/23/2020 21:25,69.125.145.27,"Mozilla/5.0 (Windows NT 10.0; Win64; x64) AppleWebKit/537.36 (KHTML, like Gecko) Chrome/86.0.4240.111 Safari/537.36",WebKit,Chrome,86.0.4240.111,Windows,10
42,1,null,"<div style=""font-size:60px;"">+</div>",null,html-keyboard-response,121,9200,0.0-121.0,25,ITI,50,"""",10/23/2020 21:25,69.125.145.27,"Mozilla/5.0 (Windows NT 10.0; Win64; x64) AppleWebKit/537.36 (KHTML, like Gecko) Chrome/86.0.4240.111 Safari/537.36",WebKit,Chrome,86.0.4240.111,Windows,10
42,1,null,jspsych/allScrambledFaces/scrambledBF14NES.JPG,null,image-keyboard-response,122,9259,0.0-122.0,25,forwardMask,50,n,10/23/2020 21:25,69.125.145.27,"Mozilla/5.0 (Windows NT 10.0; Win64; x64) AppleWebKit/537.36 (KHTML, like Gecko) Chrome/86.0.4240.111 Safari/537.36",WebKit,Chrome,86.0.4240.111,Windows,10
42,1,null,jspsych/allFaces/BF14NES.JPG,null,image-keyboard-response,123,9324,0.0-123.0,25,Cue,"function(){
        return jsPsych.randomization.sampleWithoutReplacement(cueDuration, 1)[0]}","""",10/23/2020 21:25,69.125.145.27,"Mozilla/5.0 (Windows NT 10.0; Win64; x64) AppleWebKit/537.36 (KHTML, like Gecko) Chrome/86.0.4240.111 Safari/537.36",WebKit,Chrome,86.0.4240.111,Windows,10
42,1,null,jspsych/allFaces/BM05NES.JPG,null,image-keyboard-response,124,9379,0.0-124.0,25,backwardMask,50,"""",10/23/2020 21:25,69.125.145.27,"Mozilla/5.0 (Windows NT 10.0; Win64; x64) AppleWebKit/537.36 (KHTML, like Gecko) Chrome/86.0.4240.111 Safari/537.36",WebKit,Chrome,86.0.4240.111,Windows,10
42,1,null,"<div style=""font-size:60px;"">+</div>",null,html-keyboard-response,125,9443,0.0-125.0,25,fixationBtwnNeutralMaskAndPrompt,50,"""",10/23/2020 21:25,69.125.145.27,"Mozilla/5.0 (Windows NT 10.0; Win64; x64) AppleWebKit/537.36 (KHTML, like Gecko) Chrome/86.0.4240.111 Safari/537.36",WebKit,Chrome,86.0.4240.111,Windows,10
42,1,null,"<div style=""font-size:60px;"">+</div>",null,html-keyboard-response,126,9508,0.0-126.0,26,ITI,50,"""",10/23/2020 21:25,69.125.145.27,"Mozilla/5.0 (Windows NT 10.0; Win64; x64) AppleWebKit/537.36 (KHTML, like Gecko) Chrome/86.0.4240.111 Safari/537.36",WebKit,Chrome,86.0.4240.111,Windows,10
42,1,null,jspsych/allScrambledFaces/scrambledBM33DIS.JPG,null,image-keyboard-response,127,9574,0.0-127.0,26,forwardMask,50,d,10/23/2020 21:25,69.125.145.27,"Mozilla/5.0 (Windows NT 10.0; Win64; x64) AppleWebKit/537.36 (KHTML, like Gecko) Chrome/86.0.4240.111 Safari/537.36",WebKit,Chrome,86.0.4240.111,Windows,10
42,1,null,jspsych/allFaces/BM33DIS.JPG,null,image-keyboard-response,128,9641,0.0-128.0,26,Cue,"function(){
        return jsPsych.randomization.sampleWithoutReplacement(cueDuration, 1)[0]}","""",10/23/2020 21:25,69.125.145.27,"Mozilla/5.0 (Windows NT 10.0; Win64; x64) AppleWebKit/537.36 (KHTML, like Gecko) Chrome/86.0.4240.111 Safari/537.36",WebKit,Chrome,86.0.4240.111,Windows,10
42,1,null,jspsych/allFaces/BM04NES.JPG,null,image-keyboard-response,129,9694,0.0-129.0,26,backwardMask,50,"""",10/23/2020 21:25,69.125.145.27,"Mozilla/5.0 (Windows NT 10.0; Win64; x64) AppleWebKit/537.36 (KHTML, like Gecko) Chrome/86.0.4240.111 Safari/537.36",WebKit,Chrome,86.0.4240.111,Windows,10
42,1,null,"<div style=""font-size:60px;"">+</div>",null,html-keyboard-response,130,9749,0.0-130.0,26,fixationBtwnNeutralMaskAndPrompt,50,"""",10/23/2020 21:25,69.125.145.27,"Mozilla/5.0 (Windows NT 10.0; Win64; x64) AppleWebKit/537.36 (KHTML, like Gecko) Chrome/86.0.4240.111 Safari/537.36",WebKit,Chrome,86.0.4240.111,Windows,10
42,1,null,"<div style=""font-size:60px;"">+</div>",null,html-keyboard-response,131,9806,0.0-131.0,27,ITI,50,"""",10/23/2020 21:25,69.125.145.27,"Mozilla/5.0 (Windows NT 10.0; Win64; x64) AppleWebKit/537.36 (KHTML, like Gecko) Chrome/86.0.4240.111 Safari/537.36",WebKit,Chrome,86.0.4240.111,Windows,10
42,1,null,jspsych/allScrambledFaces/scrambledAM28NES.JPG,null,image-keyboard-response,132,9864,0.0-132.0,27,forwardMask,50,n,10/23/2020 21:25,69.125.145.27,"Mozilla/5.0 (Windows NT 10.0; Win64; x64) AppleWebKit/537.36 (KHTML, like Gecko) Chrome/86.0.4240.111 Safari/537.36",WebKit,Chrome,86.0.4240.111,Windows,10
42,1,null,jspsych/allFaces/AM28NES.JPG,null,image-keyboard-response,133,9917,0.0-133.0,27,Cue,"function(){
        return jsPsych.randomization.sampleWithoutReplacement(cueDuration, 1)[0]}","""",10/23/2020 21:25,69.125.145.27,"Mozilla/5.0 (Windows NT 10.0; Win64; x64) AppleWebKit/537.36 (KHTML, like Gecko) Chrome/86.0.4240.111 Safari/537.36",WebKit,Chrome,86.0.4240.111,Windows,10
42,1,null,jspsych/allFaces/BF01NES.JPG,null,image-keyboard-response,134,9975,0.0-134.0,27,backwardMask,50,"""",10/23/2020 21:25,69.125.145.27,"Mozilla/5.0 (Windows NT 10.0; Win64; x64) AppleWebKit/537.36 (KHTML, like Gecko) Chrome/86.0.4240.111 Safari/537.36",WebKit,Chrome,86.0.4240.111,Windows,10
42,1,null,"<div style=""font-size:60px;"">+</div>",null,html-keyboard-response,135,10030,0.0-135.0,27,fixationBtwnNeutralMaskAndPrompt,50,"""",10/23/2020 21:25,69.125.145.27,"Mozilla/5.0 (Windows NT 10.0; Win64; x64) AppleWebKit/537.36 (KHTML, like Gecko) Chrome/86.0.4240.111 Safari/537.36",WebKit,Chrome,86.0.4240.111,Windows,10
42,1,null,"<div style=""font-size:60px;"">+</div>",null,html-keyboard-response,136,10091,0.0-136.0,28,ITI,50,"""",10/23/2020 21:25,69.125.145.27,"Mozilla/5.0 (Windows NT 10.0; Win64; x64) AppleWebKit/537.36 (KHTML, like Gecko) Chrome/86.0.4240.111 Safari/537.36",WebKit,Chrome,86.0.4240.111,Windows,10
42,1,null,jspsych/allScrambledFaces/scrambledAM08NES.JPG,null,image-keyboard-response,137,10148,0.0-137.0,28,forwardMask,50,n,10/23/2020 21:25,69.125.145.27,"Mozilla/5.0 (Windows NT 10.0; Win64; x64) AppleWebKit/537.36 (KHTML, like Gecko) Chrome/86.0.4240.111 Safari/537.36",WebKit,Chrome,86.0.4240.111,Windows,10
42,1,null,jspsych/allFaces/AM08NES.JPG,null,image-keyboard-response,138,10200,0.0-138.0,28,Cue,"function(){
        return jsPsych.randomization.sampleWithoutReplacement(cueDuration, 1)[0]}","""",10/23/2020 21:25,69.125.145.27,"Mozilla/5.0 (Windows NT 10.0; Win64; x64) AppleWebKit/537.36 (KHTML, like Gecko) Chrome/86.0.4240.111 Safari/537.36",WebKit,Chrome,86.0.4240.111,Windows,10
42,1,null,jspsych/allFaces/AM31NES.JPG,null,image-keyboard-response,139,10258,0.0-139.0,28,backwardMask,50,"""",10/23/2020 21:25,69.125.145.27,"Mozilla/5.0 (Windows NT 10.0; Win64; x64) AppleWebKit/537.36 (KHTML, like Gecko) Chrome/86.0.4240.111 Safari/537.36",WebKit,Chrome,86.0.4240.111,Windows,10
42,1,null,"<div style=""font-size:60px;"">+</div>",null,html-keyboard-response,140,10310,0.0-140.0,28,fixationBtwnNeutralMaskAndPrompt,50,"""",10/23/2020 21:25,69.125.145.27,"Mozilla/5.0 (Windows NT 10.0; Win64; x64) AppleWebKit/537.36 (KHTML, like Gecko) Chrome/86.0.4240.111 Safari/537.36",WebKit,Chrome,86.0.4240.111,Windows,10
42,1,null,"<div style=""font-size:60px;"">+</div>",null,html-keyboard-response,141,10374,0.0-141.0,29,ITI,50,"""",10/23/2020 21:25,69.125.145.27,"Mozilla/5.0 (Windows NT 10.0; Win64; x64) AppleWebKit/537.36 (KHTML, like Gecko) Chrome/86.0.4240.111 Safari/537.36",WebKit,Chrome,86.0.4240.111,Windows,10
42,1,null,jspsych/allScrambledFaces/scrambledBF15NES.JPG,null,image-keyboard-response,142,10431,0.0-142.0,29,forwardMask,50,n,10/23/2020 21:25,69.125.145.27,"Mozilla/5.0 (Windows NT 10.0; Win64; x64) AppleWebKit/537.36 (KHTML, like Gecko) Chrome/86.0.4240.111 Safari/537.36",WebKit,Chrome,86.0.4240.111,Windows,10
42,1,null,jspsych/allFaces/BF15NES.JPG,null,image-keyboard-response,143,10501,0.0-143.0,29,Cue,"function(){
        return jsPsych.randomization.sampleWithoutReplacement(cueDuration, 1)[0]}","""",10/23/2020 21:25,69.125.145.27,"Mozilla/5.0 (Windows NT 10.0; Win64; x64) AppleWebKit/537.36 (KHTML, like Gecko) Chrome/86.0.4240.111 Safari/537.36",WebKit,Chrome,86.0.4240.111,Windows,10
42,1,null,jspsych/allFaces/BF15NES.JPG,null,image-keyboard-response,144,10571,0.0-144.0,29,backwardMask,50,"""",10/23/2020 21:25,69.125.145.27,"Mozilla/5.0 (Windows NT 10.0; Win64; x64) AppleWebKit/537.36 (KHTML, like Gecko) Chrome/86.0.4240.111 Safari/537.36",WebKit,Chrome,86.0.4240.111,Windows,10
42,1,null,"<div style=""font-size:60px;"">+</div>",null,html-keyboard-response,145,10631,0.0-145.0,29,fixationBtwnNeutralMaskAndPrompt,50,"""",10/23/2020 21:25,69.125.145.27,"Mozilla/5.0 (Windows NT 10.0; Win64; x64) AppleWebKit/537.36 (KHTML, like Gecko) Chrome/86.0.4240.111 Safari/537.36",WebKit,Chrome,86.0.4240.111,Windows,10
42,1,null,"<div style=""font-size:60px;"">+</div>",null,html-keyboard-response,146,10701,0.0-146.0,30,ITI,50,"""",10/23/2020 21:25,69.125.145.27,"Mozilla/5.0 (Windows NT 10.0; Win64; x64) AppleWebKit/537.36 (KHTML, like Gecko) Chrome/86.0.4240.111 Safari/537.36",WebKit,Chrome,86.0.4240.111,Windows,10
42,1,null,jspsych/allScrambledFaces/scrambledAF12NES.JPG,null,image-keyboard-response,147,10761,0.0-147.0,30,forwardMask,50,n,10/23/2020 21:25,69.125.145.27,"Mozilla/5.0 (Windows NT 10.0; Win64; x64) AppleWebKit/537.36 (KHTML, like Gecko) Chrome/86.0.4240.111 Safari/537.36",WebKit,Chrome,86.0.4240.111,Windows,10
42,1,null,jspsych/allFaces/AF12NES.JPG,null,image-keyboard-response,148,10820,0.0-148.0,30,Cue,"function(){
        return jsPsych.randomization.sampleWithoutReplacement(cueDuration, 1)[0]}","""",10/23/2020 21:25,69.125.145.27,"Mozilla/5.0 (Windows NT 10.0; Win64; x64) AppleWebKit/537.36 (KHTML, like Gecko) Chrome/86.0.4240.111 Safari/537.36",WebKit,Chrome,86.0.4240.111,Windows,10
42,1,null,jspsych/allFaces/BM16NES.JPG,null,image-keyboard-response,149,10880,0.0-149.0,30,backwardMask,50,"""",10/23/2020 21:25,69.125.145.27,"Mozilla/5.0 (Windows NT 10.0; Win64; x64) AppleWebKit/537.36 (KHTML, like Gecko) Chrome/86.0.4240.111 Safari/537.36",WebKit,Chrome,86.0.4240.111,Windows,10
42,1,null,"<div style=""font-size:60px;"">+</div>",null,html-keyboard-response,150,10951,0.0-150.0,30,fixationBtwnNeutralMaskAndPrompt,50,"""",10/23/2020 21:25,69.125.145.27,"Mozilla/5.0 (Windows NT 10.0; Win64; x64) AppleWebKit/537.36 (KHTML, like Gecko) Chrome/86.0.4240.111 Safari/537.36",WebKit,Chrome,86.0.4240.111,Windows,10
42,1,null,"<div style=""font-size:60px;"">+</div>",null,html-keyboard-response,151,11007,0.0-151.0,31,ITI,50,"""",10/23/2020 21:25,69.125.145.27,"Mozilla/5.0 (Windows NT 10.0; Win64; x64) AppleWebKit/537.36 (KHTML, like Gecko) Chrome/86.0.4240.111 Safari/537.36",WebKit,Chrome,86.0.4240.111,Windows,10
42,1,null,jspsych/allScrambledFaces/scrambledBM05NES.JPG,null,image-keyboard-response,152,11061,0.0-152.0,31,forwardMask,50,n,10/23/2020 21:25,69.125.145.27,"Mozilla/5.0 (Windows NT 10.0; Win64; x64) AppleWebKit/537.36 (KHTML, like Gecko) Chrome/86.0.4240.111 Safari/537.36",WebKit,Chrome,86.0.4240.111,Windows,10
42,1,null,jspsych/allFaces/BM05NES.JPG,null,image-keyboard-response,153,11131,0.0-153.0,31,Cue,"function(){
        return jsPsych.randomization.sampleWithoutReplacement(cueDuration, 1)[0]}","""",10/23/2020 21:25,69.125.145.27,"Mozilla/5.0 (Windows NT 10.0; Win64; x64) AppleWebKit/537.36 (KHTML, like Gecko) Chrome/86.0.4240.111 Safari/537.36",WebKit,Chrome,86.0.4240.111,Windows,10
42,1,null,jspsych/allFaces/AF22NES.JPG,null,image-keyboard-response,154,11189,0.0-154.0,31,backwardMask,50,"""",10/23/2020 21:25,69.125.145.27,"Mozilla/5.0 (Windows NT 10.0; Win64; x64) AppleWebKit/537.36 (KHTML, like Gecko) Chrome/86.0.4240.111 Safari/537.36",WebKit,Chrome,86.0.4240.111,Windows,10
42,1,null,"<div style=""font-size:60px;"">+</div>",null,html-keyboard-response,155,11256,0.0-155.0,31,fixationBtwnNeutralMaskAndPrompt,50,"""",10/23/2020 21:25,69.125.145.27,"Mozilla/5.0 (Windows NT 10.0; Win64; x64) AppleWebKit/537.36 (KHTML, like Gecko) Chrome/86.0.4240.111 Safari/537.36",WebKit,Chrome,86.0.4240.111,Windows,10
42,1,null,"<div style=""font-size:60px;"">+</div>",null,html-keyboard-response,156,11311,0.0-156.0,32,ITI,50,"""",10/23/2020 21:25,69.125.145.27,"Mozilla/5.0 (Windows NT 10.0; Win64; x64) AppleWebKit/537.36 (KHTML, like Gecko) Chrome/86.0.4240.111 Safari/537.36",WebKit,Chrome,86.0.4240.111,Windows,10
42,1,null,jspsych/allScrambledFaces/scrambledBF10NES.JPG,null,image-keyboard-response,157,11371,0.0-157.0,32,forwardMask,50,n,10/23/2020 21:25,69.125.145.27,"Mozilla/5.0 (Windows NT 10.0; Win64; x64) AppleWebKit/537.36 (KHTML, like Gecko) Chrome/86.0.4240.111 Safari/537.36",WebKit,Chrome,86.0.4240.111,Windows,10
42,1,null,jspsych/allFaces/BF10NES.JPG,null,image-keyboard-response,158,11431,0.0-158.0,32,Cue,"function(){
        return jsPsych.randomization.sampleWithoutReplacement(cueDuration, 1)[0]}","""",10/23/2020 21:25,69.125.145.27,"Mozilla/5.0 (Windows NT 10.0; Win64; x64) AppleWebKit/537.36 (KHTML, like Gecko) Chrome/86.0.4240.111 Safari/537.36",WebKit,Chrome,86.0.4240.111,Windows,10
42,1,null,jspsych/allFaces/AM32NES.JPG,null,image-keyboard-response,159,11486,0.0-159.0,32,backwardMask,50,"""",10/23/2020 21:25,69.125.145.27,"Mozilla/5.0 (Windows NT 10.0; Win64; x64) AppleWebKit/537.36 (KHTML, like Gecko) Chrome/86.0.4240.111 Safari/537.36",WebKit,Chrome,86.0.4240.111,Windows,10
42,1,null,"<div style=""font-size:60px;"">+</div>",null,html-keyboard-response,160,11539,0.0-160.0,32,fixationBtwnNeutralMaskAndPrompt,50,"""",10/23/2020 21:25,69.125.145.27,"Mozilla/5.0 (Windows NT 10.0; Win64; x64) AppleWebKit/537.36 (KHTML, like Gecko) Chrome/86.0.4240.111 Safari/537.36",WebKit,Chrome,86.0.4240.111,Windows,10
42,1,null,"<div style=""font-size:60px;"">+</div>",null,html-keyboard-response,161,11601,0.0-161.0,33,ITI,50,"""",10/23/2020 21:25,69.125.145.27,"Mozilla/5.0 (Windows NT 10.0; Win64; x64) AppleWebKit/537.36 (KHTML, like Gecko) Chrome/86.0.4240.111 Safari/537.36",WebKit,Chrome,86.0.4240.111,Windows,10
42,1,null,jspsych/allScrambledFaces/scrambledAF21NES.JPG,null,image-keyboard-response,162,11661,0.0-162.0,33,forwardMask,50,n,10/23/2020 21:25,69.125.145.27,"Mozilla/5.0 (Windows NT 10.0; Win64; x64) AppleWebKit/537.36 (KHTML, like Gecko) Chrome/86.0.4240.111 Safari/537.36",WebKit,Chrome,86.0.4240.111,Windows,10
42,1,null,jspsych/allFaces/AF21NES.JPG,null,image-keyboard-response,163,11731,0.0-163.0,33,Cue,"function(){
        return jsPsych.randomization.sampleWithoutReplacement(cueDuration, 1)[0]}","""",10/23/2020 21:25,69.125.145.27,"Mozilla/5.0 (Windows NT 10.0; Win64; x64) AppleWebKit/537.36 (KHTML, like Gecko) Chrome/86.0.4240.111 Safari/537.36",WebKit,Chrome,86.0.4240.111,Windows,10
42,1,null,jspsych/allFaces/BM08NES.JPG,null,image-keyboard-response,164,11786,0.0-164.0,33,backwardMask,50,"""",10/23/2020 21:25,69.125.145.27,"Mozilla/5.0 (Windows NT 10.0; Win64; x64) AppleWebKit/537.36 (KHTML, like Gecko) Chrome/86.0.4240.111 Safari/537.36",WebKit,Chrome,86.0.4240.111,Windows,10
42,1,null,"<div style=""font-size:60px;"">+</div>",null,html-keyboard-response,165,11841,0.0-165.0,33,fixationBtwnNeutralMaskAndPrompt,50,"""",10/23/2020 21:25,69.125.145.27,"Mozilla/5.0 (Windows NT 10.0; Win64; x64) AppleWebKit/537.36 (KHTML, like Gecko) Chrome/86.0.4240.111 Safari/537.36",WebKit,Chrome,86.0.4240.111,Windows,10
42,1,null,"<div style=""font-size:60px;"">+</div>",null,html-keyboard-response,166,11907,0.0-166.0,34,ITI,50,"""",10/23/2020 21:25,69.125.145.27,"Mozilla/5.0 (Windows NT 10.0; Win64; x64) AppleWebKit/537.36 (KHTML, like Gecko) Chrome/86.0.4240.111 Safari/537.36",WebKit,Chrome,86.0.4240.111,Windows,10
42,1,null,jspsych/allScrambledFaces/scrambledAF09DIS.JPG,null,image-keyboard-response,167,11973,0.0-167.0,34,forwardMask,50,d,10/23/2020 21:25,69.125.145.27,"Mozilla/5.0 (Windows NT 10.0; Win64; x64) AppleWebKit/537.36 (KHTML, like Gecko) Chrome/86.0.4240.111 Safari/537.36",WebKit,Chrome,86.0.4240.111,Windows,10
42,1,null,jspsych/allFaces/AF09DIS.JPG,null,image-keyboard-response,168,12031,0.0-168.0,34,Cue,"function(){
        return jsPsych.randomization.sampleWithoutReplacement(cueDuration, 1)[0]}","""",10/23/2020 21:25,69.125.145.27,"Mozilla/5.0 (Windows NT 10.0; Win64; x64) AppleWebKit/537.36 (KHTML, like Gecko) Chrome/86.0.4240.111 Safari/537.36",WebKit,Chrome,86.0.4240.111,Windows,10
42,1,null,jspsych/allFaces/BM10NES.JPG,null,image-keyboard-response,169,12087,0.0-169.0,34,backwardMask,50,"""",10/23/2020 21:25,69.125.145.27,"Mozilla/5.0 (Windows NT 10.0; Win64; x64) AppleWebKit/537.36 (KHTML, like Gecko) Chrome/86.0.4240.111 Safari/537.36",WebKit,Chrome,86.0.4240.111,Windows,10
42,1,null,"<div style=""font-size:60px;"">+</div>",null,html-keyboard-response,170,12140,0.0-170.0,34,fixationBtwnNeutralMaskAndPrompt,50,"""",10/23/2020 21:25,69.125.145.27,"Mozilla/5.0 (Windows NT 10.0; Win64; x64) AppleWebKit/537.36 (KHTML, like Gecko) Chrome/86.0.4240.111 Safari/537.36",WebKit,Chrome,86.0.4240.111,Windows,10
42,1,null,"<div style=""font-size:60px;"">+</div>",null,html-keyboard-response,171,12211,0.0-171.0,35,ITI,50,"""",10/23/2020 21:25,69.125.145.27,"Mozilla/5.0 (Windows NT 10.0; Win64; x64) AppleWebKit/537.36 (KHTML, like Gecko) Chrome/86.0.4240.111 Safari/537.36",WebKit,Chrome,86.0.4240.111,Windows,10
42,1,null,jspsych/allScrambledFaces/scrambledAM22NES.JPG,null,image-keyboard-response,172,12271,0.0-172.0,35,forwardMask,50,n,10/23/2020 21:25,69.125.145.27,"Mozilla/5.0 (Windows NT 10.0; Win64; x64) AppleWebKit/537.36 (KHTML, like Gecko) Chrome/86.0.4240.111 Safari/537.36",WebKit,Chrome,86.0.4240.111,Windows,10
42,1,null,jspsych/allFaces/AM22NES.JPG,null,image-keyboard-response,173,12331,0.0-173.0,35,Cue,"function(){
        return jsPsych.randomization.sampleWithoutReplacement(cueDuration, 1)[0]}","""",10/23/2020 21:25,69.125.145.27,"Mozilla/5.0 (Windows NT 10.0; Win64; x64) AppleWebKit/537.36 (KHTML, like Gecko) Chrome/86.0.4240.111 Safari/537.36",WebKit,Chrome,86.0.4240.111,Windows,10
42,1,null,jspsych/allFaces/AF07NES.JPG,null,image-keyboard-response,174,12387,0.0-174.0,35,backwardMask,50,"""",10/23/2020 21:25,69.125.145.27,"Mozilla/5.0 (Windows NT 10.0; Win64; x64) AppleWebKit/537.36 (KHTML, like Gecko) Chrome/86.0.4240.111 Safari/537.36",WebKit,Chrome,86.0.4240.111,Windows,10
42,1,null,"<div style=""font-size:60px;"">+</div>",null,html-keyboard-response,175,12455,0.0-175.0,35,fixationBtwnNeutralMaskAndPrompt,50,"""",10/23/2020 21:25,69.125.145.27,"Mozilla/5.0 (Windows NT 10.0; Win64; x64) AppleWebKit/537.36 (KHTML, like Gecko) Chrome/86.0.4240.111 Safari/537.36",WebKit,Chrome,86.0.4240.111,Windows,10
42,1,null,"<div style=""font-size:60px;"">+</div>",null,html-keyboard-response,176,12511,0.0-176.0,36,ITI,50,"""",10/23/2020 21:25,69.125.145.27,"Mozilla/5.0 (Windows NT 10.0; Win64; x64) AppleWebKit/537.36 (KHTML, like Gecko) Chrome/86.0.4240.111 Safari/537.36",WebKit,Chrome,86.0.4240.111,Windows,10
42,1,null,jspsych/allScrambledFaces/scrambledBM35NES.JPG,null,image-keyboard-response,177,12571,0.0-177.0,36,forwardMask,50,n,10/23/2020 21:25,69.125.145.27,"Mozilla/5.0 (Windows NT 10.0; Win64; x64) AppleWebKit/537.36 (KHTML, like Gecko) Chrome/86.0.4240.111 Safari/537.36",WebKit,Chrome,86.0.4240.111,Windows,10
42,1,null,jspsych/allFaces/BM35NES.JPG,null,image-keyboard-response,178,12631,0.0-178.0,36,Cue,"function(){
        return jsPsych.randomization.sampleWithoutReplacement(cueDuration, 1)[0]}","""",10/23/2020 21:25,69.125.145.27,"Mozilla/5.0 (Windows NT 10.0; Win64; x64) AppleWebKit/537.36 (KHTML, like Gecko) Chrome/86.0.4240.111 Safari/537.36",WebKit,Chrome,86.0.4240.111,Windows,10
42,1,null,jspsych/allFaces/AF07NES.JPG,null,image-keyboard-response,179,12701,0.0-179.0,36,backwardMask,50,"""",10/23/2020 21:25,69.125.145.27,"Mozilla/5.0 (Windows NT 10.0; Win64; x64) AppleWebKit/537.36 (KHTML, like Gecko) Chrome/86.0.4240.111 Safari/537.36",WebKit,Chrome,86.0.4240.111,Windows,10
42,1,null,"<div style=""font-size:60px;"">+</div>",null,html-keyboard-response,180,12771,0.0-180.0,36,fixationBtwnNeutralMaskAndPrompt,50,"""",10/23/2020 21:25,69.125.145.27,"Mozilla/5.0 (Windows NT 10.0; Win64; x64) AppleWebKit/537.36 (KHTML, like Gecko) Chrome/86.0.4240.111 Safari/537.36",WebKit,Chrome,86.0.4240.111,Windows,10
42,1,null,"<div style=""font-size:60px;"">+</div>",null,html-keyboard-response,181,12833,0.0-181.0,37,ITI,50,"""",10/23/2020 21:25,69.125.145.27,"Mozilla/5.0 (Windows NT 10.0; Win64; x64) AppleWebKit/537.36 (KHTML, like Gecko) Chrome/86.0.4240.111 Safari/537.36",WebKit,Chrome,86.0.4240.111,Windows,10
42,1,null,jspsych/allScrambledFaces/scrambledAF05NES.JPG,null,image-keyboard-response,182,12889,0.0-182.0,37,forwardMask,50,n,10/23/2020 21:25,69.125.145.27,"Mozilla/5.0 (Windows NT 10.0; Win64; x64) AppleWebKit/537.36 (KHTML, like Gecko) Chrome/86.0.4240.111 Safari/537.36",WebKit,Chrome,86.0.4240.111,Windows,10
42,1,null,jspsych/allFaces/AF05NES.JPG,null,image-keyboard-response,183,12953,0.0-183.0,37,Cue,"function(){
        return jsPsych.randomization.sampleWithoutReplacement(cueDuration, 1)[0]}","""",10/23/2020 21:25,69.125.145.27,"Mozilla/5.0 (Windows NT 10.0; Win64; x64) AppleWebKit/537.36 (KHTML, like Gecko) Chrome/86.0.4240.111 Safari/537.36",WebKit,Chrome,86.0.4240.111,Windows,10
42,1,null,jspsych/allFaces/BF02NES.JPG,null,image-keyboard-response,184,13010,0.0-184.0,37,backwardMask,50,"""",10/23/2020 21:25,69.125.145.27,"Mozilla/5.0 (Windows NT 10.0; Win64; x64) AppleWebKit/537.36 (KHTML, like Gecko) Chrome/86.0.4240.111 Safari/537.36",WebKit,Chrome,86.0.4240.111,Windows,10
42,1,null,"<div style=""font-size:60px;"">+</div>",null,html-keyboard-response,185,13071,0.0-185.0,37,fixationBtwnNeutralMaskAndPrompt,50,"""",10/23/2020 21:25,69.125.145.27,"Mozilla/5.0 (Windows NT 10.0; Win64; x64) AppleWebKit/537.36 (KHTML, like Gecko) Chrome/86.0.4240.111 Safari/537.36",WebKit,Chrome,86.0.4240.111,Windows,10
42,1,null,"<div style=""font-size:60px;"">+</div>",null,html-keyboard-response,186,13127,0.0-186.0,38,ITI,50,"""",10/23/2020 21:25,69.125.145.27,"Mozilla/5.0 (Windows NT 10.0; Win64; x64) AppleWebKit/537.36 (KHTML, like Gecko) Chrome/86.0.4240.111 Safari/537.36",WebKit,Chrome,86.0.4240.111,Windows,10
42,1,null,jspsych/allScrambledFaces/scrambledAF01DIS.JPG,null,image-keyboard-response,187,13188,0.0-187.0,38,forwardMask,50,d,10/23/2020 21:25,69.125.145.27,"Mozilla/5.0 (Windows NT 10.0; Win64; x64) AppleWebKit/537.36 (KHTML, like Gecko) Chrome/86.0.4240.111 Safari/537.36",WebKit,Chrome,86.0.4240.111,Windows,10
42,1,null,jspsych/allFaces/AF01DIS.JPG,null,image-keyboard-response,188,13254,0.0-188.0,38,Cue,"function(){
        return jsPsych.randomization.sampleWithoutReplacement(cueDuration, 1)[0]}","""",10/23/2020 21:25,69.125.145.27,"Mozilla/5.0 (Windows NT 10.0; Win64; x64) AppleWebKit/537.36 (KHTML, like Gecko) Chrome/86.0.4240.111 Safari/537.36",WebKit,Chrome,86.0.4240.111,Windows,10
42,1,null,jspsych/allFaces/AM08NES.JPG,null,image-keyboard-response,189,13311,0.0-189.0,38,backwardMask,50,"""",10/23/2020 21:25,69.125.145.27,"Mozilla/5.0 (Windows NT 10.0; Win64; x64) AppleWebKit/537.36 (KHTML, like Gecko) Chrome/86.0.4240.111 Safari/537.36",WebKit,Chrome,86.0.4240.111,Windows,10
42,1,null,"<div style=""font-size:60px;"">+</div>",null,html-keyboard-response,190,13380,0.0-190.0,38,fixationBtwnNeutralMaskAndPrompt,50,"""",10/23/2020 21:25,69.125.145.27,"Mozilla/5.0 (Windows NT 10.0; Win64; x64) AppleWebKit/537.36 (KHTML, like Gecko) Chrome/86.0.4240.111 Safari/537.36",WebKit,Chrome,86.0.4240.111,Windows,10
42,1,null,"<div style=""font-size:60px;"">+</div>",null,html-keyboard-response,191,13450,0.0-191.0,39,ITI,50,"""",10/23/2020 21:25,69.125.145.27,"Mozilla/5.0 (Windows NT 10.0; Win64; x64) AppleWebKit/537.36 (KHTML, like Gecko) Chrome/86.0.4240.111 Safari/537.36",WebKit,Chrome,86.0.4240.111,Windows,10
42,1,null,jspsych/allScrambledFaces/scrambledAF20DIS.JPG,null,image-keyboard-response,192,13510,0.0-192.0,39,forwardMask,50,d,10/23/2020 21:25,69.125.145.27,"Mozilla/5.0 (Windows NT 10.0; Win64; x64) AppleWebKit/537.36 (KHTML, like Gecko) Chrome/86.0.4240.111 Safari/537.36",WebKit,Chrome,86.0.4240.111,Windows,10
42,1,null,jspsych/allFaces/AF20DIS.JPG,null,image-keyboard-response,193,13570,0.0-193.0,39,Cue,"function(){
        return jsPsych.randomization.sampleWithoutReplacement(cueDuration, 1)[0]}","""",10/23/2020 21:25,69.125.145.27,"Mozilla/5.0 (Windows NT 10.0; Win64; x64) AppleWebKit/537.36 (KHTML, like Gecko) Chrome/86.0.4240.111 Safari/537.36",WebKit,Chrome,86.0.4240.111,Windows,10
42,1,null,jspsych/allFaces/BM02NES.JPG,null,image-keyboard-response,194,13631,0.0-194.0,39,backwardMask,50,"""",10/23/2020 21:25,69.125.145.27,"Mozilla/5.0 (Windows NT 10.0; Win64; x64) AppleWebKit/537.36 (KHTML, like Gecko) Chrome/86.0.4240.111 Safari/537.36",WebKit,Chrome,86.0.4240.111,Windows,10
42,1,null,"<div style=""font-size:60px;"">+</div>",null,html-keyboard-response,195,13696,0.0-195.0,39,fixationBtwnNeutralMaskAndPrompt,50,"""",10/23/2020 21:25,69.125.145.27,"Mozilla/5.0 (Windows NT 10.0; Win64; x64) AppleWebKit/537.36 (KHTML, like Gecko) Chrome/86.0.4240.111 Safari/537.36",WebKit,Chrome,86.0.4240.111,Windows,10
42,1,null,"<div style=""font-size:60px;"">+</div>",null,html-keyboard-response,196,13761,0.0-196.0,40,ITI,50,"""",10/23/2020 21:25,69.125.145.27,"Mozilla/5.0 (Windows NT 10.0; Win64; x64) AppleWebKit/537.36 (KHTML, like Gecko) Chrome/86.0.4240.111 Safari/537.36",WebKit,Chrome,86.0.4240.111,Windows,10
42,1,null,jspsych/allScrambledFaces/scrambledBF31NES.JPG,null,image-keyboard-response,197,13820,0.0-197.0,40,forwardMask,50,n,10/23/2020 21:25,69.125.145.27,"Mozilla/5.0 (Windows NT 10.0; Win64; x64) AppleWebKit/537.36 (KHTML, like Gecko) Chrome/86.0.4240.111 Safari/537.36",WebKit,Chrome,86.0.4240.111,Windows,10
42,1,null,jspsych/allFaces/BF31NES.JPG,null,image-keyboard-response,198,13881,0.0-198.0,40,Cue,"function(){
        return jsPsych.randomization.sampleWithoutReplacement(cueDuration, 1)[0]}","""",10/23/2020 21:25,69.125.145.27,"Mozilla/5.0 (Windows NT 10.0; Win64; x64) AppleWebKit/537.36 (KHTML, like Gecko) Chrome/86.0.4240.111 Safari/537.36",WebKit,Chrome,86.0.4240.111,Windows,10
42,1,null,jspsych/allFaces/BM31NES.JPG,null,image-keyboard-response,199,13937,0.0-199.0,40,backwardMask,50,"""",10/23/2020 21:25,69.125.145.27,"Mozilla/5.0 (Windows NT 10.0; Win64; x64) AppleWebKit/537.36 (KHTML, like Gecko) Chrome/86.0.4240.111 Safari/537.36",WebKit,Chrome,86.0.4240.111,Windows,10
42,1,null,"<div style=""font-size:60px;"">+</div>",null,html-keyboard-response,200,13991,0.0-200.0,40,fixationBtwnNeutralMaskAndPrompt,50,"""",10/23/2020 21:25,69.125.145.27,"Mozilla/5.0 (Windows NT 10.0; Win64; x64) AppleWebKit/537.36 (KHTML, like Gecko) Chrome/86.0.4240.111 Safari/537.36",WebKit,Chrome,86.0.4240.111,Windows,10
42,1,null,"<div style=""font-size:60px;"">+</div>",null,html-keyboard-response,201,14054,0.0-201.0,41,ITI,50,"""",10/23/2020 21:25,69.125.145.27,"Mozilla/5.0 (Windows NT 10.0; Win64; x64) AppleWebKit/537.36 (KHTML, like Gecko) Chrome/86.0.4240.111 Safari/537.36",WebKit,Chrome,86.0.4240.111,Windows,10
42,1,null,jspsych/allScrambledFaces/scrambledAM05NES.JPG,null,image-keyboard-response,202,14111,0.0-202.0,41,forwardMask,50,n,10/23/2020 21:25,69.125.145.27,"Mozilla/5.0 (Windows NT 10.0; Win64; x64) AppleWebKit/537.36 (KHTML, like Gecko) Chrome/86.0.4240.111 Safari/537.36",WebKit,Chrome,86.0.4240.111,Windows,10
42,1,null,jspsych/allFaces/AM05NES.JPG,null,image-keyboard-response,203,14170,0.0-203.0,41,Cue,"function(){
        return jsPsych.randomization.sampleWithoutReplacement(cueDuration, 1)[0]}","""",10/23/2020 21:25,69.125.145.27,"Mozilla/5.0 (Windows NT 10.0; Win64; x64) AppleWebKit/537.36 (KHTML, like Gecko) Chrome/86.0.4240.111 Safari/537.36",WebKit,Chrome,86.0.4240.111,Windows,10
42,1,null,jspsych/allFaces/BM07NES.JPG,null,image-keyboard-response,204,14237,0.0-204.0,41,backwardMask,50,"""",10/23/2020 21:25,69.125.145.27,"Mozilla/5.0 (Windows NT 10.0; Win64; x64) AppleWebKit/537.36 (KHTML, like Gecko) Chrome/86.0.4240.111 Safari/537.36",WebKit,Chrome,86.0.4240.111,Windows,10
42,1,null,"<div style=""font-size:60px;"">+</div>",null,html-keyboard-response,205,14291,0.0-205.0,41,fixationBtwnNeutralMaskAndPrompt,50,"""",10/23/2020 21:25,69.125.145.27,"Mozilla/5.0 (Windows NT 10.0; Win64; x64) AppleWebKit/537.36 (KHTML, like Gecko) Chrome/86.0.4240.111 Safari/537.36",WebKit,Chrome,86.0.4240.111,Windows,10
42,1,null,"<div style=""font-size:60px;"">+</div>",null,html-keyboard-response,206,14361,0.0-206.0,42,ITI,50,"""",10/23/2020 21:25,69.125.145.27,"Mozilla/5.0 (Windows NT 10.0; Win64; x64) AppleWebKit/537.36 (KHTML, like Gecko) Chrome/86.0.4240.111 Safari/537.36",WebKit,Chrome,86.0.4240.111,Windows,10
42,1,null,jspsych/allScrambledFaces/scrambledBM30NES.JPG,null,image-keyboard-response,207,14420,0.0-207.0,42,forwardMask,50,n,10/23/2020 21:25,69.125.145.27,"Mozilla/5.0 (Windows NT 10.0; Win64; x64) AppleWebKit/537.36 (KHTML, like Gecko) Chrome/86.0.4240.111 Safari/537.36",WebKit,Chrome,86.0.4240.111,Windows,10
42,1,null,jspsych/allFaces/BM30NES.JPG,null,image-keyboard-response,208,14480,0.0-208.0,42,Cue,"function(){
        return jsPsych.randomization.sampleWithoutReplacement(cueDuration, 1)[0]}","""",10/23/2020 21:25,69.125.145.27,"Mozilla/5.0 (Windows NT 10.0; Win64; x64) AppleWebKit/537.36 (KHTML, like Gecko) Chrome/86.0.4240.111 Safari/537.36",WebKit,Chrome,86.0.4240.111,Windows,10
42,1,null,jspsych/allFaces/BF23NES.JPG,null,image-keyboard-response,209,14536,0.0-209.0,42,backwardMask,50,"""",10/23/2020 21:25,69.125.145.27,"Mozilla/5.0 (Windows NT 10.0; Win64; x64) AppleWebKit/537.36 (KHTML, like Gecko) Chrome/86.0.4240.111 Safari/537.36",WebKit,Chrome,86.0.4240.111,Windows,10
42,1,null,"<div style=""font-size:60px;"">+</div>",null,html-keyboard-response,210,14591,0.0-210.0,42,fixationBtwnNeutralMaskAndPrompt,50,"""",10/23/2020 21:25,69.125.145.27,"Mozilla/5.0 (Windows NT 10.0; Win64; x64) AppleWebKit/537.36 (KHTML, like Gecko) Chrome/86.0.4240.111 Safari/537.36",WebKit,Chrome,86.0.4240.111,Windows,10
42,1,null,"<div style=""font-size:60px;"">+</div>",null,html-keyboard-response,211,14661,0.0-211.0,43,ITI,50,"""",10/23/2020 21:25,69.125.145.27,"Mozilla/5.0 (Windows NT 10.0; Win64; x64) AppleWebKit/537.36 (KHTML, like Gecko) Chrome/86.0.4240.111 Safari/537.36",WebKit,Chrome,86.0.4240.111,Windows,10
42,1,null,jspsych/allScrambledFaces/scrambledBM31DIS.JPG,null,image-keyboard-response,212,14719,0.0-212.0,43,forwardMask,50,d,10/23/2020 21:25,69.125.145.27,"Mozilla/5.0 (Windows NT 10.0; Win64; x64) AppleWebKit/537.36 (KHTML, like Gecko) Chrome/86.0.4240.111 Safari/537.36",WebKit,Chrome,86.0.4240.111,Windows,10
42,1,null,jspsych/allFaces/BM31DIS.JPG,null,image-keyboard-response,213,14786,0.0-213.0,43,Cue,"function(){
        return jsPsych.randomization.sampleWithoutReplacement(cueDuration, 1)[0]}","""",10/23/2020 21:25,69.125.145.27,"Mozilla/5.0 (Windows NT 10.0; Win64; x64) AppleWebKit/537.36 (KHTML, like Gecko) Chrome/86.0.4240.111 Safari/537.36",WebKit,Chrome,86.0.4240.111,Windows,10
42,1,null,jspsych/allFaces/AF05NES.JPG,null,image-keyboard-response,214,14843,0.0-214.0,43,backwardMask,50,"""",10/23/2020 21:25,69.125.145.27,"Mozilla/5.0 (Windows NT 10.0; Win64; x64) AppleWebKit/537.36 (KHTML, like Gecko) Chrome/86.0.4240.111 Safari/537.36",WebKit,Chrome,86.0.4240.111,Windows,10
42,1,null,"<div style=""font-size:60px;"">+</div>",null,html-keyboard-response,215,14910,0.0-215.0,43,fixationBtwnNeutralMaskAndPrompt,50,"""",10/23/2020 21:25,69.125.145.27,"Mozilla/5.0 (Windows NT 10.0; Win64; x64) AppleWebKit/537.36 (KHTML, like Gecko) Chrome/86.0.4240.111 Safari/537.36",WebKit,Chrome,86.0.4240.111,Windows,10
42,1,null,"<div style=""font-size:60px;"">+</div>",null,html-keyboard-response,216,14981,0.0-216.0,44,ITI,50,"""",10/23/2020 21:25,69.125.145.27,"Mozilla/5.0 (Windows NT 10.0; Win64; x64) AppleWebKit/537.36 (KHTML, like Gecko) Chrome/86.0.4240.111 Safari/537.36",WebKit,Chrome,86.0.4240.111,Windows,10
42,1,null,jspsych/allScrambledFaces/scrambledAF15DIS.JPG,null,image-keyboard-response,217,15041,0.0-217.0,44,forwardMask,50,d,10/23/2020 21:25,69.125.145.27,"Mozilla/5.0 (Windows NT 10.0; Win64; x64) AppleWebKit/537.36 (KHTML, like Gecko) Chrome/86.0.4240.111 Safari/537.36",WebKit,Chrome,86.0.4240.111,Windows,10
42,1,null,jspsych/allFaces/AF15DIS.JPG,null,image-keyboard-response,218,15111,0.0-218.0,44,Cue,"function(){
        return jsPsych.randomization.sampleWithoutReplacement(cueDuration, 1)[0]}","""",10/23/2020 21:25,69.125.145.27,"Mozilla/5.0 (Windows NT 10.0; Win64; x64) AppleWebKit/537.36 (KHTML, like Gecko) Chrome/86.0.4240.111 Safari/537.36",WebKit,Chrome,86.0.4240.111,Windows,10
42,1,null,jspsych/allFaces/AF13NES.JPG,null,image-keyboard-response,219,15169,0.0-219.0,44,backwardMask,50,"""",10/23/2020 21:25,69.125.145.27,"Mozilla/5.0 (Windows NT 10.0; Win64; x64) AppleWebKit/537.36 (KHTML, like Gecko) Chrome/86.0.4240.111 Safari/537.36",WebKit,Chrome,86.0.4240.111,Windows,10
42,1,null,"<div style=""font-size:60px;"">+</div>",null,html-keyboard-response,220,15234,0.0-220.0,44,fixationBtwnNeutralMaskAndPrompt,50,"""",10/23/2020 21:25,69.125.145.27,"Mozilla/5.0 (Windows NT 10.0; Win64; x64) AppleWebKit/537.36 (KHTML, like Gecko) Chrome/86.0.4240.111 Safari/537.36",WebKit,Chrome,86.0.4240.111,Windows,10
42,1,null,"<div style=""font-size:60px;"">+</div>",null,html-keyboard-response,221,15300,0.0-221.0,45,ITI,50,"""",10/23/2020 21:25,69.125.145.27,"Mozilla/5.0 (Windows NT 10.0; Win64; x64) AppleWebKit/537.36 (KHTML, like Gecko) Chrome/86.0.4240.111 Safari/537.36",WebKit,Chrome,86.0.4240.111,Windows,10
42,1,null,jspsych/allScrambledFaces/scrambledAF28DIS.JPG,null,image-keyboard-response,222,15358,0.0-222.0,45,forwardMask,50,d,10/23/2020 21:25,69.125.145.27,"Mozilla/5.0 (Windows NT 10.0; Win64; x64) AppleWebKit/537.36 (KHTML, like Gecko) Chrome/86.0.4240.111 Safari/537.36",WebKit,Chrome,86.0.4240.111,Windows,10
42,1,null,jspsych/allFaces/AF28DIS.JPG,null,image-keyboard-response,223,15419,0.0-223.0,45,Cue,"function(){
        return jsPsych.randomization.sampleWithoutReplacement(cueDuration, 1)[0]}","""",10/23/2020 21:25,69.125.145.27,"Mozilla/5.0 (Windows NT 10.0; Win64; x64) AppleWebKit/537.36 (KHTML, like Gecko) Chrome/86.0.4240.111 Safari/537.36",WebKit,Chrome,86.0.4240.111,Windows,10
42,1,null,jspsych/allFaces/AF35NES.JPG,null,image-keyboard-response,224,15485,0.0-224.0,45,backwardMask,50,"""",10/23/2020 21:25,69.125.145.27,"Mozilla/5.0 (Windows NT 10.0; Win64; x64) AppleWebKit/537.36 (KHTML, like Gecko) Chrome/86.0.4240.111 Safari/537.36",WebKit,Chrome,86.0.4240.111,Windows,10
42,1,null,"<div style=""font-size:60px;"">+</div>",null,html-keyboard-response,225,15541,0.0-225.0,45,fixationBtwnNeutralMaskAndPrompt,50,"""",10/23/2020 21:25,69.125.145.27,"Mozilla/5.0 (Windows NT 10.0; Win64; x64) AppleWebKit/537.36 (KHTML, like Gecko) Chrome/86.0.4240.111 Safari/537.36",WebKit,Chrome,86.0.4240.111,Windows,10
42,1,null,"<div style=""font-size:60px;"">+</div>",null,html-keyboard-response,226,15611,0.0-226.0,46,ITI,50,"""",10/23/2020 21:25,69.125.145.27,"Mozilla/5.0 (Windows NT 10.0; Win64; x64) AppleWebKit/537.36 (KHTML, like Gecko) Chrome/86.0.4240.111 Safari/537.36",WebKit,Chrome,86.0.4240.111,Windows,10
42,1,null,jspsych/allScrambledFaces/scrambledBM31NES.JPG,null,image-keyboard-response,227,15669,0.0-227.0,46,forwardMask,50,n,10/23/2020 21:25,69.125.145.27,"Mozilla/5.0 (Windows NT 10.0; Win64; x64) AppleWebKit/537.36 (KHTML, like Gecko) Chrome/86.0.4240.111 Safari/537.36",WebKit,Chrome,86.0.4240.111,Windows,10
42,1,null,jspsych/allFaces/BM31NES.JPG,null,image-keyboard-response,228,15735,0.0-228.0,46,Cue,"function(){
        return jsPsych.randomization.sampleWithoutReplacement(cueDuration, 1)[0]}","""",10/23/2020 21:25,69.125.145.27,"Mozilla/5.0 (Windows NT 10.0; Win64; x64) AppleWebKit/537.36 (KHTML, like Gecko) Chrome/86.0.4240.111 Safari/537.36",WebKit,Chrome,86.0.4240.111,Windows,10
42,1,null,jspsych/allFaces/AF22NES.JPG,null,image-keyboard-response,229,15791,0.0-229.0,46,backwardMask,50,"""",10/23/2020 21:25,69.125.145.27,"Mozilla/5.0 (Windows NT 10.0; Win64; x64) AppleWebKit/537.36 (KHTML, like Gecko) Chrome/86.0.4240.111 Safari/537.36",WebKit,Chrome,86.0.4240.111,Windows,10
42,1,null,"<div style=""font-size:60px;"">+</div>",null,html-keyboard-response,230,15861,0.0-230.0,46,fixationBtwnNeutralMaskAndPrompt,50,"""",10/23/2020 21:25,69.125.145.27,"Mozilla/5.0 (Windows NT 10.0; Win64; x64) AppleWebKit/537.36 (KHTML, like Gecko) Chrome/86.0.4240.111 Safari/537.36",WebKit,Chrome,86.0.4240.111,Windows,10
42,1,null,"<div style=""font-size:60px;"">+</div>",null,html-keyboard-response,231,15930,0.0-231.0,47,ITI,50,"""",10/23/2020 21:25,69.125.145.27,"Mozilla/5.0 (Windows NT 10.0; Win64; x64) AppleWebKit/537.36 (KHTML, like Gecko) Chrome/86.0.4240.111 Safari/537.36",WebKit,Chrome,86.0.4240.111,Windows,10
42,1,null,jspsych/allScrambledFaces/scrambledAF06NES.JPG,null,image-keyboard-response,232,15991,0.0-232.0,47,forwardMask,50,n,10/23/2020 21:25,69.125.145.27,"Mozilla/5.0 (Windows NT 10.0; Win64; x64) AppleWebKit/537.36 (KHTML, like Gecko) Chrome/86.0.4240.111 Safari/537.36",WebKit,Chrome,86.0.4240.111,Windows,10
42,1,null,jspsych/allFaces/AF06NES.JPG,null,image-keyboard-response,233,16060,0.0-233.0,47,Cue,"function(){
        return jsPsych.randomization.sampleWithoutReplacement(cueDuration, 1)[0]}","""",10/23/2020 21:25,69.125.145.27,"Mozilla/5.0 (Windows NT 10.0; Win64; x64) AppleWebKit/537.36 (KHTML, like Gecko) Chrome/86.0.4240.111 Safari/537.36",WebKit,Chrome,86.0.4240.111,Windows,10
42,1,null,jspsych/allFaces/BF26NES.JPG,null,image-keyboard-response,234,16131,0.0-234.0,47,backwardMask,50,"""",10/23/2020 21:25,69.125.145.27,"Mozilla/5.0 (Windows NT 10.0; Win64; x64) AppleWebKit/537.36 (KHTML, like Gecko) Chrome/86.0.4240.111 Safari/537.36",WebKit,Chrome,86.0.4240.111,Windows,10
42,1,null,"<div style=""font-size:60px;"">+</div>",null,html-keyboard-response,235,16201,0.0-235.0,47,fixationBtwnNeutralMaskAndPrompt,50,"""",10/23/2020 21:25,69.125.145.27,"Mozilla/5.0 (Windows NT 10.0; Win64; x64) AppleWebKit/537.36 (KHTML, like Gecko) Chrome/86.0.4240.111 Safari/537.36",WebKit,Chrome,86.0.4240.111,Windows,10
42,1,null,"<div style=""font-size:60px;"">+</div>",null,html-keyboard-response,236,16260,0.0-236.0,48,ITI,50,"""",10/23/2020 21:25,69.125.145.27,"Mozilla/5.0 (Windows NT 10.0; Win64; x64) AppleWebKit/537.36 (KHTML, like Gecko) Chrome/86.0.4240.111 Safari/537.36",WebKit,Chrome,86.0.4240.111,Windows,10
42,1,null,jspsych/allScrambledFaces/scrambledAF26NES.JPG,null,image-keyboard-response,237,16319,0.0-237.0,48,forwardMask,50,n,10/23/2020 21:25,69.125.145.27,"Mozilla/5.0 (Windows NT 10.0; Win64; x64) AppleWebKit/537.36 (KHTML, like Gecko) Chrome/86.0.4240.111 Safari/537.36",WebKit,Chrome,86.0.4240.111,Windows,10
42,1,null,jspsych/allFaces/AF26NES.JPG,null,image-keyboard-response,238,16384,0.0-238.0,48,Cue,"function(){
        return jsPsych.randomization.sampleWithoutReplacement(cueDuration, 1)[0]}","""",10/23/2020 21:25,69.125.145.27,"Mozilla/5.0 (Windows NT 10.0; Win64; x64) AppleWebKit/537.36 (KHTML, like Gecko) Chrome/86.0.4240.111 Safari/537.36",WebKit,Chrome,86.0.4240.111,Windows,10
42,1,null,jspsych/allFaces/BM25NES.JPG,null,image-keyboard-response,239,16440,0.0-239.0,48,backwardMask,50,"""",10/23/2020 21:25,69.125.145.27,"Mozilla/5.0 (Windows NT 10.0; Win64; x64) AppleWebKit/537.36 (KHTML, like Gecko) Chrome/86.0.4240.111 Safari/537.36",WebKit,Chrome,86.0.4240.111,Windows,10
42,1,null,"<div style=""font-size:60px;"">+</div>",null,html-keyboard-response,240,16500,0.0-240.0,48,fixationBtwnNeutralMaskAndPrompt,50,"""",10/23/2020 21:25,69.125.145.27,"Mozilla/5.0 (Windows NT 10.0; Win64; x64) AppleWebKit/537.36 (KHTML, like Gecko) Chrome/86.0.4240.111 Safari/537.36",WebKit,Chrome,86.0.4240.111,Windows,10
42,1,null,"<div style=""font-size:60px;"">+</div>",null,html-keyboard-response,241,16560,0.0-241.0,49,ITI,50,"""",10/23/2020 21:25,69.125.145.27,"Mozilla/5.0 (Windows NT 10.0; Win64; x64) AppleWebKit/537.36 (KHTML, like Gecko) Chrome/86.0.4240.111 Safari/537.36",WebKit,Chrome,86.0.4240.111,Windows,10
42,1,null,jspsych/allScrambledFaces/scrambledAF33DIS.JPG,null,image-keyboard-response,242,16617,0.0-242.0,49,forwardMask,50,d,10/23/2020 21:25,69.125.145.27,"Mozilla/5.0 (Windows NT 10.0; Win64; x64) AppleWebKit/537.36 (KHTML, like Gecko) Chrome/86.0.4240.111 Safari/537.36",WebKit,Chrome,86.0.4240.111,Windows,10
42,1,null,jspsych/allFaces/AF33DIS.JPG,null,image-keyboard-response,243,16684,0.0-243.0,49,Cue,"function(){
        return jsPsych.randomization.sampleWithoutReplacement(cueDuration, 1)[0]}","""",10/23/2020 21:25,69.125.145.27,"Mozilla/5.0 (Windows NT 10.0; Win64; x64) AppleWebKit/537.36 (KHTML, like Gecko) Chrome/86.0.4240.111 Safari/537.36",WebKit,Chrome,86.0.4240.111,Windows,10
42,1,null,jspsych/allFaces/BF01NES.JPG,null,image-keyboard-response,244,16743,0.0-244.0,49,backwardMask,50,"""",10/23/2020 21:25,69.125.145.27,"Mozilla/5.0 (Windows NT 10.0; Win64; x64) AppleWebKit/537.36 (KHTML, like Gecko) Chrome/86.0.4240.111 Safari/537.36",WebKit,Chrome,86.0.4240.111,Windows,10
42,1,null,"<div style=""font-size:60px;"">+</div>",null,html-keyboard-response,245,16798,0.0-245.0,49,fixationBtwnNeutralMaskAndPrompt,50,"""",10/23/2020 21:25,69.125.145.27,"Mozilla/5.0 (Windows NT 10.0; Win64; x64) AppleWebKit/537.36 (KHTML, like Gecko) Chrome/86.0.4240.111 Safari/537.36",WebKit,Chrome,86.0.4240.111,Windows,10
42,1,null,"<div style=""font-size:60px;"">+</div>",null,html-keyboard-response,246,16851,0.0-246.0,50,ITI,50,"""",10/23/2020 21:25,69.125.145.27,"Mozilla/5.0 (Windows NT 10.0; Win64; x64) AppleWebKit/537.36 (KHTML, like Gecko) Chrome/86.0.4240.111 Safari/537.36",WebKit,Chrome,86.0.4240.111,Windows,10
42,1,null,jspsych/allScrambledFaces/scrambledAF33DIS.JPG,null,image-keyboard-response,247,16917,0.0-247.0,50,forwardMask,50,d,10/23/2020 21:25,69.125.145.27,"Mozilla/5.0 (Windows NT 10.0; Win64; x64) AppleWebKit/537.36 (KHTML, like Gecko) Chrome/86.0.4240.111 Safari/537.36",WebKit,Chrome,86.0.4240.111,Windows,10
42,1,null,jspsych/allFaces/AF33DIS.JPG,null,image-keyboard-response,248,16984,0.0-248.0,50,Cue,"function(){
        return jsPsych.randomization.sampleWithoutReplacement(cueDuration, 1)[0]}","""",10/23/2020 21:25,69.125.145.27,"Mozilla/5.0 (Windows NT 10.0; Win64; x64) AppleWebKit/537.36 (KHTML, like Gecko) Chrome/86.0.4240.111 Safari/537.36",WebKit,Chrome,86.0.4240.111,Windows,10
42,1,null,jspsych/allFaces/BF13NES.JPG,null,image-keyboard-response,249,17041,0.0-249.0,50,backwardMask,50,"""",10/23/2020 21:25,69.125.145.27,"Mozilla/5.0 (Windows NT 10.0; Win64; x64) AppleWebKit/537.36 (KHTML, like Gecko) Chrome/86.0.4240.111 Safari/537.36",WebKit,Chrome,86.0.4240.111,Windows,10
42,1,null,"<div style=""font-size:60px;"">+</div>",null,html-keyboard-response,250,17110,0.0-250.0,50,fixationBtwnNeutralMaskAndPrompt,50,"""",10/23/2020 21:25,69.125.145.27,"Mozilla/5.0 (Windows NT 10.0; Win64; x64) AppleWebKit/537.36 (KHTML, like Gecko) Chrome/86.0.4240.111 Safari/537.36",WebKit,Chrome,86.0.4240.111,Windows,10
42,1,null,"<div style=""font-size:60px;"">+</div>",null,html-keyboard-response,251,17167,0.0-251.0,51,ITI,50,"""",10/23/2020 21:25,69.125.145.27,"Mozilla/5.0 (Windows NT 10.0; Win64; x64) AppleWebKit/537.36 (KHTML, like Gecko) Chrome/86.0.4240.111 Safari/537.36",WebKit,Chrome,86.0.4240.111,Windows,10
42,1,null,jspsych/allScrambledFaces/scrambledAF30NES.JPG,null,image-keyboard-response,252,17233,0.0-252.0,51,forwardMask,50,n,10/23/2020 21:25,69.125.145.27,"Mozilla/5.0 (Windows NT 10.0; Win64; x64) AppleWebKit/537.36 (KHTML, like Gecko) Chrome/86.0.4240.111 Safari/537.36",WebKit,Chrome,86.0.4240.111,Windows,10
42,1,null,jspsych/allFaces/AF30NES.JPG,null,image-keyboard-response,253,17291,0.0-253.0,51,Cue,"function(){
        return jsPsych.randomization.sampleWithoutReplacement(cueDuration, 1)[0]}","""",10/23/2020 21:25,69.125.145.27,"Mozilla/5.0 (Windows NT 10.0; Win64; x64) AppleWebKit/537.36 (KHTML, like Gecko) Chrome/86.0.4240.111 Safari/537.36",WebKit,Chrome,86.0.4240.111,Windows,10
42,1,null,jspsych/allFaces/AM35NES.JPG,null,image-keyboard-response,254,17350,0.0-254.0,51,backwardMask,50,"""",10/23/2020 21:25,69.125.145.27,"Mozilla/5.0 (Windows NT 10.0; Win64; x64) AppleWebKit/537.36 (KHTML, like Gecko) Chrome/86.0.4240.111 Safari/537.36",WebKit,Chrome,86.0.4240.111,Windows,10
42,1,null,"<div style=""font-size:60px;"">+</div>",null,html-keyboard-response,255,17411,0.0-255.0,51,fixationBtwnNeutralMaskAndPrompt,50,"""",10/23/2020 21:25,69.125.145.27,"Mozilla/5.0 (Windows NT 10.0; Win64; x64) AppleWebKit/537.36 (KHTML, like Gecko) Chrome/86.0.4240.111 Safari/537.36",WebKit,Chrome,86.0.4240.111,Windows,10
42,1,null,"<div style=""font-size:60px;"">+</div>",null,html-keyboard-response,256,17481,0.0-256.0,52,ITI,50,"""",10/23/2020 21:25,69.125.145.27,"Mozilla/5.0 (Windows NT 10.0; Win64; x64) AppleWebKit/537.36 (KHTML, like Gecko) Chrome/86.0.4240.111 Safari/537.36",WebKit,Chrome,86.0.4240.111,Windows,10
42,1,null,jspsych/allScrambledFaces/scrambledAM22NES.JPG,null,image-keyboard-response,257,17540,0.0-257.0,52,forwardMask,50,n,10/23/2020 21:25,69.125.145.27,"Mozilla/5.0 (Windows NT 10.0; Win64; x64) AppleWebKit/537.36 (KHTML, like Gecko) Chrome/86.0.4240.111 Safari/537.36",WebKit,Chrome,86.0.4240.111,Windows,10
42,1,null,jspsych/allFaces/AM22NES.JPG,null,image-keyboard-response,258,17611,0.0-258.0,52,Cue,"function(){
        return jsPsych.randomization.sampleWithoutReplacement(cueDuration, 1)[0]}","""",10/23/2020 21:25,69.125.145.27,"Mozilla/5.0 (Windows NT 10.0; Win64; x64) AppleWebKit/537.36 (KHTML, like Gecko) Chrome/86.0.4240.111 Safari/537.36",WebKit,Chrome,86.0.4240.111,Windows,10
42,1,null,jspsych/allFaces/AM04NES.JPG,null,image-keyboard-response,259,17670,0.0-259.0,52,backwardMask,50,"""",10/23/2020 21:25,69.125.145.27,"Mozilla/5.0 (Windows NT 10.0; Win64; x64) AppleWebKit/537.36 (KHTML, like Gecko) Chrome/86.0.4240.111 Safari/537.36",WebKit,Chrome,86.0.4240.111,Windows,10
42,1,null,"<div style=""font-size:60px;"">+</div>",null,html-keyboard-response,260,17736,0.0-260.0,52,fixationBtwnNeutralMaskAndPrompt,50,"""",10/23/2020 21:25,69.125.145.27,"Mozilla/5.0 (Windows NT 10.0; Win64; x64) AppleWebKit/537.36 (KHTML, like Gecko) Chrome/86.0.4240.111 Safari/537.36",WebKit,Chrome,86.0.4240.111,Windows,10
42,1,null,"<div style=""font-size:60px;"">+</div>",null,html-keyboard-response,261,17790,0.0-261.0,53,ITI,50,"""",10/23/2020 21:25,69.125.145.27,"Mozilla/5.0 (Windows NT 10.0; Win64; x64) AppleWebKit/537.36 (KHTML, like Gecko) Chrome/86.0.4240.111 Safari/537.36",WebKit,Chrome,86.0.4240.111,Windows,10
42,1,null,jspsych/allScrambledFaces/scrambledBF17DIS.JPG,null,image-keyboard-response,262,17850,0.0-262.0,53,forwardMask,50,d,10/23/2020 21:25,69.125.145.27,"Mozilla/5.0 (Windows NT 10.0; Win64; x64) AppleWebKit/537.36 (KHTML, like Gecko) Chrome/86.0.4240.111 Safari/537.36",WebKit,Chrome,86.0.4240.111,Windows,10
42,1,null,jspsych/allFaces/BF17DIS.JPG,null,image-keyboard-response,263,17916,0.0-263.0,53,Cue,"function(){
        return jsPsych.randomization.sampleWithoutReplacement(cueDuration, 1)[0]}","""",10/23/2020 21:25,69.125.145.27,"Mozilla/5.0 (Windows NT 10.0; Win64; x64) AppleWebKit/537.36 (KHTML, like Gecko) Chrome/86.0.4240.111 Safari/537.36",WebKit,Chrome,86.0.4240.111,Windows,10
42,1,null,jspsych/allFaces/AM13NES.JPG,null,image-keyboard-response,264,17991,0.0-264.0,53,backwardMask,50,"""",10/23/2020 21:25,69.125.145.27,"Mozilla/5.0 (Windows NT 10.0; Win64; x64) AppleWebKit/537.36 (KHTML, like Gecko) Chrome/86.0.4240.111 Safari/537.36",WebKit,Chrome,86.0.4240.111,Windows,10
42,1,null,"<div style=""font-size:60px;"">+</div>",null,html-keyboard-response,265,18061,0.0-265.0,53,fixationBtwnNeutralMaskAndPrompt,50,"""",10/23/2020 21:25,69.125.145.27,"Mozilla/5.0 (Windows NT 10.0; Win64; x64) AppleWebKit/537.36 (KHTML, like Gecko) Chrome/86.0.4240.111 Safari/537.36",WebKit,Chrome,86.0.4240.111,Windows,10
42,1,null,"<div style=""font-size:60px;"">+</div>",null,html-keyboard-response,266,18116,0.0-266.0,54,ITI,50,"""",10/23/2020 21:25,69.125.145.27,"Mozilla/5.0 (Windows NT 10.0; Win64; x64) AppleWebKit/537.36 (KHTML, like Gecko) Chrome/86.0.4240.111 Safari/537.36",WebKit,Chrome,86.0.4240.111,Windows,10
42,1,null,jspsych/allScrambledFaces/scrambledBM30NES.JPG,null,image-keyboard-response,267,18170,0.0-267.0,54,forwardMask,50,n,10/23/2020 21:25,69.125.145.27,"Mozilla/5.0 (Windows NT 10.0; Win64; x64) AppleWebKit/537.36 (KHTML, like Gecko) Chrome/86.0.4240.111 Safari/537.36",WebKit,Chrome,86.0.4240.111,Windows,10
42,1,null,jspsych/allFaces/BM30NES.JPG,null,image-keyboard-response,268,18241,0.0-268.0,54,Cue,"function(){
        return jsPsych.randomization.sampleWithoutReplacement(cueDuration, 1)[0]}","""",10/23/2020 21:25,69.125.145.27,"Mozilla/5.0 (Windows NT 10.0; Win64; x64) AppleWebKit/537.36 (KHTML, like Gecko) Chrome/86.0.4240.111 Safari/537.36",WebKit,Chrome,86.0.4240.111,Windows,10
42,1,null,jspsych/allFaces/AF08NES.JPG,null,image-keyboard-response,269,18298,0.0-269.0,54,backwardMask,50,"""",10/23/2020 21:25,69.125.145.27,"Mozilla/5.0 (Windows NT 10.0; Win64; x64) AppleWebKit/537.36 (KHTML, like Gecko) Chrome/86.0.4240.111 Safari/537.36",WebKit,Chrome,86.0.4240.111,Windows,10
42,1,null,"<div style=""font-size:60px;"">+</div>",null,html-keyboard-response,270,18366,0.0-270.0,54,fixationBtwnNeutralMaskAndPrompt,50,"""",10/23/2020 21:25,69.125.145.27,"Mozilla/5.0 (Windows NT 10.0; Win64; x64) AppleWebKit/537.36 (KHTML, like Gecko) Chrome/86.0.4240.111 Safari/537.36",WebKit,Chrome,86.0.4240.111,Windows,10
42,1,null,"<div style=""font-size:60px;"">+</div>",null,html-keyboard-response,271,18421,0.0-271.0,55,ITI,50,"""",10/23/2020 21:25,69.125.145.27,"Mozilla/5.0 (Windows NT 10.0; Win64; x64) AppleWebKit/537.36 (KHTML, like Gecko) Chrome/86.0.4240.111 Safari/537.36",WebKit,Chrome,86.0.4240.111,Windows,10
42,1,null,jspsych/allScrambledFaces/scrambledAM20DIS.JPG,null,image-keyboard-response,272,18491,0.0-272.0,55,forwardMask,50,d,10/23/2020 21:25,69.125.145.27,"Mozilla/5.0 (Windows NT 10.0; Win64; x64) AppleWebKit/537.36 (KHTML, like Gecko) Chrome/86.0.4240.111 Safari/537.36",WebKit,Chrome,86.0.4240.111,Windows,10
42,1,null,jspsych/allFaces/AM20DIS.JPG,null,image-keyboard-response,273,18558,0.0-273.0,55,Cue,"function(){
        return jsPsych.randomization.sampleWithoutReplacement(cueDuration, 1)[0]}","""",10/23/2020 21:25,69.125.145.27,"Mozilla/5.0 (Windows NT 10.0; Win64; x64) AppleWebKit/537.36 (KHTML, like Gecko) Chrome/86.0.4240.111 Safari/537.36",WebKit,Chrome,86.0.4240.111,Windows,10
42,1,null,jspsych/allFaces/AM04NES.JPG,null,image-keyboard-response,274,18621,0.0-274.0,55,backwardMask,50,"""",10/23/2020 21:25,69.125.145.27,"Mozilla/5.0 (Windows NT 10.0; Win64; x64) AppleWebKit/537.36 (KHTML, like Gecko) Chrome/86.0.4240.111 Safari/537.36",WebKit,Chrome,86.0.4240.111,Windows,10
42,1,null,"<div style=""font-size:60px;"">+</div>",null,html-keyboard-response,275,18678,0.0-275.0,55,fixationBtwnNeutralMaskAndPrompt,50,"""",10/23/2020 21:25,69.125.145.27,"Mozilla/5.0 (Windows NT 10.0; Win64; x64) AppleWebKit/537.36 (KHTML, like Gecko) Chrome/86.0.4240.111 Safari/537.36",WebKit,Chrome,86.0.4240.111,Windows,10
42,1,null,"<div style=""font-size:60px;"">+</div>",null,html-keyboard-response,276,18730,0.0-276.0,56,ITI,50,"""",10/23/2020 21:25,69.125.145.27,"Mozilla/5.0 (Windows NT 10.0; Win64; x64) AppleWebKit/537.36 (KHTML, like Gecko) Chrome/86.0.4240.111 Safari/537.36",WebKit,Chrome,86.0.4240.111,Windows,10
42,1,null,jspsych/allScrambledFaces/scrambledBM05DIS.JPG,null,image-keyboard-response,277,18787,0.0-277.0,56,forwardMask,50,d,10/23/2020 21:25,69.125.145.27,"Mozilla/5.0 (Windows NT 10.0; Win64; x64) AppleWebKit/537.36 (KHTML, like Gecko) Chrome/86.0.4240.111 Safari/537.36",WebKit,Chrome,86.0.4240.111,Windows,10
42,1,null,jspsych/allFaces/BM05DIS.JPG,null,image-keyboard-response,278,18852,0.0-278.0,56,Cue,"function(){
        return jsPsych.randomization.sampleWithoutReplacement(cueDuration, 1)[0]}","""",10/23/2020 21:25,69.125.145.27,"Mozilla/5.0 (Windows NT 10.0; Win64; x64) AppleWebKit/537.36 (KHTML, like Gecko) Chrome/86.0.4240.111 Safari/537.36",WebKit,Chrome,86.0.4240.111,Windows,10
42,1,null,jspsych/allFaces/BM01NES.JPG,null,image-keyboard-response,279,18915,0.0-279.0,56,backwardMask,50,"""",10/23/2020 21:25,69.125.145.27,"Mozilla/5.0 (Windows NT 10.0; Win64; x64) AppleWebKit/537.36 (KHTML, like Gecko) Chrome/86.0.4240.111 Safari/537.36",WebKit,Chrome,86.0.4240.111,Windows,10
42,1,null,"<div style=""font-size:60px;"">+</div>",null,html-keyboard-response,280,18971,0.0-280.0,56,fixationBtwnNeutralMaskAndPrompt,50,"""",10/23/2020 21:25,69.125.145.27,"Mozilla/5.0 (Windows NT 10.0; Win64; x64) AppleWebKit/537.36 (KHTML, like Gecko) Chrome/86.0.4240.111 Safari/537.36",WebKit,Chrome,86.0.4240.111,Windows,10
42,1,null,"<div style=""font-size:60px;"">+</div>",null,html-keyboard-response,281,19033,0.0-281.0,57,ITI,50,"""",10/23/2020 21:25,69.125.145.27,"Mozilla/5.0 (Windows NT 10.0; Win64; x64) AppleWebKit/537.36 (KHTML, like Gecko) Chrome/86.0.4240.111 Safari/537.36",WebKit,Chrome,86.0.4240.111,Windows,10
42,1,null,jspsych/allScrambledFaces/scrambledAF16DIS.JPG,null,image-keyboard-response,282,19098,0.0-282.0,57,forwardMask,50,d,10/23/2020 21:25,69.125.145.27,"Mozilla/5.0 (Windows NT 10.0; Win64; x64) AppleWebKit/537.36 (KHTML, like Gecko) Chrome/86.0.4240.111 Safari/537.36",WebKit,Chrome,86.0.4240.111,Windows,10
42,1,null,jspsych/allFaces/AF16DIS.JPG,null,image-keyboard-response,283,19155,0.0-283.0,57,Cue,"function(){
        return jsPsych.randomization.sampleWithoutReplacement(cueDuration, 1)[0]}","""",10/23/2020 21:25,69.125.145.27,"Mozilla/5.0 (Windows NT 10.0; Win64; x64) AppleWebKit/537.36 (KHTML, like Gecko) Chrome/86.0.4240.111 Safari/537.36",WebKit,Chrome,86.0.4240.111,Windows,10
42,1,null,jspsych/allFaces/BF20NES.JPG,null,image-keyboard-response,284,19220,0.0-284.0,57,backwardMask,50,"""",10/23/2020 21:25,69.125.145.27,"Mozilla/5.0 (Windows NT 10.0; Win64; x64) AppleWebKit/537.36 (KHTML, like Gecko) Chrome/86.0.4240.111 Safari/537.36",WebKit,Chrome,86.0.4240.111,Windows,10
42,1,null,"<div style=""font-size:60px;"">+</div>",null,html-keyboard-response,285,19284,0.0-285.0,57,fixationBtwnNeutralMaskAndPrompt,50,"""",10/23/2020 21:25,69.125.145.27,"Mozilla/5.0 (Windows NT 10.0; Win64; x64) AppleWebKit/537.36 (KHTML, like Gecko) Chrome/86.0.4240.111 Safari/537.36",WebKit,Chrome,86.0.4240.111,Windows,10
42,1,null,"<div style=""font-size:60px;"">+</div>",null,html-keyboard-response,286,19341,0.0-286.0,58,ITI,50,"""",10/23/2020 21:25,69.125.145.27,"Mozilla/5.0 (Windows NT 10.0; Win64; x64) AppleWebKit/537.36 (KHTML, like Gecko) Chrome/86.0.4240.111 Safari/537.36",WebKit,Chrome,86.0.4240.111,Windows,10
42,1,null,jspsych/allScrambledFaces/scrambledBM29DIS.JPG,null,image-keyboard-response,287,19398,0.0-287.0,58,forwardMask,50,d,10/23/2020 21:25,69.125.145.27,"Mozilla/5.0 (Windows NT 10.0; Win64; x64) AppleWebKit/537.36 (KHTML, like Gecko) Chrome/86.0.4240.111 Safari/537.36",WebKit,Chrome,86.0.4240.111,Windows,10
42,1,null,jspsych/allFaces/BM29DIS.JPG,null,image-keyboard-response,288,19465,0.0-288.0,58,Cue,"function(){
        return jsPsych.randomization.sampleWithoutReplacement(cueDuration, 1)[0]}","""",10/23/2020 21:25,69.125.145.27,"Mozilla/5.0 (Windows NT 10.0; Win64; x64) AppleWebKit/537.36 (KHTML, like Gecko) Chrome/86.0.4240.111 Safari/537.36",WebKit,Chrome,86.0.4240.111,Windows,10
42,1,null,jspsych/allFaces/AM02NES.JPG,null,image-keyboard-response,289,19521,0.0-289.0,58,backwardMask,50,"""",10/23/2020 21:25,69.125.145.27,"Mozilla/5.0 (Windows NT 10.0; Win64; x64) AppleWebKit/537.36 (KHTML, like Gecko) Chrome/86.0.4240.111 Safari/537.36",WebKit,Chrome,86.0.4240.111,Windows,10
42,1,null,"<div style=""font-size:60px;"">+</div>",null,html-keyboard-response,290,19591,0.0-290.0,58,fixationBtwnNeutralMaskAndPrompt,50,"""",10/23/2020 21:25,69.125.145.27,"Mozilla/5.0 (Windows NT 10.0; Win64; x64) AppleWebKit/537.36 (KHTML, like Gecko) Chrome/86.0.4240.111 Safari/537.36",WebKit,Chrome,86.0.4240.111,Windows,10
42,1,null,"<div style=""font-size:60px;"">+</div>",null,html-keyboard-response,291,19648,0.0-291.0,59,ITI,50,"""",10/23/2020 21:25,69.125.145.27,"Mozilla/5.0 (Windows NT 10.0; Win64; x64) AppleWebKit/537.36 (KHTML, like Gecko) Chrome/86.0.4240.111 Safari/537.36",WebKit,Chrome,86.0.4240.111,Windows,10
42,1,null,jspsych/allScrambledFaces/scrambledAF02NES.JPG,null,image-keyboard-response,292,19716,0.0-292.0,59,forwardMask,50,n,10/23/2020 21:25,69.125.145.27,"Mozilla/5.0 (Windows NT 10.0; Win64; x64) AppleWebKit/537.36 (KHTML, like Gecko) Chrome/86.0.4240.111 Safari/537.36",WebKit,Chrome,86.0.4240.111,Windows,10
42,1,null,jspsych/allFaces/AF02NES.JPG,null,image-keyboard-response,293,19771,0.0-293.0,59,Cue,"function(){
        return jsPsych.randomization.sampleWithoutReplacement(cueDuration, 1)[0]}","""",10/23/2020 21:25,69.125.145.27,"Mozilla/5.0 (Windows NT 10.0; Win64; x64) AppleWebKit/537.36 (KHTML, like Gecko) Chrome/86.0.4240.111 Safari/537.36",WebKit,Chrome,86.0.4240.111,Windows,10
42,1,null,jspsych/allFaces/AF19NES.JPG,null,image-keyboard-response,294,19841,0.0-294.0,59,backwardMask,50,"""",10/23/2020 21:25,69.125.145.27,"Mozilla/5.0 (Windows NT 10.0; Win64; x64) AppleWebKit/537.36 (KHTML, like Gecko) Chrome/86.0.4240.111 Safari/537.36",WebKit,Chrome,86.0.4240.111,Windows,10
42,1,null,"<div style=""font-size:60px;"">+</div>",null,html-keyboard-response,295,19898,0.0-295.0,59,fixationBtwnNeutralMaskAndPrompt,50,"""",10/23/2020 21:25,69.125.145.27,"Mozilla/5.0 (Windows NT 10.0; Win64; x64) AppleWebKit/537.36 (KHTML, like Gecko) Chrome/86.0.4240.111 Safari/537.36",WebKit,Chrome,86.0.4240.111,Windows,10
42,1,null,"<div style=""font-size:60px;"">+</div>",null,html-keyboard-response,296,19964,0.0-296.0,60,ITI,50,"""",10/23/2020 21:25,69.125.145.27,"Mozilla/5.0 (Windows NT 10.0; Win64; x64) AppleWebKit/537.36 (KHTML, like Gecko) Chrome/86.0.4240.111 Safari/537.36",WebKit,Chrome,86.0.4240.111,Windows,10
42,1,null,jspsych/allScrambledFaces/scrambledAM03NES.JPG,null,image-keyboard-response,297,20021,0.0-297.0,60,forwardMask,50,n,10/23/2020 21:25,69.125.145.27,"Mozilla/5.0 (Windows NT 10.0; Win64; x64) AppleWebKit/537.36 (KHTML, like Gecko) Chrome/86.0.4240.111 Safari/537.36",WebKit,Chrome,86.0.4240.111,Windows,10
42,1,null,jspsych/allFaces/AM03NES.JPG,null,image-keyboard-response,298,20081,0.0-298.0,60,Cue,"function(){
        return jsPsych.randomization.sampleWithoutReplacement(cueDuration, 1)[0]}","""",10/23/2020 21:25,69.125.145.27,"Mozilla/5.0 (Windows NT 10.0; Win64; x64) AppleWebKit/537.36 (KHTML, like Gecko) Chrome/86.0.4240.111 Safari/537.36",WebKit,Chrome,86.0.4240.111,Windows,10
42,1,null,jspsych/allFaces/AF25NES.JPG,null,image-keyboard-response,299,20140,0.0-299.0,60,backwardMask,50,"""",10/23/2020 21:25,69.125.145.27,"Mozilla/5.0 (Windows NT 10.0; Win64; x64) AppleWebKit/537.36 (KHTML, like Gecko) Chrome/86.0.4240.111 Safari/537.36",WebKit,Chrome,86.0.4240.111,Windows,10
42,1,null,"<div style=""font-size:60px;"">+</div>",null,html-keyboard-response,300,20211,0.0-300.0,60,fixationBtwnNeutralMaskAndPrompt,50,"""",10/23/2020 21:25,69.125.145.27,"Mozilla/5.0 (Windows NT 10.0; Win64; x64) AppleWebKit/537.36 (KHTML, like Gecko) Chrome/86.0.4240.111 Safari/537.36",WebKit,Chrome,86.0.4240.111,Windows,10
42,1,null,"<div style=""font-size:60px;"">+</div>",null,html-keyboard-response,301,20271,0.0-301.0,61,ITI,50,"""",10/23/2020 21:25,69.125.145.27,"Mozilla/5.0 (Windows NT 10.0; Win64; x64) AppleWebKit/537.36 (KHTML, like Gecko) Chrome/86.0.4240.111 Safari/537.36",WebKit,Chrome,86.0.4240.111,Windows,10
42,1,null,jspsych/allScrambledFaces/scrambledBM07NES.JPG,null,image-keyboard-response,302,20330,0.0-302.0,61,forwardMask,50,n,10/23/2020 21:25,69.125.145.27,"Mozilla/5.0 (Windows NT 10.0; Win64; x64) AppleWebKit/537.36 (KHTML, like Gecko) Chrome/86.0.4240.111 Safari/537.36",WebKit,Chrome,86.0.4240.111,Windows,10
42,1,null,jspsych/allFaces/BM07NES.JPG,null,image-keyboard-response,303,20397,0.0-303.0,61,Cue,"function(){
        return jsPsych.randomization.sampleWithoutReplacement(cueDuration, 1)[0]}","""",10/23/2020 21:25,69.125.145.27,"Mozilla/5.0 (Windows NT 10.0; Win64; x64) AppleWebKit/537.36 (KHTML, like Gecko) Chrome/86.0.4240.111 Safari/537.36",WebKit,Chrome,86.0.4240.111,Windows,10
42,1,null,jspsych/allFaces/AF28NES.JPG,null,image-keyboard-response,304,20464,0.0-304.0,61,backwardMask,50,"""",10/23/2020 21:25,69.125.145.27,"Mozilla/5.0 (Windows NT 10.0; Win64; x64) AppleWebKit/537.36 (KHTML, like Gecko) Chrome/86.0.4240.111 Safari/537.36",WebKit,Chrome,86.0.4240.111,Windows,10
42,1,null,"<div style=""font-size:60px;"">+</div>",null,html-keyboard-response,305,20521,0.0-305.0,61,fixationBtwnNeutralMaskAndPrompt,50,"""",10/23/2020 21:25,69.125.145.27,"Mozilla/5.0 (Windows NT 10.0; Win64; x64) AppleWebKit/537.36 (KHTML, like Gecko) Chrome/86.0.4240.111 Safari/537.36",WebKit,Chrome,86.0.4240.111,Windows,10
42,1,null,"<div style=""font-size:60px;"">+</div>",null,html-keyboard-response,306,20591,0.0-306.0,62,ITI,50,"""",10/23/2020 21:25,69.125.145.27,"Mozilla/5.0 (Windows NT 10.0; Win64; x64) AppleWebKit/537.36 (KHTML, like Gecko) Chrome/86.0.4240.111 Safari/537.36",WebKit,Chrome,86.0.4240.111,Windows,10
