run_id,condition,rt,stimulus,key_press,trial_type,trial_index,time_elapsed,internal_node_id,iTrial,Phase,StimulusDurationSetting,correctResponse,recorded_at,ip,user_agent,device,browser,browser_version,platform,platform_version
43,1,1493.135,Press Key to Begin Experiment,67,html-keyboard-response,0,1496,0.0-0.0,1,welcomeScreen,"""","""",10/23/2020 21:33,69.125.145.27,"Mozilla/5.0 (Windows NT 10.0; Win64; x64) AppleWebKit/537.36 (KHTML, like Gecko) Chrome/86.0.4240.111 Safari/537.36",WebKit,Chrome,86.0.4240.111,Windows,10
43,1,null,"<div style=""font-size:60px;"">+</div>",null,html-keyboard-response,1,1570,0.0-1.0,1,ITI,50,"""",10/23/2020 21:33,69.125.145.27,"Mozilla/5.0 (Windows NT 10.0; Win64; x64) AppleWebKit/537.36 (KHTML, like Gecko) Chrome/86.0.4240.111 Safari/537.36",WebKit,Chrome,86.0.4240.111,Windows,10
43,1,null,jspsych/allScrambledFaces/scrambledAF02NES.JPG,null,image-keyboard-response,2,1632,0.0-2.0,1,forwardMask,50,n,10/23/2020 21:33,69.125.145.27,"Mozilla/5.0 (Windows NT 10.0; Win64; x64) AppleWebKit/537.36 (KHTML, like Gecko) Chrome/86.0.4240.111 Safari/537.36",WebKit,Chrome,86.0.4240.111,Windows,10
43,1,null,jspsych/allFaces/AF02NES.JPG,null,image-keyboard-response,3,1687,0.0-3.0,1,Cue,"function(){
        return jsPsych.randomization.sampleWithoutReplacement(cueDuration, 1)[0]}","""",10/23/2020 21:33,69.125.145.27,"Mozilla/5.0 (Windows NT 10.0; Win64; x64) AppleWebKit/537.36 (KHTML, like Gecko) Chrome/86.0.4240.111 Safari/537.36",WebKit,Chrome,86.0.4240.111,Windows,10
43,1,null,jspsych/allFaces/BF14NES.JPG,null,image-keyboard-response,4,1746,0.0-4.0,1,backwardMask,50,"""",10/23/2020 21:33,69.125.145.27,"Mozilla/5.0 (Windows NT 10.0; Win64; x64) AppleWebKit/537.36 (KHTML, like Gecko) Chrome/86.0.4240.111 Safari/537.36",WebKit,Chrome,86.0.4240.111,Windows,10
43,1,null,"<div style=""font-size:60px;"">+</div>",null,html-keyboard-response,5,1804,0.0-5.0,1,fixationBtwnNeutralMaskAndPrompt,50,"""",10/23/2020 21:33,69.125.145.27,"Mozilla/5.0 (Windows NT 10.0; Win64; x64) AppleWebKit/537.36 (KHTML, like Gecko) Chrome/86.0.4240.111 Safari/537.36",WebKit,Chrome,86.0.4240.111,Windows,10
43,1,null,"<div style=""font-size:60px;"">+</div>",null,html-keyboard-response,6,1857,0.0-6.0,2,ITI,50,"""",10/23/2020 21:33,69.125.145.27,"Mozilla/5.0 (Windows NT 10.0; Win64; x64) AppleWebKit/537.36 (KHTML, like Gecko) Chrome/86.0.4240.111 Safari/537.36",WebKit,Chrome,86.0.4240.111,Windows,10
43,1,null,jspsych/allScrambledFaces/scrambledBF21DIS.JPG,null,image-keyboard-response,7,1926,0.0-7.0,2,forwardMask,50,d,10/23/2020 21:33,69.125.145.27,"Mozilla/5.0 (Windows NT 10.0; Win64; x64) AppleWebKit/537.36 (KHTML, like Gecko) Chrome/86.0.4240.111 Safari/537.36",WebKit,Chrome,86.0.4240.111,Windows,10
43,1,null,jspsych/allFaces/BF21DIS.JPG,null,image-keyboard-response,8,2018,0.0-8.0,2,Cue,"function(){
        return jsPsych.randomization.sampleWithoutReplacement(cueDuration, 1)[0]}","""",10/23/2020 21:33,69.125.145.27,"Mozilla/5.0 (Windows NT 10.0; Win64; x64) AppleWebKit/537.36 (KHTML, like Gecko) Chrome/86.0.4240.111 Safari/537.36",WebKit,Chrome,86.0.4240.111,Windows,10
43,1,null,jspsych/allFaces/BF15NES.JPG,null,image-keyboard-response,9,2161,0.0-9.0,2,backwardMask,50,"""",10/23/2020 21:33,69.125.145.27,"Mozilla/5.0 (Windows NT 10.0; Win64; x64) AppleWebKit/537.36 (KHTML, like Gecko) Chrome/86.0.4240.111 Safari/537.36",WebKit,Chrome,86.0.4240.111,Windows,10
43,1,null,"<div style=""font-size:60px;"">+</div>",null,html-keyboard-response,10,2345,0.0-10.0,2,fixationBtwnNeutralMaskAndPrompt,50,"""",10/23/2020 21:33,69.125.145.27,"Mozilla/5.0 (Windows NT 10.0; Win64; x64) AppleWebKit/537.36 (KHTML, like Gecko) Chrome/86.0.4240.111 Safari/537.36",WebKit,Chrome,86.0.4240.111,Windows,10
43,1,null,"<div style=""font-size:60px;"">+</div>",null,html-keyboard-response,11,2456,0.0-11.0,3,ITI,50,"""",10/23/2020 21:33,69.125.145.27,"Mozilla/5.0 (Windows NT 10.0; Win64; x64) AppleWebKit/537.36 (KHTML, like Gecko) Chrome/86.0.4240.111 Safari/537.36",WebKit,Chrome,86.0.4240.111,Windows,10
43,1,null,jspsych/allScrambledFaces/scrambledBM06NES.JPG,null,image-keyboard-response,12,2518,0.0-12.0,3,forwardMask,50,n,10/23/2020 21:33,69.125.145.27,"Mozilla/5.0 (Windows NT 10.0; Win64; x64) AppleWebKit/537.36 (KHTML, like Gecko) Chrome/86.0.4240.111 Safari/537.36",WebKit,Chrome,86.0.4240.111,Windows,10
43,1,null,jspsych/allFaces/BM06NES.JPG,null,image-keyboard-response,13,2571,0.0-13.0,3,Cue,"function(){
        return jsPsych.randomization.sampleWithoutReplacement(cueDuration, 1)[0]}","""",10/23/2020 21:33,69.125.145.27,"Mozilla/5.0 (Windows NT 10.0; Win64; x64) AppleWebKit/537.36 (KHTML, like Gecko) Chrome/86.0.4240.111 Safari/537.36",WebKit,Chrome,86.0.4240.111,Windows,10
43,1,null,jspsych/allFaces/BM30NES.JPG,null,image-keyboard-response,14,2635,0.0-14.0,3,backwardMask,50,"""",10/23/2020 21:33,69.125.145.27,"Mozilla/5.0 (Windows NT 10.0; Win64; x64) AppleWebKit/537.36 (KHTML, like Gecko) Chrome/86.0.4240.111 Safari/537.36",WebKit,Chrome,86.0.4240.111,Windows,10
43,1,null,"<div style=""font-size:60px;"">+</div>",null,html-keyboard-response,15,2692,0.0-15.0,3,fixationBtwnNeutralMaskAndPrompt,50,"""",10/23/2020 21:33,69.125.145.27,"Mozilla/5.0 (Windows NT 10.0; Win64; x64) AppleWebKit/537.36 (KHTML, like Gecko) Chrome/86.0.4240.111 Safari/537.36",WebKit,Chrome,86.0.4240.111,Windows,10
43,1,null,"<div style=""font-size:60px;"">+</div>",null,html-keyboard-response,16,2744,0.0-16.0,4,ITI,50,"""",10/23/2020 21:33,69.125.145.27,"Mozilla/5.0 (Windows NT 10.0; Win64; x64) AppleWebKit/537.36 (KHTML, like Gecko) Chrome/86.0.4240.111 Safari/537.36",WebKit,Chrome,86.0.4240.111,Windows,10
43,1,null,jspsych/allScrambledFaces/scrambledBF02NES.JPG,null,image-keyboard-response,17,2806,0.0-17.0,4,forwardMask,50,n,10/23/2020 21:33,69.125.145.27,"Mozilla/5.0 (Windows NT 10.0; Win64; x64) AppleWebKit/537.36 (KHTML, like Gecko) Chrome/86.0.4240.111 Safari/537.36",WebKit,Chrome,86.0.4240.111,Windows,10
43,1,null,jspsych/allFaces/BF02NES.JPG,null,image-keyboard-response,18,2861,0.0-18.0,4,Cue,"function(){
        return jsPsych.randomization.sampleWithoutReplacement(cueDuration, 1)[0]}","""",10/23/2020 21:33,69.125.145.27,"Mozilla/5.0 (Windows NT 10.0; Win64; x64) AppleWebKit/537.36 (KHTML, like Gecko) Chrome/86.0.4240.111 Safari/537.36",WebKit,Chrome,86.0.4240.111,Windows,10
43,1,null,jspsych/allFaces/,null,image-keyboard-response,19,2917,0.0-19.0,4,backwardMask,50,"""",10/23/2020 21:33,69.125.145.27,"Mozilla/5.0 (Windows NT 10.0; Win64; x64) AppleWebKit/537.36 (KHTML, like Gecko) Chrome/86.0.4240.111 Safari/537.36",WebKit,Chrome,86.0.4240.111,Windows,10
43,1,null,"<div style=""font-size:60px;"">+</div>",null,html-keyboard-response,20,2985,0.0-20.0,4,fixationBtwnNeutralMaskAndPrompt,50,"""",10/23/2020 21:33,69.125.145.27,"Mozilla/5.0 (Windows NT 10.0; Win64; x64) AppleWebKit/537.36 (KHTML, like Gecko) Chrome/86.0.4240.111 Safari/537.36",WebKit,Chrome,86.0.4240.111,Windows,10
43,1,null,"<div style=""font-size:60px;"">+</div>",null,html-keyboard-response,21,3042,0.0-21.0,5,ITI,50,"""",10/23/2020 21:33,69.125.145.27,"Mozilla/5.0 (Windows NT 10.0; Win64; x64) AppleWebKit/537.36 (KHTML, like Gecko) Chrome/86.0.4240.111 Safari/537.36",WebKit,Chrome,86.0.4240.111,Windows,10
43,1,null,jspsych/allScrambledFaces/scrambledBM10DIS.JPG,null,image-keyboard-response,22,3150,0.0-22.0,5,forwardMask,50,d,10/23/2020 21:33,69.125.145.27,"Mozilla/5.0 (Windows NT 10.0; Win64; x64) AppleWebKit/537.36 (KHTML, like Gecko) Chrome/86.0.4240.111 Safari/537.36",WebKit,Chrome,86.0.4240.111,Windows,10
43,1,null,jspsych/allFaces/BM10DIS.JPG,null,image-keyboard-response,23,3271,0.0-23.0,5,Cue,"function(){
        return jsPsych.randomization.sampleWithoutReplacement(cueDuration, 1)[0]}","""",10/23/2020 21:33,69.125.145.27,"Mozilla/5.0 (Windows NT 10.0; Win64; x64) AppleWebKit/537.36 (KHTML, like Gecko) Chrome/86.0.4240.111 Safari/537.36",WebKit,Chrome,86.0.4240.111,Windows,10
43,1,null,jspsych/allFaces/AF15NES.JPG,null,image-keyboard-response,24,3366,0.0-24.0,5,backwardMask,50,"""",10/23/2020 21:33,69.125.145.27,"Mozilla/5.0 (Windows NT 10.0; Win64; x64) AppleWebKit/537.36 (KHTML, like Gecko) Chrome/86.0.4240.111 Safari/537.36",WebKit,Chrome,86.0.4240.111,Windows,10
43,1,null,"<div style=""font-size:60px;"">+</div>",null,html-keyboard-response,25,3448,0.0-25.0,5,fixationBtwnNeutralMaskAndPrompt,50,"""",10/23/2020 21:33,69.125.145.27,"Mozilla/5.0 (Windows NT 10.0; Win64; x64) AppleWebKit/537.36 (KHTML, like Gecko) Chrome/86.0.4240.111 Safari/537.36",WebKit,Chrome,86.0.4240.111,Windows,10
43,1,null,"<div style=""font-size:60px;"">+</div>",null,html-keyboard-response,26,3506,0.0-26.0,6,ITI,50,"""",10/23/2020 21:33,69.125.145.27,"Mozilla/5.0 (Windows NT 10.0; Win64; x64) AppleWebKit/537.36 (KHTML, like Gecko) Chrome/86.0.4240.111 Safari/537.36",WebKit,Chrome,86.0.4240.111,Windows,10
43,1,null,jspsych/allScrambledFaces/scrambledBF21NES.JPG,null,image-keyboard-response,27,3581,0.0-27.0,6,forwardMask,50,n,10/23/2020 21:33,69.125.145.27,"Mozilla/5.0 (Windows NT 10.0; Win64; x64) AppleWebKit/537.36 (KHTML, like Gecko) Chrome/86.0.4240.111 Safari/537.36",WebKit,Chrome,86.0.4240.111,Windows,10
43,1,null,jspsych/allFaces/BF21NES.JPG,null,image-keyboard-response,28,3644,0.0-28.0,6,Cue,"function(){
        return jsPsych.randomization.sampleWithoutReplacement(cueDuration, 1)[0]}","""",10/23/2020 21:33,69.125.145.27,"Mozilla/5.0 (Windows NT 10.0; Win64; x64) AppleWebKit/537.36 (KHTML, like Gecko) Chrome/86.0.4240.111 Safari/537.36",WebKit,Chrome,86.0.4240.111,Windows,10
43,1,null,jspsych/allFaces/BM22NES.JPG,null,image-keyboard-response,29,3712,0.0-29.0,6,backwardMask,50,"""",10/23/2020 21:33,69.125.145.27,"Mozilla/5.0 (Windows NT 10.0; Win64; x64) AppleWebKit/537.36 (KHTML, like Gecko) Chrome/86.0.4240.111 Safari/537.36",WebKit,Chrome,86.0.4240.111,Windows,10
43,1,null,"<div style=""font-size:60px;"">+</div>",null,html-keyboard-response,30,3777,0.0-30.0,6,fixationBtwnNeutralMaskAndPrompt,50,"""",10/23/2020 21:33,69.125.145.27,"Mozilla/5.0 (Windows NT 10.0; Win64; x64) AppleWebKit/537.36 (KHTML, like Gecko) Chrome/86.0.4240.111 Safari/537.36",WebKit,Chrome,86.0.4240.111,Windows,10
43,1,null,"<div style=""font-size:60px;"">+</div>",null,html-keyboard-response,31,3836,0.0-31.0,7,ITI,50,"""",10/23/2020 21:33,69.125.145.27,"Mozilla/5.0 (Windows NT 10.0; Win64; x64) AppleWebKit/537.36 (KHTML, like Gecko) Chrome/86.0.4240.111 Safari/537.36",WebKit,Chrome,86.0.4240.111,Windows,10
43,1,null,jspsych/allScrambledFaces/scrambledBM20DIS.JPG,null,image-keyboard-response,32,3895,0.0-32.0,7,forwardMask,50,d,10/23/2020 21:33,69.125.145.27,"Mozilla/5.0 (Windows NT 10.0; Win64; x64) AppleWebKit/537.36 (KHTML, like Gecko) Chrome/86.0.4240.111 Safari/537.36",WebKit,Chrome,86.0.4240.111,Windows,10
43,1,null,jspsych/allFaces/BM20DIS.JPG,null,image-keyboard-response,33,3957,0.0-33.0,7,Cue,"function(){
        return jsPsych.randomization.sampleWithoutReplacement(cueDuration, 1)[0]}","""",10/23/2020 21:33,69.125.145.27,"Mozilla/5.0 (Windows NT 10.0; Win64; x64) AppleWebKit/537.36 (KHTML, like Gecko) Chrome/86.0.4240.111 Safari/537.36",WebKit,Chrome,86.0.4240.111,Windows,10
43,1,null,jspsych/allFaces/AF13NES.JPG,null,image-keyboard-response,34,4016,0.0-34.0,7,backwardMask,50,"""",10/23/2020 21:33,69.125.145.27,"Mozilla/5.0 (Windows NT 10.0; Win64; x64) AppleWebKit/537.36 (KHTML, like Gecko) Chrome/86.0.4240.111 Safari/537.36",WebKit,Chrome,86.0.4240.111,Windows,10
43,1,null,"<div style=""font-size:60px;"">+</div>",null,html-keyboard-response,35,4105,0.0-35.0,7,fixationBtwnNeutralMaskAndPrompt,50,"""",10/23/2020 21:33,69.125.145.27,"Mozilla/5.0 (Windows NT 10.0; Win64; x64) AppleWebKit/537.36 (KHTML, like Gecko) Chrome/86.0.4240.111 Safari/537.36",WebKit,Chrome,86.0.4240.111,Windows,10
43,1,null,"<div style=""font-size:60px;"">+</div>",null,html-keyboard-response,36,4168,0.0-36.0,8,ITI,50,"""",10/23/2020 21:33,69.125.145.27,"Mozilla/5.0 (Windows NT 10.0; Win64; x64) AppleWebKit/537.36 (KHTML, like Gecko) Chrome/86.0.4240.111 Safari/537.36",WebKit,Chrome,86.0.4240.111,Windows,10
43,1,null,jspsych/allScrambledFaces/scrambledAF33NES.JPG,null,image-keyboard-response,37,4313,0.0-37.0,8,forwardMask,50,n,10/23/2020 21:33,69.125.145.27,"Mozilla/5.0 (Windows NT 10.0; Win64; x64) AppleWebKit/537.36 (KHTML, like Gecko) Chrome/86.0.4240.111 Safari/537.36",WebKit,Chrome,86.0.4240.111,Windows,10
43,1,null,jspsych/allFaces/AF33NES.JPG,null,image-keyboard-response,38,4411,0.0-38.0,8,Cue,"function(){
        return jsPsych.randomization.sampleWithoutReplacement(cueDuration, 1)[0]}","""",10/23/2020 21:33,69.125.145.27,"Mozilla/5.0 (Windows NT 10.0; Win64; x64) AppleWebKit/537.36 (KHTML, like Gecko) Chrome/86.0.4240.111 Safari/537.36",WebKit,Chrome,86.0.4240.111,Windows,10
43,1,null,jspsych/allFaces/BM07NES.JPG,null,image-keyboard-response,39,4488,0.0-39.0,8,backwardMask,50,"""",10/23/2020 21:33,69.125.145.27,"Mozilla/5.0 (Windows NT 10.0; Win64; x64) AppleWebKit/537.36 (KHTML, like Gecko) Chrome/86.0.4240.111 Safari/537.36",WebKit,Chrome,86.0.4240.111,Windows,10
43,1,null,"<div style=""font-size:60px;"">+</div>",null,html-keyboard-response,40,4544,0.0-40.0,8,fixationBtwnNeutralMaskAndPrompt,50,"""",10/23/2020 21:33,69.125.145.27,"Mozilla/5.0 (Windows NT 10.0; Win64; x64) AppleWebKit/537.36 (KHTML, like Gecko) Chrome/86.0.4240.111 Safari/537.36",WebKit,Chrome,86.0.4240.111,Windows,10
43,1,null,"<div style=""font-size:60px;"">+</div>",null,html-keyboard-response,41,4601,0.0-41.0,9,ITI,50,"""",10/23/2020 21:33,69.125.145.27,"Mozilla/5.0 (Windows NT 10.0; Win64; x64) AppleWebKit/537.36 (KHTML, like Gecko) Chrome/86.0.4240.111 Safari/537.36",WebKit,Chrome,86.0.4240.111,Windows,10
43,1,null,jspsych/allScrambledFaces/scrambledAM34NES.JPG,null,image-keyboard-response,42,4657,0.0-42.0,9,forwardMask,50,n,10/23/2020 21:33,69.125.145.27,"Mozilla/5.0 (Windows NT 10.0; Win64; x64) AppleWebKit/537.36 (KHTML, like Gecko) Chrome/86.0.4240.111 Safari/537.36",WebKit,Chrome,86.0.4240.111,Windows,10
43,1,null,jspsych/allFaces/AM34NES.JPG,null,image-keyboard-response,43,4715,0.0-43.0,9,Cue,"function(){
        return jsPsych.randomization.sampleWithoutReplacement(cueDuration, 1)[0]}","""",10/23/2020 21:33,69.125.145.27,"Mozilla/5.0 (Windows NT 10.0; Win64; x64) AppleWebKit/537.36 (KHTML, like Gecko) Chrome/86.0.4240.111 Safari/537.36",WebKit,Chrome,86.0.4240.111,Windows,10
43,1,null,jspsych/allFaces/AF27NES.JPG,null,image-keyboard-response,44,4776,0.0-44.0,9,backwardMask,50,"""",10/23/2020 21:33,69.125.145.27,"Mozilla/5.0 (Windows NT 10.0; Win64; x64) AppleWebKit/537.36 (KHTML, like Gecko) Chrome/86.0.4240.111 Safari/537.36",WebKit,Chrome,86.0.4240.111,Windows,10
43,1,null,"<div style=""font-size:60px;"">+</div>",null,html-keyboard-response,45,4836,0.0-45.0,9,fixationBtwnNeutralMaskAndPrompt,50,"""",10/23/2020 21:33,69.125.145.27,"Mozilla/5.0 (Windows NT 10.0; Win64; x64) AppleWebKit/537.36 (KHTML, like Gecko) Chrome/86.0.4240.111 Safari/537.36",WebKit,Chrome,86.0.4240.111,Windows,10
43,1,null,"<div style=""font-size:60px;"">+</div>",null,html-keyboard-response,46,4894,0.0-46.0,10,ITI,50,"""",10/23/2020 21:33,69.125.145.27,"Mozilla/5.0 (Windows NT 10.0; Win64; x64) AppleWebKit/537.36 (KHTML, like Gecko) Chrome/86.0.4240.111 Safari/537.36",WebKit,Chrome,86.0.4240.111,Windows,10
43,1,null,jspsych/allScrambledFaces/scrambledAM27NES.JPG,null,image-keyboard-response,47,4956,0.0-47.0,10,forwardMask,50,n,10/23/2020 21:33,69.125.145.27,"Mozilla/5.0 (Windows NT 10.0; Win64; x64) AppleWebKit/537.36 (KHTML, like Gecko) Chrome/86.0.4240.111 Safari/537.36",WebKit,Chrome,86.0.4240.111,Windows,10
43,1,null,jspsych/allFaces/AM27NES.JPG,null,image-keyboard-response,48,5008,0.0-48.0,10,Cue,"function(){
        return jsPsych.randomization.sampleWithoutReplacement(cueDuration, 1)[0]}","""",10/23/2020 21:33,69.125.145.27,"Mozilla/5.0 (Windows NT 10.0; Win64; x64) AppleWebKit/537.36 (KHTML, like Gecko) Chrome/86.0.4240.111 Safari/537.36",WebKit,Chrome,86.0.4240.111,Windows,10
43,1,null,jspsych/allFaces/AF11NES.JPG,null,image-keyboard-response,49,5065,0.0-49.0,10,backwardMask,50,"""",10/23/2020 21:33,69.125.145.27,"Mozilla/5.0 (Windows NT 10.0; Win64; x64) AppleWebKit/537.36 (KHTML, like Gecko) Chrome/86.0.4240.111 Safari/537.36",WebKit,Chrome,86.0.4240.111,Windows,10
43,1,null,"<div style=""font-size:60px;"">+</div>",null,html-keyboard-response,50,5125,0.0-50.0,10,fixationBtwnNeutralMaskAndPrompt,50,"""",10/23/2020 21:33,69.125.145.27,"Mozilla/5.0 (Windows NT 10.0; Win64; x64) AppleWebKit/537.36 (KHTML, like Gecko) Chrome/86.0.4240.111 Safari/537.36",WebKit,Chrome,86.0.4240.111,Windows,10
43,1,null,"<div style=""font-size:60px;"">+</div>",null,html-keyboard-response,51,5187,0.0-51.0,11,ITI,50,"""",10/23/2020 21:33,69.125.145.27,"Mozilla/5.0 (Windows NT 10.0; Win64; x64) AppleWebKit/537.36 (KHTML, like Gecko) Chrome/86.0.4240.111 Safari/537.36",WebKit,Chrome,86.0.4240.111,Windows,10
43,1,null,jspsych/allScrambledFaces/scrambledAF18NES.JPG,null,image-keyboard-response,52,5242,0.0-52.0,11,forwardMask,50,n,10/23/2020 21:33,69.125.145.27,"Mozilla/5.0 (Windows NT 10.0; Win64; x64) AppleWebKit/537.36 (KHTML, like Gecko) Chrome/86.0.4240.111 Safari/537.36",WebKit,Chrome,86.0.4240.111,Windows,10
43,1,null,jspsych/allFaces/AF18NES.JPG,null,image-keyboard-response,53,5313,0.0-53.0,11,Cue,"function(){
        return jsPsych.randomization.sampleWithoutReplacement(cueDuration, 1)[0]}","""",10/23/2020 21:33,69.125.145.27,"Mozilla/5.0 (Windows NT 10.0; Win64; x64) AppleWebKit/537.36 (KHTML, like Gecko) Chrome/86.0.4240.111 Safari/537.36",WebKit,Chrome,86.0.4240.111,Windows,10
43,1,null,jspsych/allFaces/AF08NES.JPG,null,image-keyboard-response,54,5431,0.0-54.0,11,backwardMask,50,"""",10/23/2020 21:33,69.125.145.27,"Mozilla/5.0 (Windows NT 10.0; Win64; x64) AppleWebKit/537.36 (KHTML, like Gecko) Chrome/86.0.4240.111 Safari/537.36",WebKit,Chrome,86.0.4240.111,Windows,10
43,1,null,"<div style=""font-size:60px;"">+</div>",null,html-keyboard-response,55,5569,0.0-55.0,11,fixationBtwnNeutralMaskAndPrompt,50,"""",10/23/2020 21:33,69.125.145.27,"Mozilla/5.0 (Windows NT 10.0; Win64; x64) AppleWebKit/537.36 (KHTML, like Gecko) Chrome/86.0.4240.111 Safari/537.36",WebKit,Chrome,86.0.4240.111,Windows,10
43,1,null,"<div style=""font-size:60px;"">+</div>",null,html-keyboard-response,56,5713,0.0-56.0,12,ITI,50,"""",10/23/2020 21:33,69.125.145.27,"Mozilla/5.0 (Windows NT 10.0; Win64; x64) AppleWebKit/537.36 (KHTML, like Gecko) Chrome/86.0.4240.111 Safari/537.36",WebKit,Chrome,86.0.4240.111,Windows,10
43,1,null,jspsych/allScrambledFaces/scrambledAM21NES.JPG,null,image-keyboard-response,57,5853,0.0-57.0,12,forwardMask,50,n,10/23/2020 21:33,69.125.145.27,"Mozilla/5.0 (Windows NT 10.0; Win64; x64) AppleWebKit/537.36 (KHTML, like Gecko) Chrome/86.0.4240.111 Safari/537.36",WebKit,Chrome,86.0.4240.111,Windows,10
43,1,null,jspsych/allFaces/AM21NES.JPG,null,image-keyboard-response,58,5926,0.0-58.0,12,Cue,"function(){
        return jsPsych.randomization.sampleWithoutReplacement(cueDuration, 1)[0]}","""",10/23/2020 21:33,69.125.145.27,"Mozilla/5.0 (Windows NT 10.0; Win64; x64) AppleWebKit/537.36 (KHTML, like Gecko) Chrome/86.0.4240.111 Safari/537.36",WebKit,Chrome,86.0.4240.111,Windows,10
43,1,null,jspsych/allFaces/BF21NES.JPG,null,image-keyboard-response,59,5986,0.0-59.0,12,backwardMask,50,"""",10/23/2020 21:33,69.125.145.27,"Mozilla/5.0 (Windows NT 10.0; Win64; x64) AppleWebKit/537.36 (KHTML, like Gecko) Chrome/86.0.4240.111 Safari/537.36",WebKit,Chrome,86.0.4240.111,Windows,10
43,1,null,"<div style=""font-size:60px;"">+</div>",null,html-keyboard-response,60,6044,0.0-60.0,12,fixationBtwnNeutralMaskAndPrompt,50,"""",10/23/2020 21:33,69.125.145.27,"Mozilla/5.0 (Windows NT 10.0; Win64; x64) AppleWebKit/537.36 (KHTML, like Gecko) Chrome/86.0.4240.111 Safari/537.36",WebKit,Chrome,86.0.4240.111,Windows,10
43,1,null,"<div style=""font-size:60px;"">+</div>",null,html-keyboard-response,61,6100,0.0-61.0,13,ITI,50,"""",10/23/2020 21:33,69.125.145.27,"Mozilla/5.0 (Windows NT 10.0; Win64; x64) AppleWebKit/537.36 (KHTML, like Gecko) Chrome/86.0.4240.111 Safari/537.36",WebKit,Chrome,86.0.4240.111,Windows,10
43,1,null,jspsych/allScrambledFaces/scrambledAF17DIS.JPG,null,image-keyboard-response,62,6157,0.0-62.0,13,forwardMask,50,d,10/23/2020 21:33,69.125.145.27,"Mozilla/5.0 (Windows NT 10.0; Win64; x64) AppleWebKit/537.36 (KHTML, like Gecko) Chrome/86.0.4240.111 Safari/537.36",WebKit,Chrome,86.0.4240.111,Windows,10
43,1,null,jspsych/allFaces/AF17DIS.JPG,null,image-keyboard-response,63,6221,0.0-63.0,13,Cue,"function(){
        return jsPsych.randomization.sampleWithoutReplacement(cueDuration, 1)[0]}","""",10/23/2020 21:33,69.125.145.27,"Mozilla/5.0 (Windows NT 10.0; Win64; x64) AppleWebKit/537.36 (KHTML, like Gecko) Chrome/86.0.4240.111 Safari/537.36",WebKit,Chrome,86.0.4240.111,Windows,10
43,1,null,jspsych/allFaces/AF32NES.JPG,null,image-keyboard-response,64,6274,0.0-64.0,13,backwardMask,50,"""",10/23/2020 21:33,69.125.145.27,"Mozilla/5.0 (Windows NT 10.0; Win64; x64) AppleWebKit/537.36 (KHTML, like Gecko) Chrome/86.0.4240.111 Safari/537.36",WebKit,Chrome,86.0.4240.111,Windows,10
43,1,null,"<div style=""font-size:60px;"">+</div>",null,html-keyboard-response,65,6336,0.0-65.0,13,fixationBtwnNeutralMaskAndPrompt,50,"""",10/23/2020 21:33,69.125.145.27,"Mozilla/5.0 (Windows NT 10.0; Win64; x64) AppleWebKit/537.36 (KHTML, like Gecko) Chrome/86.0.4240.111 Safari/537.36",WebKit,Chrome,86.0.4240.111,Windows,10
43,1,null,"<div style=""font-size:60px;"">+</div>",null,html-keyboard-response,66,6397,0.0-66.0,14,ITI,50,"""",10/23/2020 21:33,69.125.145.27,"Mozilla/5.0 (Windows NT 10.0; Win64; x64) AppleWebKit/537.36 (KHTML, like Gecko) Chrome/86.0.4240.111 Safari/537.36",WebKit,Chrome,86.0.4240.111,Windows,10
43,1,null,jspsych/allScrambledFaces/scrambledBF07NES.JPG,null,image-keyboard-response,67,6457,0.0-67.0,14,forwardMask,50,n,10/23/2020 21:33,69.125.145.27,"Mozilla/5.0 (Windows NT 10.0; Win64; x64) AppleWebKit/537.36 (KHTML, like Gecko) Chrome/86.0.4240.111 Safari/537.36",WebKit,Chrome,86.0.4240.111,Windows,10
43,1,null,jspsych/allFaces/BF07NES.JPG,null,image-keyboard-response,68,6516,0.0-68.0,14,Cue,"function(){
        return jsPsych.randomization.sampleWithoutReplacement(cueDuration, 1)[0]}","""",10/23/2020 21:33,69.125.145.27,"Mozilla/5.0 (Windows NT 10.0; Win64; x64) AppleWebKit/537.36 (KHTML, like Gecko) Chrome/86.0.4240.111 Safari/537.36",WebKit,Chrome,86.0.4240.111,Windows,10
43,1,null,jspsych/allFaces/AM04NES.JPG,null,image-keyboard-response,69,6574,0.0-69.0,14,backwardMask,50,"""",10/23/2020 21:33,69.125.145.27,"Mozilla/5.0 (Windows NT 10.0; Win64; x64) AppleWebKit/537.36 (KHTML, like Gecko) Chrome/86.0.4240.111 Safari/537.36",WebKit,Chrome,86.0.4240.111,Windows,10
43,1,null,"<div style=""font-size:60px;"">+</div>",null,html-keyboard-response,70,6635,0.0-70.0,14,fixationBtwnNeutralMaskAndPrompt,50,"""",10/23/2020 21:33,69.125.145.27,"Mozilla/5.0 (Windows NT 10.0; Win64; x64) AppleWebKit/537.36 (KHTML, like Gecko) Chrome/86.0.4240.111 Safari/537.36",WebKit,Chrome,86.0.4240.111,Windows,10
43,1,null,"<div style=""font-size:60px;"">+</div>",null,html-keyboard-response,71,6697,0.0-71.0,15,ITI,50,"""",10/23/2020 21:33,69.125.145.27,"Mozilla/5.0 (Windows NT 10.0; Win64; x64) AppleWebKit/537.36 (KHTML, like Gecko) Chrome/86.0.4240.111 Safari/537.36",WebKit,Chrome,86.0.4240.111,Windows,10
43,1,null,jspsych/allScrambledFaces/scrambledAM30DIS.JPG,null,image-keyboard-response,72,6757,0.0-72.0,15,forwardMask,50,d,10/23/2020 21:33,69.125.145.27,"Mozilla/5.0 (Windows NT 10.0; Win64; x64) AppleWebKit/537.36 (KHTML, like Gecko) Chrome/86.0.4240.111 Safari/537.36",WebKit,Chrome,86.0.4240.111,Windows,10
43,1,null,jspsych/allFaces/AM30DIS.JPG,null,image-keyboard-response,73,6816,0.0-73.0,15,Cue,"function(){
        return jsPsych.randomization.sampleWithoutReplacement(cueDuration, 1)[0]}","""",10/23/2020 21:33,69.125.145.27,"Mozilla/5.0 (Windows NT 10.0; Win64; x64) AppleWebKit/537.36 (KHTML, like Gecko) Chrome/86.0.4240.111 Safari/537.36",WebKit,Chrome,86.0.4240.111,Windows,10
43,1,null,jspsych/allFaces/BF32NES.JPG,null,image-keyboard-response,74,6874,0.0-74.0,15,backwardMask,50,"""",10/23/2020 21:33,69.125.145.27,"Mozilla/5.0 (Windows NT 10.0; Win64; x64) AppleWebKit/537.36 (KHTML, like Gecko) Chrome/86.0.4240.111 Safari/537.36",WebKit,Chrome,86.0.4240.111,Windows,10
43,1,null,"<div style=""font-size:60px;"">+</div>",null,html-keyboard-response,75,6939,0.0-75.0,15,fixationBtwnNeutralMaskAndPrompt,50,"""",10/23/2020 21:33,69.125.145.27,"Mozilla/5.0 (Windows NT 10.0; Win64; x64) AppleWebKit/537.36 (KHTML, like Gecko) Chrome/86.0.4240.111 Safari/537.36",WebKit,Chrome,86.0.4240.111,Windows,10
43,1,null,"<div style=""font-size:60px;"">+</div>",null,html-keyboard-response,76,6992,0.0-76.0,16,ITI,50,"""",10/23/2020 21:33,69.125.145.27,"Mozilla/5.0 (Windows NT 10.0; Win64; x64) AppleWebKit/537.36 (KHTML, like Gecko) Chrome/86.0.4240.111 Safari/537.36",WebKit,Chrome,86.0.4240.111,Windows,10
43,1,null,jspsych/allScrambledFaces/scrambledBM33DIS.JPG,null,image-keyboard-response,77,7046,0.0-77.0,16,forwardMask,50,d,10/23/2020 21:33,69.125.145.27,"Mozilla/5.0 (Windows NT 10.0; Win64; x64) AppleWebKit/537.36 (KHTML, like Gecko) Chrome/86.0.4240.111 Safari/537.36",WebKit,Chrome,86.0.4240.111,Windows,10
43,1,null,jspsych/allFaces/BM33DIS.JPG,null,image-keyboard-response,78,7107,0.0-78.0,16,Cue,"function(){
        return jsPsych.randomization.sampleWithoutReplacement(cueDuration, 1)[0]}","""",10/23/2020 21:33,69.125.145.27,"Mozilla/5.0 (Windows NT 10.0; Win64; x64) AppleWebKit/537.36 (KHTML, like Gecko) Chrome/86.0.4240.111 Safari/537.36",WebKit,Chrome,86.0.4240.111,Windows,10
43,1,null,jspsych/allFaces/AF02NES.JPG,null,image-keyboard-response,79,7167,0.0-79.0,16,backwardMask,50,"""",10/23/2020 21:33,69.125.145.27,"Mozilla/5.0 (Windows NT 10.0; Win64; x64) AppleWebKit/537.36 (KHTML, like Gecko) Chrome/86.0.4240.111 Safari/537.36",WebKit,Chrome,86.0.4240.111,Windows,10
43,1,null,"<div style=""font-size:60px;"">+</div>",null,html-keyboard-response,80,7237,0.0-80.0,16,fixationBtwnNeutralMaskAndPrompt,50,"""",10/23/2020 21:33,69.125.145.27,"Mozilla/5.0 (Windows NT 10.0; Win64; x64) AppleWebKit/537.36 (KHTML, like Gecko) Chrome/86.0.4240.111 Safari/537.36",WebKit,Chrome,86.0.4240.111,Windows,10
43,1,null,"<div style=""font-size:60px;"">+</div>",null,html-keyboard-response,81,7289,0.0-81.0,17,ITI,50,"""",10/23/2020 21:33,69.125.145.27,"Mozilla/5.0 (Windows NT 10.0; Win64; x64) AppleWebKit/537.36 (KHTML, like Gecko) Chrome/86.0.4240.111 Safari/537.36",WebKit,Chrome,86.0.4240.111,Windows,10
43,1,null,jspsych/allScrambledFaces/scrambledBM34DIS.JPG,null,image-keyboard-response,82,7346,0.0-82.0,17,forwardMask,50,d,10/23/2020 21:33,69.125.145.27,"Mozilla/5.0 (Windows NT 10.0; Win64; x64) AppleWebKit/537.36 (KHTML, like Gecko) Chrome/86.0.4240.111 Safari/537.36",WebKit,Chrome,86.0.4240.111,Windows,10
43,1,null,jspsych/allFaces/BM34DIS.JPG,null,image-keyboard-response,83,7406,0.0-83.0,17,Cue,"function(){
        return jsPsych.randomization.sampleWithoutReplacement(cueDuration, 1)[0]}","""",10/23/2020 21:33,69.125.145.27,"Mozilla/5.0 (Windows NT 10.0; Win64; x64) AppleWebKit/537.36 (KHTML, like Gecko) Chrome/86.0.4240.111 Safari/537.36",WebKit,Chrome,86.0.4240.111,Windows,10
43,1,null,jspsych/allFaces/AM29NES.JPG,null,image-keyboard-response,84,7473,0.0-84.0,17,backwardMask,50,"""",10/23/2020 21:33,69.125.145.27,"Mozilla/5.0 (Windows NT 10.0; Win64; x64) AppleWebKit/537.36 (KHTML, like Gecko) Chrome/86.0.4240.111 Safari/537.36",WebKit,Chrome,86.0.4240.111,Windows,10
43,1,null,"<div style=""font-size:60px;"">+</div>",null,html-keyboard-response,85,7541,0.0-85.0,17,fixationBtwnNeutralMaskAndPrompt,50,"""",10/23/2020 21:33,69.125.145.27,"Mozilla/5.0 (Windows NT 10.0; Win64; x64) AppleWebKit/537.36 (KHTML, like Gecko) Chrome/86.0.4240.111 Safari/537.36",WebKit,Chrome,86.0.4240.111,Windows,10
43,1,null,"<div style=""font-size:60px;"">+</div>",null,html-keyboard-response,86,7597,0.0-86.0,18,ITI,50,"""",10/23/2020 21:33,69.125.145.27,"Mozilla/5.0 (Windows NT 10.0; Win64; x64) AppleWebKit/537.36 (KHTML, like Gecko) Chrome/86.0.4240.111 Safari/537.36",WebKit,Chrome,86.0.4240.111,Windows,10
43,1,null,jspsych/allScrambledFaces/scrambledAF04DIS.JPG,null,image-keyboard-response,87,7656,0.0-87.0,18,forwardMask,50,d,10/23/2020 21:33,69.125.145.27,"Mozilla/5.0 (Windows NT 10.0; Win64; x64) AppleWebKit/537.36 (KHTML, like Gecko) Chrome/86.0.4240.111 Safari/537.36",WebKit,Chrome,86.0.4240.111,Windows,10
43,1,null,jspsych/allFaces/AF04DIS.JPG,null,image-keyboard-response,88,7723,0.0-88.0,18,Cue,"function(){
        return jsPsych.randomization.sampleWithoutReplacement(cueDuration, 1)[0]}","""",10/23/2020 21:33,69.125.145.27,"Mozilla/5.0 (Windows NT 10.0; Win64; x64) AppleWebKit/537.36 (KHTML, like Gecko) Chrome/86.0.4240.111 Safari/537.36",WebKit,Chrome,86.0.4240.111,Windows,10
43,1,null,jspsych/allFaces/BF14NES.JPG,null,image-keyboard-response,89,7789,0.0-89.0,18,backwardMask,50,"""",10/23/2020 21:33,69.125.145.27,"Mozilla/5.0 (Windows NT 10.0; Win64; x64) AppleWebKit/537.36 (KHTML, like Gecko) Chrome/86.0.4240.111 Safari/537.36",WebKit,Chrome,86.0.4240.111,Windows,10
43,1,null,"<div style=""font-size:60px;"">+</div>",null,html-keyboard-response,90,7846,0.0-90.0,18,fixationBtwnNeutralMaskAndPrompt,50,"""",10/23/2020 21:33,69.125.145.27,"Mozilla/5.0 (Windows NT 10.0; Win64; x64) AppleWebKit/537.36 (KHTML, like Gecko) Chrome/86.0.4240.111 Safari/537.36",WebKit,Chrome,86.0.4240.111,Windows,10
43,1,null,"<div style=""font-size:60px;"">+</div>",null,html-keyboard-response,91,7899,0.0-91.0,19,ITI,50,"""",10/23/2020 21:33,69.125.145.27,"Mozilla/5.0 (Windows NT 10.0; Win64; x64) AppleWebKit/537.36 (KHTML, like Gecko) Chrome/86.0.4240.111 Safari/537.36",WebKit,Chrome,86.0.4240.111,Windows,10
43,1,null,jspsych/allScrambledFaces/scrambledAF27NES.JPG,null,image-keyboard-response,92,7953,0.0-92.0,19,forwardMask,50,n,10/23/2020 21:33,69.125.145.27,"Mozilla/5.0 (Windows NT 10.0; Win64; x64) AppleWebKit/537.36 (KHTML, like Gecko) Chrome/86.0.4240.111 Safari/537.36",WebKit,Chrome,86.0.4240.111,Windows,10
43,1,null,jspsych/allFaces/AF27NES.JPG,null,image-keyboard-response,93,8010,0.0-93.0,19,Cue,"function(){
        return jsPsych.randomization.sampleWithoutReplacement(cueDuration, 1)[0]}","""",10/23/2020 21:33,69.125.145.27,"Mozilla/5.0 (Windows NT 10.0; Win64; x64) AppleWebKit/537.36 (KHTML, like Gecko) Chrome/86.0.4240.111 Safari/537.36",WebKit,Chrome,86.0.4240.111,Windows,10
43,1,null,jspsych/allFaces/AM02NES.JPG,null,image-keyboard-response,94,8071,0.0-94.0,19,backwardMask,50,"""",10/23/2020 21:33,69.125.145.27,"Mozilla/5.0 (Windows NT 10.0; Win64; x64) AppleWebKit/537.36 (KHTML, like Gecko) Chrome/86.0.4240.111 Safari/537.36",WebKit,Chrome,86.0.4240.111,Windows,10
43,1,null,"<div style=""font-size:60px;"">+</div>",null,html-keyboard-response,95,8134,0.0-95.0,19,fixationBtwnNeutralMaskAndPrompt,50,"""",10/23/2020 21:33,69.125.145.27,"Mozilla/5.0 (Windows NT 10.0; Win64; x64) AppleWebKit/537.36 (KHTML, like Gecko) Chrome/86.0.4240.111 Safari/537.36",WebKit,Chrome,86.0.4240.111,Windows,10
43,1,null,"<div style=""font-size:60px;"">+</div>",null,html-keyboard-response,96,8190,0.0-96.0,20,ITI,50,"""",10/23/2020 21:33,69.125.145.27,"Mozilla/5.0 (Windows NT 10.0; Win64; x64) AppleWebKit/537.36 (KHTML, like Gecko) Chrome/86.0.4240.111 Safari/537.36",WebKit,Chrome,86.0.4240.111,Windows,10
43,1,null,jspsych/allScrambledFaces/scrambledBM33NES.JPG,null,image-keyboard-response,97,8245,0.0-97.0,20,forwardMask,50,n,10/23/2020 21:33,69.125.145.27,"Mozilla/5.0 (Windows NT 10.0; Win64; x64) AppleWebKit/537.36 (KHTML, like Gecko) Chrome/86.0.4240.111 Safari/537.36",WebKit,Chrome,86.0.4240.111,Windows,10
43,1,null,jspsych/allFaces/BM33NES.JPG,null,image-keyboard-response,98,8317,0.0-98.0,20,Cue,"function(){
        return jsPsych.randomization.sampleWithoutReplacement(cueDuration, 1)[0]}","""",10/23/2020 21:33,69.125.145.27,"Mozilla/5.0 (Windows NT 10.0; Win64; x64) AppleWebKit/537.36 (KHTML, like Gecko) Chrome/86.0.4240.111 Safari/537.36",WebKit,Chrome,86.0.4240.111,Windows,10
43,1,null,jspsych/allFaces/AM35NES.JPG,null,image-keyboard-response,99,8376,0.0-99.0,20,backwardMask,50,"""",10/23/2020 21:33,69.125.145.27,"Mozilla/5.0 (Windows NT 10.0; Win64; x64) AppleWebKit/537.36 (KHTML, like Gecko) Chrome/86.0.4240.111 Safari/537.36",WebKit,Chrome,86.0.4240.111,Windows,10
43,1,null,"<div style=""font-size:60px;"">+</div>",null,html-keyboard-response,100,8433,0.0-100.0,20,fixationBtwnNeutralMaskAndPrompt,50,"""",10/23/2020 21:33,69.125.145.27,"Mozilla/5.0 (Windows NT 10.0; Win64; x64) AppleWebKit/537.36 (KHTML, like Gecko) Chrome/86.0.4240.111 Safari/537.36",WebKit,Chrome,86.0.4240.111,Windows,10
43,1,null,"<div style=""font-size:60px;"">+</div>",null,html-keyboard-response,101,8513,0.0-101.0,21,ITI,50,"""",10/23/2020 21:33,69.125.145.27,"Mozilla/5.0 (Windows NT 10.0; Win64; x64) AppleWebKit/537.36 (KHTML, like Gecko) Chrome/86.0.4240.111 Safari/537.36",WebKit,Chrome,86.0.4240.111,Windows,10
43,1,null,jspsych/allScrambledFaces/scrambledAF07NES.JPG,null,image-keyboard-response,102,8572,0.0-102.0,21,forwardMask,50,n,10/23/2020 21:33,69.125.145.27,"Mozilla/5.0 (Windows NT 10.0; Win64; x64) AppleWebKit/537.36 (KHTML, like Gecko) Chrome/86.0.4240.111 Safari/537.36",WebKit,Chrome,86.0.4240.111,Windows,10
43,1,null,jspsych/allFaces/AF07NES.JPG,null,image-keyboard-response,103,8626,0.0-103.0,21,Cue,"function(){
        return jsPsych.randomization.sampleWithoutReplacement(cueDuration, 1)[0]}","""",10/23/2020 21:33,69.125.145.27,"Mozilla/5.0 (Windows NT 10.0; Win64; x64) AppleWebKit/537.36 (KHTML, like Gecko) Chrome/86.0.4240.111 Safari/537.36",WebKit,Chrome,86.0.4240.111,Windows,10
43,1,null,jspsych/allFaces/BM21NES.JPG,null,image-keyboard-response,104,8686,0.0-104.0,21,backwardMask,50,"""",10/23/2020 21:33,69.125.145.27,"Mozilla/5.0 (Windows NT 10.0; Win64; x64) AppleWebKit/537.36 (KHTML, like Gecko) Chrome/86.0.4240.111 Safari/537.36",WebKit,Chrome,86.0.4240.111,Windows,10
43,1,null,"<div style=""font-size:60px;"">+</div>",null,html-keyboard-response,105,8746,0.0-105.0,21,fixationBtwnNeutralMaskAndPrompt,50,"""",10/23/2020 21:33,69.125.145.27,"Mozilla/5.0 (Windows NT 10.0; Win64; x64) AppleWebKit/537.36 (KHTML, like Gecko) Chrome/86.0.4240.111 Safari/537.36",WebKit,Chrome,86.0.4240.111,Windows,10
43,1,null,"<div style=""font-size:60px;"">+</div>",null,html-keyboard-response,106,8805,0.0-106.0,22,ITI,50,"""",10/23/2020 21:33,69.125.145.27,"Mozilla/5.0 (Windows NT 10.0; Win64; x64) AppleWebKit/537.36 (KHTML, like Gecko) Chrome/86.0.4240.111 Safari/537.36",WebKit,Chrome,86.0.4240.111,Windows,10
43,1,null,jspsych/allScrambledFaces/scrambledAF23DIS.JPG,null,image-keyboard-response,107,8872,0.0-107.0,22,forwardMask,50,d,10/23/2020 21:33,69.125.145.27,"Mozilla/5.0 (Windows NT 10.0; Win64; x64) AppleWebKit/537.36 (KHTML, like Gecko) Chrome/86.0.4240.111 Safari/537.36",WebKit,Chrome,86.0.4240.111,Windows,10
43,1,null,jspsych/allFaces/AF23DIS.JPG,null,image-keyboard-response,108,8926,0.0-108.0,22,Cue,"function(){
        return jsPsych.randomization.sampleWithoutReplacement(cueDuration, 1)[0]}","""",10/23/2020 21:33,69.125.145.27,"Mozilla/5.0 (Windows NT 10.0; Win64; x64) AppleWebKit/537.36 (KHTML, like Gecko) Chrome/86.0.4240.111 Safari/537.36",WebKit,Chrome,86.0.4240.111,Windows,10
43,1,null,jspsych/allFaces/AM29NES.JPG,null,image-keyboard-response,109,8996,0.0-109.0,22,backwardMask,50,"""",10/23/2020 21:33,69.125.145.27,"Mozilla/5.0 (Windows NT 10.0; Win64; x64) AppleWebKit/537.36 (KHTML, like Gecko) Chrome/86.0.4240.111 Safari/537.36",WebKit,Chrome,86.0.4240.111,Windows,10
43,1,null,"<div style=""font-size:60px;"">+</div>",null,html-keyboard-response,110,9067,0.0-110.0,22,fixationBtwnNeutralMaskAndPrompt,50,"""",10/23/2020 21:33,69.125.145.27,"Mozilla/5.0 (Windows NT 10.0; Win64; x64) AppleWebKit/537.36 (KHTML, like Gecko) Chrome/86.0.4240.111 Safari/537.36",WebKit,Chrome,86.0.4240.111,Windows,10
43,1,null,"<div style=""font-size:60px;"">+</div>",null,html-keyboard-response,111,9137,0.0-111.0,23,ITI,50,"""",10/23/2020 21:33,69.125.145.27,"Mozilla/5.0 (Windows NT 10.0; Win64; x64) AppleWebKit/537.36 (KHTML, like Gecko) Chrome/86.0.4240.111 Safari/537.36",WebKit,Chrome,86.0.4240.111,Windows,10
43,1,null,jspsych/allScrambledFaces/scrambledAF14NES.JPG,null,image-keyboard-response,112,9206,0.0-112.0,23,forwardMask,50,n,10/23/2020 21:33,69.125.145.27,"Mozilla/5.0 (Windows NT 10.0; Win64; x64) AppleWebKit/537.36 (KHTML, like Gecko) Chrome/86.0.4240.111 Safari/537.36",WebKit,Chrome,86.0.4240.111,Windows,10
43,1,null,jspsych/allFaces/AF14NES.JPG,null,image-keyboard-response,113,9269,0.0-113.0,23,Cue,"function(){
        return jsPsych.randomization.sampleWithoutReplacement(cueDuration, 1)[0]}","""",10/23/2020 21:33,69.125.145.27,"Mozilla/5.0 (Windows NT 10.0; Win64; x64) AppleWebKit/537.36 (KHTML, like Gecko) Chrome/86.0.4240.111 Safari/537.36",WebKit,Chrome,86.0.4240.111,Windows,10
43,1,null,jspsych/allFaces/BF22NES.JPG,null,image-keyboard-response,114,9321,0.0-114.0,23,backwardMask,50,"""",10/23/2020 21:33,69.125.145.27,"Mozilla/5.0 (Windows NT 10.0; Win64; x64) AppleWebKit/537.36 (KHTML, like Gecko) Chrome/86.0.4240.111 Safari/537.36",WebKit,Chrome,86.0.4240.111,Windows,10
43,1,null,"<div style=""font-size:60px;"">+</div>",null,html-keyboard-response,115,9376,0.0-115.0,23,fixationBtwnNeutralMaskAndPrompt,50,"""",10/23/2020 21:33,69.125.145.27,"Mozilla/5.0 (Windows NT 10.0; Win64; x64) AppleWebKit/537.36 (KHTML, like Gecko) Chrome/86.0.4240.111 Safari/537.36",WebKit,Chrome,86.0.4240.111,Windows,10
43,1,null,"<div style=""font-size:60px;"">+</div>",null,html-keyboard-response,116,9446,0.0-116.0,24,ITI,50,"""",10/23/2020 21:33,69.125.145.27,"Mozilla/5.0 (Windows NT 10.0; Win64; x64) AppleWebKit/537.36 (KHTML, like Gecko) Chrome/86.0.4240.111 Safari/537.36",WebKit,Chrome,86.0.4240.111,Windows,10
43,1,null,jspsych/allScrambledFaces/scrambledAM13DIS.JPG,null,image-keyboard-response,117,9504,0.0-117.0,24,forwardMask,50,d,10/23/2020 21:33,69.125.145.27,"Mozilla/5.0 (Windows NT 10.0; Win64; x64) AppleWebKit/537.36 (KHTML, like Gecko) Chrome/86.0.4240.111 Safari/537.36",WebKit,Chrome,86.0.4240.111,Windows,10
43,1,null,jspsych/allFaces/AM13DIS.JPG,null,image-keyboard-response,118,9571,0.0-118.0,24,Cue,"function(){
        return jsPsych.randomization.sampleWithoutReplacement(cueDuration, 1)[0]}","""",10/23/2020 21:33,69.125.145.27,"Mozilla/5.0 (Windows NT 10.0; Win64; x64) AppleWebKit/537.36 (KHTML, like Gecko) Chrome/86.0.4240.111 Safari/537.36",WebKit,Chrome,86.0.4240.111,Windows,10
43,1,null,jspsych/allFaces/BM05NES.JPG,null,image-keyboard-response,119,9623,0.0-119.0,24,backwardMask,50,"""",10/23/2020 21:33,69.125.145.27,"Mozilla/5.0 (Windows NT 10.0; Win64; x64) AppleWebKit/537.36 (KHTML, like Gecko) Chrome/86.0.4240.111 Safari/537.36",WebKit,Chrome,86.0.4240.111,Windows,10
43,1,null,"<div style=""font-size:60px;"">+</div>",null,html-keyboard-response,120,9690,0.0-120.0,24,fixationBtwnNeutralMaskAndPrompt,50,"""",10/23/2020 21:33,69.125.145.27,"Mozilla/5.0 (Windows NT 10.0; Win64; x64) AppleWebKit/537.36 (KHTML, like Gecko) Chrome/86.0.4240.111 Safari/537.36",WebKit,Chrome,86.0.4240.111,Windows,10
43,1,null,"<div style=""font-size:60px;"">+</div>",null,html-keyboard-response,121,9756,0.0-121.0,25,ITI,50,"""",10/23/2020 21:33,69.125.145.27,"Mozilla/5.0 (Windows NT 10.0; Win64; x64) AppleWebKit/537.36 (KHTML, like Gecko) Chrome/86.0.4240.111 Safari/537.36",WebKit,Chrome,86.0.4240.111,Windows,10
43,1,null,jspsych/allScrambledFaces/scrambledAF22NES.JPG,null,image-keyboard-response,122,9821,0.0-122.0,25,forwardMask,50,n,10/23/2020 21:33,69.125.145.27,"Mozilla/5.0 (Windows NT 10.0; Win64; x64) AppleWebKit/537.36 (KHTML, like Gecko) Chrome/86.0.4240.111 Safari/537.36",WebKit,Chrome,86.0.4240.111,Windows,10
43,1,null,jspsych/allFaces/AF22NES.JPG,null,image-keyboard-response,123,9874,0.0-123.0,25,Cue,"function(){
        return jsPsych.randomization.sampleWithoutReplacement(cueDuration, 1)[0]}","""",10/23/2020 21:33,69.125.145.27,"Mozilla/5.0 (Windows NT 10.0; Win64; x64) AppleWebKit/537.36 (KHTML, like Gecko) Chrome/86.0.4240.111 Safari/537.36",WebKit,Chrome,86.0.4240.111,Windows,10
43,1,null,jspsych/allFaces/AF16NES.JPG,null,image-keyboard-response,124,9937,0.0-124.0,25,backwardMask,50,"""",10/23/2020 21:33,69.125.145.27,"Mozilla/5.0 (Windows NT 10.0; Win64; x64) AppleWebKit/537.36 (KHTML, like Gecko) Chrome/86.0.4240.111 Safari/537.36",WebKit,Chrome,86.0.4240.111,Windows,10
43,1,null,"<div style=""font-size:60px;"">+</div>",null,html-keyboard-response,125,9994,0.0-125.0,25,fixationBtwnNeutralMaskAndPrompt,50,"""",10/23/2020 21:33,69.125.145.27,"Mozilla/5.0 (Windows NT 10.0; Win64; x64) AppleWebKit/537.36 (KHTML, like Gecko) Chrome/86.0.4240.111 Safari/537.36",WebKit,Chrome,86.0.4240.111,Windows,10
43,1,null,"<div style=""font-size:60px;"">+</div>",null,html-keyboard-response,126,10055,0.0-126.0,26,ITI,50,"""",10/23/2020 21:33,69.125.145.27,"Mozilla/5.0 (Windows NT 10.0; Win64; x64) AppleWebKit/537.36 (KHTML, like Gecko) Chrome/86.0.4240.111 Safari/537.36",WebKit,Chrome,86.0.4240.111,Windows,10
43,1,null,jspsych/allScrambledFaces/scrambledAF23NES.JPG,null,image-keyboard-response,127,10117,0.0-127.0,26,forwardMask,50,n,10/23/2020 21:33,69.125.145.27,"Mozilla/5.0 (Windows NT 10.0; Win64; x64) AppleWebKit/537.36 (KHTML, like Gecko) Chrome/86.0.4240.111 Safari/537.36",WebKit,Chrome,86.0.4240.111,Windows,10
43,1,null,jspsych/allFaces/AF23NES.JPG,null,image-keyboard-response,128,10170,0.0-128.0,26,Cue,"function(){
        return jsPsych.randomization.sampleWithoutReplacement(cueDuration, 1)[0]}","""",10/23/2020 21:33,69.125.145.27,"Mozilla/5.0 (Windows NT 10.0; Win64; x64) AppleWebKit/537.36 (KHTML, like Gecko) Chrome/86.0.4240.111 Safari/537.36",WebKit,Chrome,86.0.4240.111,Windows,10
43,1,null,jspsych/allFaces/AM04NES.JPG,null,image-keyboard-response,129,10222,0.0-129.0,26,backwardMask,50,"""",10/23/2020 21:33,69.125.145.27,"Mozilla/5.0 (Windows NT 10.0; Win64; x64) AppleWebKit/537.36 (KHTML, like Gecko) Chrome/86.0.4240.111 Safari/537.36",WebKit,Chrome,86.0.4240.111,Windows,10
43,1,null,"<div style=""font-size:60px;"">+</div>",null,html-keyboard-response,130,10276,0.0-130.0,26,fixationBtwnNeutralMaskAndPrompt,50,"""",10/23/2020 21:33,69.125.145.27,"Mozilla/5.0 (Windows NT 10.0; Win64; x64) AppleWebKit/537.36 (KHTML, like Gecko) Chrome/86.0.4240.111 Safari/537.36",WebKit,Chrome,86.0.4240.111,Windows,10
43,1,null,"<div style=""font-size:60px;"">+</div>",null,html-keyboard-response,131,10340,0.0-131.0,27,ITI,50,"""",10/23/2020 21:33,69.125.145.27,"Mozilla/5.0 (Windows NT 10.0; Win64; x64) AppleWebKit/537.36 (KHTML, like Gecko) Chrome/86.0.4240.111 Safari/537.36",WebKit,Chrome,86.0.4240.111,Windows,10
43,1,null,jspsych/allScrambledFaces/scrambledAF31NES.JPG,null,image-keyboard-response,132,10403,0.0-132.0,27,forwardMask,50,n,10/23/2020 21:33,69.125.145.27,"Mozilla/5.0 (Windows NT 10.0; Win64; x64) AppleWebKit/537.36 (KHTML, like Gecko) Chrome/86.0.4240.111 Safari/537.36",WebKit,Chrome,86.0.4240.111,Windows,10
43,1,null,jspsych/allFaces/AF31NES.JPG,null,image-keyboard-response,133,10459,0.0-133.0,27,Cue,"function(){
        return jsPsych.randomization.sampleWithoutReplacement(cueDuration, 1)[0]}","""",10/23/2020 21:33,69.125.145.27,"Mozilla/5.0 (Windows NT 10.0; Win64; x64) AppleWebKit/537.36 (KHTML, like Gecko) Chrome/86.0.4240.111 Safari/537.36",WebKit,Chrome,86.0.4240.111,Windows,10
43,1,null,jspsych/allFaces/BF33NES.JPG,null,image-keyboard-response,134,10522,0.0-134.0,27,backwardMask,50,"""",10/23/2020 21:33,69.125.145.27,"Mozilla/5.0 (Windows NT 10.0; Win64; x64) AppleWebKit/537.36 (KHTML, like Gecko) Chrome/86.0.4240.111 Safari/537.36",WebKit,Chrome,86.0.4240.111,Windows,10
43,1,null,"<div style=""font-size:60px;"">+</div>",null,html-keyboard-response,135,10577,0.0-135.0,27,fixationBtwnNeutralMaskAndPrompt,50,"""",10/23/2020 21:33,69.125.145.27,"Mozilla/5.0 (Windows NT 10.0; Win64; x64) AppleWebKit/537.36 (KHTML, like Gecko) Chrome/86.0.4240.111 Safari/537.36",WebKit,Chrome,86.0.4240.111,Windows,10
43,1,null,"<div style=""font-size:60px;"">+</div>",null,html-keyboard-response,136,10641,0.0-136.0,28,ITI,50,"""",10/23/2020 21:33,69.125.145.27,"Mozilla/5.0 (Windows NT 10.0; Win64; x64) AppleWebKit/537.36 (KHTML, like Gecko) Chrome/86.0.4240.111 Safari/537.36",WebKit,Chrome,86.0.4240.111,Windows,10
43,1,null,jspsych/allScrambledFaces/scrambledBM14DIS.JPG,null,image-keyboard-response,137,10706,0.0-137.0,28,forwardMask,50,d,10/23/2020 21:33,69.125.145.27,"Mozilla/5.0 (Windows NT 10.0; Win64; x64) AppleWebKit/537.36 (KHTML, like Gecko) Chrome/86.0.4240.111 Safari/537.36",WebKit,Chrome,86.0.4240.111,Windows,10
43,1,null,jspsych/allFaces/BM14DIS.JPG,null,image-keyboard-response,138,10768,0.0-138.0,28,Cue,"function(){
        return jsPsych.randomization.sampleWithoutReplacement(cueDuration, 1)[0]}","""",10/23/2020 21:33,69.125.145.27,"Mozilla/5.0 (Windows NT 10.0; Win64; x64) AppleWebKit/537.36 (KHTML, like Gecko) Chrome/86.0.4240.111 Safari/537.36",WebKit,Chrome,86.0.4240.111,Windows,10
43,1,null,jspsych/allFaces/BM01NES.JPG,null,image-keyboard-response,139,10821,0.0-139.0,28,backwardMask,50,"""",10/23/2020 21:33,69.125.145.27,"Mozilla/5.0 (Windows NT 10.0; Win64; x64) AppleWebKit/537.36 (KHTML, like Gecko) Chrome/86.0.4240.111 Safari/537.36",WebKit,Chrome,86.0.4240.111,Windows,10
43,1,null,"<div style=""font-size:60px;"">+</div>",null,html-keyboard-response,140,10877,0.0-140.0,28,fixationBtwnNeutralMaskAndPrompt,50,"""",10/23/2020 21:33,69.125.145.27,"Mozilla/5.0 (Windows NT 10.0; Win64; x64) AppleWebKit/537.36 (KHTML, like Gecko) Chrome/86.0.4240.111 Safari/537.36",WebKit,Chrome,86.0.4240.111,Windows,10
43,1,null,"<div style=""font-size:60px;"">+</div>",null,html-keyboard-response,141,10932,0.0-141.0,29,ITI,50,"""",10/23/2020 21:33,69.125.145.27,"Mozilla/5.0 (Windows NT 10.0; Win64; x64) AppleWebKit/537.36 (KHTML, like Gecko) Chrome/86.0.4240.111 Safari/537.36",WebKit,Chrome,86.0.4240.111,Windows,10
43,1,null,jspsych/allScrambledFaces/scrambledAM29DIS.JPG,null,image-keyboard-response,142,10987,0.0-142.0,29,forwardMask,50,d,10/23/2020 21:33,69.125.145.27,"Mozilla/5.0 (Windows NT 10.0; Win64; x64) AppleWebKit/537.36 (KHTML, like Gecko) Chrome/86.0.4240.111 Safari/537.36",WebKit,Chrome,86.0.4240.111,Windows,10
43,1,null,jspsych/allFaces/AM29DIS.JPG,null,image-keyboard-response,143,11042,0.0-143.0,29,Cue,"function(){
        return jsPsych.randomization.sampleWithoutReplacement(cueDuration, 1)[0]}","""",10/23/2020 21:33,69.125.145.27,"Mozilla/5.0 (Windows NT 10.0; Win64; x64) AppleWebKit/537.36 (KHTML, like Gecko) Chrome/86.0.4240.111 Safari/537.36",WebKit,Chrome,86.0.4240.111,Windows,10
43,1,null,jspsych/allFaces/BM26NES.JPG,null,image-keyboard-response,144,11105,0.0-144.0,29,backwardMask,50,"""",10/23/2020 21:33,69.125.145.27,"Mozilla/5.0 (Windows NT 10.0; Win64; x64) AppleWebKit/537.36 (KHTML, like Gecko) Chrome/86.0.4240.111 Safari/537.36",WebKit,Chrome,86.0.4240.111,Windows,10
43,1,null,"<div style=""font-size:60px;"">+</div>",null,html-keyboard-response,145,11160,0.0-145.0,29,fixationBtwnNeutralMaskAndPrompt,50,"""",10/23/2020 21:33,69.125.145.27,"Mozilla/5.0 (Windows NT 10.0; Win64; x64) AppleWebKit/537.36 (KHTML, like Gecko) Chrome/86.0.4240.111 Safari/537.36",WebKit,Chrome,86.0.4240.111,Windows,10
43,1,null,"<div style=""font-size:60px;"">+</div>",null,html-keyboard-response,146,11224,0.0-146.0,30,ITI,50,"""",10/23/2020 21:33,69.125.145.27,"Mozilla/5.0 (Windows NT 10.0; Win64; x64) AppleWebKit/537.36 (KHTML, like Gecko) Chrome/86.0.4240.111 Safari/537.36",WebKit,Chrome,86.0.4240.111,Windows,10
43,1,null,jspsych/allScrambledFaces/scrambledBF17NES.JPG,null,image-keyboard-response,147,11288,0.0-147.0,30,forwardMask,50,n,10/23/2020 21:33,69.125.145.27,"Mozilla/5.0 (Windows NT 10.0; Win64; x64) AppleWebKit/537.36 (KHTML, like Gecko) Chrome/86.0.4240.111 Safari/537.36",WebKit,Chrome,86.0.4240.111,Windows,10
43,1,null,jspsych/allFaces/BF17NES.JPG,null,image-keyboard-response,148,11352,0.0-148.0,30,Cue,"function(){
        return jsPsych.randomization.sampleWithoutReplacement(cueDuration, 1)[0]}","""",10/23/2020 21:33,69.125.145.27,"Mozilla/5.0 (Windows NT 10.0; Win64; x64) AppleWebKit/537.36 (KHTML, like Gecko) Chrome/86.0.4240.111 Safari/537.36",WebKit,Chrome,86.0.4240.111,Windows,10
43,1,null,jspsych/allFaces/AM05NES.JPG,null,image-keyboard-response,149,11406,0.0-149.0,30,backwardMask,50,"""",10/23/2020 21:33,69.125.145.27,"Mozilla/5.0 (Windows NT 10.0; Win64; x64) AppleWebKit/537.36 (KHTML, like Gecko) Chrome/86.0.4240.111 Safari/537.36",WebKit,Chrome,86.0.4240.111,Windows,10
43,1,null,"<div style=""font-size:60px;"">+</div>",null,html-keyboard-response,150,11476,0.0-150.0,30,fixationBtwnNeutralMaskAndPrompt,50,"""",10/23/2020 21:33,69.125.145.27,"Mozilla/5.0 (Windows NT 10.0; Win64; x64) AppleWebKit/537.36 (KHTML, like Gecko) Chrome/86.0.4240.111 Safari/537.36",WebKit,Chrome,86.0.4240.111,Windows,10
43,1,null,"<div style=""font-size:60px;"">+</div>",null,html-keyboard-response,151,11546,0.0-151.0,31,ITI,50,"""",10/23/2020 21:33,69.125.145.27,"Mozilla/5.0 (Windows NT 10.0; Win64; x64) AppleWebKit/537.36 (KHTML, like Gecko) Chrome/86.0.4240.111 Safari/537.36",WebKit,Chrome,86.0.4240.111,Windows,10
43,1,null,jspsych/allScrambledFaces/scrambledBF18NES.JPG,null,image-keyboard-response,152,11606,0.0-152.0,31,forwardMask,50,n,10/23/2020 21:33,69.125.145.27,"Mozilla/5.0 (Windows NT 10.0; Win64; x64) AppleWebKit/537.36 (KHTML, like Gecko) Chrome/86.0.4240.111 Safari/537.36",WebKit,Chrome,86.0.4240.111,Windows,10
43,1,null,jspsych/allFaces/BF18NES.JPG,null,image-keyboard-response,153,11670,0.0-153.0,31,Cue,"function(){
        return jsPsych.randomization.sampleWithoutReplacement(cueDuration, 1)[0]}","""",10/23/2020 21:33,69.125.145.27,"Mozilla/5.0 (Windows NT 10.0; Win64; x64) AppleWebKit/537.36 (KHTML, like Gecko) Chrome/86.0.4240.111 Safari/537.36",WebKit,Chrome,86.0.4240.111,Windows,10
43,1,null,jspsych/allFaces/BF06NES.JPG,null,image-keyboard-response,154,11726,0.0-154.0,31,backwardMask,50,"""",10/23/2020 21:33,69.125.145.27,"Mozilla/5.0 (Windows NT 10.0; Win64; x64) AppleWebKit/537.36 (KHTML, like Gecko) Chrome/86.0.4240.111 Safari/537.36",WebKit,Chrome,86.0.4240.111,Windows,10
43,1,null,"<div style=""font-size:60px;"">+</div>",null,html-keyboard-response,155,11796,0.0-155.0,31,fixationBtwnNeutralMaskAndPrompt,50,"""",10/23/2020 21:33,69.125.145.27,"Mozilla/5.0 (Windows NT 10.0; Win64; x64) AppleWebKit/537.36 (KHTML, like Gecko) Chrome/86.0.4240.111 Safari/537.36",WebKit,Chrome,86.0.4240.111,Windows,10
43,1,null,"<div style=""font-size:60px;"">+</div>",null,html-keyboard-response,156,11852,0.0-156.0,32,ITI,50,"""",10/23/2020 21:33,69.125.145.27,"Mozilla/5.0 (Windows NT 10.0; Win64; x64) AppleWebKit/537.36 (KHTML, like Gecko) Chrome/86.0.4240.111 Safari/537.36",WebKit,Chrome,86.0.4240.111,Windows,10
43,1,null,jspsych/allScrambledFaces/scrambledAF20DIS.JPG,null,image-keyboard-response,157,11920,0.0-157.0,32,forwardMask,50,d,10/23/2020 21:33,69.125.145.27,"Mozilla/5.0 (Windows NT 10.0; Win64; x64) AppleWebKit/537.36 (KHTML, like Gecko) Chrome/86.0.4240.111 Safari/537.36",WebKit,Chrome,86.0.4240.111,Windows,10
43,1,null,jspsych/allFaces/AF20DIS.JPG,null,image-keyboard-response,158,11977,0.0-158.0,32,Cue,"function(){
        return jsPsych.randomization.sampleWithoutReplacement(cueDuration, 1)[0]}","""",10/23/2020 21:33,69.125.145.27,"Mozilla/5.0 (Windows NT 10.0; Win64; x64) AppleWebKit/537.36 (KHTML, like Gecko) Chrome/86.0.4240.111 Safari/537.36",WebKit,Chrome,86.0.4240.111,Windows,10
43,1,null,jspsych/allFaces/AF18NES.JPG,null,image-keyboard-response,159,12036,0.0-159.0,32,backwardMask,50,"""",10/23/2020 21:33,69.125.145.27,"Mozilla/5.0 (Windows NT 10.0; Win64; x64) AppleWebKit/537.36 (KHTML, like Gecko) Chrome/86.0.4240.111 Safari/537.36",WebKit,Chrome,86.0.4240.111,Windows,10
43,1,null,"<div style=""font-size:60px;"">+</div>",null,html-keyboard-response,160,12102,0.0-160.0,32,fixationBtwnNeutralMaskAndPrompt,50,"""",10/23/2020 21:33,69.125.145.27,"Mozilla/5.0 (Windows NT 10.0; Win64; x64) AppleWebKit/537.36 (KHTML, like Gecko) Chrome/86.0.4240.111 Safari/537.36",WebKit,Chrome,86.0.4240.111,Windows,10
43,1,null,"<div style=""font-size:60px;"">+</div>",null,html-keyboard-response,161,12156,0.0-161.0,33,ITI,50,"""",10/23/2020 21:33,69.125.145.27,"Mozilla/5.0 (Windows NT 10.0; Win64; x64) AppleWebKit/537.36 (KHTML, like Gecko) Chrome/86.0.4240.111 Safari/537.36",WebKit,Chrome,86.0.4240.111,Windows,10
43,1,null,jspsych/allScrambledFaces/scrambledBF32DIS.JPG,null,image-keyboard-response,162,12216,0.0-162.0,33,forwardMask,50,d,10/23/2020 21:33,69.125.145.27,"Mozilla/5.0 (Windows NT 10.0; Win64; x64) AppleWebKit/537.36 (KHTML, like Gecko) Chrome/86.0.4240.111 Safari/537.36",WebKit,Chrome,86.0.4240.111,Windows,10
43,1,null,jspsych/allFaces/BF32DIS.JPG,null,image-keyboard-response,163,12285,0.0-163.0,33,Cue,"function(){
        return jsPsych.randomization.sampleWithoutReplacement(cueDuration, 1)[0]}","""",10/23/2020 21:33,69.125.145.27,"Mozilla/5.0 (Windows NT 10.0; Win64; x64) AppleWebKit/537.36 (KHTML, like Gecko) Chrome/86.0.4240.111 Safari/537.36",WebKit,Chrome,86.0.4240.111,Windows,10
43,1,null,jspsych/allFaces/AF31NES.JPG,null,image-keyboard-response,164,12342,0.0-164.0,33,backwardMask,50,"""",10/23/2020 21:33,69.125.145.27,"Mozilla/5.0 (Windows NT 10.0; Win64; x64) AppleWebKit/537.36 (KHTML, like Gecko) Chrome/86.0.4240.111 Safari/537.36",WebKit,Chrome,86.0.4240.111,Windows,10
43,1,null,"<div style=""font-size:60px;"">+</div>",null,html-keyboard-response,165,12403,0.0-165.0,33,fixationBtwnNeutralMaskAndPrompt,50,"""",10/23/2020 21:33,69.125.145.27,"Mozilla/5.0 (Windows NT 10.0; Win64; x64) AppleWebKit/537.36 (KHTML, like Gecko) Chrome/86.0.4240.111 Safari/537.36",WebKit,Chrome,86.0.4240.111,Windows,10
43,1,null,"<div style=""font-size:60px;"">+</div>",null,html-keyboard-response,166,12456,0.0-166.0,34,ITI,50,"""",10/23/2020 21:33,69.125.145.27,"Mozilla/5.0 (Windows NT 10.0; Win64; x64) AppleWebKit/537.36 (KHTML, like Gecko) Chrome/86.0.4240.111 Safari/537.36",WebKit,Chrome,86.0.4240.111,Windows,10
43,1,null,jspsych/allScrambledFaces/scrambledAM25NES.JPG,null,image-keyboard-response,167,12517,0.0-167.0,34,forwardMask,50,n,10/23/2020 21:33,69.125.145.27,"Mozilla/5.0 (Windows NT 10.0; Win64; x64) AppleWebKit/537.36 (KHTML, like Gecko) Chrome/86.0.4240.111 Safari/537.36",WebKit,Chrome,86.0.4240.111,Windows,10
43,1,null,jspsych/allFaces/AM25NES.JPG,null,image-keyboard-response,168,12577,0.0-168.0,34,Cue,"function(){
        return jsPsych.randomization.sampleWithoutReplacement(cueDuration, 1)[0]}","""",10/23/2020 21:33,69.125.145.27,"Mozilla/5.0 (Windows NT 10.0; Win64; x64) AppleWebKit/537.36 (KHTML, like Gecko) Chrome/86.0.4240.111 Safari/537.36",WebKit,Chrome,86.0.4240.111,Windows,10
43,1,null,jspsych/allFaces/AF03NES.JPG,null,image-keyboard-response,169,12635,0.0-169.0,34,backwardMask,50,"""",10/23/2020 21:33,69.125.145.27,"Mozilla/5.0 (Windows NT 10.0; Win64; x64) AppleWebKit/537.36 (KHTML, like Gecko) Chrome/86.0.4240.111 Safari/537.36",WebKit,Chrome,86.0.4240.111,Windows,10
43,1,null,"<div style=""font-size:60px;"">+</div>",null,html-keyboard-response,170,12707,0.0-170.0,34,fixationBtwnNeutralMaskAndPrompt,50,"""",10/23/2020 21:33,69.125.145.27,"Mozilla/5.0 (Windows NT 10.0; Win64; x64) AppleWebKit/537.36 (KHTML, like Gecko) Chrome/86.0.4240.111 Safari/537.36",WebKit,Chrome,86.0.4240.111,Windows,10
43,1,null,"<div style=""font-size:60px;"">+</div>",null,html-keyboard-response,171,12777,0.0-171.0,35,ITI,50,"""",10/23/2020 21:33,69.125.145.27,"Mozilla/5.0 (Windows NT 10.0; Win64; x64) AppleWebKit/537.36 (KHTML, like Gecko) Chrome/86.0.4240.111 Safari/537.36",WebKit,Chrome,86.0.4240.111,Windows,10
43,1,null,jspsych/allScrambledFaces/scrambledBF26DIS.JPG,null,image-keyboard-response,172,12838,0.0-172.0,35,forwardMask,50,d,10/23/2020 21:33,69.125.145.27,"Mozilla/5.0 (Windows NT 10.0; Win64; x64) AppleWebKit/537.36 (KHTML, like Gecko) Chrome/86.0.4240.111 Safari/537.36",WebKit,Chrome,86.0.4240.111,Windows,10
43,1,null,jspsych/allFaces/BF26DIS.JPG,null,image-keyboard-response,173,12892,0.0-173.0,35,Cue,"function(){
        return jsPsych.randomization.sampleWithoutReplacement(cueDuration, 1)[0]}","""",10/23/2020 21:33,69.125.145.27,"Mozilla/5.0 (Windows NT 10.0; Win64; x64) AppleWebKit/537.36 (KHTML, like Gecko) Chrome/86.0.4240.111 Safari/537.36",WebKit,Chrome,86.0.4240.111,Windows,10
43,1,null,jspsych/allFaces/AM35NES.JPG,null,image-keyboard-response,174,12946,0.0-174.0,35,backwardMask,50,"""",10/23/2020 21:33,69.125.145.27,"Mozilla/5.0 (Windows NT 10.0; Win64; x64) AppleWebKit/537.36 (KHTML, like Gecko) Chrome/86.0.4240.111 Safari/537.36",WebKit,Chrome,86.0.4240.111,Windows,10
43,1,null,"<div style=""font-size:60px;"">+</div>",null,html-keyboard-response,175,13006,0.0-175.0,35,fixationBtwnNeutralMaskAndPrompt,50,"""",10/23/2020 21:33,69.125.145.27,"Mozilla/5.0 (Windows NT 10.0; Win64; x64) AppleWebKit/537.36 (KHTML, like Gecko) Chrome/86.0.4240.111 Safari/537.36",WebKit,Chrome,86.0.4240.111,Windows,10
43,1,null,"<div style=""font-size:60px;"">+</div>",null,html-keyboard-response,176,13076,0.0-176.0,36,ITI,50,"""",10/23/2020 21:33,69.125.145.27,"Mozilla/5.0 (Windows NT 10.0; Win64; x64) AppleWebKit/537.36 (KHTML, like Gecko) Chrome/86.0.4240.111 Safari/537.36",WebKit,Chrome,86.0.4240.111,Windows,10
43,1,null,jspsych/allScrambledFaces/scrambledAM08NES.JPG,null,image-keyboard-response,177,13134,0.0-177.0,36,forwardMask,50,n,10/23/2020 21:33,69.125.145.27,"Mozilla/5.0 (Windows NT 10.0; Win64; x64) AppleWebKit/537.36 (KHTML, like Gecko) Chrome/86.0.4240.111 Safari/537.36",WebKit,Chrome,86.0.4240.111,Windows,10
43,1,null,jspsych/allFaces/AM08NES.JPG,null,image-keyboard-response,178,13186,0.0-178.0,36,Cue,"function(){
        return jsPsych.randomization.sampleWithoutReplacement(cueDuration, 1)[0]}","""",10/23/2020 21:33,69.125.145.27,"Mozilla/5.0 (Windows NT 10.0; Win64; x64) AppleWebKit/537.36 (KHTML, like Gecko) Chrome/86.0.4240.111 Safari/537.36",WebKit,Chrome,86.0.4240.111,Windows,10
43,1,null,jspsych/allFaces/AF11NES.JPG,null,image-keyboard-response,179,13246,0.0-179.0,36,backwardMask,50,"""",10/23/2020 21:33,69.125.145.27,"Mozilla/5.0 (Windows NT 10.0; Win64; x64) AppleWebKit/537.36 (KHTML, like Gecko) Chrome/86.0.4240.111 Safari/537.36",WebKit,Chrome,86.0.4240.111,Windows,10
43,1,null,"<div style=""font-size:60px;"">+</div>",null,html-keyboard-response,180,13307,0.0-180.0,36,fixationBtwnNeutralMaskAndPrompt,50,"""",10/23/2020 21:33,69.125.145.27,"Mozilla/5.0 (Windows NT 10.0; Win64; x64) AppleWebKit/537.36 (KHTML, like Gecko) Chrome/86.0.4240.111 Safari/537.36",WebKit,Chrome,86.0.4240.111,Windows,10
43,1,null,"<div style=""font-size:60px;"">+</div>",null,html-keyboard-response,181,13376,0.0-181.0,37,ITI,50,"""",10/23/2020 21:33,69.125.145.27,"Mozilla/5.0 (Windows NT 10.0; Win64; x64) AppleWebKit/537.36 (KHTML, like Gecko) Chrome/86.0.4240.111 Safari/537.36",WebKit,Chrome,86.0.4240.111,Windows,10
43,1,null,jspsych/allScrambledFaces/scrambledBF23DIS.JPG,null,image-keyboard-response,182,13434,0.0-182.0,37,forwardMask,50,d,10/23/2020 21:33,69.125.145.27,"Mozilla/5.0 (Windows NT 10.0; Win64; x64) AppleWebKit/537.36 (KHTML, like Gecko) Chrome/86.0.4240.111 Safari/537.36",WebKit,Chrome,86.0.4240.111,Windows,10
43,1,null,jspsych/allFaces/BF23DIS.JPG,null,image-keyboard-response,183,13502,0.0-183.0,37,Cue,"function(){
        return jsPsych.randomization.sampleWithoutReplacement(cueDuration, 1)[0]}","""",10/23/2020 21:33,69.125.145.27,"Mozilla/5.0 (Windows NT 10.0; Win64; x64) AppleWebKit/537.36 (KHTML, like Gecko) Chrome/86.0.4240.111 Safari/537.36",WebKit,Chrome,86.0.4240.111,Windows,10
43,1,null,jspsych/allFaces/BF08NES.JPG,null,image-keyboard-response,184,13556,0.0-184.0,37,backwardMask,50,"""",10/23/2020 21:33,69.125.145.27,"Mozilla/5.0 (Windows NT 10.0; Win64; x64) AppleWebKit/537.36 (KHTML, like Gecko) Chrome/86.0.4240.111 Safari/537.36",WebKit,Chrome,86.0.4240.111,Windows,10
43,1,null,"<div style=""font-size:60px;"">+</div>",null,html-keyboard-response,185,13617,0.0-185.0,37,fixationBtwnNeutralMaskAndPrompt,50,"""",10/23/2020 21:33,69.125.145.27,"Mozilla/5.0 (Windows NT 10.0; Win64; x64) AppleWebKit/537.36 (KHTML, like Gecko) Chrome/86.0.4240.111 Safari/537.36",WebKit,Chrome,86.0.4240.111,Windows,10
43,1,null,"<div style=""font-size:60px;"">+</div>",null,html-keyboard-response,186,13676,0.0-186.0,38,ITI,50,"""",10/23/2020 21:33,69.125.145.27,"Mozilla/5.0 (Windows NT 10.0; Win64; x64) AppleWebKit/537.36 (KHTML, like Gecko) Chrome/86.0.4240.111 Safari/537.36",WebKit,Chrome,86.0.4240.111,Windows,10
43,1,null,jspsych/allScrambledFaces/scrambledBF07DIS.JPG,null,image-keyboard-response,187,13746,0.0-187.0,38,forwardMask,50,d,10/23/2020 21:33,69.125.145.27,"Mozilla/5.0 (Windows NT 10.0; Win64; x64) AppleWebKit/537.36 (KHTML, like Gecko) Chrome/86.0.4240.111 Safari/537.36",WebKit,Chrome,86.0.4240.111,Windows,10
43,1,null,jspsych/allFaces/BF07DIS.JPG,null,image-keyboard-response,188,13800,0.0-188.0,38,Cue,"function(){
        return jsPsych.randomization.sampleWithoutReplacement(cueDuration, 1)[0]}","""",10/23/2020 21:33,69.125.145.27,"Mozilla/5.0 (Windows NT 10.0; Win64; x64) AppleWebKit/537.36 (KHTML, like Gecko) Chrome/86.0.4240.111 Safari/537.36",WebKit,Chrome,86.0.4240.111,Windows,10
43,1,null,jspsych/allFaces/BM25NES.JPG,null,image-keyboard-response,189,13857,0.0-189.0,38,backwardMask,50,"""",10/23/2020 21:33,69.125.145.27,"Mozilla/5.0 (Windows NT 10.0; Win64; x64) AppleWebKit/537.36 (KHTML, like Gecko) Chrome/86.0.4240.111 Safari/537.36",WebKit,Chrome,86.0.4240.111,Windows,10
43,1,null,"<div style=""font-size:60px;"">+</div>",null,html-keyboard-response,190,13917,0.0-190.0,38,fixationBtwnNeutralMaskAndPrompt,50,"""",10/23/2020 21:33,69.125.145.27,"Mozilla/5.0 (Windows NT 10.0; Win64; x64) AppleWebKit/537.36 (KHTML, like Gecko) Chrome/86.0.4240.111 Safari/537.36",WebKit,Chrome,86.0.4240.111,Windows,10
43,1,null,"<div style=""font-size:60px;"">+</div>",null,html-keyboard-response,191,13983,0.0-191.0,39,ITI,50,"""",10/23/2020 21:33,69.125.145.27,"Mozilla/5.0 (Windows NT 10.0; Win64; x64) AppleWebKit/537.36 (KHTML, like Gecko) Chrome/86.0.4240.111 Safari/537.36",WebKit,Chrome,86.0.4240.111,Windows,10
43,1,null,jspsych/allScrambledFaces/scrambledAM27DIS.JPG,null,image-keyboard-response,192,14050,0.0-192.0,39,forwardMask,50,d,10/23/2020 21:33,69.125.145.27,"Mozilla/5.0 (Windows NT 10.0; Win64; x64) AppleWebKit/537.36 (KHTML, like Gecko) Chrome/86.0.4240.111 Safari/537.36",WebKit,Chrome,86.0.4240.111,Windows,10
43,1,null,jspsych/allFaces/AM27DIS.JPG,null,image-keyboard-response,193,14116,0.0-193.0,39,Cue,"function(){
        return jsPsych.randomization.sampleWithoutReplacement(cueDuration, 1)[0]}","""",10/23/2020 21:33,69.125.145.27,"Mozilla/5.0 (Windows NT 10.0; Win64; x64) AppleWebKit/537.36 (KHTML, like Gecko) Chrome/86.0.4240.111 Safari/537.36",WebKit,Chrome,86.0.4240.111,Windows,10
43,1,null,jspsych/allFaces/AM11NES.JPG,null,image-keyboard-response,194,14177,0.0-194.0,39,backwardMask,50,"""",10/23/2020 21:33,69.125.145.27,"Mozilla/5.0 (Windows NT 10.0; Win64; x64) AppleWebKit/537.36 (KHTML, like Gecko) Chrome/86.0.4240.111 Safari/537.36",WebKit,Chrome,86.0.4240.111,Windows,10
43,1,null,"<div style=""font-size:60px;"">+</div>",null,html-keyboard-response,195,14233,0.0-195.0,39,fixationBtwnNeutralMaskAndPrompt,50,"""",10/23/2020 21:33,69.125.145.27,"Mozilla/5.0 (Windows NT 10.0; Win64; x64) AppleWebKit/537.36 (KHTML, like Gecko) Chrome/86.0.4240.111 Safari/537.36",WebKit,Chrome,86.0.4240.111,Windows,10
43,1,null,"<div style=""font-size:60px;"">+</div>",null,html-keyboard-response,196,14300,0.0-196.0,40,ITI,50,"""",10/23/2020 21:33,69.125.145.27,"Mozilla/5.0 (Windows NT 10.0; Win64; x64) AppleWebKit/537.36 (KHTML, like Gecko) Chrome/86.0.4240.111 Safari/537.36",WebKit,Chrome,86.0.4240.111,Windows,10
43,1,null,jspsych/allScrambledFaces/scrambledAF08NES.JPG,null,image-keyboard-response,197,14367,0.0-197.0,40,forwardMask,50,n,10/23/2020 21:33,69.125.145.27,"Mozilla/5.0 (Windows NT 10.0; Win64; x64) AppleWebKit/537.36 (KHTML, like Gecko) Chrome/86.0.4240.111 Safari/537.36",WebKit,Chrome,86.0.4240.111,Windows,10
43,1,null,jspsych/allFaces/AF08NES.JPG,null,image-keyboard-response,198,14420,0.0-198.0,40,Cue,"function(){
        return jsPsych.randomization.sampleWithoutReplacement(cueDuration, 1)[0]}","""",10/23/2020 21:33,69.125.145.27,"Mozilla/5.0 (Windows NT 10.0; Win64; x64) AppleWebKit/537.36 (KHTML, like Gecko) Chrome/86.0.4240.111 Safari/537.36",WebKit,Chrome,86.0.4240.111,Windows,10
43,1,null,jspsych/allFaces/BF35NES.JPG,null,image-keyboard-response,199,14482,0.0-199.0,40,backwardMask,50,"""",10/23/2020 21:33,69.125.145.27,"Mozilla/5.0 (Windows NT 10.0; Win64; x64) AppleWebKit/537.36 (KHTML, like Gecko) Chrome/86.0.4240.111 Safari/537.36",WebKit,Chrome,86.0.4240.111,Windows,10
43,1,null,"<div style=""font-size:60px;"">+</div>",null,html-keyboard-response,200,14547,0.0-200.0,40,fixationBtwnNeutralMaskAndPrompt,50,"""",10/23/2020 21:33,69.125.145.27,"Mozilla/5.0 (Windows NT 10.0; Win64; x64) AppleWebKit/537.36 (KHTML, like Gecko) Chrome/86.0.4240.111 Safari/537.36",WebKit,Chrome,86.0.4240.111,Windows,10
43,1,null,"<div style=""font-size:60px;"">+</div>",null,html-keyboard-response,201,14607,0.0-201.0,41,ITI,50,"""",10/23/2020 21:33,69.125.145.27,"Mozilla/5.0 (Windows NT 10.0; Win64; x64) AppleWebKit/537.36 (KHTML, like Gecko) Chrome/86.0.4240.111 Safari/537.36",WebKit,Chrome,86.0.4240.111,Windows,10
43,1,null,jspsych/allScrambledFaces/scrambledAM01DIS.JPG,null,image-keyboard-response,202,14666,0.0-202.0,41,forwardMask,50,d,10/23/2020 21:33,69.125.145.27,"Mozilla/5.0 (Windows NT 10.0; Win64; x64) AppleWebKit/537.36 (KHTML, like Gecko) Chrome/86.0.4240.111 Safari/537.36",WebKit,Chrome,86.0.4240.111,Windows,10
43,1,null,jspsych/allFaces/AM01DIS.JPG,null,image-keyboard-response,203,14733,0.0-203.0,41,Cue,"function(){
        return jsPsych.randomization.sampleWithoutReplacement(cueDuration, 1)[0]}","""",10/23/2020 21:33,69.125.145.27,"Mozilla/5.0 (Windows NT 10.0; Win64; x64) AppleWebKit/537.36 (KHTML, like Gecko) Chrome/86.0.4240.111 Safari/537.36",WebKit,Chrome,86.0.4240.111,Windows,10
43,1,null,jspsych/allFaces/AM15NES.JPG,null,image-keyboard-response,204,14786,0.0-204.0,41,backwardMask,50,"""",10/23/2020 21:33,69.125.145.27,"Mozilla/5.0 (Windows NT 10.0; Win64; x64) AppleWebKit/537.36 (KHTML, like Gecko) Chrome/86.0.4240.111 Safari/537.36",WebKit,Chrome,86.0.4240.111,Windows,10
43,1,null,"<div style=""font-size:60px;"">+</div>",null,html-keyboard-response,205,14850,0.0-205.0,41,fixationBtwnNeutralMaskAndPrompt,50,"""",10/23/2020 21:33,69.125.145.27,"Mozilla/5.0 (Windows NT 10.0; Win64; x64) AppleWebKit/537.36 (KHTML, like Gecko) Chrome/86.0.4240.111 Safari/537.36",WebKit,Chrome,86.0.4240.111,Windows,10
43,1,null,"<div style=""font-size:60px;"">+</div>",null,html-keyboard-response,206,14907,0.0-206.0,42,ITI,50,"""",10/23/2020 21:33,69.125.145.27,"Mozilla/5.0 (Windows NT 10.0; Win64; x64) AppleWebKit/537.36 (KHTML, like Gecko) Chrome/86.0.4240.111 Safari/537.36",WebKit,Chrome,86.0.4240.111,Windows,10
43,1,null,jspsych/allScrambledFaces/scrambledAF06NES.JPG,null,image-keyboard-response,207,14966,0.0-207.0,42,forwardMask,50,n,10/23/2020 21:33,69.125.145.27,"Mozilla/5.0 (Windows NT 10.0; Win64; x64) AppleWebKit/537.36 (KHTML, like Gecko) Chrome/86.0.4240.111 Safari/537.36",WebKit,Chrome,86.0.4240.111,Windows,10
43,1,null,jspsych/allFaces/AF06NES.JPG,null,image-keyboard-response,208,15018,0.0-208.0,42,Cue,"function(){
        return jsPsych.randomization.sampleWithoutReplacement(cueDuration, 1)[0]}","""",10/23/2020 21:33,69.125.145.27,"Mozilla/5.0 (Windows NT 10.0; Win64; x64) AppleWebKit/537.36 (KHTML, like Gecko) Chrome/86.0.4240.111 Safari/537.36",WebKit,Chrome,86.0.4240.111,Windows,10
43,1,null,jspsych/allFaces/BM34NES.JPG,null,image-keyboard-response,209,15082,0.0-209.0,42,backwardMask,50,"""",10/23/2020 21:33,69.125.145.27,"Mozilla/5.0 (Windows NT 10.0; Win64; x64) AppleWebKit/537.36 (KHTML, like Gecko) Chrome/86.0.4240.111 Safari/537.36",WebKit,Chrome,86.0.4240.111,Windows,10
43,1,null,"<div style=""font-size:60px;"">+</div>",null,html-keyboard-response,210,15136,0.0-210.0,42,fixationBtwnNeutralMaskAndPrompt,50,"""",10/23/2020 21:33,69.125.145.27,"Mozilla/5.0 (Windows NT 10.0; Win64; x64) AppleWebKit/537.36 (KHTML, like Gecko) Chrome/86.0.4240.111 Safari/537.36",WebKit,Chrome,86.0.4240.111,Windows,10
43,1,null,"<div style=""font-size:60px;"">+</div>",null,html-keyboard-response,211,15206,0.0-211.0,43,ITI,50,"""",10/23/2020 21:33,69.125.145.27,"Mozilla/5.0 (Windows NT 10.0; Win64; x64) AppleWebKit/537.36 (KHTML, like Gecko) Chrome/86.0.4240.111 Safari/537.36",WebKit,Chrome,86.0.4240.111,Windows,10
43,1,null,jspsych/allScrambledFaces/scrambledAF05DIS.JPG,null,image-keyboard-response,212,15277,0.0-212.0,43,forwardMask,50,d,10/23/2020 21:33,69.125.145.27,"Mozilla/5.0 (Windows NT 10.0; Win64; x64) AppleWebKit/537.36 (KHTML, like Gecko) Chrome/86.0.4240.111 Safari/537.36",WebKit,Chrome,86.0.4240.111,Windows,10
43,1,null,jspsych/allFaces/AF05DIS.JPG,null,image-keyboard-response,213,15336,0.0-213.0,43,Cue,"function(){
        return jsPsych.randomization.sampleWithoutReplacement(cueDuration, 1)[0]}","""",10/23/2020 21:33,69.125.145.27,"Mozilla/5.0 (Windows NT 10.0; Win64; x64) AppleWebKit/537.36 (KHTML, like Gecko) Chrome/86.0.4240.111 Safari/537.36",WebKit,Chrome,86.0.4240.111,Windows,10
43,1,null,jspsych/allFaces/BM05NES.JPG,null,image-keyboard-response,214,15407,0.0-214.0,43,backwardMask,50,"""",10/23/2020 21:33,69.125.145.27,"Mozilla/5.0 (Windows NT 10.0; Win64; x64) AppleWebKit/537.36 (KHTML, like Gecko) Chrome/86.0.4240.111 Safari/537.36",WebKit,Chrome,86.0.4240.111,Windows,10
43,1,null,"<div style=""font-size:60px;"">+</div>",null,html-keyboard-response,215,15477,0.0-215.0,43,fixationBtwnNeutralMaskAndPrompt,50,"""",10/23/2020 21:33,69.125.145.27,"Mozilla/5.0 (Windows NT 10.0; Win64; x64) AppleWebKit/537.36 (KHTML, like Gecko) Chrome/86.0.4240.111 Safari/537.36",WebKit,Chrome,86.0.4240.111,Windows,10
43,1,null,"<div style=""font-size:60px;"">+</div>",null,html-keyboard-response,216,15547,0.0-216.0,44,ITI,50,"""",10/23/2020 21:33,69.125.145.27,"Mozilla/5.0 (Windows NT 10.0; Win64; x64) AppleWebKit/537.36 (KHTML, like Gecko) Chrome/86.0.4240.111 Safari/537.36",WebKit,Chrome,86.0.4240.111,Windows,10
43,1,null,jspsych/allScrambledFaces/scrambledBF32DIS.JPG,null,image-keyboard-response,217,15606,0.0-217.0,44,forwardMask,50,d,10/23/2020 21:33,69.125.145.27,"Mozilla/5.0 (Windows NT 10.0; Win64; x64) AppleWebKit/537.36 (KHTML, like Gecko) Chrome/86.0.4240.111 Safari/537.36",WebKit,Chrome,86.0.4240.111,Windows,10
43,1,null,jspsych/allFaces/BF32DIS.JPG,null,image-keyboard-response,218,15665,0.0-218.0,44,Cue,"function(){
        return jsPsych.randomization.sampleWithoutReplacement(cueDuration, 1)[0]}","""",10/23/2020 21:33,69.125.145.27,"Mozilla/5.0 (Windows NT 10.0; Win64; x64) AppleWebKit/537.36 (KHTML, like Gecko) Chrome/86.0.4240.111 Safari/537.36",WebKit,Chrome,86.0.4240.111,Windows,10
43,1,null,jspsych/allFaces/AM28NES.JPG,null,image-keyboard-response,219,15732,0.0-219.0,44,backwardMask,50,"""",10/23/2020 21:33,69.125.145.27,"Mozilla/5.0 (Windows NT 10.0; Win64; x64) AppleWebKit/537.36 (KHTML, like Gecko) Chrome/86.0.4240.111 Safari/537.36",WebKit,Chrome,86.0.4240.111,Windows,10
43,1,null,"<div style=""font-size:60px;"">+</div>",null,html-keyboard-response,220,15787,0.0-220.0,44,fixationBtwnNeutralMaskAndPrompt,50,"""",10/23/2020 21:33,69.125.145.27,"Mozilla/5.0 (Windows NT 10.0; Win64; x64) AppleWebKit/537.36 (KHTML, like Gecko) Chrome/86.0.4240.111 Safari/537.36",WebKit,Chrome,86.0.4240.111,Windows,10
43,1,null,"<div style=""font-size:60px;"">+</div>",null,html-keyboard-response,221,15857,0.0-221.0,45,ITI,50,"""",10/23/2020 21:33,69.125.145.27,"Mozilla/5.0 (Windows NT 10.0; Win64; x64) AppleWebKit/537.36 (KHTML, like Gecko) Chrome/86.0.4240.111 Safari/537.36",WebKit,Chrome,86.0.4240.111,Windows,10
43,1,null,jspsych/allScrambledFaces/scrambledBM28DIS.JPG,null,image-keyboard-response,222,15915,0.0-222.0,45,forwardMask,50,d,10/23/2020 21:33,69.125.145.27,"Mozilla/5.0 (Windows NT 10.0; Win64; x64) AppleWebKit/537.36 (KHTML, like Gecko) Chrome/86.0.4240.111 Safari/537.36",WebKit,Chrome,86.0.4240.111,Windows,10
43,1,null,jspsych/allFaces/BM28DIS.JPG,null,image-keyboard-response,223,15982,0.0-223.0,45,Cue,"function(){
        return jsPsych.randomization.sampleWithoutReplacement(cueDuration, 1)[0]}","""",10/23/2020 21:33,69.125.145.27,"Mozilla/5.0 (Windows NT 10.0; Win64; x64) AppleWebKit/537.36 (KHTML, like Gecko) Chrome/86.0.4240.111 Safari/537.36",WebKit,Chrome,86.0.4240.111,Windows,10
43,1,null,jspsych/allFaces/AM18NES.JPG,null,image-keyboard-response,224,16037,0.0-224.0,45,backwardMask,50,"""",10/23/2020 21:33,69.125.145.27,"Mozilla/5.0 (Windows NT 10.0; Win64; x64) AppleWebKit/537.36 (KHTML, like Gecko) Chrome/86.0.4240.111 Safari/537.36",WebKit,Chrome,86.0.4240.111,Windows,10
43,1,null,"<div style=""font-size:60px;"">+</div>",null,html-keyboard-response,225,16106,0.0-225.0,45,fixationBtwnNeutralMaskAndPrompt,50,"""",10/23/2020 21:33,69.125.145.27,"Mozilla/5.0 (Windows NT 10.0; Win64; x64) AppleWebKit/537.36 (KHTML, like Gecko) Chrome/86.0.4240.111 Safari/537.36",WebKit,Chrome,86.0.4240.111,Windows,10
43,1,null,"<div style=""font-size:60px;"">+</div>",null,html-keyboard-response,226,16177,0.0-226.0,46,ITI,50,"""",10/23/2020 21:33,69.125.145.27,"Mozilla/5.0 (Windows NT 10.0; Win64; x64) AppleWebKit/537.36 (KHTML, like Gecko) Chrome/86.0.4240.111 Safari/537.36",WebKit,Chrome,86.0.4240.111,Windows,10
43,1,null,jspsych/allScrambledFaces/scrambledBM02DIS.JPG,null,image-keyboard-response,227,16237,0.0-227.0,46,forwardMask,50,d,10/23/2020 21:33,69.125.145.27,"Mozilla/5.0 (Windows NT 10.0; Win64; x64) AppleWebKit/537.36 (KHTML, like Gecko) Chrome/86.0.4240.111 Safari/537.36",WebKit,Chrome,86.0.4240.111,Windows,10
43,1,null,jspsych/allFaces/BM02DIS.JPG,null,image-keyboard-response,228,16297,0.0-228.0,46,Cue,"function(){
        return jsPsych.randomization.sampleWithoutReplacement(cueDuration, 1)[0]}","""",10/23/2020 21:33,69.125.145.27,"Mozilla/5.0 (Windows NT 10.0; Win64; x64) AppleWebKit/537.36 (KHTML, like Gecko) Chrome/86.0.4240.111 Safari/537.36",WebKit,Chrome,86.0.4240.111,Windows,10
43,1,null,jspsych/allFaces/BF16NES.JPG,null,image-keyboard-response,229,16357,0.0-229.0,46,backwardMask,50,"""",10/23/2020 21:33,69.125.145.27,"Mozilla/5.0 (Windows NT 10.0; Win64; x64) AppleWebKit/537.36 (KHTML, like Gecko) Chrome/86.0.4240.111 Safari/537.36",WebKit,Chrome,86.0.4240.111,Windows,10
43,1,null,"<div style=""font-size:60px;"">+</div>",null,html-keyboard-response,230,16427,0.0-230.0,46,fixationBtwnNeutralMaskAndPrompt,50,"""",10/23/2020 21:33,69.125.145.27,"Mozilla/5.0 (Windows NT 10.0; Win64; x64) AppleWebKit/537.36 (KHTML, like Gecko) Chrome/86.0.4240.111 Safari/537.36",WebKit,Chrome,86.0.4240.111,Windows,10
43,1,null,"<div style=""font-size:60px;"">+</div>",null,html-keyboard-response,231,16487,0.0-231.0,47,ITI,50,"""",10/23/2020 21:33,69.125.145.27,"Mozilla/5.0 (Windows NT 10.0; Win64; x64) AppleWebKit/537.36 (KHTML, like Gecko) Chrome/86.0.4240.111 Safari/537.36",WebKit,Chrome,86.0.4240.111,Windows,10
43,1,null,jspsych/allScrambledFaces/scrambledBM34DIS.JPG,null,image-keyboard-response,232,16547,0.0-232.0,47,forwardMask,50,d,10/23/2020 21:33,69.125.145.27,"Mozilla/5.0 (Windows NT 10.0; Win64; x64) AppleWebKit/537.36 (KHTML, like Gecko) Chrome/86.0.4240.111 Safari/537.36",WebKit,Chrome,86.0.4240.111,Windows,10
43,1,null,jspsych/allFaces/BM34DIS.JPG,null,image-keyboard-response,233,16606,0.0-233.0,47,Cue,"function(){
        return jsPsych.randomization.sampleWithoutReplacement(cueDuration, 1)[0]}","""",10/23/2020 21:33,69.125.145.27,"Mozilla/5.0 (Windows NT 10.0; Win64; x64) AppleWebKit/537.36 (KHTML, like Gecko) Chrome/86.0.4240.111 Safari/537.36",WebKit,Chrome,86.0.4240.111,Windows,10
43,1,null,jspsych/allFaces/AM26NES.JPG,null,image-keyboard-response,234,16664,0.0-234.0,47,backwardMask,50,"""",10/23/2020 21:33,69.125.145.27,"Mozilla/5.0 (Windows NT 10.0; Win64; x64) AppleWebKit/537.36 (KHTML, like Gecko) Chrome/86.0.4240.111 Safari/537.36",WebKit,Chrome,86.0.4240.111,Windows,10
43,1,null,"<div style=""font-size:60px;"">+</div>",null,html-keyboard-response,235,16730,0.0-235.0,47,fixationBtwnNeutralMaskAndPrompt,50,"""",10/23/2020 21:33,69.125.145.27,"Mozilla/5.0 (Windows NT 10.0; Win64; x64) AppleWebKit/537.36 (KHTML, like Gecko) Chrome/86.0.4240.111 Safari/537.36",WebKit,Chrome,86.0.4240.111,Windows,10
43,1,null,"<div style=""font-size:60px;"">+</div>",null,html-keyboard-response,236,16786,0.0-236.0,48,ITI,50,"""",10/23/2020 21:33,69.125.145.27,"Mozilla/5.0 (Windows NT 10.0; Win64; x64) AppleWebKit/537.36 (KHTML, like Gecko) Chrome/86.0.4240.111 Safari/537.36",WebKit,Chrome,86.0.4240.111,Windows,10
43,1,null,jspsych/allScrambledFaces/scrambledAF08NES.JPG,null,image-keyboard-response,237,16847,0.0-237.0,48,forwardMask,50,n,10/23/2020 21:33,69.125.145.27,"Mozilla/5.0 (Windows NT 10.0; Win64; x64) AppleWebKit/537.36 (KHTML, like Gecko) Chrome/86.0.4240.111 Safari/537.36",WebKit,Chrome,86.0.4240.111,Windows,10
43,1,null,jspsych/allFaces/AF08NES.JPG,null,image-keyboard-response,238,16906,0.0-238.0,48,Cue,"function(){
        return jsPsych.randomization.sampleWithoutReplacement(cueDuration, 1)[0]}","""",10/23/2020 21:33,69.125.145.27,"Mozilla/5.0 (Windows NT 10.0; Win64; x64) AppleWebKit/537.36 (KHTML, like Gecko) Chrome/86.0.4240.111 Safari/537.36",WebKit,Chrome,86.0.4240.111,Windows,10
43,1,null,jspsych/allFaces/BF11NES.JPG,null,image-keyboard-response,239,16964,0.0-239.0,48,backwardMask,50,"""",10/23/2020 21:33,69.125.145.27,"Mozilla/5.0 (Windows NT 10.0; Win64; x64) AppleWebKit/537.36 (KHTML, like Gecko) Chrome/86.0.4240.111 Safari/537.36",WebKit,Chrome,86.0.4240.111,Windows,10
43,1,null,"<div style=""font-size:60px;"">+</div>",null,html-keyboard-response,240,17030,0.0-240.0,48,fixationBtwnNeutralMaskAndPrompt,50,"""",10/23/2020 21:33,69.125.145.27,"Mozilla/5.0 (Windows NT 10.0; Win64; x64) AppleWebKit/537.36 (KHTML, like Gecko) Chrome/86.0.4240.111 Safari/537.36",WebKit,Chrome,86.0.4240.111,Windows,10
43,1,null,"<div style=""font-size:60px;"">+</div>",null,html-keyboard-response,241,17086,0.0-241.0,49,ITI,50,"""",10/23/2020 21:33,69.125.145.27,"Mozilla/5.0 (Windows NT 10.0; Win64; x64) AppleWebKit/537.36 (KHTML, like Gecko) Chrome/86.0.4240.111 Safari/537.36",WebKit,Chrome,86.0.4240.111,Windows,10
43,1,null,jspsych/allScrambledFaces/scrambledBM21NES.JPG,null,image-keyboard-response,242,17146,0.0-242.0,49,forwardMask,50,n,10/23/2020 21:33,69.125.145.27,"Mozilla/5.0 (Windows NT 10.0; Win64; x64) AppleWebKit/537.36 (KHTML, like Gecko) Chrome/86.0.4240.111 Safari/537.36",WebKit,Chrome,86.0.4240.111,Windows,10
43,1,null,jspsych/allFaces/BM21NES.JPG,null,image-keyboard-response,243,17207,0.0-243.0,49,Cue,"function(){
        return jsPsych.randomization.sampleWithoutReplacement(cueDuration, 1)[0]}","""",10/23/2020 21:33,69.125.145.27,"Mozilla/5.0 (Windows NT 10.0; Win64; x64) AppleWebKit/537.36 (KHTML, like Gecko) Chrome/86.0.4240.111 Safari/537.36",WebKit,Chrome,86.0.4240.111,Windows,10
43,1,null,jspsych/allFaces/BF29NES.JPG,null,image-keyboard-response,244,17263,0.0-244.0,49,backwardMask,50,"""",10/23/2020 21:33,69.125.145.27,"Mozilla/5.0 (Windows NT 10.0; Win64; x64) AppleWebKit/537.36 (KHTML, like Gecko) Chrome/86.0.4240.111 Safari/537.36",WebKit,Chrome,86.0.4240.111,Windows,10
43,1,null,"<div style=""font-size:60px;"">+</div>",null,html-keyboard-response,245,17315,0.0-245.0,49,fixationBtwnNeutralMaskAndPrompt,50,"""",10/23/2020 21:33,69.125.145.27,"Mozilla/5.0 (Windows NT 10.0; Win64; x64) AppleWebKit/537.36 (KHTML, like Gecko) Chrome/86.0.4240.111 Safari/537.36",WebKit,Chrome,86.0.4240.111,Windows,10
43,1,null,"<div style=""font-size:60px;"">+</div>",null,html-keyboard-response,246,17380,0.0-246.0,50,ITI,50,"""",10/23/2020 21:33,69.125.145.27,"Mozilla/5.0 (Windows NT 10.0; Win64; x64) AppleWebKit/537.36 (KHTML, like Gecko) Chrome/86.0.4240.111 Safari/537.36",WebKit,Chrome,86.0.4240.111,Windows,10
43,1,null,jspsych/allScrambledFaces/scrambledAM05NES.JPG,null,image-keyboard-response,247,17436,0.0-247.0,50,forwardMask,50,n,10/23/2020 21:33,69.125.145.27,"Mozilla/5.0 (Windows NT 10.0; Win64; x64) AppleWebKit/537.36 (KHTML, like Gecko) Chrome/86.0.4240.111 Safari/537.36",WebKit,Chrome,86.0.4240.111,Windows,10
43,1,null,jspsych/allFaces/AM05NES.JPG,null,image-keyboard-response,248,17502,0.0-248.0,50,Cue,"function(){
        return jsPsych.randomization.sampleWithoutReplacement(cueDuration, 1)[0]}","""",10/23/2020 21:33,69.125.145.27,"Mozilla/5.0 (Windows NT 10.0; Win64; x64) AppleWebKit/537.36 (KHTML, like Gecko) Chrome/86.0.4240.111 Safari/537.36",WebKit,Chrome,86.0.4240.111,Windows,10
43,1,null,jspsych/allFaces/AF18NES.JPG,null,image-keyboard-response,249,17557,0.0-249.0,50,backwardMask,50,"""",10/23/2020 21:33,69.125.145.27,"Mozilla/5.0 (Windows NT 10.0; Win64; x64) AppleWebKit/537.36 (KHTML, like Gecko) Chrome/86.0.4240.111 Safari/537.36",WebKit,Chrome,86.0.4240.111,Windows,10
43,1,null,"<div style=""font-size:60px;"">+</div>",null,html-keyboard-response,250,17612,0.0-250.0,50,fixationBtwnNeutralMaskAndPrompt,50,"""",10/23/2020 21:33,69.125.145.27,"Mozilla/5.0 (Windows NT 10.0; Win64; x64) AppleWebKit/537.36 (KHTML, like Gecko) Chrome/86.0.4240.111 Safari/537.36",WebKit,Chrome,86.0.4240.111,Windows,10
43,1,null,"<div style=""font-size:60px;"">+</div>",null,html-keyboard-response,251,17664,0.0-251.0,51,ITI,50,"""",10/23/2020 21:33,69.125.145.27,"Mozilla/5.0 (Windows NT 10.0; Win64; x64) AppleWebKit/537.36 (KHTML, like Gecko) Chrome/86.0.4240.111 Safari/537.36",WebKit,Chrome,86.0.4240.111,Windows,10
43,1,null,jspsych/allScrambledFaces/scrambledBF06DIS.JPG,null,image-keyboard-response,252,17726,0.0-252.0,51,forwardMask,50,d,10/23/2020 21:33,69.125.145.27,"Mozilla/5.0 (Windows NT 10.0; Win64; x64) AppleWebKit/537.36 (KHTML, like Gecko) Chrome/86.0.4240.111 Safari/537.36",WebKit,Chrome,86.0.4240.111,Windows,10
43,1,null,jspsych/allFaces/BF06DIS.JPG,null,image-keyboard-response,253,17786,0.0-253.0,51,Cue,"function(){
        return jsPsych.randomization.sampleWithoutReplacement(cueDuration, 1)[0]}","""",10/23/2020 21:33,69.125.145.27,"Mozilla/5.0 (Windows NT 10.0; Win64; x64) AppleWebKit/537.36 (KHTML, like Gecko) Chrome/86.0.4240.111 Safari/537.36",WebKit,Chrome,86.0.4240.111,Windows,10
43,1,null,jspsych/allFaces/BF29NES.JPG,null,image-keyboard-response,254,17856,0.0-254.0,51,backwardMask,50,"""",10/23/2020 21:33,69.125.145.27,"Mozilla/5.0 (Windows NT 10.0; Win64; x64) AppleWebKit/537.36 (KHTML, like Gecko) Chrome/86.0.4240.111 Safari/537.36",WebKit,Chrome,86.0.4240.111,Windows,10
43,1,null,"<div style=""font-size:60px;"">+</div>",null,html-keyboard-response,255,17913,0.0-255.0,51,fixationBtwnNeutralMaskAndPrompt,50,"""",10/23/2020 21:33,69.125.145.27,"Mozilla/5.0 (Windows NT 10.0; Win64; x64) AppleWebKit/537.36 (KHTML, like Gecko) Chrome/86.0.4240.111 Safari/537.36",WebKit,Chrome,86.0.4240.111,Windows,10
43,1,null,"<div style=""font-size:60px;"">+</div>",null,html-keyboard-response,256,17979,0.0-256.0,52,ITI,50,"""",10/23/2020 21:33,69.125.145.27,"Mozilla/5.0 (Windows NT 10.0; Win64; x64) AppleWebKit/537.36 (KHTML, like Gecko) Chrome/86.0.4240.111 Safari/537.36",WebKit,Chrome,86.0.4240.111,Windows,10
43,1,null,jspsych/allScrambledFaces/scrambledBF35NES.JPG,null,image-keyboard-response,257,18034,0.0-257.0,52,forwardMask,50,n,10/23/2020 21:33,69.125.145.27,"Mozilla/5.0 (Windows NT 10.0; Win64; x64) AppleWebKit/537.36 (KHTML, like Gecko) Chrome/86.0.4240.111 Safari/537.36",WebKit,Chrome,86.0.4240.111,Windows,10
43,1,null,jspsych/allFaces/BF35NES.JPG,null,image-keyboard-response,258,18087,0.0-258.0,52,Cue,"function(){
        return jsPsych.randomization.sampleWithoutReplacement(cueDuration, 1)[0]}","""",10/23/2020 21:33,69.125.145.27,"Mozilla/5.0 (Windows NT 10.0; Win64; x64) AppleWebKit/537.36 (KHTML, like Gecko) Chrome/86.0.4240.111 Safari/537.36",WebKit,Chrome,86.0.4240.111,Windows,10
43,1,null,jspsych/allFaces/AM34NES.JPG,null,image-keyboard-response,259,18146,0.0-259.0,52,backwardMask,50,"""",10/23/2020 21:33,69.125.145.27,"Mozilla/5.0 (Windows NT 10.0; Win64; x64) AppleWebKit/537.36 (KHTML, like Gecko) Chrome/86.0.4240.111 Safari/537.36",WebKit,Chrome,86.0.4240.111,Windows,10
43,1,null,"<div style=""font-size:60px;"">+</div>",null,html-keyboard-response,260,18203,0.0-260.0,52,fixationBtwnNeutralMaskAndPrompt,50,"""",10/23/2020 21:33,69.125.145.27,"Mozilla/5.0 (Windows NT 10.0; Win64; x64) AppleWebKit/537.36 (KHTML, like Gecko) Chrome/86.0.4240.111 Safari/537.36",WebKit,Chrome,86.0.4240.111,Windows,10
43,1,null,"<div style=""font-size:60px;"">+</div>",null,html-keyboard-response,261,18262,0.0-261.0,53,ITI,50,"""",10/23/2020 21:33,69.125.145.27,"Mozilla/5.0 (Windows NT 10.0; Win64; x64) AppleWebKit/537.36 (KHTML, like Gecko) Chrome/86.0.4240.111 Safari/537.36",WebKit,Chrome,86.0.4240.111,Windows,10
43,1,null,jspsych/allScrambledFaces/scrambledAM21DIS.JPG,null,image-keyboard-response,262,18327,0.0-262.0,53,forwardMask,50,d,10/23/2020 21:33,69.125.145.27,"Mozilla/5.0 (Windows NT 10.0; Win64; x64) AppleWebKit/537.36 (KHTML, like Gecko) Chrome/86.0.4240.111 Safari/537.36",WebKit,Chrome,86.0.4240.111,Windows,10
43,1,null,jspsych/allFaces/AM21DIS.JPG,null,image-keyboard-response,263,18387,0.0-263.0,53,Cue,"function(){
        return jsPsych.randomization.sampleWithoutReplacement(cueDuration, 1)[0]}","""",10/23/2020 21:33,69.125.145.27,"Mozilla/5.0 (Windows NT 10.0; Win64; x64) AppleWebKit/537.36 (KHTML, like Gecko) Chrome/86.0.4240.111 Safari/537.36",WebKit,Chrome,86.0.4240.111,Windows,10
43,1,null,jspsych/allFaces/BF35NES.JPG,null,image-keyboard-response,264,18457,0.0-264.0,53,backwardMask,50,"""",10/23/2020 21:33,69.125.145.27,"Mozilla/5.0 (Windows NT 10.0; Win64; x64) AppleWebKit/537.36 (KHTML, like Gecko) Chrome/86.0.4240.111 Safari/537.36",WebKit,Chrome,86.0.4240.111,Windows,10
43,1,null,"<div style=""font-size:60px;"">+</div>",null,html-keyboard-response,265,18512,0.0-265.0,53,fixationBtwnNeutralMaskAndPrompt,50,"""",10/23/2020 21:33,69.125.145.27,"Mozilla/5.0 (Windows NT 10.0; Win64; x64) AppleWebKit/537.36 (KHTML, like Gecko) Chrome/86.0.4240.111 Safari/537.36",WebKit,Chrome,86.0.4240.111,Windows,10
43,1,null,"<div style=""font-size:60px;"">+</div>",null,html-keyboard-response,266,18565,0.0-266.0,54,ITI,50,"""",10/23/2020 21:33,69.125.145.27,"Mozilla/5.0 (Windows NT 10.0; Win64; x64) AppleWebKit/537.36 (KHTML, like Gecko) Chrome/86.0.4240.111 Safari/537.36",WebKit,Chrome,86.0.4240.111,Windows,10
43,1,null,jspsych/allScrambledFaces/scrambledAM14DIS.JPG,null,image-keyboard-response,267,18624,0.0-267.0,54,forwardMask,50,d,10/23/2020 21:33,69.125.145.27,"Mozilla/5.0 (Windows NT 10.0; Win64; x64) AppleWebKit/537.36 (KHTML, like Gecko) Chrome/86.0.4240.111 Safari/537.36",WebKit,Chrome,86.0.4240.111,Windows,10
43,1,null,jspsych/allFaces/AM14DIS.JPG,null,image-keyboard-response,268,18687,0.0-268.0,54,Cue,"function(){
        return jsPsych.randomization.sampleWithoutReplacement(cueDuration, 1)[0]}","""",10/23/2020 21:33,69.125.145.27,"Mozilla/5.0 (Windows NT 10.0; Win64; x64) AppleWebKit/537.36 (KHTML, like Gecko) Chrome/86.0.4240.111 Safari/537.36",WebKit,Chrome,86.0.4240.111,Windows,10
43,1,null,jspsych/allFaces/BF23NES.JPG,null,image-keyboard-response,269,18745,0.0-269.0,54,backwardMask,50,"""",10/23/2020 21:33,69.125.145.27,"Mozilla/5.0 (Windows NT 10.0; Win64; x64) AppleWebKit/537.36 (KHTML, like Gecko) Chrome/86.0.4240.111 Safari/537.36",WebKit,Chrome,86.0.4240.111,Windows,10
43,1,null,"<div style=""font-size:60px;"">+</div>",null,html-keyboard-response,270,18812,0.0-270.0,54,fixationBtwnNeutralMaskAndPrompt,50,"""",10/23/2020 21:33,69.125.145.27,"Mozilla/5.0 (Windows NT 10.0; Win64; x64) AppleWebKit/537.36 (KHTML, like Gecko) Chrome/86.0.4240.111 Safari/537.36",WebKit,Chrome,86.0.4240.111,Windows,10
43,1,null,"<div style=""font-size:60px;"">+</div>",null,html-keyboard-response,271,18866,0.0-271.0,55,ITI,50,"""",10/23/2020 21:33,69.125.145.27,"Mozilla/5.0 (Windows NT 10.0; Win64; x64) AppleWebKit/537.36 (KHTML, like Gecko) Chrome/86.0.4240.111 Safari/537.36",WebKit,Chrome,86.0.4240.111,Windows,10
43,1,null,jspsych/allScrambledFaces/scrambledBF32DIS.JPG,null,image-keyboard-response,272,18929,0.0-272.0,55,forwardMask,50,d,10/23/2020 21:33,69.125.145.27,"Mozilla/5.0 (Windows NT 10.0; Win64; x64) AppleWebKit/537.36 (KHTML, like Gecko) Chrome/86.0.4240.111 Safari/537.36",WebKit,Chrome,86.0.4240.111,Windows,10
43,1,null,jspsych/allFaces/BF32DIS.JPG,null,image-keyboard-response,273,18987,0.0-273.0,55,Cue,"function(){
        return jsPsych.randomization.sampleWithoutReplacement(cueDuration, 1)[0]}","""",10/23/2020 21:33,69.125.145.27,"Mozilla/5.0 (Windows NT 10.0; Win64; x64) AppleWebKit/537.36 (KHTML, like Gecko) Chrome/86.0.4240.111 Safari/537.36",WebKit,Chrome,86.0.4240.111,Windows,10
43,1,null,jspsych/allFaces/AM21NES.JPG,null,image-keyboard-response,274,19046,0.0-274.0,55,backwardMask,50,"""",10/23/2020 21:33,69.125.145.27,"Mozilla/5.0 (Windows NT 10.0; Win64; x64) AppleWebKit/537.36 (KHTML, like Gecko) Chrome/86.0.4240.111 Safari/537.36",WebKit,Chrome,86.0.4240.111,Windows,10
43,1,null,"<div style=""font-size:60px;"">+</div>",null,html-keyboard-response,275,19112,0.0-275.0,55,fixationBtwnNeutralMaskAndPrompt,50,"""",10/23/2020 21:33,69.125.145.27,"Mozilla/5.0 (Windows NT 10.0; Win64; x64) AppleWebKit/537.36 (KHTML, like Gecko) Chrome/86.0.4240.111 Safari/537.36",WebKit,Chrome,86.0.4240.111,Windows,10
43,1,null,"<div style=""font-size:60px;"">+</div>",null,html-keyboard-response,276,19178,0.0-276.0,56,ITI,50,"""",10/23/2020 21:33,69.125.145.27,"Mozilla/5.0 (Windows NT 10.0; Win64; x64) AppleWebKit/537.36 (KHTML, like Gecko) Chrome/86.0.4240.111 Safari/537.36",WebKit,Chrome,86.0.4240.111,Windows,10
43,1,null,jspsych/allScrambledFaces/scrambledBM28DIS.JPG,null,image-keyboard-response,277,19236,0.0-277.0,56,forwardMask,50,d,10/23/2020 21:33,69.125.145.27,"Mozilla/5.0 (Windows NT 10.0; Win64; x64) AppleWebKit/537.36 (KHTML, like Gecko) Chrome/86.0.4240.111 Safari/537.36",WebKit,Chrome,86.0.4240.111,Windows,10
43,1,null,jspsych/allFaces/BM28DIS.JPG,null,image-keyboard-response,278,19305,0.0-278.0,56,Cue,"function(){
        return jsPsych.randomization.sampleWithoutReplacement(cueDuration, 1)[0]}","""",10/23/2020 21:33,69.125.145.27,"Mozilla/5.0 (Windows NT 10.0; Win64; x64) AppleWebKit/537.36 (KHTML, like Gecko) Chrome/86.0.4240.111 Safari/537.36",WebKit,Chrome,86.0.4240.111,Windows,10
43,1,null,jspsych/allFaces/BM11NES.JPG,null,image-keyboard-response,279,19361,0.0-279.0,56,backwardMask,50,"""",10/23/2020 21:33,69.125.145.27,"Mozilla/5.0 (Windows NT 10.0; Win64; x64) AppleWebKit/537.36 (KHTML, like Gecko) Chrome/86.0.4240.111 Safari/537.36",WebKit,Chrome,86.0.4240.111,Windows,10
43,1,null,"<div style=""font-size:60px;"">+</div>",null,html-keyboard-response,280,19417,0.0-280.0,56,fixationBtwnNeutralMaskAndPrompt,50,"""",10/23/2020 21:33,69.125.145.27,"Mozilla/5.0 (Windows NT 10.0; Win64; x64) AppleWebKit/537.36 (KHTML, like Gecko) Chrome/86.0.4240.111 Safari/537.36",WebKit,Chrome,86.0.4240.111,Windows,10
43,1,null,"<div style=""font-size:60px;"">+</div>",null,html-keyboard-response,281,19487,0.0-281.0,57,ITI,50,"""",10/23/2020 21:33,69.125.145.27,"Mozilla/5.0 (Windows NT 10.0; Win64; x64) AppleWebKit/537.36 (KHTML, like Gecko) Chrome/86.0.4240.111 Safari/537.36",WebKit,Chrome,86.0.4240.111,Windows,10
43,1,null,jspsych/allScrambledFaces/scrambledAM25NES.JPG,null,image-keyboard-response,282,19557,0.0-282.0,57,forwardMask,50,n,10/23/2020 21:33,69.125.145.27,"Mozilla/5.0 (Windows NT 10.0; Win64; x64) AppleWebKit/537.36 (KHTML, like Gecko) Chrome/86.0.4240.111 Safari/537.36",WebKit,Chrome,86.0.4240.111,Windows,10
43,1,null,jspsych/allFaces/AM25NES.JPG,null,image-keyboard-response,283,19627,0.0-283.0,57,Cue,"function(){
        return jsPsych.randomization.sampleWithoutReplacement(cueDuration, 1)[0]}","""",10/23/2020 21:33,69.125.145.27,"Mozilla/5.0 (Windows NT 10.0; Win64; x64) AppleWebKit/537.36 (KHTML, like Gecko) Chrome/86.0.4240.111 Safari/537.36",WebKit,Chrome,86.0.4240.111,Windows,10
43,1,null,jspsych/allFaces/AF08NES.JPG,null,image-keyboard-response,284,19686,0.0-284.0,57,backwardMask,50,"""",10/23/2020 21:33,69.125.145.27,"Mozilla/5.0 (Windows NT 10.0; Win64; x64) AppleWebKit/537.36 (KHTML, like Gecko) Chrome/86.0.4240.111 Safari/537.36",WebKit,Chrome,86.0.4240.111,Windows,10
43,1,null,"<div style=""font-size:60px;"">+</div>",null,html-keyboard-response,285,19757,0.0-285.0,57,fixationBtwnNeutralMaskAndPrompt,50,"""",10/23/2020 21:33,69.125.145.27,"Mozilla/5.0 (Windows NT 10.0; Win64; x64) AppleWebKit/537.36 (KHTML, like Gecko) Chrome/86.0.4240.111 Safari/537.36",WebKit,Chrome,86.0.4240.111,Windows,10
43,1,null,"<div style=""font-size:60px;"">+</div>",null,html-keyboard-response,286,19817,0.0-286.0,58,ITI,50,"""",10/23/2020 21:33,69.125.145.27,"Mozilla/5.0 (Windows NT 10.0; Win64; x64) AppleWebKit/537.36 (KHTML, like Gecko) Chrome/86.0.4240.111 Safari/537.36",WebKit,Chrome,86.0.4240.111,Windows,10
43,1,null,jspsych/allScrambledFaces/scrambledAF05NES.JPG,null,image-keyboard-response,287,19877,0.0-287.0,58,forwardMask,50,n,10/23/2020 21:33,69.125.145.27,"Mozilla/5.0 (Windows NT 10.0; Win64; x64) AppleWebKit/537.36 (KHTML, like Gecko) Chrome/86.0.4240.111 Safari/537.36",WebKit,Chrome,86.0.4240.111,Windows,10
43,1,null,jspsych/allFaces/AF05NES.JPG,null,image-keyboard-response,288,19936,0.0-288.0,58,Cue,"function(){
        return jsPsych.randomization.sampleWithoutReplacement(cueDuration, 1)[0]}","""",10/23/2020 21:33,69.125.145.27,"Mozilla/5.0 (Windows NT 10.0; Win64; x64) AppleWebKit/537.36 (KHTML, like Gecko) Chrome/86.0.4240.111 Safari/537.36",WebKit,Chrome,86.0.4240.111,Windows,10
43,1,null,jspsych/allFaces/BM03NES.JPG,null,image-keyboard-response,289,19994,0.0-289.0,58,backwardMask,50,"""",10/23/2020 21:33,69.125.145.27,"Mozilla/5.0 (Windows NT 10.0; Win64; x64) AppleWebKit/537.36 (KHTML, like Gecko) Chrome/86.0.4240.111 Safari/537.36",WebKit,Chrome,86.0.4240.111,Windows,10
43,1,null,"<div style=""font-size:60px;"">+</div>",null,html-keyboard-response,290,20061,0.0-290.0,58,fixationBtwnNeutralMaskAndPrompt,50,"""",10/23/2020 21:33,69.125.145.27,"Mozilla/5.0 (Windows NT 10.0; Win64; x64) AppleWebKit/537.36 (KHTML, like Gecko) Chrome/86.0.4240.111 Safari/537.36",WebKit,Chrome,86.0.4240.111,Windows,10
43,1,null,"<div style=""font-size:60px;"">+</div>",null,html-keyboard-response,291,20117,0.0-291.0,59,ITI,50,"""",10/23/2020 21:33,69.125.145.27,"Mozilla/5.0 (Windows NT 10.0; Win64; x64) AppleWebKit/537.36 (KHTML, like Gecko) Chrome/86.0.4240.111 Safari/537.36",WebKit,Chrome,86.0.4240.111,Windows,10
43,1,null,jspsych/allScrambledFaces/scrambledAF31NES.JPG,null,image-keyboard-response,292,20187,0.0-292.0,59,forwardMask,50,n,10/23/2020 21:33,69.125.145.27,"Mozilla/5.0 (Windows NT 10.0; Win64; x64) AppleWebKit/537.36 (KHTML, like Gecko) Chrome/86.0.4240.111 Safari/537.36",WebKit,Chrome,86.0.4240.111,Windows,10
43,1,null,jspsych/allFaces/AF31NES.JPG,null,image-keyboard-response,293,20244,0.0-293.0,59,Cue,"function(){
        return jsPsych.randomization.sampleWithoutReplacement(cueDuration, 1)[0]}","""",10/23/2020 21:33,69.125.145.27,"Mozilla/5.0 (Windows NT 10.0; Win64; x64) AppleWebKit/537.36 (KHTML, like Gecko) Chrome/86.0.4240.111 Safari/537.36",WebKit,Chrome,86.0.4240.111,Windows,10
43,1,null,jspsych/allFaces/AM34NES.JPG,null,image-keyboard-response,294,20309,0.0-294.0,59,backwardMask,50,"""",10/23/2020 21:33,69.125.145.27,"Mozilla/5.0 (Windows NT 10.0; Win64; x64) AppleWebKit/537.36 (KHTML, like Gecko) Chrome/86.0.4240.111 Safari/537.36",WebKit,Chrome,86.0.4240.111,Windows,10
43,1,null,"<div style=""font-size:60px;"">+</div>",null,html-keyboard-response,295,20377,0.0-295.0,59,fixationBtwnNeutralMaskAndPrompt,50,"""",10/23/2020 21:33,69.125.145.27,"Mozilla/5.0 (Windows NT 10.0; Win64; x64) AppleWebKit/537.36 (KHTML, like Gecko) Chrome/86.0.4240.111 Safari/537.36",WebKit,Chrome,86.0.4240.111,Windows,10
43,1,null,"<div style=""font-size:60px;"">+</div>",null,html-keyboard-response,296,20436,0.0-296.0,60,ITI,50,"""",10/23/2020 21:33,69.125.145.27,"Mozilla/5.0 (Windows NT 10.0; Win64; x64) AppleWebKit/537.36 (KHTML, like Gecko) Chrome/86.0.4240.111 Safari/537.36",WebKit,Chrome,86.0.4240.111,Windows,10
43,1,null,jspsych/allScrambledFaces/scrambledBM10NES.JPG,null,image-keyboard-response,297,20495,0.0-297.0,60,forwardMask,50,n,10/23/2020 21:33,69.125.145.27,"Mozilla/5.0 (Windows NT 10.0; Win64; x64) AppleWebKit/537.36 (KHTML, like Gecko) Chrome/86.0.4240.111 Safari/537.36",WebKit,Chrome,86.0.4240.111,Windows,10
43,1,null,jspsych/allFaces/BM10NES.JPG,null,image-keyboard-response,298,20560,0.0-298.0,60,Cue,"function(){
        return jsPsych.randomization.sampleWithoutReplacement(cueDuration, 1)[0]}","""",10/23/2020 21:33,69.125.145.27,"Mozilla/5.0 (Windows NT 10.0; Win64; x64) AppleWebKit/537.36 (KHTML, like Gecko) Chrome/86.0.4240.111 Safari/537.36",WebKit,Chrome,86.0.4240.111,Windows,10
43,1,null,jspsych/allFaces/BM12NES.JPG,null,image-keyboard-response,299,20617,0.0-299.0,60,backwardMask,50,"""",10/23/2020 21:33,69.125.145.27,"Mozilla/5.0 (Windows NT 10.0; Win64; x64) AppleWebKit/537.36 (KHTML, like Gecko) Chrome/86.0.4240.111 Safari/537.36",WebKit,Chrome,86.0.4240.111,Windows,10
43,1,null,"<div style=""font-size:60px;"">+</div>",null,html-keyboard-response,300,20687,0.0-300.0,60,fixationBtwnNeutralMaskAndPrompt,50,"""",10/23/2020 21:33,69.125.145.27,"Mozilla/5.0 (Windows NT 10.0; Win64; x64) AppleWebKit/537.36 (KHTML, like Gecko) Chrome/86.0.4240.111 Safari/537.36",WebKit,Chrome,86.0.4240.111,Windows,10
43,1,null,"<div style=""font-size:60px;"">+</div>",null,html-keyboard-response,301,20743,0.0-301.0,61,ITI,50,"""",10/23/2020 21:33,69.125.145.27,"Mozilla/5.0 (Windows NT 10.0; Win64; x64) AppleWebKit/537.36 (KHTML, like Gecko) Chrome/86.0.4240.111 Safari/537.36",WebKit,Chrome,86.0.4240.111,Windows,10
43,1,null,jspsych/allScrambledFaces/scrambledAF13NES.JPG,null,image-keyboard-response,302,20795,0.0-302.0,61,forwardMask,50,n,10/23/2020 21:33,69.125.145.27,"Mozilla/5.0 (Windows NT 10.0; Win64; x64) AppleWebKit/537.36 (KHTML, like Gecko) Chrome/86.0.4240.111 Safari/537.36",WebKit,Chrome,86.0.4240.111,Windows,10
43,1,null,jspsych/allFaces/AF13NES.JPG,null,image-keyboard-response,303,20860,0.0-303.0,61,Cue,"function(){
        return jsPsych.randomization.sampleWithoutReplacement(cueDuration, 1)[0]}","""",10/23/2020 21:33,69.125.145.27,"Mozilla/5.0 (Windows NT 10.0; Win64; x64) AppleWebKit/537.36 (KHTML, like Gecko) Chrome/86.0.4240.111 Safari/537.36",WebKit,Chrome,86.0.4240.111,Windows,10
43,1,null,jspsych/allFaces/AF34NES.JPG,null,image-keyboard-response,304,20916,0.0-304.0,61,backwardMask,50,"""",10/23/2020 21:33,69.125.145.27,"Mozilla/5.0 (Windows NT 10.0; Win64; x64) AppleWebKit/537.36 (KHTML, like Gecko) Chrome/86.0.4240.111 Safari/537.36",WebKit,Chrome,86.0.4240.111,Windows,10
43,1,null,"<div style=""font-size:60px;"">+</div>",null,html-keyboard-response,305,20987,0.0-305.0,61,fixationBtwnNeutralMaskAndPrompt,50,"""",10/23/2020 21:33,69.125.145.27,"Mozilla/5.0 (Windows NT 10.0; Win64; x64) AppleWebKit/537.36 (KHTML, like Gecko) Chrome/86.0.4240.111 Safari/537.36",WebKit,Chrome,86.0.4240.111,Windows,10
43,1,null,"<div style=""font-size:60px;"">+</div>",null,html-keyboard-response,306,21056,0.0-306.0,62,ITI,50,"""",10/23/2020 21:33,69.125.145.27,"Mozilla/5.0 (Windows NT 10.0; Win64; x64) AppleWebKit/537.36 (KHTML, like Gecko) Chrome/86.0.4240.111 Safari/537.36",WebKit,Chrome,86.0.4240.111,Windows,10
