run_id,condition,rt,stimulus,key_press,trial_type,trial_index,time_elapsed,internal_node_id,iTrial,Phase,StimulusDurationSetting,correctResponse,recorded_at,ip,user_agent,device,browser,browser_version,platform,platform_version
39,1,1408.6,Press Key to Begin Experiment,66,html-keyboard-response,0,1411,0.0-0.0,1,welcomeScreen,"""","""",10/23/2020 20:54,69.125.145.27,"Mozilla/5.0 (Windows NT 10.0; Win64; x64) AppleWebKit/537.36 (KHTML, like Gecko) Chrome/86.0.4240.111 Safari/537.36",WebKit,Chrome,86.0.4240.111,Windows,10
39,1,null,"<div style=""font-size:60px;"">+</div>",null,html-keyboard-response,1,1504,0.0-1.0,1,ITI,50,"""",10/23/2020 20:54,69.125.145.27,"Mozilla/5.0 (Windows NT 10.0; Win64; x64) AppleWebKit/537.36 (KHTML, like Gecko) Chrome/86.0.4240.111 Safari/537.36",WebKit,Chrome,86.0.4240.111,Windows,10
39,1,null,jspsych/allScrambledFaces/scrambledAM23DIS.JPG,null,image-keyboard-response,2,1597,0.0-2.0,1,forwardMask,50,d,10/23/2020 20:54,69.125.145.27,"Mozilla/5.0 (Windows NT 10.0; Win64; x64) AppleWebKit/537.36 (KHTML, like Gecko) Chrome/86.0.4240.111 Safari/537.36",WebKit,Chrome,86.0.4240.111,Windows,10
39,1,null,jspsych/allFaces/AM23DIS.JPG,null,image-keyboard-response,3,1725,0.0-3.0,0,Cue,"function(){
        return jsPsych.randomization.sampleWithoutReplacement(cueDuration, 1)[0]}","""",10/23/2020 20:54,69.125.145.27,"Mozilla/5.0 (Windows NT 10.0; Win64; x64) AppleWebKit/537.36 (KHTML, like Gecko) Chrome/86.0.4240.111 Safari/537.36",WebKit,Chrome,86.0.4240.111,Windows,10
39,1,null,jspsych/allFaces/AF11NES.JPG,null,image-keyboard-response,4,1801,0.0-4.0,0,backwardMask,50,"""",10/23/2020 20:54,69.125.145.27,"Mozilla/5.0 (Windows NT 10.0; Win64; x64) AppleWebKit/537.36 (KHTML, like Gecko) Chrome/86.0.4240.111 Safari/537.36",WebKit,Chrome,86.0.4240.111,Windows,10
39,1,null,"<div style=""font-size:60px;"">+</div>",null,html-keyboard-response,5,1862,0.0-5.0,0,fixationBtwnNeutralMaskAndPrompt,50,"""",10/23/2020 20:54,69.125.145.27,"Mozilla/5.0 (Windows NT 10.0; Win64; x64) AppleWebKit/537.36 (KHTML, like Gecko) Chrome/86.0.4240.111 Safari/537.36",WebKit,Chrome,86.0.4240.111,Windows,10
39,1,null,"<div style=""font-size:60px;"">+</div>",null,html-keyboard-response,6,1931,0.0-6.0,2,ITI,50,"""",10/23/2020 20:54,69.125.145.27,"Mozilla/5.0 (Windows NT 10.0; Win64; x64) AppleWebKit/537.36 (KHTML, like Gecko) Chrome/86.0.4240.111 Safari/537.36",WebKit,Chrome,86.0.4240.111,Windows,10
39,1,null,jspsych/allScrambledFaces/scrambledAF22NES.JPG,null,image-keyboard-response,7,1995,0.0-7.0,2,forwardMask,50,n,10/23/2020 20:54,69.125.145.27,"Mozilla/5.0 (Windows NT 10.0; Win64; x64) AppleWebKit/537.36 (KHTML, like Gecko) Chrome/86.0.4240.111 Safari/537.36",WebKit,Chrome,86.0.4240.111,Windows,10
39,1,null,jspsych/allFaces/AF22NES.JPG,null,image-keyboard-response,8,2057,0.0-8.0,1,Cue,"function(){
        return jsPsych.randomization.sampleWithoutReplacement(cueDuration, 1)[0]}","""",10/23/2020 20:54,69.125.145.27,"Mozilla/5.0 (Windows NT 10.0; Win64; x64) AppleWebKit/537.36 (KHTML, like Gecko) Chrome/86.0.4240.111 Safari/537.36",WebKit,Chrome,86.0.4240.111,Windows,10
39,1,null,jspsych/allFaces/BF28NES.JPG,null,image-keyboard-response,9,2118,0.0-9.0,1,backwardMask,50,"""",10/23/2020 20:54,69.125.145.27,"Mozilla/5.0 (Windows NT 10.0; Win64; x64) AppleWebKit/537.36 (KHTML, like Gecko) Chrome/86.0.4240.111 Safari/537.36",WebKit,Chrome,86.0.4240.111,Windows,10
39,1,null,"<div style=""font-size:60px;"">+</div>",null,html-keyboard-response,10,2172,0.0-10.0,1,fixationBtwnNeutralMaskAndPrompt,50,"""",10/23/2020 20:54,69.125.145.27,"Mozilla/5.0 (Windows NT 10.0; Win64; x64) AppleWebKit/537.36 (KHTML, like Gecko) Chrome/86.0.4240.111 Safari/537.36",WebKit,Chrome,86.0.4240.111,Windows,10
39,1,null,"<div style=""font-size:60px;"">+</div>",null,html-keyboard-response,11,2229,0.0-11.0,3,ITI,50,"""",10/23/2020 20:54,69.125.145.27,"Mozilla/5.0 (Windows NT 10.0; Win64; x64) AppleWebKit/537.36 (KHTML, like Gecko) Chrome/86.0.4240.111 Safari/537.36",WebKit,Chrome,86.0.4240.111,Windows,10
39,1,null,jspsych/allScrambledFaces/scrambledAF29NES.JPG,null,image-keyboard-response,12,2284,0.0-12.0,3,forwardMask,50,n,10/23/2020 20:54,69.125.145.27,"Mozilla/5.0 (Windows NT 10.0; Win64; x64) AppleWebKit/537.36 (KHTML, like Gecko) Chrome/86.0.4240.111 Safari/537.36",WebKit,Chrome,86.0.4240.111,Windows,10
39,1,null,jspsych/allFaces/AF29NES.JPG,null,image-keyboard-response,13,2338,0.0-13.0,2,Cue,"function(){
        return jsPsych.randomization.sampleWithoutReplacement(cueDuration, 1)[0]}","""",10/23/2020 20:54,69.125.145.27,"Mozilla/5.0 (Windows NT 10.0; Win64; x64) AppleWebKit/537.36 (KHTML, like Gecko) Chrome/86.0.4240.111 Safari/537.36",WebKit,Chrome,86.0.4240.111,Windows,10
39,1,null,jspsych/allFaces/AF06NES.JPG,null,image-keyboard-response,14,2391,0.0-14.0,2,backwardMask,50,"""",10/23/2020 20:54,69.125.145.27,"Mozilla/5.0 (Windows NT 10.0; Win64; x64) AppleWebKit/537.36 (KHTML, like Gecko) Chrome/86.0.4240.111 Safari/537.36",WebKit,Chrome,86.0.4240.111,Windows,10
39,1,null,"<div style=""font-size:60px;"">+</div>",null,html-keyboard-response,15,2491,0.0-15.0,2,fixationBtwnNeutralMaskAndPrompt,50,"""",10/23/2020 20:54,69.125.145.27,"Mozilla/5.0 (Windows NT 10.0; Win64; x64) AppleWebKit/537.36 (KHTML, like Gecko) Chrome/86.0.4240.111 Safari/537.36",WebKit,Chrome,86.0.4240.111,Windows,10
39,1,null,"<div style=""font-size:60px;"">+</div>",null,html-keyboard-response,16,2584,0.0-16.0,4,ITI,50,"""",10/23/2020 20:54,69.125.145.27,"Mozilla/5.0 (Windows NT 10.0; Win64; x64) AppleWebKit/537.36 (KHTML, like Gecko) Chrome/86.0.4240.111 Safari/537.36",WebKit,Chrome,86.0.4240.111,Windows,10
39,1,null,jspsych/allScrambledFaces/scrambledBM02DIS.JPG,null,image-keyboard-response,17,2702,0.0-17.0,4,forwardMask,50,d,10/23/2020 20:54,69.125.145.27,"Mozilla/5.0 (Windows NT 10.0; Win64; x64) AppleWebKit/537.36 (KHTML, like Gecko) Chrome/86.0.4240.111 Safari/537.36",WebKit,Chrome,86.0.4240.111,Windows,10
39,1,null,jspsych/allFaces/BM02DIS.JPG,null,image-keyboard-response,18,2792,0.0-18.0,3,Cue,"function(){
        return jsPsych.randomization.sampleWithoutReplacement(cueDuration, 1)[0]}","""",10/23/2020 20:54,69.125.145.27,"Mozilla/5.0 (Windows NT 10.0; Win64; x64) AppleWebKit/537.36 (KHTML, like Gecko) Chrome/86.0.4240.111 Safari/537.36",WebKit,Chrome,86.0.4240.111,Windows,10
39,1,null,jspsych/allFaces/BF02NES.JPG,null,image-keyboard-response,19,2847,0.0-19.0,3,backwardMask,50,"""",10/23/2020 20:54,69.125.145.27,"Mozilla/5.0 (Windows NT 10.0; Win64; x64) AppleWebKit/537.36 (KHTML, like Gecko) Chrome/86.0.4240.111 Safari/537.36",WebKit,Chrome,86.0.4240.111,Windows,10
39,1,null,"<div style=""font-size:60px;"">+</div>",null,html-keyboard-response,20,2909,0.0-20.0,3,fixationBtwnNeutralMaskAndPrompt,50,"""",10/23/2020 20:54,69.125.145.27,"Mozilla/5.0 (Windows NT 10.0; Win64; x64) AppleWebKit/537.36 (KHTML, like Gecko) Chrome/86.0.4240.111 Safari/537.36",WebKit,Chrome,86.0.4240.111,Windows,10
39,1,null,"<div style=""font-size:60px;"">+</div>",null,html-keyboard-response,21,2969,0.0-21.0,5,ITI,50,"""",10/23/2020 20:54,69.125.145.27,"Mozilla/5.0 (Windows NT 10.0; Win64; x64) AppleWebKit/537.36 (KHTML, like Gecko) Chrome/86.0.4240.111 Safari/537.36",WebKit,Chrome,86.0.4240.111,Windows,10
39,1,null,jspsych/allScrambledFaces/scrambledAF22NES.JPG,null,image-keyboard-response,22,3030,0.0-22.0,5,forwardMask,50,n,10/23/2020 20:54,69.125.145.27,"Mozilla/5.0 (Windows NT 10.0; Win64; x64) AppleWebKit/537.36 (KHTML, like Gecko) Chrome/86.0.4240.111 Safari/537.36",WebKit,Chrome,86.0.4240.111,Windows,10
39,1,null,jspsych/allFaces/AF22NES.JPG,null,image-keyboard-response,23,3118,0.0-23.0,4,Cue,"function(){
        return jsPsych.randomization.sampleWithoutReplacement(cueDuration, 1)[0]}","""",10/23/2020 20:54,69.125.145.27,"Mozilla/5.0 (Windows NT 10.0; Win64; x64) AppleWebKit/537.36 (KHTML, like Gecko) Chrome/86.0.4240.111 Safari/537.36",WebKit,Chrome,86.0.4240.111,Windows,10
39,1,null,jspsych/allFaces/AF15NES.JPG,null,image-keyboard-response,24,3194,0.0-24.0,4,backwardMask,50,"""",10/23/2020 20:54,69.125.145.27,"Mozilla/5.0 (Windows NT 10.0; Win64; x64) AppleWebKit/537.36 (KHTML, like Gecko) Chrome/86.0.4240.111 Safari/537.36",WebKit,Chrome,86.0.4240.111,Windows,10
39,1,null,"<div style=""font-size:60px;"">+</div>",null,html-keyboard-response,25,3270,0.0-25.0,4,fixationBtwnNeutralMaskAndPrompt,50,"""",10/23/2020 20:54,69.125.145.27,"Mozilla/5.0 (Windows NT 10.0; Win64; x64) AppleWebKit/537.36 (KHTML, like Gecko) Chrome/86.0.4240.111 Safari/537.36",WebKit,Chrome,86.0.4240.111,Windows,10
39,1,null,"<div style=""font-size:60px;"">+</div>",null,html-keyboard-response,26,3321,0.0-26.0,6,ITI,50,"""",10/23/2020 20:54,69.125.145.27,"Mozilla/5.0 (Windows NT 10.0; Win64; x64) AppleWebKit/537.36 (KHTML, like Gecko) Chrome/86.0.4240.111 Safari/537.36",WebKit,Chrome,86.0.4240.111,Windows,10
39,1,null,jspsych/allScrambledFaces/scrambledBM31NES.JPG,null,image-keyboard-response,27,3380,0.0-27.0,6,forwardMask,50,n,10/23/2020 20:54,69.125.145.27,"Mozilla/5.0 (Windows NT 10.0; Win64; x64) AppleWebKit/537.36 (KHTML, like Gecko) Chrome/86.0.4240.111 Safari/537.36",WebKit,Chrome,86.0.4240.111,Windows,10
39,1,null,jspsych/allFaces/BM31NES.JPG,null,image-keyboard-response,28,3439,0.0-28.0,5,Cue,"function(){
        return jsPsych.randomization.sampleWithoutReplacement(cueDuration, 1)[0]}","""",10/23/2020 20:54,69.125.145.27,"Mozilla/5.0 (Windows NT 10.0; Win64; x64) AppleWebKit/537.36 (KHTML, like Gecko) Chrome/86.0.4240.111 Safari/537.36",WebKit,Chrome,86.0.4240.111,Windows,10
39,1,null,jspsych/allFaces/BF22NES.JPG,null,image-keyboard-response,29,3497,0.0-29.0,5,backwardMask,50,"""",10/23/2020 20:54,69.125.145.27,"Mozilla/5.0 (Windows NT 10.0; Win64; x64) AppleWebKit/537.36 (KHTML, like Gecko) Chrome/86.0.4240.111 Safari/537.36",WebKit,Chrome,86.0.4240.111,Windows,10
39,1,null,"<div style=""font-size:60px;"">+</div>",null,html-keyboard-response,30,3559,0.0-30.0,5,fixationBtwnNeutralMaskAndPrompt,50,"""",10/23/2020 20:54,69.125.145.27,"Mozilla/5.0 (Windows NT 10.0; Win64; x64) AppleWebKit/537.36 (KHTML, like Gecko) Chrome/86.0.4240.111 Safari/537.36",WebKit,Chrome,86.0.4240.111,Windows,10
39,1,null,"<div style=""font-size:60px;"">+</div>",null,html-keyboard-response,31,3639,0.0-31.0,7,ITI,50,"""",10/23/2020 20:54,69.125.145.27,"Mozilla/5.0 (Windows NT 10.0; Win64; x64) AppleWebKit/537.36 (KHTML, like Gecko) Chrome/86.0.4240.111 Safari/537.36",WebKit,Chrome,86.0.4240.111,Windows,10
39,1,null,jspsych/allScrambledFaces/scrambledBF13DIS.JPG,null,image-keyboard-response,32,3729,0.0-32.0,7,forwardMask,50,d,10/23/2020 20:54,69.125.145.27,"Mozilla/5.0 (Windows NT 10.0; Win64; x64) AppleWebKit/537.36 (KHTML, like Gecko) Chrome/86.0.4240.111 Safari/537.36",WebKit,Chrome,86.0.4240.111,Windows,10
39,1,null,jspsych/allFaces/BF13DIS.JPG,null,image-keyboard-response,33,3809,0.0-33.0,6,Cue,"function(){
        return jsPsych.randomization.sampleWithoutReplacement(cueDuration, 1)[0]}","""",10/23/2020 20:54,69.125.145.27,"Mozilla/5.0 (Windows NT 10.0; Win64; x64) AppleWebKit/537.36 (KHTML, like Gecko) Chrome/86.0.4240.111 Safari/537.36",WebKit,Chrome,86.0.4240.111,Windows,10
39,1,null,jspsych/allFaces/BM09NES.JPG,null,image-keyboard-response,34,3877,0.0-34.0,6,backwardMask,50,"""",10/23/2020 20:54,69.125.145.27,"Mozilla/5.0 (Windows NT 10.0; Win64; x64) AppleWebKit/537.36 (KHTML, like Gecko) Chrome/86.0.4240.111 Safari/537.36",WebKit,Chrome,86.0.4240.111,Windows,10
39,1,null,"<div style=""font-size:60px;"">+</div>",null,html-keyboard-response,35,3934,0.0-35.0,6,fixationBtwnNeutralMaskAndPrompt,50,"""",10/23/2020 20:54,69.125.145.27,"Mozilla/5.0 (Windows NT 10.0; Win64; x64) AppleWebKit/537.36 (KHTML, like Gecko) Chrome/86.0.4240.111 Safari/537.36",WebKit,Chrome,86.0.4240.111,Windows,10
39,1,null,"<div style=""font-size:60px;"">+</div>",null,html-keyboard-response,36,3989,0.0-36.0,8,ITI,50,"""",10/23/2020 20:54,69.125.145.27,"Mozilla/5.0 (Windows NT 10.0; Win64; x64) AppleWebKit/537.36 (KHTML, like Gecko) Chrome/86.0.4240.111 Safari/537.36",WebKit,Chrome,86.0.4240.111,Windows,10
39,1,null,jspsych/allScrambledFaces/scrambledAM18NES.JPG,null,image-keyboard-response,37,4058,0.0-37.0,8,forwardMask,50,n,10/23/2020 20:54,69.125.145.27,"Mozilla/5.0 (Windows NT 10.0; Win64; x64) AppleWebKit/537.36 (KHTML, like Gecko) Chrome/86.0.4240.111 Safari/537.36",WebKit,Chrome,86.0.4240.111,Windows,10
39,1,null,jspsych/allFaces/AM18NES.JPG,null,image-keyboard-response,38,4112,0.0-38.0,7,Cue,"function(){
        return jsPsych.randomization.sampleWithoutReplacement(cueDuration, 1)[0]}","""",10/23/2020 20:54,69.125.145.27,"Mozilla/5.0 (Windows NT 10.0; Win64; x64) AppleWebKit/537.36 (KHTML, like Gecko) Chrome/86.0.4240.111 Safari/537.36",WebKit,Chrome,86.0.4240.111,Windows,10
39,1,null,jspsych/allFaces/BF17NES.JPG,null,image-keyboard-response,39,4169,0.0-39.0,7,backwardMask,50,"""",10/23/2020 20:54,69.125.145.27,"Mozilla/5.0 (Windows NT 10.0; Win64; x64) AppleWebKit/537.36 (KHTML, like Gecko) Chrome/86.0.4240.111 Safari/537.36",WebKit,Chrome,86.0.4240.111,Windows,10
39,1,null,"<div style=""font-size:60px;"">+</div>",null,html-keyboard-response,40,4221,0.0-40.0,7,fixationBtwnNeutralMaskAndPrompt,50,"""",10/23/2020 20:54,69.125.145.27,"Mozilla/5.0 (Windows NT 10.0; Win64; x64) AppleWebKit/537.36 (KHTML, like Gecko) Chrome/86.0.4240.111 Safari/537.36",WebKit,Chrome,86.0.4240.111,Windows,10
39,1,null,"<div style=""font-size:60px;"">+</div>",null,html-keyboard-response,41,4294,0.0-41.0,9,ITI,50,"""",10/23/2020 20:54,69.125.145.27,"Mozilla/5.0 (Windows NT 10.0; Win64; x64) AppleWebKit/537.36 (KHTML, like Gecko) Chrome/86.0.4240.111 Safari/537.36",WebKit,Chrome,86.0.4240.111,Windows,10
39,1,null,jspsych/allScrambledFaces/scrambledBM20DIS.JPG,null,image-keyboard-response,42,4362,0.0-42.0,9,forwardMask,50,d,10/23/2020 20:54,69.125.145.27,"Mozilla/5.0 (Windows NT 10.0; Win64; x64) AppleWebKit/537.36 (KHTML, like Gecko) Chrome/86.0.4240.111 Safari/537.36",WebKit,Chrome,86.0.4240.111,Windows,10
39,1,null,jspsych/allFaces/BM20DIS.JPG,null,image-keyboard-response,43,4430,0.0-43.0,8,Cue,"function(){
        return jsPsych.randomization.sampleWithoutReplacement(cueDuration, 1)[0]}","""",10/23/2020 20:54,69.125.145.27,"Mozilla/5.0 (Windows NT 10.0; Win64; x64) AppleWebKit/537.36 (KHTML, like Gecko) Chrome/86.0.4240.111 Safari/537.36",WebKit,Chrome,86.0.4240.111,Windows,10
39,1,null,jspsych/allFaces/BM06NES.JPG,null,image-keyboard-response,44,4489,0.0-44.0,8,backwardMask,50,"""",10/23/2020 20:54,69.125.145.27,"Mozilla/5.0 (Windows NT 10.0; Win64; x64) AppleWebKit/537.36 (KHTML, like Gecko) Chrome/86.0.4240.111 Safari/537.36",WebKit,Chrome,86.0.4240.111,Windows,10
39,1,null,"<div style=""font-size:60px;"">+</div>",null,html-keyboard-response,45,4547,0.0-45.0,8,fixationBtwnNeutralMaskAndPrompt,50,"""",10/23/2020 20:54,69.125.145.27,"Mozilla/5.0 (Windows NT 10.0; Win64; x64) AppleWebKit/537.36 (KHTML, like Gecko) Chrome/86.0.4240.111 Safari/537.36",WebKit,Chrome,86.0.4240.111,Windows,10
39,1,null,"<div style=""font-size:60px;"">+</div>",null,html-keyboard-response,46,4611,0.0-46.0,10,ITI,50,"""",10/23/2020 20:54,69.125.145.27,"Mozilla/5.0 (Windows NT 10.0; Win64; x64) AppleWebKit/537.36 (KHTML, like Gecko) Chrome/86.0.4240.111 Safari/537.36",WebKit,Chrome,86.0.4240.111,Windows,10
39,1,null,jspsych/allScrambledFaces/scrambledBF18NES.JPG,null,image-keyboard-response,47,4667,0.0-47.0,10,forwardMask,50,n,10/23/2020 20:54,69.125.145.27,"Mozilla/5.0 (Windows NT 10.0; Win64; x64) AppleWebKit/537.36 (KHTML, like Gecko) Chrome/86.0.4240.111 Safari/537.36",WebKit,Chrome,86.0.4240.111,Windows,10
39,1,null,jspsych/allFaces/BF18NES.JPG,null,image-keyboard-response,48,4724,0.0-48.0,9,Cue,"function(){
        return jsPsych.randomization.sampleWithoutReplacement(cueDuration, 1)[0]}","""",10/23/2020 20:54,69.125.145.27,"Mozilla/5.0 (Windows NT 10.0; Win64; x64) AppleWebKit/537.36 (KHTML, like Gecko) Chrome/86.0.4240.111 Safari/537.36",WebKit,Chrome,86.0.4240.111,Windows,10
39,1,null,jspsych/allFaces/AM17NES.JPG,null,image-keyboard-response,49,4796,0.0-49.0,9,backwardMask,50,"""",10/23/2020 20:54,69.125.145.27,"Mozilla/5.0 (Windows NT 10.0; Win64; x64) AppleWebKit/537.36 (KHTML, like Gecko) Chrome/86.0.4240.111 Safari/537.36",WebKit,Chrome,86.0.4240.111,Windows,10
39,1,null,"<div style=""font-size:60px;"">+</div>",null,html-keyboard-response,50,4885,0.0-50.0,9,fixationBtwnNeutralMaskAndPrompt,50,"""",10/23/2020 20:54,69.125.145.27,"Mozilla/5.0 (Windows NT 10.0; Win64; x64) AppleWebKit/537.36 (KHTML, like Gecko) Chrome/86.0.4240.111 Safari/537.36",WebKit,Chrome,86.0.4240.111,Windows,10
39,1,null,"<div style=""font-size:60px;"">+</div>",null,html-keyboard-response,51,4967,0.0-51.0,11,ITI,50,"""",10/23/2020 20:54,69.125.145.27,"Mozilla/5.0 (Windows NT 10.0; Win64; x64) AppleWebKit/537.36 (KHTML, like Gecko) Chrome/86.0.4240.111 Safari/537.36",WebKit,Chrome,86.0.4240.111,Windows,10
39,1,null,jspsych/allScrambledFaces/scrambledAF17DIS.JPG,null,image-keyboard-response,52,5042,0.0-52.0,11,forwardMask,50,d,10/23/2020 20:54,69.125.145.27,"Mozilla/5.0 (Windows NT 10.0; Win64; x64) AppleWebKit/537.36 (KHTML, like Gecko) Chrome/86.0.4240.111 Safari/537.36",WebKit,Chrome,86.0.4240.111,Windows,10
39,1,null,jspsych/allFaces/AF17DIS.JPG,null,image-keyboard-response,53,5095,0.0-53.0,10,Cue,"function(){
        return jsPsych.randomization.sampleWithoutReplacement(cueDuration, 1)[0]}","""",10/23/2020 20:54,69.125.145.27,"Mozilla/5.0 (Windows NT 10.0; Win64; x64) AppleWebKit/537.36 (KHTML, like Gecko) Chrome/86.0.4240.111 Safari/537.36",WebKit,Chrome,86.0.4240.111,Windows,10
39,1,null,jspsych/allFaces/AF35NES.JPG,null,image-keyboard-response,54,5154,0.0-54.0,10,backwardMask,50,"""",10/23/2020 20:54,69.125.145.27,"Mozilla/5.0 (Windows NT 10.0; Win64; x64) AppleWebKit/537.36 (KHTML, like Gecko) Chrome/86.0.4240.111 Safari/537.36",WebKit,Chrome,86.0.4240.111,Windows,10
39,1,null,"<div style=""font-size:60px;"">+</div>",null,html-keyboard-response,55,5209,0.0-55.0,10,fixationBtwnNeutralMaskAndPrompt,50,"""",10/23/2020 20:54,69.125.145.27,"Mozilla/5.0 (Windows NT 10.0; Win64; x64) AppleWebKit/537.36 (KHTML, like Gecko) Chrome/86.0.4240.111 Safari/537.36",WebKit,Chrome,86.0.4240.111,Windows,10
39,1,null,"<div style=""font-size:60px;"">+</div>",null,html-keyboard-response,56,5273,0.0-56.0,12,ITI,50,"""",10/23/2020 20:54,69.125.145.27,"Mozilla/5.0 (Windows NT 10.0; Win64; x64) AppleWebKit/537.36 (KHTML, like Gecko) Chrome/86.0.4240.111 Safari/537.36",WebKit,Chrome,86.0.4240.111,Windows,10
39,1,null,jspsych/allScrambledFaces/scrambledBM22DIS.JPG,null,image-keyboard-response,57,5328,0.0-57.0,12,forwardMask,50,d,10/23/2020 20:54,69.125.145.27,"Mozilla/5.0 (Windows NT 10.0; Win64; x64) AppleWebKit/537.36 (KHTML, like Gecko) Chrome/86.0.4240.111 Safari/537.36",WebKit,Chrome,86.0.4240.111,Windows,10
39,1,null,jspsych/allFaces/BM22DIS.JPG,null,image-keyboard-response,58,5383,0.0-58.0,11,Cue,"function(){
        return jsPsych.randomization.sampleWithoutReplacement(cueDuration, 1)[0]}","""",10/23/2020 20:54,69.125.145.27,"Mozilla/5.0 (Windows NT 10.0; Win64; x64) AppleWebKit/537.36 (KHTML, like Gecko) Chrome/86.0.4240.111 Safari/537.36",WebKit,Chrome,86.0.4240.111,Windows,10
39,1,null,jspsych/allFaces/BM10NES.JPG,null,image-keyboard-response,59,5440,0.0-59.0,11,backwardMask,50,"""",10/23/2020 20:54,69.125.145.27,"Mozilla/5.0 (Windows NT 10.0; Win64; x64) AppleWebKit/537.36 (KHTML, like Gecko) Chrome/86.0.4240.111 Safari/537.36",WebKit,Chrome,86.0.4240.111,Windows,10
39,1,null,"<div style=""font-size:60px;"">+</div>",null,html-keyboard-response,60,5502,0.0-60.0,11,fixationBtwnNeutralMaskAndPrompt,50,"""",10/23/2020 20:54,69.125.145.27,"Mozilla/5.0 (Windows NT 10.0; Win64; x64) AppleWebKit/537.36 (KHTML, like Gecko) Chrome/86.0.4240.111 Safari/537.36",WebKit,Chrome,86.0.4240.111,Windows,10
39,1,null,"<div style=""font-size:60px;"">+</div>",null,html-keyboard-response,61,5559,0.0-61.0,13,ITI,50,"""",10/23/2020 20:54,69.125.145.27,"Mozilla/5.0 (Windows NT 10.0; Win64; x64) AppleWebKit/537.36 (KHTML, like Gecko) Chrome/86.0.4240.111 Safari/537.36",WebKit,Chrome,86.0.4240.111,Windows,10
39,1,null,jspsych/allScrambledFaces/scrambledBF11NES.JPG,null,image-keyboard-response,62,5619,0.0-62.0,13,forwardMask,50,n,10/23/2020 20:54,69.125.145.27,"Mozilla/5.0 (Windows NT 10.0; Win64; x64) AppleWebKit/537.36 (KHTML, like Gecko) Chrome/86.0.4240.111 Safari/537.36",WebKit,Chrome,86.0.4240.111,Windows,10
39,1,null,jspsych/allFaces/BF11NES.JPG,null,image-keyboard-response,63,5679,0.0-63.0,12,Cue,"function(){
        return jsPsych.randomization.sampleWithoutReplacement(cueDuration, 1)[0]}","""",10/23/2020 20:54,69.125.145.27,"Mozilla/5.0 (Windows NT 10.0; Win64; x64) AppleWebKit/537.36 (KHTML, like Gecko) Chrome/86.0.4240.111 Safari/537.36",WebKit,Chrome,86.0.4240.111,Windows,10
39,1,null,jspsych/allFaces/BF03NES.JPG,null,image-keyboard-response,64,5734,0.0-64.0,12,backwardMask,50,"""",10/23/2020 20:54,69.125.145.27,"Mozilla/5.0 (Windows NT 10.0; Win64; x64) AppleWebKit/537.36 (KHTML, like Gecko) Chrome/86.0.4240.111 Safari/537.36",WebKit,Chrome,86.0.4240.111,Windows,10
39,1,null,"<div style=""font-size:60px;"">+</div>",null,html-keyboard-response,65,5826,0.0-65.0,12,fixationBtwnNeutralMaskAndPrompt,50,"""",10/23/2020 20:54,69.125.145.27,"Mozilla/5.0 (Windows NT 10.0; Win64; x64) AppleWebKit/537.36 (KHTML, like Gecko) Chrome/86.0.4240.111 Safari/537.36",WebKit,Chrome,86.0.4240.111,Windows,10
39,1,null,"<div style=""font-size:60px;"">+</div>",null,html-keyboard-response,66,5890,0.0-66.0,14,ITI,50,"""",10/23/2020 20:54,69.125.145.27,"Mozilla/5.0 (Windows NT 10.0; Win64; x64) AppleWebKit/537.36 (KHTML, like Gecko) Chrome/86.0.4240.111 Safari/537.36",WebKit,Chrome,86.0.4240.111,Windows,10
39,1,null,jspsych/allScrambledFaces/scrambledBF14NES.JPG,null,image-keyboard-response,67,5958,0.0-67.0,14,forwardMask,50,n,10/23/2020 20:54,69.125.145.27,"Mozilla/5.0 (Windows NT 10.0; Win64; x64) AppleWebKit/537.36 (KHTML, like Gecko) Chrome/86.0.4240.111 Safari/537.36",WebKit,Chrome,86.0.4240.111,Windows,10
39,1,null,jspsych/allFaces/BF14NES.JPG,null,image-keyboard-response,68,6010,0.0-68.0,13,Cue,"function(){
        return jsPsych.randomization.sampleWithoutReplacement(cueDuration, 1)[0]}","""",10/23/2020 20:54,69.125.145.27,"Mozilla/5.0 (Windows NT 10.0; Win64; x64) AppleWebKit/537.36 (KHTML, like Gecko) Chrome/86.0.4240.111 Safari/537.36",WebKit,Chrome,86.0.4240.111,Windows,10
39,1,null,jspsych/allFaces/AF10NES.JPG,null,image-keyboard-response,69,6068,0.0-69.0,13,backwardMask,50,"""",10/23/2020 20:54,69.125.145.27,"Mozilla/5.0 (Windows NT 10.0; Win64; x64) AppleWebKit/537.36 (KHTML, like Gecko) Chrome/86.0.4240.111 Safari/537.36",WebKit,Chrome,86.0.4240.111,Windows,10
39,1,null,"<div style=""font-size:60px;"">+</div>",null,html-keyboard-response,70,6134,0.0-70.0,13,fixationBtwnNeutralMaskAndPrompt,50,"""",10/23/2020 20:54,69.125.145.27,"Mozilla/5.0 (Windows NT 10.0; Win64; x64) AppleWebKit/537.36 (KHTML, like Gecko) Chrome/86.0.4240.111 Safari/537.36",WebKit,Chrome,86.0.4240.111,Windows,10
39,1,null,"<div style=""font-size:60px;"">+</div>",null,html-keyboard-response,71,6193,0.0-71.0,15,ITI,50,"""",10/23/2020 20:54,69.125.145.27,"Mozilla/5.0 (Windows NT 10.0; Win64; x64) AppleWebKit/537.36 (KHTML, like Gecko) Chrome/86.0.4240.111 Safari/537.36",WebKit,Chrome,86.0.4240.111,Windows,10
39,1,null,jspsych/allScrambledFaces/scrambledBF27NES.JPG,null,image-keyboard-response,72,6248,0.0-72.0,15,forwardMask,50,n,10/23/2020 20:54,69.125.145.27,"Mozilla/5.0 (Windows NT 10.0; Win64; x64) AppleWebKit/537.36 (KHTML, like Gecko) Chrome/86.0.4240.111 Safari/537.36",WebKit,Chrome,86.0.4240.111,Windows,10
39,1,null,jspsych/allFaces/BF27NES.JPG,null,image-keyboard-response,73,6302,0.0-73.0,14,Cue,"function(){
        return jsPsych.randomization.sampleWithoutReplacement(cueDuration, 1)[0]}","""",10/23/2020 20:54,69.125.145.27,"Mozilla/5.0 (Windows NT 10.0; Win64; x64) AppleWebKit/537.36 (KHTML, like Gecko) Chrome/86.0.4240.111 Safari/537.36",WebKit,Chrome,86.0.4240.111,Windows,10
39,1,null,jspsych/allFaces/AM34NES.JPG,null,image-keyboard-response,74,6362,0.0-74.0,14,backwardMask,50,"""",10/23/2020 20:54,69.125.145.27,"Mozilla/5.0 (Windows NT 10.0; Win64; x64) AppleWebKit/537.36 (KHTML, like Gecko) Chrome/86.0.4240.111 Safari/537.36",WebKit,Chrome,86.0.4240.111,Windows,10
39,1,null,"<div style=""font-size:60px;"">+</div>",null,html-keyboard-response,75,6419,0.0-75.0,14,fixationBtwnNeutralMaskAndPrompt,50,"""",10/23/2020 20:54,69.125.145.27,"Mozilla/5.0 (Windows NT 10.0; Win64; x64) AppleWebKit/537.36 (KHTML, like Gecko) Chrome/86.0.4240.111 Safari/537.36",WebKit,Chrome,86.0.4240.111,Windows,10
39,1,null,"<div style=""font-size:60px;"">+</div>",null,html-keyboard-response,76,6480,0.0-76.0,16,ITI,50,"""",10/23/2020 20:54,69.125.145.27,"Mozilla/5.0 (Windows NT 10.0; Win64; x64) AppleWebKit/537.36 (KHTML, like Gecko) Chrome/86.0.4240.111 Safari/537.36",WebKit,Chrome,86.0.4240.111,Windows,10
39,1,null,jspsych/allScrambledFaces/scrambledAM03NES.JPG,null,image-keyboard-response,77,6539,0.0-77.0,16,forwardMask,50,n,10/23/2020 20:54,69.125.145.27,"Mozilla/5.0 (Windows NT 10.0; Win64; x64) AppleWebKit/537.36 (KHTML, like Gecko) Chrome/86.0.4240.111 Safari/537.36",WebKit,Chrome,86.0.4240.111,Windows,10
39,1,null,jspsych/allFaces/AM03NES.JPG,null,image-keyboard-response,78,6599,0.0-78.0,15,Cue,"function(){
        return jsPsych.randomization.sampleWithoutReplacement(cueDuration, 1)[0]}","""",10/23/2020 20:54,69.125.145.27,"Mozilla/5.0 (Windows NT 10.0; Win64; x64) AppleWebKit/537.36 (KHTML, like Gecko) Chrome/86.0.4240.111 Safari/537.36",WebKit,Chrome,86.0.4240.111,Windows,10
39,1,null,jspsych/allFaces/BM06NES.JPG,null,image-keyboard-response,79,6658,0.0-79.0,15,backwardMask,50,"""",10/23/2020 20:54,69.125.145.27,"Mozilla/5.0 (Windows NT 10.0; Win64; x64) AppleWebKit/537.36 (KHTML, like Gecko) Chrome/86.0.4240.111 Safari/537.36",WebKit,Chrome,86.0.4240.111,Windows,10
39,1,null,"<div style=""font-size:60px;"">+</div>",null,html-keyboard-response,80,6719,0.0-80.0,15,fixationBtwnNeutralMaskAndPrompt,50,"""",10/23/2020 20:54,69.125.145.27,"Mozilla/5.0 (Windows NT 10.0; Win64; x64) AppleWebKit/537.36 (KHTML, like Gecko) Chrome/86.0.4240.111 Safari/537.36",WebKit,Chrome,86.0.4240.111,Windows,10
39,1,null,"<div style=""font-size:60px;"">+</div>",null,html-keyboard-response,81,6777,0.0-81.0,17,ITI,50,"""",10/23/2020 20:54,69.125.145.27,"Mozilla/5.0 (Windows NT 10.0; Win64; x64) AppleWebKit/537.36 (KHTML, like Gecko) Chrome/86.0.4240.111 Safari/537.36",WebKit,Chrome,86.0.4240.111,Windows,10
39,1,null,jspsych/allScrambledFaces/scrambledAM05NES.JPG,null,image-keyboard-response,82,6830,0.0-82.0,17,forwardMask,50,n,10/23/2020 20:54,69.125.145.27,"Mozilla/5.0 (Windows NT 10.0; Win64; x64) AppleWebKit/537.36 (KHTML, like Gecko) Chrome/86.0.4240.111 Safari/537.36",WebKit,Chrome,86.0.4240.111,Windows,10
39,1,null,jspsych/allFaces/AM05NES.JPG,null,image-keyboard-response,83,6889,0.0-83.0,16,Cue,"function(){
        return jsPsych.randomization.sampleWithoutReplacement(cueDuration, 1)[0]}","""",10/23/2020 20:54,69.125.145.27,"Mozilla/5.0 (Windows NT 10.0; Win64; x64) AppleWebKit/537.36 (KHTML, like Gecko) Chrome/86.0.4240.111 Safari/537.36",WebKit,Chrome,86.0.4240.111,Windows,10
39,1,null,jspsych/allFaces/AF26NES.JPG,null,image-keyboard-response,84,6949,0.0-84.0,16,backwardMask,50,"""",10/23/2020 20:54,69.125.145.27,"Mozilla/5.0 (Windows NT 10.0; Win64; x64) AppleWebKit/537.36 (KHTML, like Gecko) Chrome/86.0.4240.111 Safari/537.36",WebKit,Chrome,86.0.4240.111,Windows,10
39,1,null,"<div style=""font-size:60px;"">+</div>",null,html-keyboard-response,85,7010,0.0-85.0,16,fixationBtwnNeutralMaskAndPrompt,50,"""",10/23/2020 20:54,69.125.145.27,"Mozilla/5.0 (Windows NT 10.0; Win64; x64) AppleWebKit/537.36 (KHTML, like Gecko) Chrome/86.0.4240.111 Safari/537.36",WebKit,Chrome,86.0.4240.111,Windows,10
39,1,null,"<div style=""font-size:60px;"">+</div>",null,html-keyboard-response,86,7080,0.0-86.0,18,ITI,50,"""",10/23/2020 20:54,69.125.145.27,"Mozilla/5.0 (Windows NT 10.0; Win64; x64) AppleWebKit/537.36 (KHTML, like Gecko) Chrome/86.0.4240.111 Safari/537.36",WebKit,Chrome,86.0.4240.111,Windows,10
39,1,null,jspsych/allScrambledFaces/scrambledBF29NES.JPG,null,image-keyboard-response,87,7139,0.0-87.0,18,forwardMask,50,n,10/23/2020 20:54,69.125.145.27,"Mozilla/5.0 (Windows NT 10.0; Win64; x64) AppleWebKit/537.36 (KHTML, like Gecko) Chrome/86.0.4240.111 Safari/537.36",WebKit,Chrome,86.0.4240.111,Windows,10
39,1,null,jspsych/allFaces/BF29NES.JPG,null,image-keyboard-response,88,7193,0.0-88.0,17,Cue,"function(){
        return jsPsych.randomization.sampleWithoutReplacement(cueDuration, 1)[0]}","""",10/23/2020 20:54,69.125.145.27,"Mozilla/5.0 (Windows NT 10.0; Win64; x64) AppleWebKit/537.36 (KHTML, like Gecko) Chrome/86.0.4240.111 Safari/537.36",WebKit,Chrome,86.0.4240.111,Windows,10
39,1,null,jspsych/allFaces/AF09NES.JPG,null,image-keyboard-response,89,7260,0.0-89.0,17,backwardMask,50,"""",10/23/2020 20:54,69.125.145.27,"Mozilla/5.0 (Windows NT 10.0; Win64; x64) AppleWebKit/537.36 (KHTML, like Gecko) Chrome/86.0.4240.111 Safari/537.36",WebKit,Chrome,86.0.4240.111,Windows,10
39,1,null,"<div style=""font-size:60px;"">+</div>",null,html-keyboard-response,90,7320,0.0-90.0,17,fixationBtwnNeutralMaskAndPrompt,50,"""",10/23/2020 20:54,69.125.145.27,"Mozilla/5.0 (Windows NT 10.0; Win64; x64) AppleWebKit/537.36 (KHTML, like Gecko) Chrome/86.0.4240.111 Safari/537.36",WebKit,Chrome,86.0.4240.111,Windows,10
39,1,null,"<div style=""font-size:60px;"">+</div>",null,html-keyboard-response,91,7377,0.0-91.0,19,ITI,50,"""",10/23/2020 20:54,69.125.145.27,"Mozilla/5.0 (Windows NT 10.0; Win64; x64) AppleWebKit/537.36 (KHTML, like Gecko) Chrome/86.0.4240.111 Safari/537.36",WebKit,Chrome,86.0.4240.111,Windows,10
39,1,null,jspsych/allScrambledFaces/scrambledAM23DIS.JPG,null,image-keyboard-response,92,7438,0.0-92.0,19,forwardMask,50,d,10/23/2020 20:54,69.125.145.27,"Mozilla/5.0 (Windows NT 10.0; Win64; x64) AppleWebKit/537.36 (KHTML, like Gecko) Chrome/86.0.4240.111 Safari/537.36",WebKit,Chrome,86.0.4240.111,Windows,10
39,1,null,jspsych/allFaces/AM23DIS.JPG,null,image-keyboard-response,93,7494,0.0-93.0,18,Cue,"function(){
        return jsPsych.randomization.sampleWithoutReplacement(cueDuration, 1)[0]}","""",10/23/2020 20:54,69.125.145.27,"Mozilla/5.0 (Windows NT 10.0; Win64; x64) AppleWebKit/537.36 (KHTML, like Gecko) Chrome/86.0.4240.111 Safari/537.36",WebKit,Chrome,86.0.4240.111,Windows,10
39,1,null,jspsych/allFaces/BF35NES.JPG,null,image-keyboard-response,94,7549,0.0-94.0,18,backwardMask,50,"""",10/23/2020 20:54,69.125.145.27,"Mozilla/5.0 (Windows NT 10.0; Win64; x64) AppleWebKit/537.36 (KHTML, like Gecko) Chrome/86.0.4240.111 Safari/537.36",WebKit,Chrome,86.0.4240.111,Windows,10
39,1,null,"<div style=""font-size:60px;"">+</div>",null,html-keyboard-response,95,7606,0.0-95.0,18,fixationBtwnNeutralMaskAndPrompt,50,"""",10/23/2020 20:54,69.125.145.27,"Mozilla/5.0 (Windows NT 10.0; Win64; x64) AppleWebKit/537.36 (KHTML, like Gecko) Chrome/86.0.4240.111 Safari/537.36",WebKit,Chrome,86.0.4240.111,Windows,10
39,1,null,"<div style=""font-size:60px;"">+</div>",null,html-keyboard-response,96,7659,0.0-96.0,20,ITI,50,"""",10/23/2020 20:54,69.125.145.27,"Mozilla/5.0 (Windows NT 10.0; Win64; x64) AppleWebKit/537.36 (KHTML, like Gecko) Chrome/86.0.4240.111 Safari/537.36",WebKit,Chrome,86.0.4240.111,Windows,10
39,1,null,jspsych/allScrambledFaces/scrambledAM25DIS.JPG,null,image-keyboard-response,97,7719,0.0-97.0,20,forwardMask,50,d,10/23/2020 20:54,69.125.145.27,"Mozilla/5.0 (Windows NT 10.0; Win64; x64) AppleWebKit/537.36 (KHTML, like Gecko) Chrome/86.0.4240.111 Safari/537.36",WebKit,Chrome,86.0.4240.111,Windows,10
39,1,null,jspsych/allFaces/AM25DIS.JPG,null,image-keyboard-response,98,7776,0.0-98.0,19,Cue,"function(){
        return jsPsych.randomization.sampleWithoutReplacement(cueDuration, 1)[0]}","""",10/23/2020 20:54,69.125.145.27,"Mozilla/5.0 (Windows NT 10.0; Win64; x64) AppleWebKit/537.36 (KHTML, like Gecko) Chrome/86.0.4240.111 Safari/537.36",WebKit,Chrome,86.0.4240.111,Windows,10
39,1,null,jspsych/allFaces/AF29NES.JPG,null,image-keyboard-response,99,7840,0.0-99.0,19,backwardMask,50,"""",10/23/2020 20:54,69.125.145.27,"Mozilla/5.0 (Windows NT 10.0; Win64; x64) AppleWebKit/537.36 (KHTML, like Gecko) Chrome/86.0.4240.111 Safari/537.36",WebKit,Chrome,86.0.4240.111,Windows,10
39,1,null,"<div style=""font-size:60px;"">+</div>",null,html-keyboard-response,100,7894,0.0-100.0,19,fixationBtwnNeutralMaskAndPrompt,50,"""",10/23/2020 20:54,69.125.145.27,"Mozilla/5.0 (Windows NT 10.0; Win64; x64) AppleWebKit/537.36 (KHTML, like Gecko) Chrome/86.0.4240.111 Safari/537.36",WebKit,Chrome,86.0.4240.111,Windows,10
39,1,null,"<div style=""font-size:60px;"">+</div>",null,html-keyboard-response,101,7949,0.0-101.0,21,ITI,50,"""",10/23/2020 20:54,69.125.145.27,"Mozilla/5.0 (Windows NT 10.0; Win64; x64) AppleWebKit/537.36 (KHTML, like Gecko) Chrome/86.0.4240.111 Safari/537.36",WebKit,Chrome,86.0.4240.111,Windows,10
39,1,null,jspsych/allScrambledFaces/scrambledBM20DIS.JPG,null,image-keyboard-response,102,8002,0.0-102.0,21,forwardMask,50,d,10/23/2020 20:54,69.125.145.27,"Mozilla/5.0 (Windows NT 10.0; Win64; x64) AppleWebKit/537.36 (KHTML, like Gecko) Chrome/86.0.4240.111 Safari/537.36",WebKit,Chrome,86.0.4240.111,Windows,10
39,1,null,jspsych/allFaces/BM20DIS.JPG,null,image-keyboard-response,103,8059,0.0-103.0,20,Cue,"function(){
        return jsPsych.randomization.sampleWithoutReplacement(cueDuration, 1)[0]}","""",10/23/2020 20:54,69.125.145.27,"Mozilla/5.0 (Windows NT 10.0; Win64; x64) AppleWebKit/537.36 (KHTML, like Gecko) Chrome/86.0.4240.111 Safari/537.36",WebKit,Chrome,86.0.4240.111,Windows,10
39,1,null,jspsych/allFaces/AM09NES.JPG,null,image-keyboard-response,104,8119,0.0-104.0,20,backwardMask,50,"""",10/23/2020 20:54,69.125.145.27,"Mozilla/5.0 (Windows NT 10.0; Win64; x64) AppleWebKit/537.36 (KHTML, like Gecko) Chrome/86.0.4240.111 Safari/537.36",WebKit,Chrome,86.0.4240.111,Windows,10
39,1,null,"<div style=""font-size:60px;"">+</div>",null,html-keyboard-response,105,8177,0.0-105.0,20,fixationBtwnNeutralMaskAndPrompt,50,"""",10/23/2020 20:54,69.125.145.27,"Mozilla/5.0 (Windows NT 10.0; Win64; x64) AppleWebKit/537.36 (KHTML, like Gecko) Chrome/86.0.4240.111 Safari/537.36",WebKit,Chrome,86.0.4240.111,Windows,10
39,1,null,"<div style=""font-size:60px;"">+</div>",null,html-keyboard-response,106,8232,0.0-106.0,22,ITI,50,"""",10/23/2020 20:54,69.125.145.27,"Mozilla/5.0 (Windows NT 10.0; Win64; x64) AppleWebKit/537.36 (KHTML, like Gecko) Chrome/86.0.4240.111 Safari/537.36",WebKit,Chrome,86.0.4240.111,Windows,10
39,1,null,jspsych/allScrambledFaces/scrambledAF16DIS.JPG,null,image-keyboard-response,107,8287,0.0-107.0,22,forwardMask,50,d,10/23/2020 20:54,69.125.145.27,"Mozilla/5.0 (Windows NT 10.0; Win64; x64) AppleWebKit/537.36 (KHTML, like Gecko) Chrome/86.0.4240.111 Safari/537.36",WebKit,Chrome,86.0.4240.111,Windows,10
39,1,null,jspsych/allFaces/AF16DIS.JPG,null,image-keyboard-response,108,8339,0.0-108.0,21,Cue,"function(){
        return jsPsych.randomization.sampleWithoutReplacement(cueDuration, 1)[0]}","""",10/23/2020 20:54,69.125.145.27,"Mozilla/5.0 (Windows NT 10.0; Win64; x64) AppleWebKit/537.36 (KHTML, like Gecko) Chrome/86.0.4240.111 Safari/537.36",WebKit,Chrome,86.0.4240.111,Windows,10
39,1,null,jspsych/allFaces/AM11NES.JPG,null,image-keyboard-response,109,8399,0.0-109.0,21,backwardMask,50,"""",10/23/2020 20:54,69.125.145.27,"Mozilla/5.0 (Windows NT 10.0; Win64; x64) AppleWebKit/537.36 (KHTML, like Gecko) Chrome/86.0.4240.111 Safari/537.36",WebKit,Chrome,86.0.4240.111,Windows,10
39,1,null,"<div style=""font-size:60px;"">+</div>",null,html-keyboard-response,110,8459,0.0-110.0,21,fixationBtwnNeutralMaskAndPrompt,50,"""",10/23/2020 20:54,69.125.145.27,"Mozilla/5.0 (Windows NT 10.0; Win64; x64) AppleWebKit/537.36 (KHTML, like Gecko) Chrome/86.0.4240.111 Safari/537.36",WebKit,Chrome,86.0.4240.111,Windows,10
39,1,null,"<div style=""font-size:60px;"">+</div>",null,html-keyboard-response,111,8519,0.0-111.0,23,ITI,50,"""",10/23/2020 20:54,69.125.145.27,"Mozilla/5.0 (Windows NT 10.0; Win64; x64) AppleWebKit/537.36 (KHTML, like Gecko) Chrome/86.0.4240.111 Safari/537.36",WebKit,Chrome,86.0.4240.111,Windows,10
39,1,null,jspsych/allScrambledFaces/scrambledAF10NES.JPG,null,image-keyboard-response,112,8592,0.0-112.0,23,forwardMask,50,n,10/23/2020 20:54,69.125.145.27,"Mozilla/5.0 (Windows NT 10.0; Win64; x64) AppleWebKit/537.36 (KHTML, like Gecko) Chrome/86.0.4240.111 Safari/537.36",WebKit,Chrome,86.0.4240.111,Windows,10
39,1,null,jspsych/allFaces/AF10NES.JPG,null,image-keyboard-response,113,8649,0.0-113.0,22,Cue,"function(){
        return jsPsych.randomization.sampleWithoutReplacement(cueDuration, 1)[0]}","""",10/23/2020 20:54,69.125.145.27,"Mozilla/5.0 (Windows NT 10.0; Win64; x64) AppleWebKit/537.36 (KHTML, like Gecko) Chrome/86.0.4240.111 Safari/537.36",WebKit,Chrome,86.0.4240.111,Windows,10
39,1,null,jspsych/allFaces/BM14NES.JPG,null,image-keyboard-response,114,8708,0.0-114.0,22,backwardMask,50,"""",10/23/2020 20:54,69.125.145.27,"Mozilla/5.0 (Windows NT 10.0; Win64; x64) AppleWebKit/537.36 (KHTML, like Gecko) Chrome/86.0.4240.111 Safari/537.36",WebKit,Chrome,86.0.4240.111,Windows,10
39,1,null,"<div style=""font-size:60px;"">+</div>",null,html-keyboard-response,115,8769,0.0-115.0,22,fixationBtwnNeutralMaskAndPrompt,50,"""",10/23/2020 20:54,69.125.145.27,"Mozilla/5.0 (Windows NT 10.0; Win64; x64) AppleWebKit/537.36 (KHTML, like Gecko) Chrome/86.0.4240.111 Safari/537.36",WebKit,Chrome,86.0.4240.111,Windows,10
39,1,null,"<div style=""font-size:60px;"">+</div>",null,html-keyboard-response,116,8829,0.0-116.0,24,ITI,50,"""",10/23/2020 20:54,69.125.145.27,"Mozilla/5.0 (Windows NT 10.0; Win64; x64) AppleWebKit/537.36 (KHTML, like Gecko) Chrome/86.0.4240.111 Safari/537.36",WebKit,Chrome,86.0.4240.111,Windows,10
39,1,null,jspsych/allScrambledFaces/scrambledBM26NES.JPG,null,image-keyboard-response,117,8888,0.0-117.0,24,forwardMask,50,n,10/23/2020 20:54,69.125.145.27,"Mozilla/5.0 (Windows NT 10.0; Win64; x64) AppleWebKit/537.36 (KHTML, like Gecko) Chrome/86.0.4240.111 Safari/537.36",WebKit,Chrome,86.0.4240.111,Windows,10
39,1,null,jspsych/allFaces/BM26NES.JPG,null,image-keyboard-response,118,8949,0.0-118.0,23,Cue,"function(){
        return jsPsych.randomization.sampleWithoutReplacement(cueDuration, 1)[0]}","""",10/23/2020 20:54,69.125.145.27,"Mozilla/5.0 (Windows NT 10.0; Win64; x64) AppleWebKit/537.36 (KHTML, like Gecko) Chrome/86.0.4240.111 Safari/537.36",WebKit,Chrome,86.0.4240.111,Windows,10
39,1,null,jspsych/allFaces/AM35NES.JPG,null,image-keyboard-response,119,9008,0.0-119.0,23,backwardMask,50,"""",10/23/2020 20:54,69.125.145.27,"Mozilla/5.0 (Windows NT 10.0; Win64; x64) AppleWebKit/537.36 (KHTML, like Gecko) Chrome/86.0.4240.111 Safari/537.36",WebKit,Chrome,86.0.4240.111,Windows,10
39,1,null,"<div style=""font-size:60px;"">+</div>",null,html-keyboard-response,120,9075,0.0-120.0,23,fixationBtwnNeutralMaskAndPrompt,50,"""",10/23/2020 20:54,69.125.145.27,"Mozilla/5.0 (Windows NT 10.0; Win64; x64) AppleWebKit/537.36 (KHTML, like Gecko) Chrome/86.0.4240.111 Safari/537.36",WebKit,Chrome,86.0.4240.111,Windows,10
39,1,null,"<div style=""font-size:60px;"">+</div>",null,html-keyboard-response,121,9138,0.0-121.0,25,ITI,50,"""",10/23/2020 20:54,69.125.145.27,"Mozilla/5.0 (Windows NT 10.0; Win64; x64) AppleWebKit/537.36 (KHTML, like Gecko) Chrome/86.0.4240.111 Safari/537.36",WebKit,Chrome,86.0.4240.111,Windows,10
39,1,null,jspsych/allScrambledFaces/scrambledBF21NES.JPG,null,image-keyboard-response,122,9193,0.0-122.0,25,forwardMask,50,n,10/23/2020 20:54,69.125.145.27,"Mozilla/5.0 (Windows NT 10.0; Win64; x64) AppleWebKit/537.36 (KHTML, like Gecko) Chrome/86.0.4240.111 Safari/537.36",WebKit,Chrome,86.0.4240.111,Windows,10
39,1,null,jspsych/allFaces/BF21NES.JPG,null,image-keyboard-response,123,9249,0.0-123.0,24,Cue,"function(){
        return jsPsych.randomization.sampleWithoutReplacement(cueDuration, 1)[0]}","""",10/23/2020 20:54,69.125.145.27,"Mozilla/5.0 (Windows NT 10.0; Win64; x64) AppleWebKit/537.36 (KHTML, like Gecko) Chrome/86.0.4240.111 Safari/537.36",WebKit,Chrome,86.0.4240.111,Windows,10
39,1,null,jspsych/allFaces/BF13NES.JPG,null,image-keyboard-response,124,9305,0.0-124.0,24,backwardMask,50,"""",10/23/2020 20:54,69.125.145.27,"Mozilla/5.0 (Windows NT 10.0; Win64; x64) AppleWebKit/537.36 (KHTML, like Gecko) Chrome/86.0.4240.111 Safari/537.36",WebKit,Chrome,86.0.4240.111,Windows,10
39,1,null,"<div style=""font-size:60px;"">+</div>",null,html-keyboard-response,125,9357,0.0-125.0,24,fixationBtwnNeutralMaskAndPrompt,50,"""",10/23/2020 20:54,69.125.145.27,"Mozilla/5.0 (Windows NT 10.0; Win64; x64) AppleWebKit/537.36 (KHTML, like Gecko) Chrome/86.0.4240.111 Safari/537.36",WebKit,Chrome,86.0.4240.111,Windows,10
39,1,null,"<div style=""font-size:60px;"">+</div>",null,html-keyboard-response,126,9424,0.0-126.0,26,ITI,50,"""",10/23/2020 20:54,69.125.145.27,"Mozilla/5.0 (Windows NT 10.0; Win64; x64) AppleWebKit/537.36 (KHTML, like Gecko) Chrome/86.0.4240.111 Safari/537.36",WebKit,Chrome,86.0.4240.111,Windows,10
39,1,null,jspsych/allScrambledFaces/scrambledBM23DIS.JPG,null,image-keyboard-response,127,9479,0.0-127.0,26,forwardMask,50,d,10/23/2020 20:54,69.125.145.27,"Mozilla/5.0 (Windows NT 10.0; Win64; x64) AppleWebKit/537.36 (KHTML, like Gecko) Chrome/86.0.4240.111 Safari/537.36",WebKit,Chrome,86.0.4240.111,Windows,10
39,1,null,jspsych/allFaces/BM23DIS.JPG,null,image-keyboard-response,128,9539,0.0-128.0,25,Cue,"function(){
        return jsPsych.randomization.sampleWithoutReplacement(cueDuration, 1)[0]}","""",10/23/2020 20:54,69.125.145.27,"Mozilla/5.0 (Windows NT 10.0; Win64; x64) AppleWebKit/537.36 (KHTML, like Gecko) Chrome/86.0.4240.111 Safari/537.36",WebKit,Chrome,86.0.4240.111,Windows,10
39,1,null,jspsych/allFaces/AF10NES.JPG,null,image-keyboard-response,129,9599,0.0-129.0,25,backwardMask,50,"""",10/23/2020 20:54,69.125.145.27,"Mozilla/5.0 (Windows NT 10.0; Win64; x64) AppleWebKit/537.36 (KHTML, like Gecko) Chrome/86.0.4240.111 Safari/537.36",WebKit,Chrome,86.0.4240.111,Windows,10
39,1,null,"<div style=""font-size:60px;"">+</div>",null,html-keyboard-response,130,9656,0.0-130.0,25,fixationBtwnNeutralMaskAndPrompt,50,"""",10/23/2020 20:54,69.125.145.27,"Mozilla/5.0 (Windows NT 10.0; Win64; x64) AppleWebKit/537.36 (KHTML, like Gecko) Chrome/86.0.4240.111 Safari/537.36",WebKit,Chrome,86.0.4240.111,Windows,10
39,1,null,"<div style=""font-size:60px;"">+</div>",null,html-keyboard-response,131,9707,0.0-131.0,27,ITI,50,"""",10/23/2020 20:54,69.125.145.27,"Mozilla/5.0 (Windows NT 10.0; Win64; x64) AppleWebKit/537.36 (KHTML, like Gecko) Chrome/86.0.4240.111 Safari/537.36",WebKit,Chrome,86.0.4240.111,Windows,10
39,1,null,jspsych/allScrambledFaces/scrambledAF22DIS.JPG,null,image-keyboard-response,132,9769,0.0-132.0,27,forwardMask,50,d,10/23/2020 20:54,69.125.145.27,"Mozilla/5.0 (Windows NT 10.0; Win64; x64) AppleWebKit/537.36 (KHTML, like Gecko) Chrome/86.0.4240.111 Safari/537.36",WebKit,Chrome,86.0.4240.111,Windows,10
39,1,null,jspsych/allFaces/AF22DIS.JPG,null,image-keyboard-response,133,9829,0.0-133.0,26,Cue,"function(){
        return jsPsych.randomization.sampleWithoutReplacement(cueDuration, 1)[0]}","""",10/23/2020 20:54,69.125.145.27,"Mozilla/5.0 (Windows NT 10.0; Win64; x64) AppleWebKit/537.36 (KHTML, like Gecko) Chrome/86.0.4240.111 Safari/537.36",WebKit,Chrome,86.0.4240.111,Windows,10
39,1,null,jspsych/allFaces/AM17NES.JPG,null,image-keyboard-response,134,9889,0.0-134.0,26,backwardMask,50,"""",10/23/2020 20:54,69.125.145.27,"Mozilla/5.0 (Windows NT 10.0; Win64; x64) AppleWebKit/537.36 (KHTML, like Gecko) Chrome/86.0.4240.111 Safari/537.36",WebKit,Chrome,86.0.4240.111,Windows,10
39,1,null,"<div style=""font-size:60px;"">+</div>",null,html-keyboard-response,135,9949,0.0-135.0,26,fixationBtwnNeutralMaskAndPrompt,50,"""",10/23/2020 20:54,69.125.145.27,"Mozilla/5.0 (Windows NT 10.0; Win64; x64) AppleWebKit/537.36 (KHTML, like Gecko) Chrome/86.0.4240.111 Safari/537.36",WebKit,Chrome,86.0.4240.111,Windows,10
39,1,null,"<div style=""font-size:60px;"">+</div>",null,html-keyboard-response,136,10009,0.0-136.0,28,ITI,50,"""",10/23/2020 20:54,69.125.145.27,"Mozilla/5.0 (Windows NT 10.0; Win64; x64) AppleWebKit/537.36 (KHTML, like Gecko) Chrome/86.0.4240.111 Safari/537.36",WebKit,Chrome,86.0.4240.111,Windows,10
39,1,null,jspsych/allScrambledFaces/scrambledBF14DIS.JPG,null,image-keyboard-response,137,10069,0.0-137.0,28,forwardMask,50,d,10/23/2020 20:54,69.125.145.27,"Mozilla/5.0 (Windows NT 10.0; Win64; x64) AppleWebKit/537.36 (KHTML, like Gecko) Chrome/86.0.4240.111 Safari/537.36",WebKit,Chrome,86.0.4240.111,Windows,10
39,1,null,jspsych/allFaces/BF14DIS.JPG,null,image-keyboard-response,138,10128,0.0-138.0,27,Cue,"function(){
        return jsPsych.randomization.sampleWithoutReplacement(cueDuration, 1)[0]}","""",10/23/2020 20:54,69.125.145.27,"Mozilla/5.0 (Windows NT 10.0; Win64; x64) AppleWebKit/537.36 (KHTML, like Gecko) Chrome/86.0.4240.111 Safari/537.36",WebKit,Chrome,86.0.4240.111,Windows,10
39,1,null,jspsych/allFaces/BF03NES.JPG,null,image-keyboard-response,139,10189,0.0-139.0,27,backwardMask,50,"""",10/23/2020 20:54,69.125.145.27,"Mozilla/5.0 (Windows NT 10.0; Win64; x64) AppleWebKit/537.36 (KHTML, like Gecko) Chrome/86.0.4240.111 Safari/537.36",WebKit,Chrome,86.0.4240.111,Windows,10
39,1,null,"<div style=""font-size:60px;"">+</div>",null,html-keyboard-response,140,10247,0.0-140.0,27,fixationBtwnNeutralMaskAndPrompt,50,"""",10/23/2020 20:54,69.125.145.27,"Mozilla/5.0 (Windows NT 10.0; Win64; x64) AppleWebKit/537.36 (KHTML, like Gecko) Chrome/86.0.4240.111 Safari/537.36",WebKit,Chrome,86.0.4240.111,Windows,10
39,1,null,"<div style=""font-size:60px;"">+</div>",null,html-keyboard-response,141,10309,0.0-141.0,29,ITI,50,"""",10/23/2020 20:54,69.125.145.27,"Mozilla/5.0 (Windows NT 10.0; Win64; x64) AppleWebKit/537.36 (KHTML, like Gecko) Chrome/86.0.4240.111 Safari/537.36",WebKit,Chrome,86.0.4240.111,Windows,10
39,1,null,jspsych/allScrambledFaces/scrambledBM16NES.JPG,null,image-keyboard-response,142,10369,0.0-142.0,29,forwardMask,50,n,10/23/2020 20:54,69.125.145.27,"Mozilla/5.0 (Windows NT 10.0; Win64; x64) AppleWebKit/537.36 (KHTML, like Gecko) Chrome/86.0.4240.111 Safari/537.36",WebKit,Chrome,86.0.4240.111,Windows,10
39,1,null,jspsych/allFaces/BM16NES.JPG,null,image-keyboard-response,143,10429,0.0-143.0,28,Cue,"function(){
        return jsPsych.randomization.sampleWithoutReplacement(cueDuration, 1)[0]}","""",10/23/2020 20:54,69.125.145.27,"Mozilla/5.0 (Windows NT 10.0; Win64; x64) AppleWebKit/537.36 (KHTML, like Gecko) Chrome/86.0.4240.111 Safari/537.36",WebKit,Chrome,86.0.4240.111,Windows,10
39,1,null,jspsych/allFaces/BF06NES.JPG,null,image-keyboard-response,144,10490,0.0-144.0,28,backwardMask,50,"""",10/23/2020 20:54,69.125.145.27,"Mozilla/5.0 (Windows NT 10.0; Win64; x64) AppleWebKit/537.36 (KHTML, like Gecko) Chrome/86.0.4240.111 Safari/537.36",WebKit,Chrome,86.0.4240.111,Windows,10
39,1,null,"<div style=""font-size:60px;"">+</div>",null,html-keyboard-response,145,10548,0.0-145.0,28,fixationBtwnNeutralMaskAndPrompt,50,"""",10/23/2020 20:54,69.125.145.27,"Mozilla/5.0 (Windows NT 10.0; Win64; x64) AppleWebKit/537.36 (KHTML, like Gecko) Chrome/86.0.4240.111 Safari/537.36",WebKit,Chrome,86.0.4240.111,Windows,10
39,1,null,"<div style=""font-size:60px;"">+</div>",null,html-keyboard-response,146,10607,0.0-146.0,30,ITI,50,"""",10/23/2020 20:54,69.125.145.27,"Mozilla/5.0 (Windows NT 10.0; Win64; x64) AppleWebKit/537.36 (KHTML, like Gecko) Chrome/86.0.4240.111 Safari/537.36",WebKit,Chrome,86.0.4240.111,Windows,10
39,1,null,jspsych/allScrambledFaces/scrambledBM02DIS.JPG,null,image-keyboard-response,147,10669,0.0-147.0,30,forwardMask,50,d,10/23/2020 20:54,69.125.145.27,"Mozilla/5.0 (Windows NT 10.0; Win64; x64) AppleWebKit/537.36 (KHTML, like Gecko) Chrome/86.0.4240.111 Safari/537.36",WebKit,Chrome,86.0.4240.111,Windows,10
39,1,null,jspsych/allFaces/BM02DIS.JPG,null,image-keyboard-response,148,10729,0.0-148.0,29,Cue,"function(){
        return jsPsych.randomization.sampleWithoutReplacement(cueDuration, 1)[0]}","""",10/23/2020 20:54,69.125.145.27,"Mozilla/5.0 (Windows NT 10.0; Win64; x64) AppleWebKit/537.36 (KHTML, like Gecko) Chrome/86.0.4240.111 Safari/537.36",WebKit,Chrome,86.0.4240.111,Windows,10
39,1,null,jspsych/allFaces/BF04NES.JPG,null,image-keyboard-response,149,10789,0.0-149.0,29,backwardMask,50,"""",10/23/2020 20:54,69.125.145.27,"Mozilla/5.0 (Windows NT 10.0; Win64; x64) AppleWebKit/537.36 (KHTML, like Gecko) Chrome/86.0.4240.111 Safari/537.36",WebKit,Chrome,86.0.4240.111,Windows,10
39,1,null,"<div style=""font-size:60px;"">+</div>",null,html-keyboard-response,150,10849,0.0-150.0,29,fixationBtwnNeutralMaskAndPrompt,50,"""",10/23/2020 20:54,69.125.145.27,"Mozilla/5.0 (Windows NT 10.0; Win64; x64) AppleWebKit/537.36 (KHTML, like Gecko) Chrome/86.0.4240.111 Safari/537.36",WebKit,Chrome,86.0.4240.111,Windows,10
39,1,null,"<div style=""font-size:60px;"">+</div>",null,html-keyboard-response,151,10906,0.0-151.0,31,ITI,50,"""",10/23/2020 20:54,69.125.145.27,"Mozilla/5.0 (Windows NT 10.0; Win64; x64) AppleWebKit/537.36 (KHTML, like Gecko) Chrome/86.0.4240.111 Safari/537.36",WebKit,Chrome,86.0.4240.111,Windows,10
39,1,null,jspsych/allScrambledFaces/scrambledAM22DIS.JPG,null,image-keyboard-response,152,10969,0.0-152.0,31,forwardMask,50,d,10/23/2020 20:54,69.125.145.27,"Mozilla/5.0 (Windows NT 10.0; Win64; x64) AppleWebKit/537.36 (KHTML, like Gecko) Chrome/86.0.4240.111 Safari/537.36",WebKit,Chrome,86.0.4240.111,Windows,10
39,1,null,jspsych/allFaces/AM22DIS.JPG,null,image-keyboard-response,153,11023,0.0-153.0,30,Cue,"function(){
        return jsPsych.randomization.sampleWithoutReplacement(cueDuration, 1)[0]}","""",10/23/2020 20:54,69.125.145.27,"Mozilla/5.0 (Windows NT 10.0; Win64; x64) AppleWebKit/537.36 (KHTML, like Gecko) Chrome/86.0.4240.111 Safari/537.36",WebKit,Chrome,86.0.4240.111,Windows,10
39,1,null,jspsych/allFaces/BM27NES.JPG,null,image-keyboard-response,154,11076,0.0-154.0,30,backwardMask,50,"""",10/23/2020 20:54,69.125.145.27,"Mozilla/5.0 (Windows NT 10.0; Win64; x64) AppleWebKit/537.36 (KHTML, like Gecko) Chrome/86.0.4240.111 Safari/537.36",WebKit,Chrome,86.0.4240.111,Windows,10
39,1,null,"<div style=""font-size:60px;"">+</div>",null,html-keyboard-response,155,11129,0.0-155.0,30,fixationBtwnNeutralMaskAndPrompt,50,"""",10/23/2020 20:54,69.125.145.27,"Mozilla/5.0 (Windows NT 10.0; Win64; x64) AppleWebKit/537.36 (KHTML, like Gecko) Chrome/86.0.4240.111 Safari/537.36",WebKit,Chrome,86.0.4240.111,Windows,10
39,1,null,"<div style=""font-size:60px;"">+</div>",null,html-keyboard-response,156,11187,0.0-156.0,32,ITI,50,"""",10/23/2020 20:54,69.125.145.27,"Mozilla/5.0 (Windows NT 10.0; Win64; x64) AppleWebKit/537.36 (KHTML, like Gecko) Chrome/86.0.4240.111 Safari/537.36",WebKit,Chrome,86.0.4240.111,Windows,10
39,1,null,jspsych/allScrambledFaces/scrambledBF29NES.JPG,null,image-keyboard-response,157,11249,0.0-157.0,32,forwardMask,50,n,10/23/2020 20:54,69.125.145.27,"Mozilla/5.0 (Windows NT 10.0; Win64; x64) AppleWebKit/537.36 (KHTML, like Gecko) Chrome/86.0.4240.111 Safari/537.36",WebKit,Chrome,86.0.4240.111,Windows,10
39,1,null,jspsych/allFaces/BF29NES.JPG,null,image-keyboard-response,158,11309,0.0-158.0,31,Cue,"function(){
        return jsPsych.randomization.sampleWithoutReplacement(cueDuration, 1)[0]}","""",10/23/2020 20:54,69.125.145.27,"Mozilla/5.0 (Windows NT 10.0; Win64; x64) AppleWebKit/537.36 (KHTML, like Gecko) Chrome/86.0.4240.111 Safari/537.36",WebKit,Chrome,86.0.4240.111,Windows,10
39,1,null,jspsych/allFaces/BM34NES.JPG,null,image-keyboard-response,159,11369,0.0-159.0,31,backwardMask,50,"""",10/23/2020 20:54,69.125.145.27,"Mozilla/5.0 (Windows NT 10.0; Win64; x64) AppleWebKit/537.36 (KHTML, like Gecko) Chrome/86.0.4240.111 Safari/537.36",WebKit,Chrome,86.0.4240.111,Windows,10
39,1,null,"<div style=""font-size:60px;"">+</div>",null,html-keyboard-response,160,11429,0.0-160.0,31,fixationBtwnNeutralMaskAndPrompt,50,"""",10/23/2020 20:54,69.125.145.27,"Mozilla/5.0 (Windows NT 10.0; Win64; x64) AppleWebKit/537.36 (KHTML, like Gecko) Chrome/86.0.4240.111 Safari/537.36",WebKit,Chrome,86.0.4240.111,Windows,10
39,1,null,"<div style=""font-size:60px;"">+</div>",null,html-keyboard-response,161,11489,0.0-161.0,33,ITI,50,"""",10/23/2020 20:54,69.125.145.27,"Mozilla/5.0 (Windows NT 10.0; Win64; x64) AppleWebKit/537.36 (KHTML, like Gecko) Chrome/86.0.4240.111 Safari/537.36",WebKit,Chrome,86.0.4240.111,Windows,10
39,1,null,jspsych/allScrambledFaces/scrambledBM27DIS.JPG,null,image-keyboard-response,162,11549,0.0-162.0,33,forwardMask,50,d,10/23/2020 20:54,69.125.145.27,"Mozilla/5.0 (Windows NT 10.0; Win64; x64) AppleWebKit/537.36 (KHTML, like Gecko) Chrome/86.0.4240.111 Safari/537.36",WebKit,Chrome,86.0.4240.111,Windows,10
39,1,null,jspsych/allFaces/BM27DIS.JPG,null,image-keyboard-response,163,11607,0.0-163.0,32,Cue,"function(){
        return jsPsych.randomization.sampleWithoutReplacement(cueDuration, 1)[0]}","""",10/23/2020 20:54,69.125.145.27,"Mozilla/5.0 (Windows NT 10.0; Win64; x64) AppleWebKit/537.36 (KHTML, like Gecko) Chrome/86.0.4240.111 Safari/537.36",WebKit,Chrome,86.0.4240.111,Windows,10
39,1,null,jspsych/allFaces/BM28NES.JPG,null,image-keyboard-response,164,11669,0.0-164.0,32,backwardMask,50,"""",10/23/2020 20:54,69.125.145.27,"Mozilla/5.0 (Windows NT 10.0; Win64; x64) AppleWebKit/537.36 (KHTML, like Gecko) Chrome/86.0.4240.111 Safari/537.36",WebKit,Chrome,86.0.4240.111,Windows,10
39,1,null,"<div style=""font-size:60px;"">+</div>",null,html-keyboard-response,165,11729,0.0-165.0,32,fixationBtwnNeutralMaskAndPrompt,50,"""",10/23/2020 20:54,69.125.145.27,"Mozilla/5.0 (Windows NT 10.0; Win64; x64) AppleWebKit/537.36 (KHTML, like Gecko) Chrome/86.0.4240.111 Safari/537.36",WebKit,Chrome,86.0.4240.111,Windows,10
39,1,null,"<div style=""font-size:60px;"">+</div>",null,html-keyboard-response,166,11786,0.0-166.0,34,ITI,50,"""",10/23/2020 20:54,69.125.145.27,"Mozilla/5.0 (Windows NT 10.0; Win64; x64) AppleWebKit/537.36 (KHTML, like Gecko) Chrome/86.0.4240.111 Safari/537.36",WebKit,Chrome,86.0.4240.111,Windows,10
39,1,null,jspsych/allScrambledFaces/scrambledAM01NES.JPG,null,image-keyboard-response,167,11839,0.0-167.0,34,forwardMask,50,n,10/23/2020 20:54,69.125.145.27,"Mozilla/5.0 (Windows NT 10.0; Win64; x64) AppleWebKit/537.36 (KHTML, like Gecko) Chrome/86.0.4240.111 Safari/537.36",WebKit,Chrome,86.0.4240.111,Windows,10
39,1,null,jspsych/allFaces/AM01NES.JPG,null,image-keyboard-response,168,11896,0.0-168.0,33,Cue,"function(){
        return jsPsych.randomization.sampleWithoutReplacement(cueDuration, 1)[0]}","""",10/23/2020 20:54,69.125.145.27,"Mozilla/5.0 (Windows NT 10.0; Win64; x64) AppleWebKit/537.36 (KHTML, like Gecko) Chrome/86.0.4240.111 Safari/537.36",WebKit,Chrome,86.0.4240.111,Windows,10
39,1,null,jspsych/allFaces/AF02NES.JPG,null,image-keyboard-response,169,11949,0.0-169.0,33,backwardMask,50,"""",10/23/2020 20:54,69.125.145.27,"Mozilla/5.0 (Windows NT 10.0; Win64; x64) AppleWebKit/537.36 (KHTML, like Gecko) Chrome/86.0.4240.111 Safari/537.36",WebKit,Chrome,86.0.4240.111,Windows,10
39,1,null,"<div style=""font-size:60px;"">+</div>",null,html-keyboard-response,170,12005,0.0-170.0,33,fixationBtwnNeutralMaskAndPrompt,50,"""",10/23/2020 20:54,69.125.145.27,"Mozilla/5.0 (Windows NT 10.0; Win64; x64) AppleWebKit/537.36 (KHTML, like Gecko) Chrome/86.0.4240.111 Safari/537.36",WebKit,Chrome,86.0.4240.111,Windows,10
39,1,null,"<div style=""font-size:60px;"">+</div>",null,html-keyboard-response,171,12059,0.0-171.0,35,ITI,50,"""",10/23/2020 20:54,69.125.145.27,"Mozilla/5.0 (Windows NT 10.0; Win64; x64) AppleWebKit/537.36 (KHTML, like Gecko) Chrome/86.0.4240.111 Safari/537.36",WebKit,Chrome,86.0.4240.111,Windows,10
39,1,null,jspsych/allScrambledFaces/scrambledBF26DIS.JPG,null,image-keyboard-response,172,12119,0.0-172.0,35,forwardMask,50,d,10/23/2020 20:54,69.125.145.27,"Mozilla/5.0 (Windows NT 10.0; Win64; x64) AppleWebKit/537.36 (KHTML, like Gecko) Chrome/86.0.4240.111 Safari/537.36",WebKit,Chrome,86.0.4240.111,Windows,10
39,1,null,jspsych/allFaces/BF26DIS.JPG,null,image-keyboard-response,173,12179,0.0-173.0,34,Cue,"function(){
        return jsPsych.randomization.sampleWithoutReplacement(cueDuration, 1)[0]}","""",10/23/2020 20:54,69.125.145.27,"Mozilla/5.0 (Windows NT 10.0; Win64; x64) AppleWebKit/537.36 (KHTML, like Gecko) Chrome/86.0.4240.111 Safari/537.36",WebKit,Chrome,86.0.4240.111,Windows,10
39,1,null,jspsych/allFaces/BM11NES.JPG,null,image-keyboard-response,174,12238,0.0-174.0,34,backwardMask,50,"""",10/23/2020 20:54,69.125.145.27,"Mozilla/5.0 (Windows NT 10.0; Win64; x64) AppleWebKit/537.36 (KHTML, like Gecko) Chrome/86.0.4240.111 Safari/537.36",WebKit,Chrome,86.0.4240.111,Windows,10
39,1,null,"<div style=""font-size:60px;"">+</div>",null,html-keyboard-response,175,12297,0.0-175.0,34,fixationBtwnNeutralMaskAndPrompt,50,"""",10/23/2020 20:54,69.125.145.27,"Mozilla/5.0 (Windows NT 10.0; Win64; x64) AppleWebKit/537.36 (KHTML, like Gecko) Chrome/86.0.4240.111 Safari/537.36",WebKit,Chrome,86.0.4240.111,Windows,10
39,1,null,"<div style=""font-size:60px;"">+</div>",null,html-keyboard-response,176,12358,0.0-176.0,36,ITI,50,"""",10/23/2020 20:54,69.125.145.27,"Mozilla/5.0 (Windows NT 10.0; Win64; x64) AppleWebKit/537.36 (KHTML, like Gecko) Chrome/86.0.4240.111 Safari/537.36",WebKit,Chrome,86.0.4240.111,Windows,10
39,1,null,jspsych/allScrambledFaces/scrambledBM32NES.JPG,null,image-keyboard-response,177,12419,0.0-177.0,36,forwardMask,50,n,10/23/2020 20:54,69.125.145.27,"Mozilla/5.0 (Windows NT 10.0; Win64; x64) AppleWebKit/537.36 (KHTML, like Gecko) Chrome/86.0.4240.111 Safari/537.36",WebKit,Chrome,86.0.4240.111,Windows,10
39,1,null,jspsych/allFaces/BM32NES.JPG,null,image-keyboard-response,178,12479,0.0-178.0,35,Cue,"function(){
        return jsPsych.randomization.sampleWithoutReplacement(cueDuration, 1)[0]}","""",10/23/2020 20:54,69.125.145.27,"Mozilla/5.0 (Windows NT 10.0; Win64; x64) AppleWebKit/537.36 (KHTML, like Gecko) Chrome/86.0.4240.111 Safari/537.36",WebKit,Chrome,86.0.4240.111,Windows,10
39,1,null,jspsych/allFaces/,null,image-keyboard-response,179,12538,0.0-179.0,35,backwardMask,50,"""",10/23/2020 20:54,69.125.145.27,"Mozilla/5.0 (Windows NT 10.0; Win64; x64) AppleWebKit/537.36 (KHTML, like Gecko) Chrome/86.0.4240.111 Safari/537.36",WebKit,Chrome,86.0.4240.111,Windows,10
39,1,null,"<div style=""font-size:60px;"">+</div>",null,html-keyboard-response,180,12598,0.0-180.0,35,fixationBtwnNeutralMaskAndPrompt,50,"""",10/23/2020 20:54,69.125.145.27,"Mozilla/5.0 (Windows NT 10.0; Win64; x64) AppleWebKit/537.36 (KHTML, like Gecko) Chrome/86.0.4240.111 Safari/537.36",WebKit,Chrome,86.0.4240.111,Windows,10
39,1,null,"<div style=""font-size:60px;"">+</div>",null,html-keyboard-response,181,12656,0.0-181.0,37,ITI,50,"""",10/23/2020 20:54,69.125.145.27,"Mozilla/5.0 (Windows NT 10.0; Win64; x64) AppleWebKit/537.36 (KHTML, like Gecko) Chrome/86.0.4240.111 Safari/537.36",WebKit,Chrome,86.0.4240.111,Windows,10
39,1,null,jspsych/allScrambledFaces/scrambledAF24DIS.JPG,null,image-keyboard-response,182,12719,0.0-182.0,37,forwardMask,50,d,10/23/2020 20:54,69.125.145.27,"Mozilla/5.0 (Windows NT 10.0; Win64; x64) AppleWebKit/537.36 (KHTML, like Gecko) Chrome/86.0.4240.111 Safari/537.36",WebKit,Chrome,86.0.4240.111,Windows,10
39,1,null,jspsych/allFaces/AF24DIS.JPG,null,image-keyboard-response,183,12779,0.0-183.0,36,Cue,"function(){
        return jsPsych.randomization.sampleWithoutReplacement(cueDuration, 1)[0]}","""",10/23/2020 20:54,69.125.145.27,"Mozilla/5.0 (Windows NT 10.0; Win64; x64) AppleWebKit/537.36 (KHTML, like Gecko) Chrome/86.0.4240.111 Safari/537.36",WebKit,Chrome,86.0.4240.111,Windows,10
39,1,null,jspsych/allFaces/AM01NES.JPG,null,image-keyboard-response,184,12838,0.0-184.0,36,backwardMask,50,"""",10/23/2020 20:54,69.125.145.27,"Mozilla/5.0 (Windows NT 10.0; Win64; x64) AppleWebKit/537.36 (KHTML, like Gecko) Chrome/86.0.4240.111 Safari/537.36",WebKit,Chrome,86.0.4240.111,Windows,10
39,1,null,"<div style=""font-size:60px;"">+</div>",null,html-keyboard-response,185,12899,0.0-185.0,36,fixationBtwnNeutralMaskAndPrompt,50,"""",10/23/2020 20:54,69.125.145.27,"Mozilla/5.0 (Windows NT 10.0; Win64; x64) AppleWebKit/537.36 (KHTML, like Gecko) Chrome/86.0.4240.111 Safari/537.36",WebKit,Chrome,86.0.4240.111,Windows,10
39,1,null,"<div style=""font-size:60px;"">+</div>",null,html-keyboard-response,186,12959,0.0-186.0,38,ITI,50,"""",10/23/2020 20:54,69.125.145.27,"Mozilla/5.0 (Windows NT 10.0; Win64; x64) AppleWebKit/537.36 (KHTML, like Gecko) Chrome/86.0.4240.111 Safari/537.36",WebKit,Chrome,86.0.4240.111,Windows,10
39,1,null,jspsych/allScrambledFaces/scrambledAM17DIS.JPG,null,image-keyboard-response,187,13019,0.0-187.0,38,forwardMask,50,d,10/23/2020 20:54,69.125.145.27,"Mozilla/5.0 (Windows NT 10.0; Win64; x64) AppleWebKit/537.36 (KHTML, like Gecko) Chrome/86.0.4240.111 Safari/537.36",WebKit,Chrome,86.0.4240.111,Windows,10
39,1,null,jspsych/allFaces/AM17DIS.JPG,null,image-keyboard-response,188,13079,0.0-188.0,37,Cue,"function(){
        return jsPsych.randomization.sampleWithoutReplacement(cueDuration, 1)[0]}","""",10/23/2020 20:54,69.125.145.27,"Mozilla/5.0 (Windows NT 10.0; Win64; x64) AppleWebKit/537.36 (KHTML, like Gecko) Chrome/86.0.4240.111 Safari/537.36",WebKit,Chrome,86.0.4240.111,Windows,10
39,1,null,jspsych/allFaces/BF14NES.JPG,null,image-keyboard-response,189,13139,0.0-189.0,37,backwardMask,50,"""",10/23/2020 20:54,69.125.145.27,"Mozilla/5.0 (Windows NT 10.0; Win64; x64) AppleWebKit/537.36 (KHTML, like Gecko) Chrome/86.0.4240.111 Safari/537.36",WebKit,Chrome,86.0.4240.111,Windows,10
39,1,null,"<div style=""font-size:60px;"">+</div>",null,html-keyboard-response,190,13199,0.0-190.0,37,fixationBtwnNeutralMaskAndPrompt,50,"""",10/23/2020 20:54,69.125.145.27,"Mozilla/5.0 (Windows NT 10.0; Win64; x64) AppleWebKit/537.36 (KHTML, like Gecko) Chrome/86.0.4240.111 Safari/537.36",WebKit,Chrome,86.0.4240.111,Windows,10
39,1,null,"<div style=""font-size:60px;"">+</div>",null,html-keyboard-response,191,13254,0.0-191.0,39,ITI,50,"""",10/23/2020 20:54,69.125.145.27,"Mozilla/5.0 (Windows NT 10.0; Win64; x64) AppleWebKit/537.36 (KHTML, like Gecko) Chrome/86.0.4240.111 Safari/537.36",WebKit,Chrome,86.0.4240.111,Windows,10
39,1,null,jspsych/allScrambledFaces/scrambledBF04NES.JPG,null,image-keyboard-response,192,13309,0.0-192.0,39,forwardMask,50,n,10/23/2020 20:54,69.125.145.27,"Mozilla/5.0 (Windows NT 10.0; Win64; x64) AppleWebKit/537.36 (KHTML, like Gecko) Chrome/86.0.4240.111 Safari/537.36",WebKit,Chrome,86.0.4240.111,Windows,10
39,1,null,jspsych/allFaces/BF04NES.JPG,null,image-keyboard-response,193,13369,0.0-193.0,38,Cue,"function(){
        return jsPsych.randomization.sampleWithoutReplacement(cueDuration, 1)[0]}","""",10/23/2020 20:54,69.125.145.27,"Mozilla/5.0 (Windows NT 10.0; Win64; x64) AppleWebKit/537.36 (KHTML, like Gecko) Chrome/86.0.4240.111 Safari/537.36",WebKit,Chrome,86.0.4240.111,Windows,10
39,1,null,jspsych/allFaces/BM06NES.JPG,null,image-keyboard-response,194,13429,0.0-194.0,38,backwardMask,50,"""",10/23/2020 20:54,69.125.145.27,"Mozilla/5.0 (Windows NT 10.0; Win64; x64) AppleWebKit/537.36 (KHTML, like Gecko) Chrome/86.0.4240.111 Safari/537.36",WebKit,Chrome,86.0.4240.111,Windows,10
39,1,null,"<div style=""font-size:60px;"">+</div>",null,html-keyboard-response,195,13487,0.0-195.0,38,fixationBtwnNeutralMaskAndPrompt,50,"""",10/23/2020 20:54,69.125.145.27,"Mozilla/5.0 (Windows NT 10.0; Win64; x64) AppleWebKit/537.36 (KHTML, like Gecko) Chrome/86.0.4240.111 Safari/537.36",WebKit,Chrome,86.0.4240.111,Windows,10
39,1,null,"<div style=""font-size:60px;"">+</div>",null,html-keyboard-response,196,13549,0.0-196.0,40,ITI,50,"""",10/23/2020 20:54,69.125.145.27,"Mozilla/5.0 (Windows NT 10.0; Win64; x64) AppleWebKit/537.36 (KHTML, like Gecko) Chrome/86.0.4240.111 Safari/537.36",WebKit,Chrome,86.0.4240.111,Windows,10
39,1,null,jspsych/allScrambledFaces/scrambledAM01NES.JPG,null,image-keyboard-response,197,13609,0.0-197.0,40,forwardMask,50,n,10/23/2020 20:54,69.125.145.27,"Mozilla/5.0 (Windows NT 10.0; Win64; x64) AppleWebKit/537.36 (KHTML, like Gecko) Chrome/86.0.4240.111 Safari/537.36",WebKit,Chrome,86.0.4240.111,Windows,10
39,1,null,jspsych/allFaces/AM01NES.JPG,null,image-keyboard-response,198,13669,0.0-198.0,39,Cue,"function(){
        return jsPsych.randomization.sampleWithoutReplacement(cueDuration, 1)[0]}","""",10/23/2020 20:54,69.125.145.27,"Mozilla/5.0 (Windows NT 10.0; Win64; x64) AppleWebKit/537.36 (KHTML, like Gecko) Chrome/86.0.4240.111 Safari/537.36",WebKit,Chrome,86.0.4240.111,Windows,10
39,1,null,jspsych/allFaces/AM04NES.JPG,null,image-keyboard-response,199,13729,0.0-199.0,39,backwardMask,50,"""",10/23/2020 20:54,69.125.145.27,"Mozilla/5.0 (Windows NT 10.0; Win64; x64) AppleWebKit/537.36 (KHTML, like Gecko) Chrome/86.0.4240.111 Safari/537.36",WebKit,Chrome,86.0.4240.111,Windows,10
39,1,null,"<div style=""font-size:60px;"">+</div>",null,html-keyboard-response,200,13786,0.0-200.0,39,fixationBtwnNeutralMaskAndPrompt,50,"""",10/23/2020 20:54,69.125.145.27,"Mozilla/5.0 (Windows NT 10.0; Win64; x64) AppleWebKit/537.36 (KHTML, like Gecko) Chrome/86.0.4240.111 Safari/537.36",WebKit,Chrome,86.0.4240.111,Windows,10
39,1,null,"<div style=""font-size:60px;"">+</div>",null,html-keyboard-response,201,13849,0.0-201.0,41,ITI,50,"""",10/23/2020 20:54,69.125.145.27,"Mozilla/5.0 (Windows NT 10.0; Win64; x64) AppleWebKit/537.36 (KHTML, like Gecko) Chrome/86.0.4240.111 Safari/537.36",WebKit,Chrome,86.0.4240.111,Windows,10
39,1,null,jspsych/allScrambledFaces/scrambledAM02NES.JPG,null,image-keyboard-response,202,13909,0.0-202.0,41,forwardMask,50,n,10/23/2020 20:54,69.125.145.27,"Mozilla/5.0 (Windows NT 10.0; Win64; x64) AppleWebKit/537.36 (KHTML, like Gecko) Chrome/86.0.4240.111 Safari/537.36",WebKit,Chrome,86.0.4240.111,Windows,10
39,1,null,jspsych/allFaces/AM02NES.JPG,null,image-keyboard-response,203,13970,0.0-203.0,40,Cue,"function(){
        return jsPsych.randomization.sampleWithoutReplacement(cueDuration, 1)[0]}","""",10/23/2020 20:54,69.125.145.27,"Mozilla/5.0 (Windows NT 10.0; Win64; x64) AppleWebKit/537.36 (KHTML, like Gecko) Chrome/86.0.4240.111 Safari/537.36",WebKit,Chrome,86.0.4240.111,Windows,10
39,1,null,jspsych/allFaces/AF10NES.JPG,null,image-keyboard-response,204,14029,0.0-204.0,40,backwardMask,50,"""",10/23/2020 20:54,69.125.145.27,"Mozilla/5.0 (Windows NT 10.0; Win64; x64) AppleWebKit/537.36 (KHTML, like Gecko) Chrome/86.0.4240.111 Safari/537.36",WebKit,Chrome,86.0.4240.111,Windows,10
39,1,null,"<div style=""font-size:60px;"">+</div>",null,html-keyboard-response,205,14086,0.0-205.0,40,fixationBtwnNeutralMaskAndPrompt,50,"""",10/23/2020 20:54,69.125.145.27,"Mozilla/5.0 (Windows NT 10.0; Win64; x64) AppleWebKit/537.36 (KHTML, like Gecko) Chrome/86.0.4240.111 Safari/537.36",WebKit,Chrome,86.0.4240.111,Windows,10
39,1,null,"<div style=""font-size:60px;"">+</div>",null,html-keyboard-response,206,14149,0.0-206.0,42,ITI,50,"""",10/23/2020 20:54,69.125.145.27,"Mozilla/5.0 (Windows NT 10.0; Win64; x64) AppleWebKit/537.36 (KHTML, like Gecko) Chrome/86.0.4240.111 Safari/537.36",WebKit,Chrome,86.0.4240.111,Windows,10
39,1,null,jspsych/allScrambledFaces/scrambledBM26DIS.JPG,null,image-keyboard-response,207,14209,0.0-207.0,42,forwardMask,50,d,10/23/2020 20:54,69.125.145.27,"Mozilla/5.0 (Windows NT 10.0; Win64; x64) AppleWebKit/537.36 (KHTML, like Gecko) Chrome/86.0.4240.111 Safari/537.36",WebKit,Chrome,86.0.4240.111,Windows,10
39,1,null,jspsych/allFaces/BM26DIS.JPG,null,image-keyboard-response,208,14269,0.0-208.0,41,Cue,"function(){
        return jsPsych.randomization.sampleWithoutReplacement(cueDuration, 1)[0]}","""",10/23/2020 20:54,69.125.145.27,"Mozilla/5.0 (Windows NT 10.0; Win64; x64) AppleWebKit/537.36 (KHTML, like Gecko) Chrome/86.0.4240.111 Safari/537.36",WebKit,Chrome,86.0.4240.111,Windows,10
39,1,null,jspsych/allFaces/BF15NES.JPG,null,image-keyboard-response,209,14329,0.0-209.0,41,backwardMask,50,"""",10/23/2020 20:54,69.125.145.27,"Mozilla/5.0 (Windows NT 10.0; Win64; x64) AppleWebKit/537.36 (KHTML, like Gecko) Chrome/86.0.4240.111 Safari/537.36",WebKit,Chrome,86.0.4240.111,Windows,10
39,1,null,"<div style=""font-size:60px;"">+</div>",null,html-keyboard-response,210,14388,0.0-210.0,41,fixationBtwnNeutralMaskAndPrompt,50,"""",10/23/2020 20:54,69.125.145.27,"Mozilla/5.0 (Windows NT 10.0; Win64; x64) AppleWebKit/537.36 (KHTML, like Gecko) Chrome/86.0.4240.111 Safari/537.36",WebKit,Chrome,86.0.4240.111,Windows,10
39,1,null,"<div style=""font-size:60px;"">+</div>",null,html-keyboard-response,211,14449,0.0-211.0,43,ITI,50,"""",10/23/2020 20:54,69.125.145.27,"Mozilla/5.0 (Windows NT 10.0; Win64; x64) AppleWebKit/537.36 (KHTML, like Gecko) Chrome/86.0.4240.111 Safari/537.36",WebKit,Chrome,86.0.4240.111,Windows,10
39,1,null,jspsych/allScrambledFaces/scrambledBM03NES.JPG,null,image-keyboard-response,212,14508,0.0-212.0,43,forwardMask,50,n,10/23/2020 20:54,69.125.145.27,"Mozilla/5.0 (Windows NT 10.0; Win64; x64) AppleWebKit/537.36 (KHTML, like Gecko) Chrome/86.0.4240.111 Safari/537.36",WebKit,Chrome,86.0.4240.111,Windows,10
39,1,null,jspsych/allFaces/BM03NES.JPG,null,image-keyboard-response,213,14569,0.0-213.0,42,Cue,"function(){
        return jsPsych.randomization.sampleWithoutReplacement(cueDuration, 1)[0]}","""",10/23/2020 20:54,69.125.145.27,"Mozilla/5.0 (Windows NT 10.0; Win64; x64) AppleWebKit/537.36 (KHTML, like Gecko) Chrome/86.0.4240.111 Safari/537.36",WebKit,Chrome,86.0.4240.111,Windows,10
39,1,null,jspsych/allFaces/BM33NES.JPG,null,image-keyboard-response,214,14629,0.0-214.0,42,backwardMask,50,"""",10/23/2020 20:54,69.125.145.27,"Mozilla/5.0 (Windows NT 10.0; Win64; x64) AppleWebKit/537.36 (KHTML, like Gecko) Chrome/86.0.4240.111 Safari/537.36",WebKit,Chrome,86.0.4240.111,Windows,10
39,1,null,"<div style=""font-size:60px;"">+</div>",null,html-keyboard-response,215,14687,0.0-215.0,42,fixationBtwnNeutralMaskAndPrompt,50,"""",10/23/2020 20:54,69.125.145.27,"Mozilla/5.0 (Windows NT 10.0; Win64; x64) AppleWebKit/537.36 (KHTML, like Gecko) Chrome/86.0.4240.111 Safari/537.36",WebKit,Chrome,86.0.4240.111,Windows,10
39,1,null,"<div style=""font-size:60px;"">+</div>",null,html-keyboard-response,216,14749,0.0-216.0,44,ITI,50,"""",10/23/2020 20:54,69.125.145.27,"Mozilla/5.0 (Windows NT 10.0; Win64; x64) AppleWebKit/537.36 (KHTML, like Gecko) Chrome/86.0.4240.111 Safari/537.36",WebKit,Chrome,86.0.4240.111,Windows,10
39,1,null,jspsych/allScrambledFaces/scrambledAF12NES.JPG,null,image-keyboard-response,217,14809,0.0-217.0,44,forwardMask,50,n,10/23/2020 20:54,69.125.145.27,"Mozilla/5.0 (Windows NT 10.0; Win64; x64) AppleWebKit/537.36 (KHTML, like Gecko) Chrome/86.0.4240.111 Safari/537.36",WebKit,Chrome,86.0.4240.111,Windows,10
39,1,null,jspsych/allFaces/AF12NES.JPG,null,image-keyboard-response,218,14869,0.0-218.0,43,Cue,"function(){
        return jsPsych.randomization.sampleWithoutReplacement(cueDuration, 1)[0]}","""",10/23/2020 20:54,69.125.145.27,"Mozilla/5.0 (Windows NT 10.0; Win64; x64) AppleWebKit/537.36 (KHTML, like Gecko) Chrome/86.0.4240.111 Safari/537.36",WebKit,Chrome,86.0.4240.111,Windows,10
39,1,null,jspsych/allFaces/AM28NES.JPG,null,image-keyboard-response,219,14929,0.0-219.0,43,backwardMask,50,"""",10/23/2020 20:54,69.125.145.27,"Mozilla/5.0 (Windows NT 10.0; Win64; x64) AppleWebKit/537.36 (KHTML, like Gecko) Chrome/86.0.4240.111 Safari/537.36",WebKit,Chrome,86.0.4240.111,Windows,10
39,1,null,"<div style=""font-size:60px;"">+</div>",null,html-keyboard-response,220,14987,0.0-220.0,43,fixationBtwnNeutralMaskAndPrompt,50,"""",10/23/2020 20:54,69.125.145.27,"Mozilla/5.0 (Windows NT 10.0; Win64; x64) AppleWebKit/537.36 (KHTML, like Gecko) Chrome/86.0.4240.111 Safari/537.36",WebKit,Chrome,86.0.4240.111,Windows,10
39,1,null,"<div style=""font-size:60px;"">+</div>",null,html-keyboard-response,221,15049,0.0-221.0,45,ITI,50,"""",10/23/2020 20:54,69.125.145.27,"Mozilla/5.0 (Windows NT 10.0; Win64; x64) AppleWebKit/537.36 (KHTML, like Gecko) Chrome/86.0.4240.111 Safari/537.36",WebKit,Chrome,86.0.4240.111,Windows,10
39,1,null,jspsych/allScrambledFaces/scrambledBF01NES.JPG,null,image-keyboard-response,222,15109,0.0-222.0,45,forwardMask,50,n,10/23/2020 20:54,69.125.145.27,"Mozilla/5.0 (Windows NT 10.0; Win64; x64) AppleWebKit/537.36 (KHTML, like Gecko) Chrome/86.0.4240.111 Safari/537.36",WebKit,Chrome,86.0.4240.111,Windows,10
39,1,null,jspsych/allFaces/BF01NES.JPG,null,image-keyboard-response,223,15169,0.0-223.0,44,Cue,"function(){
        return jsPsych.randomization.sampleWithoutReplacement(cueDuration, 1)[0]}","""",10/23/2020 20:54,69.125.145.27,"Mozilla/5.0 (Windows NT 10.0; Win64; x64) AppleWebKit/537.36 (KHTML, like Gecko) Chrome/86.0.4240.111 Safari/537.36",WebKit,Chrome,86.0.4240.111,Windows,10
39,1,null,jspsych/allFaces/BM13NES.JPG,null,image-keyboard-response,224,15229,0.0-224.0,44,backwardMask,50,"""",10/23/2020 20:54,69.125.145.27,"Mozilla/5.0 (Windows NT 10.0; Win64; x64) AppleWebKit/537.36 (KHTML, like Gecko) Chrome/86.0.4240.111 Safari/537.36",WebKit,Chrome,86.0.4240.111,Windows,10
39,1,null,"<div style=""font-size:60px;"">+</div>",null,html-keyboard-response,225,15286,0.0-225.0,44,fixationBtwnNeutralMaskAndPrompt,50,"""",10/23/2020 20:54,69.125.145.27,"Mozilla/5.0 (Windows NT 10.0; Win64; x64) AppleWebKit/537.36 (KHTML, like Gecko) Chrome/86.0.4240.111 Safari/537.36",WebKit,Chrome,86.0.4240.111,Windows,10
39,1,null,"<div style=""font-size:60px;"">+</div>",null,html-keyboard-response,226,15348,0.0-226.0,46,ITI,50,"""",10/23/2020 20:54,69.125.145.27,"Mozilla/5.0 (Windows NT 10.0; Win64; x64) AppleWebKit/537.36 (KHTML, like Gecko) Chrome/86.0.4240.111 Safari/537.36",WebKit,Chrome,86.0.4240.111,Windows,10
39,1,null,jspsych/allScrambledFaces/scrambledBF13NES.JPG,null,image-keyboard-response,227,15409,0.0-227.0,46,forwardMask,50,n,10/23/2020 20:54,69.125.145.27,"Mozilla/5.0 (Windows NT 10.0; Win64; x64) AppleWebKit/537.36 (KHTML, like Gecko) Chrome/86.0.4240.111 Safari/537.36",WebKit,Chrome,86.0.4240.111,Windows,10
39,1,null,jspsych/allFaces/BF13NES.JPG,null,image-keyboard-response,228,15468,0.0-228.0,45,Cue,"function(){
        return jsPsych.randomization.sampleWithoutReplacement(cueDuration, 1)[0]}","""",10/23/2020 20:54,69.125.145.27,"Mozilla/5.0 (Windows NT 10.0; Win64; x64) AppleWebKit/537.36 (KHTML, like Gecko) Chrome/86.0.4240.111 Safari/537.36",WebKit,Chrome,86.0.4240.111,Windows,10
39,1,null,jspsych/allFaces/BF10NES.JPG,null,image-keyboard-response,229,15529,0.0-229.0,45,backwardMask,50,"""",10/23/2020 20:54,69.125.145.27,"Mozilla/5.0 (Windows NT 10.0; Win64; x64) AppleWebKit/537.36 (KHTML, like Gecko) Chrome/86.0.4240.111 Safari/537.36",WebKit,Chrome,86.0.4240.111,Windows,10
39,1,null,"<div style=""font-size:60px;"">+</div>",null,html-keyboard-response,230,15589,0.0-230.0,45,fixationBtwnNeutralMaskAndPrompt,50,"""",10/23/2020 20:54,69.125.145.27,"Mozilla/5.0 (Windows NT 10.0; Win64; x64) AppleWebKit/537.36 (KHTML, like Gecko) Chrome/86.0.4240.111 Safari/537.36",WebKit,Chrome,86.0.4240.111,Windows,10
39,1,null,"<div style=""font-size:60px;"">+</div>",null,html-keyboard-response,231,15649,0.0-231.0,47,ITI,50,"""",10/23/2020 20:54,69.125.145.27,"Mozilla/5.0 (Windows NT 10.0; Win64; x64) AppleWebKit/537.36 (KHTML, like Gecko) Chrome/86.0.4240.111 Safari/537.36",WebKit,Chrome,86.0.4240.111,Windows,10
39,1,null,jspsych/allScrambledFaces/scrambledAF25NES.JPG,null,image-keyboard-response,232,15709,0.0-232.0,47,forwardMask,50,n,10/23/2020 20:54,69.125.145.27,"Mozilla/5.0 (Windows NT 10.0; Win64; x64) AppleWebKit/537.36 (KHTML, like Gecko) Chrome/86.0.4240.111 Safari/537.36",WebKit,Chrome,86.0.4240.111,Windows,10
39,1,null,jspsych/allFaces/AF25NES.JPG,null,image-keyboard-response,233,15768,0.0-233.0,46,Cue,"function(){
        return jsPsych.randomization.sampleWithoutReplacement(cueDuration, 1)[0]}","""",10/23/2020 20:54,69.125.145.27,"Mozilla/5.0 (Windows NT 10.0; Win64; x64) AppleWebKit/537.36 (KHTML, like Gecko) Chrome/86.0.4240.111 Safari/537.36",WebKit,Chrome,86.0.4240.111,Windows,10
39,1,null,jspsych/allFaces/BM07NES.JPG,null,image-keyboard-response,234,15829,0.0-234.0,46,backwardMask,50,"""",10/23/2020 20:54,69.125.145.27,"Mozilla/5.0 (Windows NT 10.0; Win64; x64) AppleWebKit/537.36 (KHTML, like Gecko) Chrome/86.0.4240.111 Safari/537.36",WebKit,Chrome,86.0.4240.111,Windows,10
39,1,null,"<div style=""font-size:60px;"">+</div>",null,html-keyboard-response,235,15889,0.0-235.0,46,fixationBtwnNeutralMaskAndPrompt,50,"""",10/23/2020 20:54,69.125.145.27,"Mozilla/5.0 (Windows NT 10.0; Win64; x64) AppleWebKit/537.36 (KHTML, like Gecko) Chrome/86.0.4240.111 Safari/537.36",WebKit,Chrome,86.0.4240.111,Windows,10
39,1,null,"<div style=""font-size:60px;"">+</div>",null,html-keyboard-response,236,15949,0.0-236.0,48,ITI,50,"""",10/23/2020 20:54,69.125.145.27,"Mozilla/5.0 (Windows NT 10.0; Win64; x64) AppleWebKit/537.36 (KHTML, like Gecko) Chrome/86.0.4240.111 Safari/537.36",WebKit,Chrome,86.0.4240.111,Windows,10
39,1,null,jspsych/allScrambledFaces/scrambledAF34NES.JPG,null,image-keyboard-response,237,16007,0.0-237.0,48,forwardMask,50,n,10/23/2020 20:54,69.125.145.27,"Mozilla/5.0 (Windows NT 10.0; Win64; x64) AppleWebKit/537.36 (KHTML, like Gecko) Chrome/86.0.4240.111 Safari/537.36",WebKit,Chrome,86.0.4240.111,Windows,10
39,1,null,jspsych/allFaces/AF34NES.JPG,null,image-keyboard-response,238,16066,0.0-238.0,47,Cue,"function(){
        return jsPsych.randomization.sampleWithoutReplacement(cueDuration, 1)[0]}","""",10/23/2020 20:54,69.125.145.27,"Mozilla/5.0 (Windows NT 10.0; Win64; x64) AppleWebKit/537.36 (KHTML, like Gecko) Chrome/86.0.4240.111 Safari/537.36",WebKit,Chrome,86.0.4240.111,Windows,10
39,1,null,jspsych/allFaces/AM09NES.JPG,null,image-keyboard-response,239,16118,0.0-239.0,47,backwardMask,50,"""",10/23/2020 20:54,69.125.145.27,"Mozilla/5.0 (Windows NT 10.0; Win64; x64) AppleWebKit/537.36 (KHTML, like Gecko) Chrome/86.0.4240.111 Safari/537.36",WebKit,Chrome,86.0.4240.111,Windows,10
39,1,null,"<div style=""font-size:60px;"">+</div>",null,html-keyboard-response,240,16179,0.0-240.0,47,fixationBtwnNeutralMaskAndPrompt,50,"""",10/23/2020 20:54,69.125.145.27,"Mozilla/5.0 (Windows NT 10.0; Win64; x64) AppleWebKit/537.36 (KHTML, like Gecko) Chrome/86.0.4240.111 Safari/537.36",WebKit,Chrome,86.0.4240.111,Windows,10
39,1,null,"<div style=""font-size:60px;"">+</div>",null,html-keyboard-response,241,16239,0.0-241.0,49,ITI,50,"""",10/23/2020 20:54,69.125.145.27,"Mozilla/5.0 (Windows NT 10.0; Win64; x64) AppleWebKit/537.36 (KHTML, like Gecko) Chrome/86.0.4240.111 Safari/537.36",WebKit,Chrome,86.0.4240.111,Windows,10
39,1,null,jspsych/allScrambledFaces/scrambledBF11DIS.JPG,null,image-keyboard-response,242,16299,0.0-242.0,49,forwardMask,50,d,10/23/2020 20:54,69.125.145.27,"Mozilla/5.0 (Windows NT 10.0; Win64; x64) AppleWebKit/537.36 (KHTML, like Gecko) Chrome/86.0.4240.111 Safari/537.36",WebKit,Chrome,86.0.4240.111,Windows,10
39,1,null,jspsych/allFaces/BF11DIS.JPG,null,image-keyboard-response,243,16359,0.0-243.0,48,Cue,"function(){
        return jsPsych.randomization.sampleWithoutReplacement(cueDuration, 1)[0]}","""",10/23/2020 20:54,69.125.145.27,"Mozilla/5.0 (Windows NT 10.0; Win64; x64) AppleWebKit/537.36 (KHTML, like Gecko) Chrome/86.0.4240.111 Safari/537.36",WebKit,Chrome,86.0.4240.111,Windows,10
39,1,null,jspsych/allFaces/AM30NES.JPG,null,image-keyboard-response,244,16418,0.0-244.0,48,backwardMask,50,"""",10/23/2020 20:54,69.125.145.27,"Mozilla/5.0 (Windows NT 10.0; Win64; x64) AppleWebKit/537.36 (KHTML, like Gecko) Chrome/86.0.4240.111 Safari/537.36",WebKit,Chrome,86.0.4240.111,Windows,10
39,1,null,"<div style=""font-size:60px;"">+</div>",null,html-keyboard-response,245,16479,0.0-245.0,48,fixationBtwnNeutralMaskAndPrompt,50,"""",10/23/2020 20:54,69.125.145.27,"Mozilla/5.0 (Windows NT 10.0; Win64; x64) AppleWebKit/537.36 (KHTML, like Gecko) Chrome/86.0.4240.111 Safari/537.36",WebKit,Chrome,86.0.4240.111,Windows,10
39,1,null,"<div style=""font-size:60px;"">+</div>",null,html-keyboard-response,246,16539,0.0-246.0,50,ITI,50,"""",10/23/2020 20:54,69.125.145.27,"Mozilla/5.0 (Windows NT 10.0; Win64; x64) AppleWebKit/537.36 (KHTML, like Gecko) Chrome/86.0.4240.111 Safari/537.36",WebKit,Chrome,86.0.4240.111,Windows,10
39,1,null,jspsych/allScrambledFaces/scrambledAF02DIS.JPG,null,image-keyboard-response,247,16599,0.0-247.0,50,forwardMask,50,d,10/23/2020 20:54,69.125.145.27,"Mozilla/5.0 (Windows NT 10.0; Win64; x64) AppleWebKit/537.36 (KHTML, like Gecko) Chrome/86.0.4240.111 Safari/537.36",WebKit,Chrome,86.0.4240.111,Windows,10
39,1,null,jspsych/allFaces/AF02DIS.JPG,null,image-keyboard-response,248,16660,0.0-248.0,49,Cue,"function(){
        return jsPsych.randomization.sampleWithoutReplacement(cueDuration, 1)[0]}","""",10/23/2020 20:54,69.125.145.27,"Mozilla/5.0 (Windows NT 10.0; Win64; x64) AppleWebKit/537.36 (KHTML, like Gecko) Chrome/86.0.4240.111 Safari/537.36",WebKit,Chrome,86.0.4240.111,Windows,10
39,1,null,jspsych/allFaces/BM03NES.JPG,null,image-keyboard-response,249,16717,0.0-249.0,49,backwardMask,50,"""",10/23/2020 20:54,69.125.145.27,"Mozilla/5.0 (Windows NT 10.0; Win64; x64) AppleWebKit/537.36 (KHTML, like Gecko) Chrome/86.0.4240.111 Safari/537.36",WebKit,Chrome,86.0.4240.111,Windows,10
39,1,null,"<div style=""font-size:60px;"">+</div>",null,html-keyboard-response,250,16779,0.0-250.0,49,fixationBtwnNeutralMaskAndPrompt,50,"""",10/23/2020 20:54,69.125.145.27,"Mozilla/5.0 (Windows NT 10.0; Win64; x64) AppleWebKit/537.36 (KHTML, like Gecko) Chrome/86.0.4240.111 Safari/537.36",WebKit,Chrome,86.0.4240.111,Windows,10
39,1,null,"<div style=""font-size:60px;"">+</div>",null,html-keyboard-response,251,16839,0.0-251.0,51,ITI,50,"""",10/23/2020 20:54,69.125.145.27,"Mozilla/5.0 (Windows NT 10.0; Win64; x64) AppleWebKit/537.36 (KHTML, like Gecko) Chrome/86.0.4240.111 Safari/537.36",WebKit,Chrome,86.0.4240.111,Windows,10
39,1,null,jspsych/allScrambledFaces/scrambledBF26DIS.JPG,null,image-keyboard-response,252,16899,0.0-252.0,51,forwardMask,50,d,10/23/2020 20:54,69.125.145.27,"Mozilla/5.0 (Windows NT 10.0; Win64; x64) AppleWebKit/537.36 (KHTML, like Gecko) Chrome/86.0.4240.111 Safari/537.36",WebKit,Chrome,86.0.4240.111,Windows,10
39,1,null,jspsych/allFaces/BF26DIS.JPG,null,image-keyboard-response,253,16959,0.0-253.0,50,Cue,"function(){
        return jsPsych.randomization.sampleWithoutReplacement(cueDuration, 1)[0]}","""",10/23/2020 20:54,69.125.145.27,"Mozilla/5.0 (Windows NT 10.0; Win64; x64) AppleWebKit/537.36 (KHTML, like Gecko) Chrome/86.0.4240.111 Safari/537.36",WebKit,Chrome,86.0.4240.111,Windows,10
39,1,null,jspsych/allFaces/BF21NES.JPG,null,image-keyboard-response,254,17017,0.0-254.0,50,backwardMask,50,"""",10/23/2020 20:54,69.125.145.27,"Mozilla/5.0 (Windows NT 10.0; Win64; x64) AppleWebKit/537.36 (KHTML, like Gecko) Chrome/86.0.4240.111 Safari/537.36",WebKit,Chrome,86.0.4240.111,Windows,10
39,1,null,"<div style=""font-size:60px;"">+</div>",null,html-keyboard-response,255,17079,0.0-255.0,50,fixationBtwnNeutralMaskAndPrompt,50,"""",10/23/2020 20:54,69.125.145.27,"Mozilla/5.0 (Windows NT 10.0; Win64; x64) AppleWebKit/537.36 (KHTML, like Gecko) Chrome/86.0.4240.111 Safari/537.36",WebKit,Chrome,86.0.4240.111,Windows,10
39,1,null,"<div style=""font-size:60px;"">+</div>",null,html-keyboard-response,256,17139,0.0-256.0,52,ITI,50,"""",10/23/2020 20:54,69.125.145.27,"Mozilla/5.0 (Windows NT 10.0; Win64; x64) AppleWebKit/537.36 (KHTML, like Gecko) Chrome/86.0.4240.111 Safari/537.36",WebKit,Chrome,86.0.4240.111,Windows,10
39,1,null,jspsych/allScrambledFaces/scrambledAM14DIS.JPG,null,image-keyboard-response,257,17197,0.0-257.0,52,forwardMask,50,d,10/23/2020 20:54,69.125.145.27,"Mozilla/5.0 (Windows NT 10.0; Win64; x64) AppleWebKit/537.36 (KHTML, like Gecko) Chrome/86.0.4240.111 Safari/537.36",WebKit,Chrome,86.0.4240.111,Windows,10
39,1,null,jspsych/allFaces/AM14DIS.JPG,null,image-keyboard-response,258,17250,0.0-258.0,51,Cue,"function(){
        return jsPsych.randomization.sampleWithoutReplacement(cueDuration, 1)[0]}","""",10/23/2020 20:54,69.125.145.27,"Mozilla/5.0 (Windows NT 10.0; Win64; x64) AppleWebKit/537.36 (KHTML, like Gecko) Chrome/86.0.4240.111 Safari/537.36",WebKit,Chrome,86.0.4240.111,Windows,10
39,1,null,jspsych/allFaces/BM33NES.JPG,null,image-keyboard-response,259,17309,0.0-259.0,51,backwardMask,50,"""",10/23/2020 20:54,69.125.145.27,"Mozilla/5.0 (Windows NT 10.0; Win64; x64) AppleWebKit/537.36 (KHTML, like Gecko) Chrome/86.0.4240.111 Safari/537.36",WebKit,Chrome,86.0.4240.111,Windows,10
39,1,null,"<div style=""font-size:60px;"">+</div>",null,html-keyboard-response,260,17367,0.0-260.0,51,fixationBtwnNeutralMaskAndPrompt,50,"""",10/23/2020 20:54,69.125.145.27,"Mozilla/5.0 (Windows NT 10.0; Win64; x64) AppleWebKit/537.36 (KHTML, like Gecko) Chrome/86.0.4240.111 Safari/537.36",WebKit,Chrome,86.0.4240.111,Windows,10
39,1,null,"<div style=""font-size:60px;"">+</div>",null,html-keyboard-response,261,17429,0.0-261.0,53,ITI,50,"""",10/23/2020 20:54,69.125.145.27,"Mozilla/5.0 (Windows NT 10.0; Win64; x64) AppleWebKit/537.36 (KHTML, like Gecko) Chrome/86.0.4240.111 Safari/537.36",WebKit,Chrome,86.0.4240.111,Windows,10
39,1,null,jspsych/allScrambledFaces/scrambledBM35DIS.JPG,null,image-keyboard-response,262,17489,0.0-262.0,53,forwardMask,50,d,10/23/2020 20:54,69.125.145.27,"Mozilla/5.0 (Windows NT 10.0; Win64; x64) AppleWebKit/537.36 (KHTML, like Gecko) Chrome/86.0.4240.111 Safari/537.36",WebKit,Chrome,86.0.4240.111,Windows,10
39,1,null,jspsych/allFaces/BM35DIS.JPG,null,image-keyboard-response,263,17549,0.0-263.0,52,Cue,"function(){
        return jsPsych.randomization.sampleWithoutReplacement(cueDuration, 1)[0]}","""",10/23/2020 20:54,69.125.145.27,"Mozilla/5.0 (Windows NT 10.0; Win64; x64) AppleWebKit/537.36 (KHTML, like Gecko) Chrome/86.0.4240.111 Safari/537.36",WebKit,Chrome,86.0.4240.111,Windows,10
39,1,null,jspsych/allFaces/AM30NES.JPG,null,image-keyboard-response,264,17610,0.0-264.0,52,backwardMask,50,"""",10/23/2020 20:54,69.125.145.27,"Mozilla/5.0 (Windows NT 10.0; Win64; x64) AppleWebKit/537.36 (KHTML, like Gecko) Chrome/86.0.4240.111 Safari/537.36",WebKit,Chrome,86.0.4240.111,Windows,10
39,1,null,"<div style=""font-size:60px;"">+</div>",null,html-keyboard-response,265,17668,0.0-265.0,52,fixationBtwnNeutralMaskAndPrompt,50,"""",10/23/2020 20:54,69.125.145.27,"Mozilla/5.0 (Windows NT 10.0; Win64; x64) AppleWebKit/537.36 (KHTML, like Gecko) Chrome/86.0.4240.111 Safari/537.36",WebKit,Chrome,86.0.4240.111,Windows,10
39,1,null,"<div style=""font-size:60px;"">+</div>",null,html-keyboard-response,266,17728,0.0-266.0,54,ITI,50,"""",10/23/2020 20:54,69.125.145.27,"Mozilla/5.0 (Windows NT 10.0; Win64; x64) AppleWebKit/537.36 (KHTML, like Gecko) Chrome/86.0.4240.111 Safari/537.36",WebKit,Chrome,86.0.4240.111,Windows,10
39,1,null,jspsych/allScrambledFaces/scrambledAM28NES.JPG,null,image-keyboard-response,267,17789,0.0-267.0,54,forwardMask,50,n,10/23/2020 20:54,69.125.145.27,"Mozilla/5.0 (Windows NT 10.0; Win64; x64) AppleWebKit/537.36 (KHTML, like Gecko) Chrome/86.0.4240.111 Safari/537.36",WebKit,Chrome,86.0.4240.111,Windows,10
39,1,null,jspsych/allFaces/AM28NES.JPG,null,image-keyboard-response,268,17849,0.0-268.0,53,Cue,"function(){
        return jsPsych.randomization.sampleWithoutReplacement(cueDuration, 1)[0]}","""",10/23/2020 20:54,69.125.145.27,"Mozilla/5.0 (Windows NT 10.0; Win64; x64) AppleWebKit/537.36 (KHTML, like Gecko) Chrome/86.0.4240.111 Safari/537.36",WebKit,Chrome,86.0.4240.111,Windows,10
39,1,null,jspsych/allFaces/AF15NES.JPG,null,image-keyboard-response,269,17909,0.0-269.0,53,backwardMask,50,"""",10/23/2020 20:54,69.125.145.27,"Mozilla/5.0 (Windows NT 10.0; Win64; x64) AppleWebKit/537.36 (KHTML, like Gecko) Chrome/86.0.4240.111 Safari/537.36",WebKit,Chrome,86.0.4240.111,Windows,10
39,1,null,"<div style=""font-size:60px;"">+</div>",null,html-keyboard-response,270,17967,0.0-270.0,53,fixationBtwnNeutralMaskAndPrompt,50,"""",10/23/2020 20:54,69.125.145.27,"Mozilla/5.0 (Windows NT 10.0; Win64; x64) AppleWebKit/537.36 (KHTML, like Gecko) Chrome/86.0.4240.111 Safari/537.36",WebKit,Chrome,86.0.4240.111,Windows,10
39,1,null,"<div style=""font-size:60px;"">+</div>",null,html-keyboard-response,271,18029,0.0-271.0,55,ITI,50,"""",10/23/2020 20:54,69.125.145.27,"Mozilla/5.0 (Windows NT 10.0; Win64; x64) AppleWebKit/537.36 (KHTML, like Gecko) Chrome/86.0.4240.111 Safari/537.36",WebKit,Chrome,86.0.4240.111,Windows,10
39,1,null,jspsych/allScrambledFaces/scrambledBF16NES.JPG,null,image-keyboard-response,272,18089,0.0-272.0,55,forwardMask,50,n,10/23/2020 20:54,69.125.145.27,"Mozilla/5.0 (Windows NT 10.0; Win64; x64) AppleWebKit/537.36 (KHTML, like Gecko) Chrome/86.0.4240.111 Safari/537.36",WebKit,Chrome,86.0.4240.111,Windows,10
39,1,null,jspsych/allFaces/BF16NES.JPG,null,image-keyboard-response,273,18149,0.0-273.0,54,Cue,"function(){
        return jsPsych.randomization.sampleWithoutReplacement(cueDuration, 1)[0]}","""",10/23/2020 20:54,69.125.145.27,"Mozilla/5.0 (Windows NT 10.0; Win64; x64) AppleWebKit/537.36 (KHTML, like Gecko) Chrome/86.0.4240.111 Safari/537.36",WebKit,Chrome,86.0.4240.111,Windows,10
39,1,null,jspsych/allFaces/BM34NES.JPG,null,image-keyboard-response,274,18208,0.0-274.0,54,backwardMask,50,"""",10/23/2020 20:54,69.125.145.27,"Mozilla/5.0 (Windows NT 10.0; Win64; x64) AppleWebKit/537.36 (KHTML, like Gecko) Chrome/86.0.4240.111 Safari/537.36",WebKit,Chrome,86.0.4240.111,Windows,10
39,1,null,"<div style=""font-size:60px;"">+</div>",null,html-keyboard-response,275,18267,0.0-275.0,54,fixationBtwnNeutralMaskAndPrompt,50,"""",10/23/2020 20:54,69.125.145.27,"Mozilla/5.0 (Windows NT 10.0; Win64; x64) AppleWebKit/537.36 (KHTML, like Gecko) Chrome/86.0.4240.111 Safari/537.36",WebKit,Chrome,86.0.4240.111,Windows,10
39,1,null,"<div style=""font-size:60px;"">+</div>",null,html-keyboard-response,276,18329,0.0-276.0,56,ITI,50,"""",10/23/2020 20:54,69.125.145.27,"Mozilla/5.0 (Windows NT 10.0; Win64; x64) AppleWebKit/537.36 (KHTML, like Gecko) Chrome/86.0.4240.111 Safari/537.36",WebKit,Chrome,86.0.4240.111,Windows,10
39,1,null,jspsych/allScrambledFaces/scrambledBM31DIS.JPG,null,image-keyboard-response,277,18389,0.0-277.0,56,forwardMask,50,d,10/23/2020 20:54,69.125.145.27,"Mozilla/5.0 (Windows NT 10.0; Win64; x64) AppleWebKit/537.36 (KHTML, like Gecko) Chrome/86.0.4240.111 Safari/537.36",WebKit,Chrome,86.0.4240.111,Windows,10
39,1,null,jspsych/allFaces/BM31DIS.JPG,null,image-keyboard-response,278,18449,0.0-278.0,55,Cue,"function(){
        return jsPsych.randomization.sampleWithoutReplacement(cueDuration, 1)[0]}","""",10/23/2020 20:54,69.125.145.27,"Mozilla/5.0 (Windows NT 10.0; Win64; x64) AppleWebKit/537.36 (KHTML, like Gecko) Chrome/86.0.4240.111 Safari/537.36",WebKit,Chrome,86.0.4240.111,Windows,10
39,1,null,jspsych/allFaces/BM12NES.JPG,null,image-keyboard-response,279,18509,0.0-279.0,55,backwardMask,50,"""",10/23/2020 20:54,69.125.145.27,"Mozilla/5.0 (Windows NT 10.0; Win64; x64) AppleWebKit/537.36 (KHTML, like Gecko) Chrome/86.0.4240.111 Safari/537.36",WebKit,Chrome,86.0.4240.111,Windows,10
39,1,null,"<div style=""font-size:60px;"">+</div>",null,html-keyboard-response,280,18567,0.0-280.0,55,fixationBtwnNeutralMaskAndPrompt,50,"""",10/23/2020 20:54,69.125.145.27,"Mozilla/5.0 (Windows NT 10.0; Win64; x64) AppleWebKit/537.36 (KHTML, like Gecko) Chrome/86.0.4240.111 Safari/537.36",WebKit,Chrome,86.0.4240.111,Windows,10
39,1,null,"<div style=""font-size:60px;"">+</div>",null,html-keyboard-response,281,18619,0.0-281.0,57,ITI,50,"""",10/23/2020 20:54,69.125.145.27,"Mozilla/5.0 (Windows NT 10.0; Win64; x64) AppleWebKit/537.36 (KHTML, like Gecko) Chrome/86.0.4240.111 Safari/537.36",WebKit,Chrome,86.0.4240.111,Windows,10
39,1,null,jspsych/allScrambledFaces/scrambledBM09NES.JPG,null,image-keyboard-response,282,18679,0.0-282.0,57,forwardMask,50,n,10/23/2020 20:54,69.125.145.27,"Mozilla/5.0 (Windows NT 10.0; Win64; x64) AppleWebKit/537.36 (KHTML, like Gecko) Chrome/86.0.4240.111 Safari/537.36",WebKit,Chrome,86.0.4240.111,Windows,10
39,1,null,jspsych/allFaces/BM09NES.JPG,null,image-keyboard-response,283,18739,0.0-283.0,56,Cue,"function(){
        return jsPsych.randomization.sampleWithoutReplacement(cueDuration, 1)[0]}","""",10/23/2020 20:54,69.125.145.27,"Mozilla/5.0 (Windows NT 10.0; Win64; x64) AppleWebKit/537.36 (KHTML, like Gecko) Chrome/86.0.4240.111 Safari/537.36",WebKit,Chrome,86.0.4240.111,Windows,10
39,1,null,jspsych/allFaces/BM08NES.JPG,null,image-keyboard-response,284,18798,0.0-284.0,56,backwardMask,50,"""",10/23/2020 20:54,69.125.145.27,"Mozilla/5.0 (Windows NT 10.0; Win64; x64) AppleWebKit/537.36 (KHTML, like Gecko) Chrome/86.0.4240.111 Safari/537.36",WebKit,Chrome,86.0.4240.111,Windows,10
39,1,null,"<div style=""font-size:60px;"">+</div>",null,html-keyboard-response,285,18855,0.0-285.0,56,fixationBtwnNeutralMaskAndPrompt,50,"""",10/23/2020 20:54,69.125.145.27,"Mozilla/5.0 (Windows NT 10.0; Win64; x64) AppleWebKit/537.36 (KHTML, like Gecko) Chrome/86.0.4240.111 Safari/537.36",WebKit,Chrome,86.0.4240.111,Windows,10
39,1,null,"<div style=""font-size:60px;"">+</div>",null,html-keyboard-response,286,18909,0.0-286.0,58,ITI,50,"""",10/23/2020 20:54,69.125.145.27,"Mozilla/5.0 (Windows NT 10.0; Win64; x64) AppleWebKit/537.36 (KHTML, like Gecko) Chrome/86.0.4240.111 Safari/537.36",WebKit,Chrome,86.0.4240.111,Windows,10
39,1,null,jspsych/allScrambledFaces/scrambledBM08DIS.JPG,null,image-keyboard-response,287,18969,0.0-287.0,58,forwardMask,50,d,10/23/2020 20:54,69.125.145.27,"Mozilla/5.0 (Windows NT 10.0; Win64; x64) AppleWebKit/537.36 (KHTML, like Gecko) Chrome/86.0.4240.111 Safari/537.36",WebKit,Chrome,86.0.4240.111,Windows,10
39,1,null,jspsych/allFaces/BM08DIS.JPG,null,image-keyboard-response,288,19029,0.0-288.0,57,Cue,"function(){
        return jsPsych.randomization.sampleWithoutReplacement(cueDuration, 1)[0]}","""",10/23/2020 20:54,69.125.145.27,"Mozilla/5.0 (Windows NT 10.0; Win64; x64) AppleWebKit/537.36 (KHTML, like Gecko) Chrome/86.0.4240.111 Safari/537.36",WebKit,Chrome,86.0.4240.111,Windows,10
39,1,null,jspsych/allFaces/AF24NES.JPG,null,image-keyboard-response,289,19089,0.0-289.0,57,backwardMask,50,"""",10/23/2020 20:54,69.125.145.27,"Mozilla/5.0 (Windows NT 10.0; Win64; x64) AppleWebKit/537.36 (KHTML, like Gecko) Chrome/86.0.4240.111 Safari/537.36",WebKit,Chrome,86.0.4240.111,Windows,10
39,1,null,"<div style=""font-size:60px;"">+</div>",null,html-keyboard-response,290,19148,0.0-290.0,57,fixationBtwnNeutralMaskAndPrompt,50,"""",10/23/2020 20:54,69.125.145.27,"Mozilla/5.0 (Windows NT 10.0; Win64; x64) AppleWebKit/537.36 (KHTML, like Gecko) Chrome/86.0.4240.111 Safari/537.36",WebKit,Chrome,86.0.4240.111,Windows,10
39,1,null,"<div style=""font-size:60px;"">+</div>",null,html-keyboard-response,291,19209,0.0-291.0,59,ITI,50,"""",10/23/2020 20:54,69.125.145.27,"Mozilla/5.0 (Windows NT 10.0; Win64; x64) AppleWebKit/537.36 (KHTML, like Gecko) Chrome/86.0.4240.111 Safari/537.36",WebKit,Chrome,86.0.4240.111,Windows,10
39,1,null,jspsych/allScrambledFaces/scrambledAM17NES.JPG,null,image-keyboard-response,292,19269,0.0-292.0,59,forwardMask,50,n,10/23/2020 20:54,69.125.145.27,"Mozilla/5.0 (Windows NT 10.0; Win64; x64) AppleWebKit/537.36 (KHTML, like Gecko) Chrome/86.0.4240.111 Safari/537.36",WebKit,Chrome,86.0.4240.111,Windows,10
39,1,null,jspsych/allFaces/AM17NES.JPG,null,image-keyboard-response,293,19329,0.0-293.0,58,Cue,"function(){
        return jsPsych.randomization.sampleWithoutReplacement(cueDuration, 1)[0]}","""",10/23/2020 20:54,69.125.145.27,"Mozilla/5.0 (Windows NT 10.0; Win64; x64) AppleWebKit/537.36 (KHTML, like Gecko) Chrome/86.0.4240.111 Safari/537.36",WebKit,Chrome,86.0.4240.111,Windows,10
39,1,null,jspsych/allFaces/BF17NES.JPG,null,image-keyboard-response,294,19381,0.0-294.0,58,backwardMask,50,"""",10/23/2020 20:54,69.125.145.27,"Mozilla/5.0 (Windows NT 10.0; Win64; x64) AppleWebKit/537.36 (KHTML, like Gecko) Chrome/86.0.4240.111 Safari/537.36",WebKit,Chrome,86.0.4240.111,Windows,10
39,1,null,"<div style=""font-size:60px;"">+</div>",null,html-keyboard-response,295,19439,0.0-295.0,58,fixationBtwnNeutralMaskAndPrompt,50,"""",10/23/2020 20:54,69.125.145.27,"Mozilla/5.0 (Windows NT 10.0; Win64; x64) AppleWebKit/537.36 (KHTML, like Gecko) Chrome/86.0.4240.111 Safari/537.36",WebKit,Chrome,86.0.4240.111,Windows,10
39,1,null,"<div style=""font-size:60px;"">+</div>",null,html-keyboard-response,296,19498,0.0-296.0,60,ITI,50,"""",10/23/2020 20:54,69.125.145.27,"Mozilla/5.0 (Windows NT 10.0; Win64; x64) AppleWebKit/537.36 (KHTML, like Gecko) Chrome/86.0.4240.111 Safari/537.36",WebKit,Chrome,86.0.4240.111,Windows,10
39,1,null,jspsych/allScrambledFaces/scrambledBM13DIS.JPG,null,image-keyboard-response,297,19550,0.0-297.0,60,forwardMask,50,d,10/23/2020 20:54,69.125.145.27,"Mozilla/5.0 (Windows NT 10.0; Win64; x64) AppleWebKit/537.36 (KHTML, like Gecko) Chrome/86.0.4240.111 Safari/537.36",WebKit,Chrome,86.0.4240.111,Windows,10
39,1,null,jspsych/allFaces/BM13DIS.JPG,null,image-keyboard-response,298,19602,0.0-298.0,59,Cue,"function(){
        return jsPsych.randomization.sampleWithoutReplacement(cueDuration, 1)[0]}","""",10/23/2020 20:54,69.125.145.27,"Mozilla/5.0 (Windows NT 10.0; Win64; x64) AppleWebKit/537.36 (KHTML, like Gecko) Chrome/86.0.4240.111 Safari/537.36",WebKit,Chrome,86.0.4240.111,Windows,10
39,1,null,jspsych/allFaces/BM11NES.JPG,null,image-keyboard-response,299,19653,0.0-299.0,59,backwardMask,50,"""",10/23/2020 20:54,69.125.145.27,"Mozilla/5.0 (Windows NT 10.0; Win64; x64) AppleWebKit/537.36 (KHTML, like Gecko) Chrome/86.0.4240.111 Safari/537.36",WebKit,Chrome,86.0.4240.111,Windows,10
39,1,null,"<div style=""font-size:60px;"">+</div>",null,html-keyboard-response,300,19706,0.0-300.0,59,fixationBtwnNeutralMaskAndPrompt,50,"""",10/23/2020 20:54,69.125.145.27,"Mozilla/5.0 (Windows NT 10.0; Win64; x64) AppleWebKit/537.36 (KHTML, like Gecko) Chrome/86.0.4240.111 Safari/537.36",WebKit,Chrome,86.0.4240.111,Windows,10
39,1,null,"<div style=""font-size:60px;"">+</div>",null,html-keyboard-response,301,19759,0.0-301.0,61,ITI,50,"""",10/23/2020 20:54,69.125.145.27,"Mozilla/5.0 (Windows NT 10.0; Win64; x64) AppleWebKit/537.36 (KHTML, like Gecko) Chrome/86.0.4240.111 Safari/537.36",WebKit,Chrome,86.0.4240.111,Windows,10
39,1,null,jspsych/allScrambledFaces/scrambledBM20DIS.JPG,null,image-keyboard-response,302,19820,0.0-302.0,61,forwardMask,50,d,10/23/2020 20:54,69.125.145.27,"Mozilla/5.0 (Windows NT 10.0; Win64; x64) AppleWebKit/537.36 (KHTML, like Gecko) Chrome/86.0.4240.111 Safari/537.36",WebKit,Chrome,86.0.4240.111,Windows,10
39,1,null,jspsych/allFaces/BM20DIS.JPG,null,image-keyboard-response,303,19879,0.0-303.0,60,Cue,"function(){
        return jsPsych.randomization.sampleWithoutReplacement(cueDuration, 1)[0]}","""",10/23/2020 20:54,69.125.145.27,"Mozilla/5.0 (Windows NT 10.0; Win64; x64) AppleWebKit/537.36 (KHTML, like Gecko) Chrome/86.0.4240.111 Safari/537.36",WebKit,Chrome,86.0.4240.111,Windows,10
39,1,null,jspsych/allFaces/AM15NES.JPG,null,image-keyboard-response,304,19939,0.0-304.0,60,backwardMask,50,"""",10/23/2020 20:54,69.125.145.27,"Mozilla/5.0 (Windows NT 10.0; Win64; x64) AppleWebKit/537.36 (KHTML, like Gecko) Chrome/86.0.4240.111 Safari/537.36",WebKit,Chrome,86.0.4240.111,Windows,10
39,1,null,"<div style=""font-size:60px;"">+</div>",null,html-keyboard-response,305,19999,0.0-305.0,60,fixationBtwnNeutralMaskAndPrompt,50,"""",10/23/2020 20:54,69.125.145.27,"Mozilla/5.0 (Windows NT 10.0; Win64; x64) AppleWebKit/537.36 (KHTML, like Gecko) Chrome/86.0.4240.111 Safari/537.36",WebKit,Chrome,86.0.4240.111,Windows,10
39,1,null,"<div style=""font-size:60px;"">+</div>",null,html-keyboard-response,306,20059,0.0-306.0,62,ITI,50,"""",10/23/2020 20:54,69.125.145.27,"Mozilla/5.0 (Windows NT 10.0; Win64; x64) AppleWebKit/537.36 (KHTML, like Gecko) Chrome/86.0.4240.111 Safari/537.36",WebKit,Chrome,86.0.4240.111,Windows,10
