run_id,condition,rt,responses,trial_type,trial_index,time_elapsed,internal_node_id,stimulus,button_pressed,key_press,StimulusDurationSetting,iTrial,Phase,correctResponse,CharacterResponse,recorded_at,ip,user_agent,device,browser,browser_version,platform,platform_version
2,1,77377,"{""Q0"":""A2BOV1FHIL6NR6""}",survey-text,0,77417,0.0-0.0,"""","""","""","""","""","""","""","""",11/20/2020 20:14,68.129.121.198,"Mozilla/5.0 (Windows NT 10.0; WOW64) AppleWebKit/537.36 (KHTML, like Gecko) Chrome/87.0.4280.66 Safari/537.36",WebKit,Chrome,87.0.4280.66,Windows,10
2,1,121883,"""",image-button-response,1,199312,0.0-1.0,directionsConfidence.JPG,0,"""","""","""","""","""","""",11/20/2020 20:14,68.129.121.198,"Mozilla/5.0 (Windows NT 10.0; WOW64) AppleWebKit/537.36 (KHTML, like Gecko) Chrome/87.0.4280.66 Safari/537.36",WebKit,Chrome,87.0.4280.66,Windows,10
2,1,31679,"""",video-button-response,2,230996,0.0-2.0,"""",0,"""","""","""","""","""","""",11/20/2020 20:14,68.129.121.198,"Mozilla/5.0 (Windows NT 10.0; WOW64) AppleWebKit/537.36 (KHTML, like Gecko) Chrome/87.0.4280.66 Safari/537.36",WebKit,Chrome,87.0.4280.66,Windows,10
2,1,null,"""",html-keyboard-response,3,231999,0.0-3.0,"<div style=""font-size:60px;"">+</div>","""",null,1000,1,ITI,"""","""",11/20/2020 20:14,68.129.121.198,"Mozilla/5.0 (Windows NT 10.0; WOW64) AppleWebKit/537.36 (KHTML, like Gecko) Chrome/87.0.4280.66 Safari/537.36",WebKit,Chrome,87.0.4280.66,Windows,10
2,1,null,"""",image-keyboard-response,4,232253,0.0-4.0,jspsych/scrambledDisgustFaces/scrambledAF26DIS.JPG,"""",null,250,1,forwardMask,1,"""",11/20/2020 20:14,68.129.121.198,"Mozilla/5.0 (Windows NT 10.0; WOW64) AppleWebKit/537.36 (KHTML, like Gecko) Chrome/87.0.4280.66 Safari/537.36",WebKit,Chrome,87.0.4280.66,Windows,10
2,1,null,"""",image-keyboard-response,5,232271,0.0-5.0,jspsych/disgustFaces/AF26DIS.JPG,"""",null,16,1,Cue,"""","""",11/20/2020 20:14,68.129.121.198,"Mozilla/5.0 (Windows NT 10.0; WOW64) AppleWebKit/537.36 (KHTML, like Gecko) Chrome/87.0.4280.66 Safari/537.36",WebKit,Chrome,87.0.4280.66,Windows,10
2,1,null,"""",image-keyboard-response,6,232373,0.0-6.0,jspsych/neutralFaces/AM05NES.JPG,"""",null,100,1,backwardMask,"""","""",11/20/2020 20:14,68.129.121.198,"Mozilla/5.0 (Windows NT 10.0; WOW64) AppleWebKit/537.36 (KHTML, like Gecko) Chrome/87.0.4280.66 Safari/537.36",WebKit,Chrome,87.0.4280.66,Windows,10
2,1,null,"""",html-keyboard-response,7,232575,0.0-7.0,"<div style=""font-size:60px;"">+</div>","""",null,200,1,fixationBtwnNeutralMaskAndPrompt,"""","""",11/20/2020 20:14,68.129.121.198,"Mozilla/5.0 (Windows NT 10.0; WOW64) AppleWebKit/537.36 (KHTML, like Gecko) Chrome/87.0.4280.66 Safari/537.36",WebKit,Chrome,87.0.4280.66,Windows,10
2,1,13931,"""",html-keyboard-response,8,246507,0.0-8.0,"<p> Did you see the ""hidden"" face? Press <b>0</b> if you did <i>not</i>, <b>1</b> if you <i>did</i>. </p>","""",49,"""",1,QueryConfidence,"""",1,11/20/2020 20:14,68.129.121.198,"Mozilla/5.0 (Windows NT 10.0; WOW64) AppleWebKit/537.36 (KHTML, like Gecko) Chrome/87.0.4280.66 Safari/537.36",WebKit,Chrome,87.0.4280.66,Windows,10
2,1,6470,"""",html-keyboard-response,9,252981,0.0-9.0,"<p> What was the emotion of the hidden face? Go with your gut if you are not certain. <br> Press, <b>0</b> for <i>neutral face</i> or <b>1</b> for <i>disgust face</i></p>","""",49,"""",1,Query,"""",1,11/20/2020 20:14,68.129.121.198,"Mozilla/5.0 (Windows NT 10.0; WOW64) AppleWebKit/537.36 (KHTML, like Gecko) Chrome/87.0.4280.66 Safari/537.36",WebKit,Chrome,87.0.4280.66,Windows,10
2,1,null,"""",html-keyboard-response,10,253983,0.0-10.0,"<div style=""font-size:60px;"">+</div>","""",null,1000,2,ITI,"""","""",11/20/2020 20:14,68.129.121.198,"Mozilla/5.0 (Windows NT 10.0; WOW64) AppleWebKit/537.36 (KHTML, like Gecko) Chrome/87.0.4280.66 Safari/537.36",WebKit,Chrome,87.0.4280.66,Windows,10
2,1,null,"""",image-keyboard-response,11,254242,0.0-11.0,jspsych/scrambledNeutralFaces/scrambledBF28NES.JPG,"""",null,250,2,forwardMask,0,"""",11/20/2020 20:14,68.129.121.198,"Mozilla/5.0 (Windows NT 10.0; WOW64) AppleWebKit/537.36 (KHTML, like Gecko) Chrome/87.0.4280.66 Safari/537.36",WebKit,Chrome,87.0.4280.66,Windows,10
2,1,null,"""",image-keyboard-response,12,254299,0.0-12.0,jspsych/neutralFaces/BF28NES.JPG,"""",null,49,2,Cue,"""","""",11/20/2020 20:14,68.129.121.198,"Mozilla/5.0 (Windows NT 10.0; WOW64) AppleWebKit/537.36 (KHTML, like Gecko) Chrome/87.0.4280.66 Safari/537.36",WebKit,Chrome,87.0.4280.66,Windows,10
2,1,null,"""",image-keyboard-response,13,254400,0.0-13.0,jspsych/neutralFaces/BF01NES.JPG,"""",null,100,2,backwardMask,"""","""",11/20/2020 20:14,68.129.121.198,"Mozilla/5.0 (Windows NT 10.0; WOW64) AppleWebKit/537.36 (KHTML, like Gecko) Chrome/87.0.4280.66 Safari/537.36",WebKit,Chrome,87.0.4280.66,Windows,10
2,1,null,"""",html-keyboard-response,14,254601,0.0-14.0,"<div style=""font-size:60px;"">+</div>","""",null,200,2,fixationBtwnNeutralMaskAndPrompt,"""","""",11/20/2020 20:14,68.129.121.198,"Mozilla/5.0 (Windows NT 10.0; WOW64) AppleWebKit/537.36 (KHTML, like Gecko) Chrome/87.0.4280.66 Safari/537.36",WebKit,Chrome,87.0.4280.66,Windows,10
2,1,25,"""",html-keyboard-response,15,254627,0.0-15.0,"<p> Did you see the ""hidden"" face? Press <b>0</b> if you did <i>not</i>, <b>1</b> if you <i>did</i>. </p>","""",49,"""",2,QueryConfidence,"""",1,11/20/2020 20:14,68.129.121.198,"Mozilla/5.0 (Windows NT 10.0; WOW64) AppleWebKit/537.36 (KHTML, like Gecko) Chrome/87.0.4280.66 Safari/537.36",WebKit,Chrome,87.0.4280.66,Windows,10
2,1,218,"""",html-keyboard-response,16,254845,0.0-16.0,"<p> What was the emotion of the hidden face? Go with your gut if you are not certain. <br> Press, <b>0</b> for <i>neutral face</i> or <b>1</b> for <i>disgust face</i></p>","""",48,"""",2,Query,"""",0,11/20/2020 20:14,68.129.121.198,"Mozilla/5.0 (Windows NT 10.0; WOW64) AppleWebKit/537.36 (KHTML, like Gecko) Chrome/87.0.4280.66 Safari/537.36",WebKit,Chrome,87.0.4280.66,Windows,10
2,1,null,"""",html-keyboard-response,17,255847,0.0-17.0,"<div style=""font-size:60px;"">+</div>","""",null,1000,3,ITI,"""","""",11/20/2020 20:14,68.129.121.198,"Mozilla/5.0 (Windows NT 10.0; WOW64) AppleWebKit/537.36 (KHTML, like Gecko) Chrome/87.0.4280.66 Safari/537.36",WebKit,Chrome,87.0.4280.66,Windows,10
2,1,null,"""",image-keyboard-response,18,256098,0.0-18.0,jspsych/scrambledNeutralFaces/scrambledBF31NES.JPG,"""",null,250,3,forwardMask,0,"""",11/20/2020 20:14,68.129.121.198,"Mozilla/5.0 (Windows NT 10.0; WOW64) AppleWebKit/537.36 (KHTML, like Gecko) Chrome/87.0.4280.66 Safari/537.36",WebKit,Chrome,87.0.4280.66,Windows,10
2,1,null,"""",image-keyboard-response,19,256235,0.0-19.0,jspsych/neutralFaces/BF31NES.JPG,"""",null,136,3,Cue,"""","""",11/20/2020 20:14,68.129.121.198,"Mozilla/5.0 (Windows NT 10.0; WOW64) AppleWebKit/537.36 (KHTML, like Gecko) Chrome/87.0.4280.66 Safari/537.36",WebKit,Chrome,87.0.4280.66,Windows,10
2,1,null,"""",image-keyboard-response,20,256338,0.0-20.0,jspsych/neutralFaces/BM35NES.JPG,"""",null,100,3,backwardMask,"""","""",11/20/2020 20:14,68.129.121.198,"Mozilla/5.0 (Windows NT 10.0; WOW64) AppleWebKit/537.36 (KHTML, like Gecko) Chrome/87.0.4280.66 Safari/537.36",WebKit,Chrome,87.0.4280.66,Windows,10
2,1,null,"""",html-keyboard-response,21,256539,0.0-21.0,"<div style=""font-size:60px;"">+</div>","""",null,200,3,fixationBtwnNeutralMaskAndPrompt,"""","""",11/20/2020 20:14,68.129.121.198,"Mozilla/5.0 (Windows NT 10.0; WOW64) AppleWebKit/537.36 (KHTML, like Gecko) Chrome/87.0.4280.66 Safari/537.36",WebKit,Chrome,87.0.4280.66,Windows,10
2,1,157,"""",html-keyboard-response,22,256698,0.0-22.0,"<p> Did you see the ""hidden"" face? Press <b>0</b> if you did <i>not</i>, <b>1</b> if you <i>did</i>. </p>","""",48,"""",3,QueryConfidence,"""",0,11/20/2020 20:14,68.129.121.198,"Mozilla/5.0 (Windows NT 10.0; WOW64) AppleWebKit/537.36 (KHTML, like Gecko) Chrome/87.0.4280.66 Safari/537.36",WebKit,Chrome,87.0.4280.66,Windows,10
2,1,55,"""",html-keyboard-response,23,256753,0.0-23.0,"<p> What was the emotion of the hidden face? Go with your gut if you are not certain. <br> Press, <b>0</b> for <i>neutral face</i> or <b>1</b> for <i>disgust face</i></p>","""",49,"""",3,Query,"""",1,11/20/2020 20:14,68.129.121.198,"Mozilla/5.0 (Windows NT 10.0; WOW64) AppleWebKit/537.36 (KHTML, like Gecko) Chrome/87.0.4280.66 Safari/537.36",WebKit,Chrome,87.0.4280.66,Windows,10
2,1,null,"""",html-keyboard-response,24,257754,0.0-24.0,"<div style=""font-size:60px;"">+</div>","""",null,1000,4,ITI,"""","""",11/20/2020 20:14,68.129.121.198,"Mozilla/5.0 (Windows NT 10.0; WOW64) AppleWebKit/537.36 (KHTML, like Gecko) Chrome/87.0.4280.66 Safari/537.36",WebKit,Chrome,87.0.4280.66,Windows,10
2,1,null,"""",image-keyboard-response,25,258012,0.0-25.0,jspsych/scrambledNeutralFaces/scrambledAM08NES.JPG,"""",null,250,4,forwardMask,0,"""",11/20/2020 20:14,68.129.121.198,"Mozilla/5.0 (Windows NT 10.0; WOW64) AppleWebKit/537.36 (KHTML, like Gecko) Chrome/87.0.4280.66 Safari/537.36",WebKit,Chrome,87.0.4280.66,Windows,10
2,1,null,"""",image-keyboard-response,26,258102,0.0-26.0,jspsych/neutralFaces/AM08NES.JPG,"""",null,82,4,Cue,"""","""",11/20/2020 20:14,68.129.121.198,"Mozilla/5.0 (Windows NT 10.0; WOW64) AppleWebKit/537.36 (KHTML, like Gecko) Chrome/87.0.4280.66 Safari/537.36",WebKit,Chrome,87.0.4280.66,Windows,10
2,1,null,"""",image-keyboard-response,27,258203,0.0-27.0,jspsych/neutralFaces/BM14NES.JPG,"""",null,100,4,backwardMask,"""","""",11/20/2020 20:14,68.129.121.198,"Mozilla/5.0 (Windows NT 10.0; WOW64) AppleWebKit/537.36 (KHTML, like Gecko) Chrome/87.0.4280.66 Safari/537.36",WebKit,Chrome,87.0.4280.66,Windows,10
2,1,null,"""",html-keyboard-response,28,258405,0.0-28.0,"<div style=""font-size:60px;"">+</div>","""",null,200,4,fixationBtwnNeutralMaskAndPrompt,"""","""",11/20/2020 20:14,68.129.121.198,"Mozilla/5.0 (Windows NT 10.0; WOW64) AppleWebKit/537.36 (KHTML, like Gecko) Chrome/87.0.4280.66 Safari/537.36",WebKit,Chrome,87.0.4280.66,Windows,10
2,1,79,"""",html-keyboard-response,29,258485,0.0-29.0,"<p> Did you see the ""hidden"" face? Press <b>0</b> if you did <i>not</i>, <b>1</b> if you <i>did</i>. </p>","""",49,"""",4,QueryConfidence,"""",1,11/20/2020 20:14,68.129.121.198,"Mozilla/5.0 (Windows NT 10.0; WOW64) AppleWebKit/537.36 (KHTML, like Gecko) Chrome/87.0.4280.66 Safari/537.36",WebKit,Chrome,87.0.4280.66,Windows,10
2,1,182,"""",html-keyboard-response,30,258669,0.0-30.0,"<p> What was the emotion of the hidden face? Go with your gut if you are not certain. <br> Press, <b>0</b> for <i>neutral face</i> or <b>1</b> for <i>disgust face</i></p>","""",48,"""",4,Query,"""",0,11/20/2020 20:14,68.129.121.198,"Mozilla/5.0 (Windows NT 10.0; WOW64) AppleWebKit/537.36 (KHTML, like Gecko) Chrome/87.0.4280.66 Safari/537.36",WebKit,Chrome,87.0.4280.66,Windows,10
2,1,null,"""",html-keyboard-response,31,259671,0.0-31.0,"<div style=""font-size:60px;"">+</div>","""",null,1000,5,ITI,"""","""",11/20/2020 20:14,68.129.121.198,"Mozilla/5.0 (Windows NT 10.0; WOW64) AppleWebKit/537.36 (KHTML, like Gecko) Chrome/87.0.4280.66 Safari/537.36",WebKit,Chrome,87.0.4280.66,Windows,10
2,1,null,"""",image-keyboard-response,32,259923,0.0-32.0,jspsych/scrambledNeutralFaces/scrambledAF14NES.JPG,"""",null,250,5,forwardMask,0,"""",11/20/2020 20:14,68.129.121.198,"Mozilla/5.0 (Windows NT 10.0; WOW64) AppleWebKit/537.36 (KHTML, like Gecko) Chrome/87.0.4280.66 Safari/537.36",WebKit,Chrome,87.0.4280.66,Windows,10
2,1,null,"""",image-keyboard-response,33,259973,0.0-33.0,jspsych/neutralFaces/AF14NES.JPG,"""",null,49,5,Cue,"""","""",11/20/2020 20:14,68.129.121.198,"Mozilla/5.0 (Windows NT 10.0; WOW64) AppleWebKit/537.36 (KHTML, like Gecko) Chrome/87.0.4280.66 Safari/537.36",WebKit,Chrome,87.0.4280.66,Windows,10
2,1,null,"""",image-keyboard-response,34,260075,0.0-34.0,jspsych/neutralFaces/BM06NES.JPG,"""",null,100,5,backwardMask,"""","""",11/20/2020 20:14,68.129.121.198,"Mozilla/5.0 (Windows NT 10.0; WOW64) AppleWebKit/537.36 (KHTML, like Gecko) Chrome/87.0.4280.66 Safari/537.36",WebKit,Chrome,87.0.4280.66,Windows,10
2,1,null,"""",html-keyboard-response,35,260304,0.0-35.0,"<div style=""font-size:60px;"">+</div>","""",null,200,5,fixationBtwnNeutralMaskAndPrompt,"""","""",11/20/2020 20:14,68.129.121.198,"Mozilla/5.0 (Windows NT 10.0; WOW64) AppleWebKit/537.36 (KHTML, like Gecko) Chrome/87.0.4280.66 Safari/537.36",WebKit,Chrome,87.0.4280.66,Windows,10
2,1,3.999999997,"""",html-keyboard-response,36,260309,0.0-36.0,"<p> Did you see the ""hidden"" face? Press <b>0</b> if you did <i>not</i>, <b>1</b> if you <i>did</i>. </p>","""",48,"""",5,QueryConfidence,"""",0,11/20/2020 20:14,68.129.121.198,"Mozilla/5.0 (Windows NT 10.0; WOW64) AppleWebKit/537.36 (KHTML, like Gecko) Chrome/87.0.4280.66 Safari/537.36",WebKit,Chrome,87.0.4280.66,Windows,10
2,1,159,"""",html-keyboard-response,37,260468,0.0-37.0,"<p> What was the emotion of the hidden face? Go with your gut if you are not certain. <br> Press, <b>0</b> for <i>neutral face</i> or <b>1</b> for <i>disgust face</i></p>","""",49,"""",5,Query,"""",1,11/20/2020 20:14,68.129.121.198,"Mozilla/5.0 (Windows NT 10.0; WOW64) AppleWebKit/537.36 (KHTML, like Gecko) Chrome/87.0.4280.66 Safari/537.36",WebKit,Chrome,87.0.4280.66,Windows,10
2,1,null,"""",html-keyboard-response,38,261469,0.0-38.0,"<div style=""font-size:60px;"">+</div>","""",null,1000,6,ITI,"""","""",11/20/2020 20:14,68.129.121.198,"Mozilla/5.0 (Windows NT 10.0; WOW64) AppleWebKit/537.36 (KHTML, like Gecko) Chrome/87.0.4280.66 Safari/537.36",WebKit,Chrome,87.0.4280.66,Windows,10
2,1,null,"""",image-keyboard-response,39,261720,0.0-39.0,jspsych/scrambledDisgustFaces/scrambledBF13DIS.JPG,"""",null,250,6,forwardMask,1,"""",11/20/2020 20:14,68.129.121.198,"Mozilla/5.0 (Windows NT 10.0; WOW64) AppleWebKit/537.36 (KHTML, like Gecko) Chrome/87.0.4280.66 Safari/537.36",WebKit,Chrome,87.0.4280.66,Windows,10
2,1,null,"""",image-keyboard-response,40,261803,0.0-40.0,jspsych/disgustFaces/BF13DIS.JPG,"""",null,82,6,Cue,"""","""",11/20/2020 20:14,68.129.121.198,"Mozilla/5.0 (Windows NT 10.0; WOW64) AppleWebKit/537.36 (KHTML, like Gecko) Chrome/87.0.4280.66 Safari/537.36",WebKit,Chrome,87.0.4280.66,Windows,10
2,1,null,"""",image-keyboard-response,41,261904,0.0-41.0,jspsych/neutralFaces/BM06NES.JPG,"""",null,100,6,backwardMask,"""","""",11/20/2020 20:14,68.129.121.198,"Mozilla/5.0 (Windows NT 10.0; WOW64) AppleWebKit/537.36 (KHTML, like Gecko) Chrome/87.0.4280.66 Safari/537.36",WebKit,Chrome,87.0.4280.66,Windows,10
2,1,null,"""",html-keyboard-response,42,262107,0.0-42.0,"<div style=""font-size:60px;"">+</div>","""",null,200,6,fixationBtwnNeutralMaskAndPrompt,"""","""",11/20/2020 20:14,68.129.121.198,"Mozilla/5.0 (Windows NT 10.0; WOW64) AppleWebKit/537.36 (KHTML, like Gecko) Chrome/87.0.4280.66 Safari/537.36",WebKit,Chrome,87.0.4280.66,Windows,10
2,1,141,"""",html-keyboard-response,43,262248,0.0-43.0,"<p> Did you see the ""hidden"" face? Press <b>0</b> if you did <i>not</i>, <b>1</b> if you <i>did</i>. </p>","""",49,"""",6,QueryConfidence,"""",1,11/20/2020 20:14,68.129.121.198,"Mozilla/5.0 (Windows NT 10.0; WOW64) AppleWebKit/537.36 (KHTML, like Gecko) Chrome/87.0.4280.66 Safari/537.36",WebKit,Chrome,87.0.4280.66,Windows,10
2,1,16,"""",html-keyboard-response,44,262265,0.0-44.0,"<p> What was the emotion of the hidden face? Go with your gut if you are not certain. <br> Press, <b>0</b> for <i>neutral face</i> or <b>1</b> for <i>disgust face</i></p>","""",48,"""",6,Query,"""",0,11/20/2020 20:14,68.129.121.198,"Mozilla/5.0 (Windows NT 10.0; WOW64) AppleWebKit/537.36 (KHTML, like Gecko) Chrome/87.0.4280.66 Safari/537.36",WebKit,Chrome,87.0.4280.66,Windows,10
2,1,null,"""",html-keyboard-response,45,263267,0.0-45.0,"<div style=""font-size:60px;"">+</div>","""",null,1000,7,ITI,"""","""",11/20/2020 20:14,68.129.121.198,"Mozilla/5.0 (Windows NT 10.0; WOW64) AppleWebKit/537.36 (KHTML, like Gecko) Chrome/87.0.4280.66 Safari/537.36",WebKit,Chrome,87.0.4280.66,Windows,10
2,1,null,"""",image-keyboard-response,46,263531,0.0-46.0,jspsych/scrambledDisgustFaces/scrambledBF06DIS.JPG,"""",null,250,7,forwardMask,1,"""",11/20/2020 20:14,68.129.121.198,"Mozilla/5.0 (Windows NT 10.0; WOW64) AppleWebKit/537.36 (KHTML, like Gecko) Chrome/87.0.4280.66 Safari/537.36",WebKit,Chrome,87.0.4280.66,Windows,10
2,1,null,"""",image-keyboard-response,47,263614,0.0-47.0,jspsych/disgustFaces/BF06DIS.JPG,"""",null,82,7,Cue,"""","""",11/20/2020 20:14,68.129.121.198,"Mozilla/5.0 (Windows NT 10.0; WOW64) AppleWebKit/537.36 (KHTML, like Gecko) Chrome/87.0.4280.66 Safari/537.36",WebKit,Chrome,87.0.4280.66,Windows,10
2,1,null,"""",image-keyboard-response,48,263716,0.0-48.0,jspsych/neutralFaces/BM07NES.JPG,"""",null,100,7,backwardMask,"""","""",11/20/2020 20:14,68.129.121.198,"Mozilla/5.0 (Windows NT 10.0; WOW64) AppleWebKit/537.36 (KHTML, like Gecko) Chrome/87.0.4280.66 Safari/537.36",WebKit,Chrome,87.0.4280.66,Windows,10
2,1,null,"""",html-keyboard-response,49,263917,0.0-49.0,"<div style=""font-size:60px;"">+</div>","""",null,200,7,fixationBtwnNeutralMaskAndPrompt,"""","""",11/20/2020 20:14,68.129.121.198,"Mozilla/5.0 (Windows NT 10.0; WOW64) AppleWebKit/537.36 (KHTML, like Gecko) Chrome/87.0.4280.66 Safari/537.36",WebKit,Chrome,87.0.4280.66,Windows,10
2,1,295,"""",html-keyboard-response,50,264214,0.0-50.0,"<p> Did you see the ""hidden"" face? Press <b>0</b> if you did <i>not</i>, <b>1</b> if you <i>did</i>. </p>","""",48,"""",7,QueryConfidence,"""",0,11/20/2020 20:14,68.129.121.198,"Mozilla/5.0 (Windows NT 10.0; WOW64) AppleWebKit/537.36 (KHTML, like Gecko) Chrome/87.0.4280.66 Safari/537.36",WebKit,Chrome,87.0.4280.66,Windows,10
2,1,67,"""",html-keyboard-response,51,264283,0.0-51.0,"<p> What was the emotion of the hidden face? Go with your gut if you are not certain. <br> Press, <b>0</b> for <i>neutral face</i> or <b>1</b> for <i>disgust face</i></p>","""",49,"""",7,Query,"""",1,11/20/2020 20:14,68.129.121.198,"Mozilla/5.0 (Windows NT 10.0; WOW64) AppleWebKit/537.36 (KHTML, like Gecko) Chrome/87.0.4280.66 Safari/537.36",WebKit,Chrome,87.0.4280.66,Windows,10
2,1,null,"""",html-keyboard-response,52,265285,0.0-52.0,"<div style=""font-size:60px;"">+</div>","""",null,1000,8,ITI,"""","""",11/20/2020 20:14,68.129.121.198,"Mozilla/5.0 (Windows NT 10.0; WOW64) AppleWebKit/537.36 (KHTML, like Gecko) Chrome/87.0.4280.66 Safari/537.36",WebKit,Chrome,87.0.4280.66,Windows,10
2,1,null,"""",image-keyboard-response,53,265536,0.0-53.0,jspsych/scrambledDisgustFaces/scrambledAF09DIS.JPG,"""",null,250,8,forwardMask,1,"""",11/20/2020 20:14,68.129.121.198,"Mozilla/5.0 (Windows NT 10.0; WOW64) AppleWebKit/537.36 (KHTML, like Gecko) Chrome/87.0.4280.66 Safari/537.36",WebKit,Chrome,87.0.4280.66,Windows,10
2,1,null,"""",image-keyboard-response,54,265587,0.0-54.0,jspsych/disgustFaces/AF09DIS.JPG,"""",null,49,8,Cue,"""","""",11/20/2020 20:14,68.129.121.198,"Mozilla/5.0 (Windows NT 10.0; WOW64) AppleWebKit/537.36 (KHTML, like Gecko) Chrome/87.0.4280.66 Safari/537.36",WebKit,Chrome,87.0.4280.66,Windows,10
2,1,null,"""",image-keyboard-response,55,265689,0.0-55.0,jspsych/neutralFaces/BF05NES.JPG,"""",null,100,8,backwardMask,"""","""",11/20/2020 20:14,68.129.121.198,"Mozilla/5.0 (Windows NT 10.0; WOW64) AppleWebKit/537.36 (KHTML, like Gecko) Chrome/87.0.4280.66 Safari/537.36",WebKit,Chrome,87.0.4280.66,Windows,10
2,1,null,"""",html-keyboard-response,56,265903,0.0-56.0,"<div style=""font-size:60px;"">+</div>","""",null,200,8,fixationBtwnNeutralMaskAndPrompt,"""","""",11/20/2020 20:14,68.129.121.198,"Mozilla/5.0 (Windows NT 10.0; WOW64) AppleWebKit/537.36 (KHTML, like Gecko) Chrome/87.0.4280.66 Safari/537.36",WebKit,Chrome,87.0.4280.66,Windows,10
2,1,124,"""",html-keyboard-response,57,266028,0.0-57.0,"<p> Did you see the ""hidden"" face? Press <b>0</b> if you did <i>not</i>, <b>1</b> if you <i>did</i>. </p>","""",49,"""",8,QueryConfidence,"""",1,11/20/2020 20:14,68.129.121.198,"Mozilla/5.0 (Windows NT 10.0; WOW64) AppleWebKit/537.36 (KHTML, like Gecko) Chrome/87.0.4280.66 Safari/537.36",WebKit,Chrome,87.0.4280.66,Windows,10
2,1,1,"""",html-keyboard-response,58,266029,0.0-58.0,"<p> What was the emotion of the hidden face? Go with your gut if you are not certain. <br> Press, <b>0</b> for <i>neutral face</i> or <b>1</b> for <i>disgust face</i></p>","""",48,"""",8,Query,"""",0,11/20/2020 20:14,68.129.121.198,"Mozilla/5.0 (Windows NT 10.0; WOW64) AppleWebKit/537.36 (KHTML, like Gecko) Chrome/87.0.4280.66 Safari/537.36",WebKit,Chrome,87.0.4280.66,Windows,10
2,1,null,"""",html-keyboard-response,59,267030,0.0-59.0,"<div style=""font-size:60px;"">+</div>","""",null,1000,9,ITI,"""","""",11/20/2020 20:14,68.129.121.198,"Mozilla/5.0 (Windows NT 10.0; WOW64) AppleWebKit/537.36 (KHTML, like Gecko) Chrome/87.0.4280.66 Safari/537.36",WebKit,Chrome,87.0.4280.66,Windows,10
2,1,null,"""",image-keyboard-response,60,267289,0.0-60.0,jspsych/scrambledNeutralFaces/scrambledBF27NES.JPG,"""",null,250,9,forwardMask,0,"""",11/20/2020 20:14,68.129.121.198,"Mozilla/5.0 (Windows NT 10.0; WOW64) AppleWebKit/537.36 (KHTML, like Gecko) Chrome/87.0.4280.66 Safari/537.36",WebKit,Chrome,87.0.4280.66,Windows,10
2,1,null,"""",image-keyboard-response,61,267356,0.0-61.0,jspsych/neutralFaces/BF27NES.JPG,"""",null,66,9,Cue,"""","""",11/20/2020 20:14,68.129.121.198,"Mozilla/5.0 (Windows NT 10.0; WOW64) AppleWebKit/537.36 (KHTML, like Gecko) Chrome/87.0.4280.66 Safari/537.36",WebKit,Chrome,87.0.4280.66,Windows,10
2,1,null,"""",image-keyboard-response,62,267462,0.0-62.0,jspsych/neutralFaces/BF09NES.JPG,"""",null,100,9,backwardMask,"""","""",11/20/2020 20:14,68.129.121.198,"Mozilla/5.0 (Windows NT 10.0; WOW64) AppleWebKit/537.36 (KHTML, like Gecko) Chrome/87.0.4280.66 Safari/537.36",WebKit,Chrome,87.0.4280.66,Windows,10
2,1,null,"""",html-keyboard-response,63,267664,0.0-63.0,"<div style=""font-size:60px;"">+</div>","""",null,200,9,fixationBtwnNeutralMaskAndPrompt,"""","""",11/20/2020 20:14,68.129.121.198,"Mozilla/5.0 (Windows NT 10.0; WOW64) AppleWebKit/537.36 (KHTML, like Gecko) Chrome/87.0.4280.66 Safari/537.36",WebKit,Chrome,87.0.4280.66,Windows,10
2,1,22,"""",html-keyboard-response,64,267687,0.0-64.0,"<p> Did you see the ""hidden"" face? Press <b>0</b> if you did <i>not</i>, <b>1</b> if you <i>did</i>. </p>","""",48,"""",9,QueryConfidence,"""",0,11/20/2020 20:14,68.129.121.198,"Mozilla/5.0 (Windows NT 10.0; WOW64) AppleWebKit/537.36 (KHTML, like Gecko) Chrome/87.0.4280.66 Safari/537.36",WebKit,Chrome,87.0.4280.66,Windows,10
2,1,1148,"""",html-keyboard-response,65,268836,0.0-65.0,"<p> What was the emotion of the hidden face? Go with your gut if you are not certain. <br> Press, <b>0</b> for <i>neutral face</i> or <b>1</b> for <i>disgust face</i></p>","""",48,"""",9,Query,"""",0,11/20/2020 20:14,68.129.121.198,"Mozilla/5.0 (Windows NT 10.0; WOW64) AppleWebKit/537.36 (KHTML, like Gecko) Chrome/87.0.4280.66 Safari/537.36",WebKit,Chrome,87.0.4280.66,Windows,10
2,1,null,"""",html-keyboard-response,66,269838,0.0-66.0,"<div style=""font-size:60px;"">+</div>","""",null,1000,10,ITI,"""","""",11/20/2020 20:14,68.129.121.198,"Mozilla/5.0 (Windows NT 10.0; WOW64) AppleWebKit/537.36 (KHTML, like Gecko) Chrome/87.0.4280.66 Safari/537.36",WebKit,Chrome,87.0.4280.66,Windows,10
2,1,null,"""",image-keyboard-response,67,270090,0.0-67.0,jspsych/scrambledNeutralFaces/scrambledBM26NES.JPG,"""",null,250,10,forwardMask,0,"""",11/20/2020 20:14,68.129.121.198,"Mozilla/5.0 (Windows NT 10.0; WOW64) AppleWebKit/537.36 (KHTML, like Gecko) Chrome/87.0.4280.66 Safari/537.36",WebKit,Chrome,87.0.4280.66,Windows,10
2,1,null,"""",image-keyboard-response,68,270108,0.0-68.0,jspsych/neutralFaces/BM26NES.JPG,"""",null,16,10,Cue,"""","""",11/20/2020 20:14,68.129.121.198,"Mozilla/5.0 (Windows NT 10.0; WOW64) AppleWebKit/537.36 (KHTML, like Gecko) Chrome/87.0.4280.66 Safari/537.36",WebKit,Chrome,87.0.4280.66,Windows,10
2,1,null,"""",image-keyboard-response,69,270213,0.0-69.0,jspsych/neutralFaces/AF02NES.JPG,"""",null,100,10,backwardMask,"""","""",11/20/2020 20:14,68.129.121.198,"Mozilla/5.0 (Windows NT 10.0; WOW64) AppleWebKit/537.36 (KHTML, like Gecko) Chrome/87.0.4280.66 Safari/537.36",WebKit,Chrome,87.0.4280.66,Windows,10
2,1,null,"""",html-keyboard-response,70,270414,0.0-70.0,"<div style=""font-size:60px;"">+</div>","""",null,200,10,fixationBtwnNeutralMaskAndPrompt,"""","""",11/20/2020 20:14,68.129.121.198,"Mozilla/5.0 (Windows NT 10.0; WOW64) AppleWebKit/537.36 (KHTML, like Gecko) Chrome/87.0.4280.66 Safari/537.36",WebKit,Chrome,87.0.4280.66,Windows,10
2,1,312,"""",html-keyboard-response,71,270727,0.0-71.0,"<p> Did you see the ""hidden"" face? Press <b>0</b> if you did <i>not</i>, <b>1</b> if you <i>did</i>. </p>","""",48,"""",10,QueryConfidence,"""",0,11/20/2020 20:14,68.129.121.198,"Mozilla/5.0 (Windows NT 10.0; WOW64) AppleWebKit/537.36 (KHTML, like Gecko) Chrome/87.0.4280.66 Safari/537.36",WebKit,Chrome,87.0.4280.66,Windows,10
2,1,465,"""",html-keyboard-response,72,271194,0.0-72.0,"<p> What was the emotion of the hidden face? Go with your gut if you are not certain. <br> Press, <b>0</b> for <i>neutral face</i> or <b>1</b> for <i>disgust face</i></p>","""",49,"""",10,Query,"""",1,11/20/2020 20:14,68.129.121.198,"Mozilla/5.0 (Windows NT 10.0; WOW64) AppleWebKit/537.36 (KHTML, like Gecko) Chrome/87.0.4280.66 Safari/537.36",WebKit,Chrome,87.0.4280.66,Windows,10
2,1,null,"""",html-keyboard-response,73,272195,0.0-73.0,"<div style=""font-size:60px;"">+</div>","""",null,1000,11,ITI,"""","""",11/20/2020 20:14,68.129.121.198,"Mozilla/5.0 (Windows NT 10.0; WOW64) AppleWebKit/537.36 (KHTML, like Gecko) Chrome/87.0.4280.66 Safari/537.36",WebKit,Chrome,87.0.4280.66,Windows,10
2,1,null,"""",image-keyboard-response,74,272454,0.0-74.0,jspsych/scrambledDisgustFaces/scrambledBM16DIS.JPG,"""",null,250,11,forwardMask,1,"""",11/20/2020 20:14,68.129.121.198,"Mozilla/5.0 (Windows NT 10.0; WOW64) AppleWebKit/537.36 (KHTML, like Gecko) Chrome/87.0.4280.66 Safari/537.36",WebKit,Chrome,87.0.4280.66,Windows,10
2,1,null,"""",image-keyboard-response,75,272537,0.0-75.0,jspsych/disgustFaces/BM16DIS.JPG,"""",null,82,11,Cue,"""","""",11/20/2020 20:14,68.129.121.198,"Mozilla/5.0 (Windows NT 10.0; WOW64) AppleWebKit/537.36 (KHTML, like Gecko) Chrome/87.0.4280.66 Safari/537.36",WebKit,Chrome,87.0.4280.66,Windows,10
2,1,null,"""",image-keyboard-response,76,272639,0.0-76.0,jspsych/neutralFaces/AF02NES.JPG,"""",null,100,11,backwardMask,"""","""",11/20/2020 20:14,68.129.121.198,"Mozilla/5.0 (Windows NT 10.0; WOW64) AppleWebKit/537.36 (KHTML, like Gecko) Chrome/87.0.4280.66 Safari/537.36",WebKit,Chrome,87.0.4280.66,Windows,10
2,1,null,"""",html-keyboard-response,77,272840,0.0-77.0,"<div style=""font-size:60px;"">+</div>","""",null,200,11,fixationBtwnNeutralMaskAndPrompt,"""","""",11/20/2020 20:14,68.129.121.198,"Mozilla/5.0 (Windows NT 10.0; WOW64) AppleWebKit/537.36 (KHTML, like Gecko) Chrome/87.0.4280.66 Safari/537.36",WebKit,Chrome,87.0.4280.66,Windows,10
2,1,3299,"""",html-keyboard-response,78,276139,0.0-78.0,"<p> Did you see the ""hidden"" face? Press <b>0</b> if you did <i>not</i>, <b>1</b> if you <i>did</i>. </p>","""",48,"""",11,QueryConfidence,"""",0,11/20/2020 20:14,68.129.121.198,"Mozilla/5.0 (Windows NT 10.0; WOW64) AppleWebKit/537.36 (KHTML, like Gecko) Chrome/87.0.4280.66 Safari/537.36",WebKit,Chrome,87.0.4280.66,Windows,10
2,1,260,"""",html-keyboard-response,79,276404,0.0-79.0,"<p> What was the emotion of the hidden face? Go with your gut if you are not certain. <br> Press, <b>0</b> for <i>neutral face</i> or <b>1</b> for <i>disgust face</i></p>","""",49,"""",11,Query,"""",1,11/20/2020 20:14,68.129.121.198,"Mozilla/5.0 (Windows NT 10.0; WOW64) AppleWebKit/537.36 (KHTML, like Gecko) Chrome/87.0.4280.66 Safari/537.36",WebKit,Chrome,87.0.4280.66,Windows,10
2,1,null,"""",html-keyboard-response,80,277405,0.0-80.0,"<div style=""font-size:60px;"">+</div>","""",null,1000,12,ITI,"""","""",11/20/2020 20:14,68.129.121.198,"Mozilla/5.0 (Windows NT 10.0; WOW64) AppleWebKit/537.36 (KHTML, like Gecko) Chrome/87.0.4280.66 Safari/537.36",WebKit,Chrome,87.0.4280.66,Windows,10
2,1,null,"""",image-keyboard-response,81,277655,0.0-81.0,jspsych/scrambledDisgustFaces/scrambledAF03DIS.JPG,"""",null,250,12,forwardMask,1,"""",11/20/2020 20:14,68.129.121.198,"Mozilla/5.0 (Windows NT 10.0; WOW64) AppleWebKit/537.36 (KHTML, like Gecko) Chrome/87.0.4280.66 Safari/537.36",WebKit,Chrome,87.0.4280.66,Windows,10
2,1,null,"""",image-keyboard-response,82,277705,0.0-82.0,jspsych/disgustFaces/AF03DIS.JPG,"""",null,49,12,Cue,"""","""",11/20/2020 20:14,68.129.121.198,"Mozilla/5.0 (Windows NT 10.0; WOW64) AppleWebKit/537.36 (KHTML, like Gecko) Chrome/87.0.4280.66 Safari/537.36",WebKit,Chrome,87.0.4280.66,Windows,10
2,1,null,"""",image-keyboard-response,83,277806,0.0-83.0,jspsych/neutralFaces/AF14NES.JPG,"""",null,100,12,backwardMask,"""","""",11/20/2020 20:14,68.129.121.198,"Mozilla/5.0 (Windows NT 10.0; WOW64) AppleWebKit/537.36 (KHTML, like Gecko) Chrome/87.0.4280.66 Safari/537.36",WebKit,Chrome,87.0.4280.66,Windows,10
2,1,null,"""",html-keyboard-response,84,278008,0.0-84.0,"<div style=""font-size:60px;"">+</div>","""",null,200,12,fixationBtwnNeutralMaskAndPrompt,"""","""",11/20/2020 20:14,68.129.121.198,"Mozilla/5.0 (Windows NT 10.0; WOW64) AppleWebKit/537.36 (KHTML, like Gecko) Chrome/87.0.4280.66 Safari/537.36",WebKit,Chrome,87.0.4280.66,Windows,10
2,1,47,"""",html-keyboard-response,85,278056,0.0-85.0,"<p> Did you see the ""hidden"" face? Press <b>0</b> if you did <i>not</i>, <b>1</b> if you <i>did</i>. </p>","""",48,"""",12,QueryConfidence,"""",0,11/20/2020 20:14,68.129.121.198,"Mozilla/5.0 (Windows NT 10.0; WOW64) AppleWebKit/537.36 (KHTML, like Gecko) Chrome/87.0.4280.66 Safari/537.36",WebKit,Chrome,87.0.4280.66,Windows,10
2,1,261,"""",html-keyboard-response,86,278319,0.0-86.0,"<p> What was the emotion of the hidden face? Go with your gut if you are not certain. <br> Press, <b>0</b> for <i>neutral face</i> or <b>1</b> for <i>disgust face</i></p>","""",49,"""",12,Query,"""",1,11/20/2020 20:14,68.129.121.198,"Mozilla/5.0 (Windows NT 10.0; WOW64) AppleWebKit/537.36 (KHTML, like Gecko) Chrome/87.0.4280.66 Safari/537.36",WebKit,Chrome,87.0.4280.66,Windows,10
2,1,null,"""",html-keyboard-response,87,279320,0.0-87.0,"<div style=""font-size:60px;"">+</div>","""",null,1000,13,ITI,"""","""",11/20/2020 20:14,68.129.121.198,"Mozilla/5.0 (Windows NT 10.0; WOW64) AppleWebKit/537.36 (KHTML, like Gecko) Chrome/87.0.4280.66 Safari/537.36",WebKit,Chrome,87.0.4280.66,Windows,10
2,1,null,"""",image-keyboard-response,88,279571,0.0-88.0,jspsych/scrambledNeutralFaces/scrambledBF24NES.JPG,"""",null,250,13,forwardMask,0,"""",11/20/2020 20:14,68.129.121.198,"Mozilla/5.0 (Windows NT 10.0; WOW64) AppleWebKit/537.36 (KHTML, like Gecko) Chrome/87.0.4280.66 Safari/537.36",WebKit,Chrome,87.0.4280.66,Windows,10
2,1,null,"""",image-keyboard-response,89,279709,0.0-89.0,jspsych/neutralFaces/BF24NES.JPG,"""",null,136,13,Cue,"""","""",11/20/2020 20:14,68.129.121.198,"Mozilla/5.0 (Windows NT 10.0; WOW64) AppleWebKit/537.36 (KHTML, like Gecko) Chrome/87.0.4280.66 Safari/537.36",WebKit,Chrome,87.0.4280.66,Windows,10
2,1,null,"""",image-keyboard-response,90,279811,0.0-90.0,jspsych/neutralFaces/AM03NES.JPG,"""",null,100,13,backwardMask,"""","""",11/20/2020 20:14,68.129.121.198,"Mozilla/5.0 (Windows NT 10.0; WOW64) AppleWebKit/537.36 (KHTML, like Gecko) Chrome/87.0.4280.66 Safari/537.36",WebKit,Chrome,87.0.4280.66,Windows,10
2,1,null,"""",html-keyboard-response,91,280013,0.0-91.0,"<div style=""font-size:60px;"">+</div>","""",null,200,13,fixationBtwnNeutralMaskAndPrompt,"""","""",11/20/2020 20:14,68.129.121.198,"Mozilla/5.0 (Windows NT 10.0; WOW64) AppleWebKit/537.36 (KHTML, like Gecko) Chrome/87.0.4280.66 Safari/537.36",WebKit,Chrome,87.0.4280.66,Windows,10
2,1,102,"""",html-keyboard-response,92,280121,0.0-92.0,"<p> Did you see the ""hidden"" face? Press <b>0</b> if you did <i>not</i>, <b>1</b> if you <i>did</i>. </p>","""",49,"""",13,QueryConfidence,"""",1,11/20/2020 20:14,68.129.121.198,"Mozilla/5.0 (Windows NT 10.0; WOW64) AppleWebKit/537.36 (KHTML, like Gecko) Chrome/87.0.4280.66 Safari/537.36",WebKit,Chrome,87.0.4280.66,Windows,10
2,1,17,"""",html-keyboard-response,93,280140,0.0-93.0,"<p> What was the emotion of the hidden face? Go with your gut if you are not certain. <br> Press, <b>0</b> for <i>neutral face</i> or <b>1</b> for <i>disgust face</i></p>","""",48,"""",13,Query,"""",0,11/20/2020 20:14,68.129.121.198,"Mozilla/5.0 (Windows NT 10.0; WOW64) AppleWebKit/537.36 (KHTML, like Gecko) Chrome/87.0.4280.66 Safari/537.36",WebKit,Chrome,87.0.4280.66,Windows,10
2,1,null,"""",html-keyboard-response,94,281141,0.0-94.0,"<div style=""font-size:60px;"">+</div>","""",null,1000,14,ITI,"""","""",11/20/2020 20:14,68.129.121.198,"Mozilla/5.0 (Windows NT 10.0; WOW64) AppleWebKit/537.36 (KHTML, like Gecko) Chrome/87.0.4280.66 Safari/537.36",WebKit,Chrome,87.0.4280.66,Windows,10
2,1,null,"""",image-keyboard-response,95,281394,0.0-95.0,jspsych/scrambledDisgustFaces/scrambledBF10DIS.JPG,"""",null,250,14,forwardMask,1,"""",11/20/2020 20:14,68.129.121.198,"Mozilla/5.0 (Windows NT 10.0; WOW64) AppleWebKit/537.36 (KHTML, like Gecko) Chrome/87.0.4280.66 Safari/537.36",WebKit,Chrome,87.0.4280.66,Windows,10
2,1,null,"""",image-keyboard-response,96,281530,0.0-96.0,jspsych/disgustFaces/BF10DIS.JPG,"""",null,136,14,Cue,"""","""",11/20/2020 20:14,68.129.121.198,"Mozilla/5.0 (Windows NT 10.0; WOW64) AppleWebKit/537.36 (KHTML, like Gecko) Chrome/87.0.4280.66 Safari/537.36",WebKit,Chrome,87.0.4280.66,Windows,10
2,1,null,"""",image-keyboard-response,97,281632,0.0-97.0,jspsych/neutralFaces/AM23NES.JPG,"""",null,100,14,backwardMask,"""","""",11/20/2020 20:14,68.129.121.198,"Mozilla/5.0 (Windows NT 10.0; WOW64) AppleWebKit/537.36 (KHTML, like Gecko) Chrome/87.0.4280.66 Safari/537.36",WebKit,Chrome,87.0.4280.66,Windows,10
2,1,null,"""",html-keyboard-response,98,281833,0.0-98.0,"<div style=""font-size:60px;"">+</div>","""",null,200,14,fixationBtwnNeutralMaskAndPrompt,"""","""",11/20/2020 20:14,68.129.121.198,"Mozilla/5.0 (Windows NT 10.0; WOW64) AppleWebKit/537.36 (KHTML, like Gecko) Chrome/87.0.4280.66 Safari/537.36",WebKit,Chrome,87.0.4280.66,Windows,10
2,1,172,"""",html-keyboard-response,99,282006,0.0-99.0,"<p> Did you see the ""hidden"" face? Press <b>0</b> if you did <i>not</i>, <b>1</b> if you <i>did</i>. </p>","""",48,"""",14,QueryConfidence,"""",0,11/20/2020 20:14,68.129.121.198,"Mozilla/5.0 (Windows NT 10.0; WOW64) AppleWebKit/537.36 (KHTML, like Gecko) Chrome/87.0.4280.66 Safari/537.36",WebKit,Chrome,87.0.4280.66,Windows,10
2,1,31,"""",html-keyboard-response,100,282038,0.0-100.0,"<p> What was the emotion of the hidden face? Go with your gut if you are not certain. <br> Press, <b>0</b> for <i>neutral face</i> or <b>1</b> for <i>disgust face</i></p>","""",49,"""",14,Query,"""",1,11/20/2020 20:14,68.129.121.198,"Mozilla/5.0 (Windows NT 10.0; WOW64) AppleWebKit/537.36 (KHTML, like Gecko) Chrome/87.0.4280.66 Safari/537.36",WebKit,Chrome,87.0.4280.66,Windows,10
2,1,null,"""",html-keyboard-response,101,283039,0.0-101.0,"<div style=""font-size:60px;"">+</div>","""",null,1000,15,ITI,"""","""",11/20/2020 20:14,68.129.121.198,"Mozilla/5.0 (Windows NT 10.0; WOW64) AppleWebKit/537.36 (KHTML, like Gecko) Chrome/87.0.4280.66 Safari/537.36",WebKit,Chrome,87.0.4280.66,Windows,10
2,1,null,"""",image-keyboard-response,102,283291,0.0-102.0,jspsych/scrambledNeutralFaces/scrambledBM05NES.JPG,"""",null,250,15,forwardMask,0,"""",11/20/2020 20:14,68.129.121.198,"Mozilla/5.0 (Windows NT 10.0; WOW64) AppleWebKit/537.36 (KHTML, like Gecko) Chrome/87.0.4280.66 Safari/537.36",WebKit,Chrome,87.0.4280.66,Windows,10
2,1,null,"""",image-keyboard-response,103,283341,0.0-103.0,jspsych/neutralFaces/BM05NES.JPG,"""",null,49,15,Cue,"""","""",11/20/2020 20:14,68.129.121.198,"Mozilla/5.0 (Windows NT 10.0; WOW64) AppleWebKit/537.36 (KHTML, like Gecko) Chrome/87.0.4280.66 Safari/537.36",WebKit,Chrome,87.0.4280.66,Windows,10
2,1,null,"""",image-keyboard-response,104,283442,0.0-104.0,jspsych/neutralFaces/BF05NES.JPG,"""",null,100,15,backwardMask,"""","""",11/20/2020 20:14,68.129.121.198,"Mozilla/5.0 (Windows NT 10.0; WOW64) AppleWebKit/537.36 (KHTML, like Gecko) Chrome/87.0.4280.66 Safari/537.36",WebKit,Chrome,87.0.4280.66,Windows,10
2,1,null,"""",html-keyboard-response,105,283644,0.0-105.0,"<div style=""font-size:60px;"">+</div>","""",null,200,15,fixationBtwnNeutralMaskAndPrompt,"""","""",11/20/2020 20:14,68.129.121.198,"Mozilla/5.0 (Windows NT 10.0; WOW64) AppleWebKit/537.36 (KHTML, like Gecko) Chrome/87.0.4280.66 Safari/537.36",WebKit,Chrome,87.0.4280.66,Windows,10
2,1,65,"""",html-keyboard-response,106,283721,0.0-106.0,"<p> Did you see the ""hidden"" face? Press <b>0</b> if you did <i>not</i>, <b>1</b> if you <i>did</i>. </p>","""",48,"""",15,QueryConfidence,"""",0,11/20/2020 20:14,68.129.121.198,"Mozilla/5.0 (Windows NT 10.0; WOW64) AppleWebKit/537.36 (KHTML, like Gecko) Chrome/87.0.4280.66 Safari/537.36",WebKit,Chrome,87.0.4280.66,Windows,10
2,1,64,"""",html-keyboard-response,107,283786,0.0-107.0,"<p> What was the emotion of the hidden face? Go with your gut if you are not certain. <br> Press, <b>0</b> for <i>neutral face</i> or <b>1</b> for <i>disgust face</i></p>","""",49,"""",15,Query,"""",1,11/20/2020 20:14,68.129.121.198,"Mozilla/5.0 (Windows NT 10.0; WOW64) AppleWebKit/537.36 (KHTML, like Gecko) Chrome/87.0.4280.66 Safari/537.36",WebKit,Chrome,87.0.4280.66,Windows,10
2,1,null,"""",html-keyboard-response,108,284786,0.0-108.0,"<div style=""font-size:60px;"">+</div>","""",null,1000,16,ITI,"""","""",11/20/2020 20:14,68.129.121.198,"Mozilla/5.0 (Windows NT 10.0; WOW64) AppleWebKit/537.36 (KHTML, like Gecko) Chrome/87.0.4280.66 Safari/537.36",WebKit,Chrome,87.0.4280.66,Windows,10
2,1,null,"""",image-keyboard-response,109,285037,0.0-109.0,jspsych/scrambledDisgustFaces/scrambledAM07DIS.JPG,"""",null,250,16,forwardMask,1,"""",11/20/2020 20:14,68.129.121.198,"Mozilla/5.0 (Windows NT 10.0; WOW64) AppleWebKit/537.36 (KHTML, like Gecko) Chrome/87.0.4280.66 Safari/537.36",WebKit,Chrome,87.0.4280.66,Windows,10
2,1,null,"""",image-keyboard-response,110,285071,0.0-110.0,jspsych/disgustFaces/AM07DIS.JPG,"""",null,33,16,Cue,"""","""",11/20/2020 20:14,68.129.121.198,"Mozilla/5.0 (Windows NT 10.0; WOW64) AppleWebKit/537.36 (KHTML, like Gecko) Chrome/87.0.4280.66 Safari/537.36",WebKit,Chrome,87.0.4280.66,Windows,10
2,1,null,"""",image-keyboard-response,111,285173,0.0-111.0,jspsych/neutralFaces/BF32NES.JPG,"""",null,100,16,backwardMask,"""","""",11/20/2020 20:14,68.129.121.198,"Mozilla/5.0 (Windows NT 10.0; WOW64) AppleWebKit/537.36 (KHTML, like Gecko) Chrome/87.0.4280.66 Safari/537.36",WebKit,Chrome,87.0.4280.66,Windows,10
2,1,null,"""",html-keyboard-response,112,285374,0.0-112.0,"<div style=""font-size:60px;"">+</div>","""",null,200,16,fixationBtwnNeutralMaskAndPrompt,"""","""",11/20/2020 20:14,68.129.121.198,"Mozilla/5.0 (Windows NT 10.0; WOW64) AppleWebKit/537.36 (KHTML, like Gecko) Chrome/87.0.4280.66 Safari/537.36",WebKit,Chrome,87.0.4280.66,Windows,10
2,1,11,"""",html-keyboard-response,113,285386,0.0-113.0,"<p> Did you see the ""hidden"" face? Press <b>0</b> if you did <i>not</i>, <b>1</b> if you <i>did</i>. </p>","""",49,"""",16,QueryConfidence,"""",1,11/20/2020 20:14,68.129.121.198,"Mozilla/5.0 (Windows NT 10.0; WOW64) AppleWebKit/537.36 (KHTML, like Gecko) Chrome/87.0.4280.66 Safari/537.36",WebKit,Chrome,87.0.4280.66,Windows,10
2,1,61,"""",html-keyboard-response,114,285448,0.0-114.0,"<p> What was the emotion of the hidden face? Go with your gut if you are not certain. <br> Press, <b>0</b> for <i>neutral face</i> or <b>1</b> for <i>disgust face</i></p>","""",48,"""",16,Query,"""",0,11/20/2020 20:14,68.129.121.198,"Mozilla/5.0 (Windows NT 10.0; WOW64) AppleWebKit/537.36 (KHTML, like Gecko) Chrome/87.0.4280.66 Safari/537.36",WebKit,Chrome,87.0.4280.66,Windows,10
2,1,null,"""",html-keyboard-response,115,286448,0.0-115.0,"<div style=""font-size:60px;"">+</div>","""",null,1000,17,ITI,"""","""",11/20/2020 20:14,68.129.121.198,"Mozilla/5.0 (Windows NT 10.0; WOW64) AppleWebKit/537.36 (KHTML, like Gecko) Chrome/87.0.4280.66 Safari/537.36",WebKit,Chrome,87.0.4280.66,Windows,10
2,1,null,"""",image-keyboard-response,116,286699,0.0-116.0,jspsych/scrambledNeutralFaces/scrambledAF35NES.JPG,"""",null,250,17,forwardMask,0,"""",11/20/2020 20:14,68.129.121.198,"Mozilla/5.0 (Windows NT 10.0; WOW64) AppleWebKit/537.36 (KHTML, like Gecko) Chrome/87.0.4280.66 Safari/537.36",WebKit,Chrome,87.0.4280.66,Windows,10
2,1,null,"""",image-keyboard-response,117,286854,0.0-117.0,jspsych/neutralFaces/AF35NES.JPG,"""",null,136,17,Cue,"""","""",11/20/2020 20:14,68.129.121.198,"Mozilla/5.0 (Windows NT 10.0; WOW64) AppleWebKit/537.36 (KHTML, like Gecko) Chrome/87.0.4280.66 Safari/537.36",WebKit,Chrome,87.0.4280.66,Windows,10
2,1,null,"""",image-keyboard-response,118,286956,0.0-118.0,jspsych/neutralFaces/BM11NES.JPG,"""",null,100,17,backwardMask,"""","""",11/20/2020 20:14,68.129.121.198,"Mozilla/5.0 (Windows NT 10.0; WOW64) AppleWebKit/537.36 (KHTML, like Gecko) Chrome/87.0.4280.66 Safari/537.36",WebKit,Chrome,87.0.4280.66,Windows,10
2,1,null,"""",html-keyboard-response,119,287157,0.0-119.0,"<div style=""font-size:60px;"">+</div>","""",null,200,17,fixationBtwnNeutralMaskAndPrompt,"""","""",11/20/2020 20:14,68.129.121.198,"Mozilla/5.0 (Windows NT 10.0; WOW64) AppleWebKit/537.36 (KHTML, like Gecko) Chrome/87.0.4280.66 Safari/537.36",WebKit,Chrome,87.0.4280.66,Windows,10
2,1,23,"""",html-keyboard-response,120,287181,0.0-120.0,"<p> Did you see the ""hidden"" face? Press <b>0</b> if you did <i>not</i>, <b>1</b> if you <i>did</i>. </p>","""",49,"""",17,QueryConfidence,"""",1,11/20/2020 20:14,68.129.121.198,"Mozilla/5.0 (Windows NT 10.0; WOW64) AppleWebKit/537.36 (KHTML, like Gecko) Chrome/87.0.4280.66 Safari/537.36",WebKit,Chrome,87.0.4280.66,Windows,10
2,1,370,"""",html-keyboard-response,121,287553,0.0-121.0,"<p> What was the emotion of the hidden face? Go with your gut if you are not certain. <br> Press, <b>0</b> for <i>neutral face</i> or <b>1</b> for <i>disgust face</i></p>","""",49,"""",17,Query,"""",1,11/20/2020 20:14,68.129.121.198,"Mozilla/5.0 (Windows NT 10.0; WOW64) AppleWebKit/537.36 (KHTML, like Gecko) Chrome/87.0.4280.66 Safari/537.36",WebKit,Chrome,87.0.4280.66,Windows,10
2,1,null,"""",html-keyboard-response,122,288559,0.0-122.0,"<div style=""font-size:60px;"">+</div>","""",null,1000,18,ITI,"""","""",11/20/2020 20:14,68.129.121.198,"Mozilla/5.0 (Windows NT 10.0; WOW64) AppleWebKit/537.36 (KHTML, like Gecko) Chrome/87.0.4280.66 Safari/537.36",WebKit,Chrome,87.0.4280.66,Windows,10
2,1,null,"""",image-keyboard-response,123,288811,0.0-123.0,jspsych/scrambledDisgustFaces/scrambledAF25DIS.JPG,"""",null,250,18,forwardMask,1,"""",11/20/2020 20:14,68.129.121.198,"Mozilla/5.0 (Windows NT 10.0; WOW64) AppleWebKit/537.36 (KHTML, like Gecko) Chrome/87.0.4280.66 Safari/537.36",WebKit,Chrome,87.0.4280.66,Windows,10
2,1,null,"""",image-keyboard-response,124,288879,0.0-124.0,jspsych/disgustFaces/AF25DIS.JPG,"""",null,66,18,Cue,"""","""",11/20/2020 20:14,68.129.121.198,"Mozilla/5.0 (Windows NT 10.0; WOW64) AppleWebKit/537.36 (KHTML, like Gecko) Chrome/87.0.4280.66 Safari/537.36",WebKit,Chrome,87.0.4280.66,Windows,10
2,1,null,"""",image-keyboard-response,125,288981,0.0-125.0,jspsych/neutralFaces/AF05NES.JPG,"""",null,100,18,backwardMask,"""","""",11/20/2020 20:14,68.129.121.198,"Mozilla/5.0 (Windows NT 10.0; WOW64) AppleWebKit/537.36 (KHTML, like Gecko) Chrome/87.0.4280.66 Safari/537.36",WebKit,Chrome,87.0.4280.66,Windows,10
2,1,null,"""",html-keyboard-response,126,289183,0.0-126.0,"<div style=""font-size:60px;"">+</div>","""",null,200,18,fixationBtwnNeutralMaskAndPrompt,"""","""",11/20/2020 20:14,68.129.121.198,"Mozilla/5.0 (Windows NT 10.0; WOW64) AppleWebKit/537.36 (KHTML, like Gecko) Chrome/87.0.4280.66 Safari/537.36",WebKit,Chrome,87.0.4280.66,Windows,10
2,1,3520,"""",html-keyboard-response,127,292703,0.0-127.0,"<p> Did you see the ""hidden"" face? Press <b>0</b> if you did <i>not</i>, <b>1</b> if you <i>did</i>. </p>","""",49,"""",18,QueryConfidence,"""",1,11/20/2020 20:14,68.129.121.198,"Mozilla/5.0 (Windows NT 10.0; WOW64) AppleWebKit/537.36 (KHTML, like Gecko) Chrome/87.0.4280.66 Safari/537.36",WebKit,Chrome,87.0.4280.66,Windows,10
2,1,645,"""",html-keyboard-response,128,293352,0.0-128.0,"<p> What was the emotion of the hidden face? Go with your gut if you are not certain. <br> Press, <b>0</b> for <i>neutral face</i> or <b>1</b> for <i>disgust face</i></p>","""",49,"""",18,Query,"""",1,11/20/2020 20:14,68.129.121.198,"Mozilla/5.0 (Windows NT 10.0; WOW64) AppleWebKit/537.36 (KHTML, like Gecko) Chrome/87.0.4280.66 Safari/537.36",WebKit,Chrome,87.0.4280.66,Windows,10
2,1,null,"""",html-keyboard-response,129,294354,0.0-129.0,"<div style=""font-size:60px;"">+</div>","""",null,1000,19,ITI,"""","""",11/20/2020 20:14,68.129.121.198,"Mozilla/5.0 (Windows NT 10.0; WOW64) AppleWebKit/537.36 (KHTML, like Gecko) Chrome/87.0.4280.66 Safari/537.36",WebKit,Chrome,87.0.4280.66,Windows,10
2,1,null,"""",image-keyboard-response,130,294606,0.0-130.0,jspsych/scrambledNeutralFaces/scrambledBF14NES.JPG,"""",null,250,19,forwardMask,0,"""",11/20/2020 20:14,68.129.121.198,"Mozilla/5.0 (Windows NT 10.0; WOW64) AppleWebKit/537.36 (KHTML, like Gecko) Chrome/87.0.4280.66 Safari/537.36",WebKit,Chrome,87.0.4280.66,Windows,10
2,1,null,"""",image-keyboard-response,131,294710,0.0-131.0,jspsych/neutralFaces/BF14NES.JPG,"""",null,104,19,Cue,"""","""",11/20/2020 20:14,68.129.121.198,"Mozilla/5.0 (Windows NT 10.0; WOW64) AppleWebKit/537.36 (KHTML, like Gecko) Chrome/87.0.4280.66 Safari/537.36",WebKit,Chrome,87.0.4280.66,Windows,10
2,1,null,"""",image-keyboard-response,132,294810,0.0-132.0,jspsych/neutralFaces/AF02NES.JPG,"""",null,100,19,backwardMask,"""","""",11/20/2020 20:14,68.129.121.198,"Mozilla/5.0 (Windows NT 10.0; WOW64) AppleWebKit/537.36 (KHTML, like Gecko) Chrome/87.0.4280.66 Safari/537.36",WebKit,Chrome,87.0.4280.66,Windows,10
2,1,null,"""",html-keyboard-response,133,295011,0.0-133.0,"<div style=""font-size:60px;"">+</div>","""",null,200,19,fixationBtwnNeutralMaskAndPrompt,"""","""",11/20/2020 20:14,68.129.121.198,"Mozilla/5.0 (Windows NT 10.0; WOW64) AppleWebKit/537.36 (KHTML, like Gecko) Chrome/87.0.4280.66 Safari/537.36",WebKit,Chrome,87.0.4280.66,Windows,10
2,1,45,"""",html-keyboard-response,134,295058,0.0-134.0,"<p> Did you see the ""hidden"" face? Press <b>0</b> if you did <i>not</i>, <b>1</b> if you <i>did</i>. </p>","""",48,"""",19,QueryConfidence,"""",0,11/20/2020 20:14,68.129.121.198,"Mozilla/5.0 (Windows NT 10.0; WOW64) AppleWebKit/537.36 (KHTML, like Gecko) Chrome/87.0.4280.66 Safari/537.36",WebKit,Chrome,87.0.4280.66,Windows,10
2,1,206,"""",html-keyboard-response,135,295265,0.0-135.0,"<p> What was the emotion of the hidden face? Go with your gut if you are not certain. <br> Press, <b>0</b> for <i>neutral face</i> or <b>1</b> for <i>disgust face</i></p>","""",49,"""",19,Query,"""",1,11/20/2020 20:14,68.129.121.198,"Mozilla/5.0 (Windows NT 10.0; WOW64) AppleWebKit/537.36 (KHTML, like Gecko) Chrome/87.0.4280.66 Safari/537.36",WebKit,Chrome,87.0.4280.66,Windows,10
2,1,null,"""",html-keyboard-response,136,296266,0.0-136.0,"<div style=""font-size:60px;"">+</div>","""",null,1000,20,ITI,"""","""",11/20/2020 20:14,68.129.121.198,"Mozilla/5.0 (Windows NT 10.0; WOW64) AppleWebKit/537.36 (KHTML, like Gecko) Chrome/87.0.4280.66 Safari/537.36",WebKit,Chrome,87.0.4280.66,Windows,10
2,1,null,"""",image-keyboard-response,137,296518,0.0-137.0,jspsych/scrambledDisgustFaces/scrambledBM13DIS.JPG,"""",null,250,20,forwardMask,1,"""",11/20/2020 20:14,68.129.121.198,"Mozilla/5.0 (Windows NT 10.0; WOW64) AppleWebKit/537.36 (KHTML, like Gecko) Chrome/87.0.4280.66 Safari/537.36",WebKit,Chrome,87.0.4280.66,Windows,10
2,1,null,"""",image-keyboard-response,138,296553,0.0-138.0,jspsych/disgustFaces/BM13DIS.JPG,"""",null,33,20,Cue,"""","""",11/20/2020 20:14,68.129.121.198,"Mozilla/5.0 (Windows NT 10.0; WOW64) AppleWebKit/537.36 (KHTML, like Gecko) Chrome/87.0.4280.66 Safari/537.36",WebKit,Chrome,87.0.4280.66,Windows,10
2,1,null,"""",image-keyboard-response,139,296654,0.0-139.0,jspsych/neutralFaces/BM07NES.JPG,"""",null,100,20,backwardMask,"""","""",11/20/2020 20:14,68.129.121.198,"Mozilla/5.0 (Windows NT 10.0; WOW64) AppleWebKit/537.36 (KHTML, like Gecko) Chrome/87.0.4280.66 Safari/537.36",WebKit,Chrome,87.0.4280.66,Windows,10
2,1,null,"""",html-keyboard-response,140,296854,0.0-140.0,"<div style=""font-size:60px;"">+</div>","""",null,200,20,fixationBtwnNeutralMaskAndPrompt,"""","""",11/20/2020 20:14,68.129.121.198,"Mozilla/5.0 (Windows NT 10.0; WOW64) AppleWebKit/537.36 (KHTML, like Gecko) Chrome/87.0.4280.66 Safari/537.36",WebKit,Chrome,87.0.4280.66,Windows,10
2,1,40,"""",html-keyboard-response,141,296895,0.0-141.0,"<p> Did you see the ""hidden"" face? Press <b>0</b> if you did <i>not</i>, <b>1</b> if you <i>did</i>. </p>","""",48,"""",20,QueryConfidence,"""",0,11/20/2020 20:14,68.129.121.198,"Mozilla/5.0 (Windows NT 10.0; WOW64) AppleWebKit/537.36 (KHTML, like Gecko) Chrome/87.0.4280.66 Safari/537.36",WebKit,Chrome,87.0.4280.66,Windows,10
2,1,227,"""",html-keyboard-response,142,297123,0.0-142.0,"<p> What was the emotion of the hidden face? Go with your gut if you are not certain. <br> Press, <b>0</b> for <i>neutral face</i> or <b>1</b> for <i>disgust face</i></p>","""",48,"""",20,Query,"""",0,11/20/2020 20:14,68.129.121.198,"Mozilla/5.0 (Windows NT 10.0; WOW64) AppleWebKit/537.36 (KHTML, like Gecko) Chrome/87.0.4280.66 Safari/537.36",WebKit,Chrome,87.0.4280.66,Windows,10
2,1,null,"""",html-keyboard-response,143,298125,0.0-143.0,"<div style=""font-size:60px;"">+</div>","""",null,1000,21,ITI,"""","""",11/20/2020 20:14,68.129.121.198,"Mozilla/5.0 (Windows NT 10.0; WOW64) AppleWebKit/537.36 (KHTML, like Gecko) Chrome/87.0.4280.66 Safari/537.36",WebKit,Chrome,87.0.4280.66,Windows,10
2,1,null,"""",image-keyboard-response,144,298387,0.0-144.0,jspsych/scrambledDisgustFaces/scrambledAF12DIS.JPG,"""",null,250,21,forwardMask,1,"""",11/20/2020 20:14,68.129.121.198,"Mozilla/5.0 (Windows NT 10.0; WOW64) AppleWebKit/537.36 (KHTML, like Gecko) Chrome/87.0.4280.66 Safari/537.36",WebKit,Chrome,87.0.4280.66,Windows,10
2,1,null,"""",image-keyboard-response,145,298421,0.0-145.0,jspsych/disgustFaces/AF12DIS.JPG,"""",null,33,21,Cue,"""","""",11/20/2020 20:14,68.129.121.198,"Mozilla/5.0 (Windows NT 10.0; WOW64) AppleWebKit/537.36 (KHTML, like Gecko) Chrome/87.0.4280.66 Safari/537.36",WebKit,Chrome,87.0.4280.66,Windows,10
2,1,null,"""",image-keyboard-response,146,298523,0.0-146.0,jspsych/neutralFaces/AM09NES.JPG,"""",null,100,21,backwardMask,"""","""",11/20/2020 20:14,68.129.121.198,"Mozilla/5.0 (Windows NT 10.0; WOW64) AppleWebKit/537.36 (KHTML, like Gecko) Chrome/87.0.4280.66 Safari/537.36",WebKit,Chrome,87.0.4280.66,Windows,10
2,1,null,"""",html-keyboard-response,147,298725,0.0-147.0,"<div style=""font-size:60px;"">+</div>","""",null,200,21,fixationBtwnNeutralMaskAndPrompt,"""","""",11/20/2020 20:14,68.129.121.198,"Mozilla/5.0 (Windows NT 10.0; WOW64) AppleWebKit/537.36 (KHTML, like Gecko) Chrome/87.0.4280.66 Safari/537.36",WebKit,Chrome,87.0.4280.66,Windows,10
2,1,30,"""",html-keyboard-response,148,298756,0.0-148.0,"<p> Did you see the ""hidden"" face? Press <b>0</b> if you did <i>not</i>, <b>1</b> if you <i>did</i>. </p>","""",48,"""",21,QueryConfidence,"""",0,11/20/2020 20:14,68.129.121.198,"Mozilla/5.0 (Windows NT 10.0; WOW64) AppleWebKit/537.36 (KHTML, like Gecko) Chrome/87.0.4280.66 Safari/537.36",WebKit,Chrome,87.0.4280.66,Windows,10
2,1,44,"""",html-keyboard-response,149,298801,0.0-149.0,"<p> What was the emotion of the hidden face? Go with your gut if you are not certain. <br> Press, <b>0</b> for <i>neutral face</i> or <b>1</b> for <i>disgust face</i></p>","""",49,"""",21,Query,"""",1,11/20/2020 20:14,68.129.121.198,"Mozilla/5.0 (Windows NT 10.0; WOW64) AppleWebKit/537.36 (KHTML, like Gecko) Chrome/87.0.4280.66 Safari/537.36",WebKit,Chrome,87.0.4280.66,Windows,10
2,1,null,"""",html-keyboard-response,150,299803,0.0-150.0,"<div style=""font-size:60px;"">+</div>","""",null,1000,22,ITI,"""","""",11/20/2020 20:14,68.129.121.198,"Mozilla/5.0 (Windows NT 10.0; WOW64) AppleWebKit/537.36 (KHTML, like Gecko) Chrome/87.0.4280.66 Safari/537.36",WebKit,Chrome,87.0.4280.66,Windows,10
2,1,null,"""",image-keyboard-response,151,300055,0.0-151.0,jspsych/scrambledNeutralFaces/scrambledAF34NES.JPG,"""",null,250,22,forwardMask,0,"""",11/20/2020 20:14,68.129.121.198,"Mozilla/5.0 (Windows NT 10.0; WOW64) AppleWebKit/537.36 (KHTML, like Gecko) Chrome/87.0.4280.66 Safari/537.36",WebKit,Chrome,87.0.4280.66,Windows,10
2,1,null,"""",image-keyboard-response,152,300090,0.0-152.0,jspsych/neutralFaces/AF34NES.JPG,"""",null,33,22,Cue,"""","""",11/20/2020 20:14,68.129.121.198,"Mozilla/5.0 (Windows NT 10.0; WOW64) AppleWebKit/537.36 (KHTML, like Gecko) Chrome/87.0.4280.66 Safari/537.36",WebKit,Chrome,87.0.4280.66,Windows,10
2,1,null,"""",image-keyboard-response,153,300192,0.0-153.0,jspsych/neutralFaces/AM13NES.JPG,"""",null,100,22,backwardMask,"""","""",11/20/2020 20:14,68.129.121.198,"Mozilla/5.0 (Windows NT 10.0; WOW64) AppleWebKit/537.36 (KHTML, like Gecko) Chrome/87.0.4280.66 Safari/537.36",WebKit,Chrome,87.0.4280.66,Windows,10
2,1,null,"""",html-keyboard-response,154,300393,0.0-154.0,"<div style=""font-size:60px;"">+</div>","""",null,200,22,fixationBtwnNeutralMaskAndPrompt,"""","""",11/20/2020 20:14,68.129.121.198,"Mozilla/5.0 (Windows NT 10.0; WOW64) AppleWebKit/537.36 (KHTML, like Gecko) Chrome/87.0.4280.66 Safari/537.36",WebKit,Chrome,87.0.4280.66,Windows,10
2,1,186,"""",html-keyboard-response,155,300580,0.0-155.0,"<p> Did you see the ""hidden"" face? Press <b>0</b> if you did <i>not</i>, <b>1</b> if you <i>did</i>. </p>","""",49,"""",22,QueryConfidence,"""",1,11/20/2020 20:14,68.129.121.198,"Mozilla/5.0 (Windows NT 10.0; WOW64) AppleWebKit/537.36 (KHTML, like Gecko) Chrome/87.0.4280.66 Safari/537.36",WebKit,Chrome,87.0.4280.66,Windows,10
2,1,37,"""",html-keyboard-response,156,300618,0.0-156.0,"<p> What was the emotion of the hidden face? Go with your gut if you are not certain. <br> Press, <b>0</b> for <i>neutral face</i> or <b>1</b> for <i>disgust face</i></p>","""",48,"""",22,Query,"""",0,11/20/2020 20:14,68.129.121.198,"Mozilla/5.0 (Windows NT 10.0; WOW64) AppleWebKit/537.36 (KHTML, like Gecko) Chrome/87.0.4280.66 Safari/537.36",WebKit,Chrome,87.0.4280.66,Windows,10
2,1,null,"""",html-keyboard-response,157,301618,0.0-157.0,"<div style=""font-size:60px;"">+</div>","""",null,1000,23,ITI,"""","""",11/20/2020 20:14,68.129.121.198,"Mozilla/5.0 (Windows NT 10.0; WOW64) AppleWebKit/537.36 (KHTML, like Gecko) Chrome/87.0.4280.66 Safari/537.36",WebKit,Chrome,87.0.4280.66,Windows,10
2,1,null,"""",image-keyboard-response,158,301869,0.0-158.0,jspsych/scrambledDisgustFaces/scrambledBF09DIS.JPG,"""",null,250,23,forwardMask,1,"""",11/20/2020 20:14,68.129.121.198,"Mozilla/5.0 (Windows NT 10.0; WOW64) AppleWebKit/537.36 (KHTML, like Gecko) Chrome/87.0.4280.66 Safari/537.36",WebKit,Chrome,87.0.4280.66,Windows,10
2,1,null,"""",image-keyboard-response,159,301919,0.0-159.0,jspsych/disgustFaces/BF09DIS.JPG,"""",null,49,23,Cue,"""","""",11/20/2020 20:14,68.129.121.198,"Mozilla/5.0 (Windows NT 10.0; WOW64) AppleWebKit/537.36 (KHTML, like Gecko) Chrome/87.0.4280.66 Safari/537.36",WebKit,Chrome,87.0.4280.66,Windows,10
2,1,null,"""",image-keyboard-response,160,302021,0.0-160.0,jspsych/neutralFaces/AM27NES.JPG,"""",null,100,23,backwardMask,"""","""",11/20/2020 20:14,68.129.121.198,"Mozilla/5.0 (Windows NT 10.0; WOW64) AppleWebKit/537.36 (KHTML, like Gecko) Chrome/87.0.4280.66 Safari/537.36",WebKit,Chrome,87.0.4280.66,Windows,10
2,1,null,"""",html-keyboard-response,161,302222,0.0-161.0,"<div style=""font-size:60px;"">+</div>","""",null,200,23,fixationBtwnNeutralMaskAndPrompt,"""","""",11/20/2020 20:14,68.129.121.198,"Mozilla/5.0 (Windows NT 10.0; WOW64) AppleWebKit/537.36 (KHTML, like Gecko) Chrome/87.0.4280.66 Safari/537.36",WebKit,Chrome,87.0.4280.66,Windows,10
2,1,100,"""",html-keyboard-response,162,302322,0.0-162.0,"<p> Did you see the ""hidden"" face? Press <b>0</b> if you did <i>not</i>, <b>1</b> if you <i>did</i>. </p>","""",49,"""",23,QueryConfidence,"""",1,11/20/2020 20:14,68.129.121.198,"Mozilla/5.0 (Windows NT 10.0; WOW64) AppleWebKit/537.36 (KHTML, like Gecko) Chrome/87.0.4280.66 Safari/537.36",WebKit,Chrome,87.0.4280.66,Windows,10
2,1,77,"""",html-keyboard-response,163,302401,0.0-163.0,"<p> What was the emotion of the hidden face? Go with your gut if you are not certain. <br> Press, <b>0</b> for <i>neutral face</i> or <b>1</b> for <i>disgust face</i></p>","""",48,"""",23,Query,"""",0,11/20/2020 20:14,68.129.121.198,"Mozilla/5.0 (Windows NT 10.0; WOW64) AppleWebKit/537.36 (KHTML, like Gecko) Chrome/87.0.4280.66 Safari/537.36",WebKit,Chrome,87.0.4280.66,Windows,10
2,1,null,"""",html-keyboard-response,164,303402,0.0-164.0,"<div style=""font-size:60px;"">+</div>","""",null,1000,24,ITI,"""","""",11/20/2020 20:14,68.129.121.198,"Mozilla/5.0 (Windows NT 10.0; WOW64) AppleWebKit/537.36 (KHTML, like Gecko) Chrome/87.0.4280.66 Safari/537.36",WebKit,Chrome,87.0.4280.66,Windows,10
2,1,null,"""",image-keyboard-response,165,303654,0.0-165.0,jspsych/scrambledNeutralFaces/scrambledBM04NES.JPG,"""",null,250,24,forwardMask,0,"""",11/20/2020 20:14,68.129.121.198,"Mozilla/5.0 (Windows NT 10.0; WOW64) AppleWebKit/537.36 (KHTML, like Gecko) Chrome/87.0.4280.66 Safari/537.36",WebKit,Chrome,87.0.4280.66,Windows,10
2,1,null,"""",image-keyboard-response,166,303675,0.0-166.0,jspsych/neutralFaces/BM04NES.JPG,"""",null,16,24,Cue,"""","""",11/20/2020 20:14,68.129.121.198,"Mozilla/5.0 (Windows NT 10.0; WOW64) AppleWebKit/537.36 (KHTML, like Gecko) Chrome/87.0.4280.66 Safari/537.36",WebKit,Chrome,87.0.4280.66,Windows,10
2,1,null,"""",image-keyboard-response,167,303777,0.0-167.0,jspsych/neutralFaces/BM35NES.JPG,"""",null,100,24,backwardMask,"""","""",11/20/2020 20:14,68.129.121.198,"Mozilla/5.0 (Windows NT 10.0; WOW64) AppleWebKit/537.36 (KHTML, like Gecko) Chrome/87.0.4280.66 Safari/537.36",WebKit,Chrome,87.0.4280.66,Windows,10
2,1,null,"""",html-keyboard-response,168,303979,0.0-168.0,"<div style=""font-size:60px;"">+</div>","""",null,200,24,fixationBtwnNeutralMaskAndPrompt,"""","""",11/20/2020 20:14,68.129.121.198,"Mozilla/5.0 (Windows NT 10.0; WOW64) AppleWebKit/537.36 (KHTML, like Gecko) Chrome/87.0.4280.66 Safari/537.36",WebKit,Chrome,87.0.4280.66,Windows,10
2,1,18,"""",html-keyboard-response,169,303998,0.0-169.0,"<p> Did you see the ""hidden"" face? Press <b>0</b> if you did <i>not</i>, <b>1</b> if you <i>did</i>. </p>","""",48,"""",24,QueryConfidence,"""",0,11/20/2020 20:14,68.129.121.198,"Mozilla/5.0 (Windows NT 10.0; WOW64) AppleWebKit/537.36 (KHTML, like Gecko) Chrome/87.0.4280.66 Safari/537.36",WebKit,Chrome,87.0.4280.66,Windows,10
2,1,32,"""",html-keyboard-response,170,304031,0.0-170.0,"<p> What was the emotion of the hidden face? Go with your gut if you are not certain. <br> Press, <b>0</b> for <i>neutral face</i> or <b>1</b> for <i>disgust face</i></p>","""",49,"""",24,Query,"""",1,11/20/2020 20:14,68.129.121.198,"Mozilla/5.0 (Windows NT 10.0; WOW64) AppleWebKit/537.36 (KHTML, like Gecko) Chrome/87.0.4280.66 Safari/537.36",WebKit,Chrome,87.0.4280.66,Windows,10
2,1,null,"""",html-keyboard-response,171,305032,0.0-171.0,"<div style=""font-size:60px;"">+</div>","""",null,1000,25,ITI,"""","""",11/20/2020 20:14,68.129.121.198,"Mozilla/5.0 (Windows NT 10.0; WOW64) AppleWebKit/537.36 (KHTML, like Gecko) Chrome/87.0.4280.66 Safari/537.36",WebKit,Chrome,87.0.4280.66,Windows,10
2,1,null,"""",image-keyboard-response,172,305283,0.0-172.0,jspsych/scrambledNeutralFaces/scrambledAM25NES.JPG,"""",null,250,25,forwardMask,0,"""",11/20/2020 20:14,68.129.121.198,"Mozilla/5.0 (Windows NT 10.0; WOW64) AppleWebKit/537.36 (KHTML, like Gecko) Chrome/87.0.4280.66 Safari/537.36",WebKit,Chrome,87.0.4280.66,Windows,10
2,1,null,"""",image-keyboard-response,173,305351,0.0-173.0,jspsych/neutralFaces/AM25NES.JPG,"""",null,66,25,Cue,"""","""",11/20/2020 20:14,68.129.121.198,"Mozilla/5.0 (Windows NT 10.0; WOW64) AppleWebKit/537.36 (KHTML, like Gecko) Chrome/87.0.4280.66 Safari/537.36",WebKit,Chrome,87.0.4280.66,Windows,10
2,1,null,"""",image-keyboard-response,174,305452,0.0-174.0,jspsych/neutralFaces/AM33NES.JPG,"""",null,100,25,backwardMask,"""","""",11/20/2020 20:14,68.129.121.198,"Mozilla/5.0 (Windows NT 10.0; WOW64) AppleWebKit/537.36 (KHTML, like Gecko) Chrome/87.0.4280.66 Safari/537.36",WebKit,Chrome,87.0.4280.66,Windows,10
2,1,null,"""",html-keyboard-response,175,305653,0.0-175.0,"<div style=""font-size:60px;"">+</div>","""",null,200,25,fixationBtwnNeutralMaskAndPrompt,"""","""",11/20/2020 20:14,68.129.121.198,"Mozilla/5.0 (Windows NT 10.0; WOW64) AppleWebKit/537.36 (KHTML, like Gecko) Chrome/87.0.4280.66 Safari/537.36",WebKit,Chrome,87.0.4280.66,Windows,10
2,1,58,"""",html-keyboard-response,176,305713,0.0-176.0,"<p> Did you see the ""hidden"" face? Press <b>0</b> if you did <i>not</i>, <b>1</b> if you <i>did</i>. </p>","""",49,"""",25,QueryConfidence,"""",1,11/20/2020 20:14,68.129.121.198,"Mozilla/5.0 (Windows NT 10.0; WOW64) AppleWebKit/537.36 (KHTML, like Gecko) Chrome/87.0.4280.66 Safari/537.36",WebKit,Chrome,87.0.4280.66,Windows,10
2,1,41,"""",html-keyboard-response,177,305755,0.0-177.0,"<p> What was the emotion of the hidden face? Go with your gut if you are not certain. <br> Press, <b>0</b> for <i>neutral face</i> or <b>1</b> for <i>disgust face</i></p>","""",48,"""",25,Query,"""",0,11/20/2020 20:14,68.129.121.198,"Mozilla/5.0 (Windows NT 10.0; WOW64) AppleWebKit/537.36 (KHTML, like Gecko) Chrome/87.0.4280.66 Safari/537.36",WebKit,Chrome,87.0.4280.66,Windows,10
2,1,null,"""",html-keyboard-response,178,306756,0.0-178.0,"<div style=""font-size:60px;"">+</div>","""",null,1000,26,ITI,"""","""",11/20/2020 20:14,68.129.121.198,"Mozilla/5.0 (Windows NT 10.0; WOW64) AppleWebKit/537.36 (KHTML, like Gecko) Chrome/87.0.4280.66 Safari/537.36",WebKit,Chrome,87.0.4280.66,Windows,10
2,1,null,"""",image-keyboard-response,179,307008,0.0-179.0,jspsych/scrambledDisgustFaces/scrambledBF25DIS.JPG,"""",null,250,26,forwardMask,1,"""",11/20/2020 20:14,68.129.121.198,"Mozilla/5.0 (Windows NT 10.0; WOW64) AppleWebKit/537.36 (KHTML, like Gecko) Chrome/87.0.4280.66 Safari/537.36",WebKit,Chrome,87.0.4280.66,Windows,10
2,1,null,"""",image-keyboard-response,180,307043,0.0-180.0,jspsych/disgustFaces/BF25DIS.JPG,"""",null,33,26,Cue,"""","""",11/20/2020 20:14,68.129.121.198,"Mozilla/5.0 (Windows NT 10.0; WOW64) AppleWebKit/537.36 (KHTML, like Gecko) Chrome/87.0.4280.66 Safari/537.36",WebKit,Chrome,87.0.4280.66,Windows,10
2,1,null,"""",image-keyboard-response,181,307145,0.0-181.0,jspsych/neutralFaces/AF22NES.JPG,"""",null,100,26,backwardMask,"""","""",11/20/2020 20:14,68.129.121.198,"Mozilla/5.0 (Windows NT 10.0; WOW64) AppleWebKit/537.36 (KHTML, like Gecko) Chrome/87.0.4280.66 Safari/537.36",WebKit,Chrome,87.0.4280.66,Windows,10
2,1,null,"""",html-keyboard-response,182,307347,0.0-182.0,"<div style=""font-size:60px;"">+</div>","""",null,200,26,fixationBtwnNeutralMaskAndPrompt,"""","""",11/20/2020 20:14,68.129.121.198,"Mozilla/5.0 (Windows NT 10.0; WOW64) AppleWebKit/537.36 (KHTML, like Gecko) Chrome/87.0.4280.66 Safari/537.36",WebKit,Chrome,87.0.4280.66,Windows,10
2,1,5.000000001,"""",html-keyboard-response,183,307353,0.0-183.0,"<p> Did you see the ""hidden"" face? Press <b>0</b> if you did <i>not</i>, <b>1</b> if you <i>did</i>. </p>","""",48,"""",26,QueryConfidence,"""",0,11/20/2020 20:14,68.129.121.198,"Mozilla/5.0 (Windows NT 10.0; WOW64) AppleWebKit/537.36 (KHTML, like Gecko) Chrome/87.0.4280.66 Safari/537.36",WebKit,Chrome,87.0.4280.66,Windows,10
2,1,215,"""",html-keyboard-response,184,307569,0.0-184.0,"<p> What was the emotion of the hidden face? Go with your gut if you are not certain. <br> Press, <b>0</b> for <i>neutral face</i> or <b>1</b> for <i>disgust face</i></p>","""",49,"""",26,Query,"""",1,11/20/2020 20:14,68.129.121.198,"Mozilla/5.0 (Windows NT 10.0; WOW64) AppleWebKit/537.36 (KHTML, like Gecko) Chrome/87.0.4280.66 Safari/537.36",WebKit,Chrome,87.0.4280.66,Windows,10
2,1,null,"""",html-keyboard-response,185,308574,0.0-185.0,"<div style=""font-size:60px;"">+</div>","""",null,1000,27,ITI,"""","""",11/20/2020 20:14,68.129.121.198,"Mozilla/5.0 (Windows NT 10.0; WOW64) AppleWebKit/537.36 (KHTML, like Gecko) Chrome/87.0.4280.66 Safari/537.36",WebKit,Chrome,87.0.4280.66,Windows,10
2,1,null,"""",image-keyboard-response,186,308825,0.0-186.0,jspsych/scrambledNeutralFaces/scrambledAF19NES.JPG,"""",null,250,27,forwardMask,0,"""",11/20/2020 20:14,68.129.121.198,"Mozilla/5.0 (Windows NT 10.0; WOW64) AppleWebKit/537.36 (KHTML, like Gecko) Chrome/87.0.4280.66 Safari/537.36",WebKit,Chrome,87.0.4280.66,Windows,10
2,1,null,"""",image-keyboard-response,187,308876,0.0-187.0,jspsych/neutralFaces/AF19NES.JPG,"""",null,49,27,Cue,"""","""",11/20/2020 20:14,68.129.121.198,"Mozilla/5.0 (Windows NT 10.0; WOW64) AppleWebKit/537.36 (KHTML, like Gecko) Chrome/87.0.4280.66 Safari/537.36",WebKit,Chrome,87.0.4280.66,Windows,10
2,1,null,"""",image-keyboard-response,188,308978,0.0-188.0,jspsych/neutralFaces/BM21NES.JPG,"""",null,100,27,backwardMask,"""","""",11/20/2020 20:14,68.129.121.198,"Mozilla/5.0 (Windows NT 10.0; WOW64) AppleWebKit/537.36 (KHTML, like Gecko) Chrome/87.0.4280.66 Safari/537.36",WebKit,Chrome,87.0.4280.66,Windows,10
2,1,null,"""",html-keyboard-response,189,309179,0.0-189.0,"<div style=""font-size:60px;"">+</div>","""",null,200,27,fixationBtwnNeutralMaskAndPrompt,"""","""",11/20/2020 20:14,68.129.121.198,"Mozilla/5.0 (Windows NT 10.0; WOW64) AppleWebKit/537.36 (KHTML, like Gecko) Chrome/87.0.4280.66 Safari/537.36",WebKit,Chrome,87.0.4280.66,Windows,10
2,1,222,"""",html-keyboard-response,190,309402,0.0-190.0,"<p> Did you see the ""hidden"" face? Press <b>0</b> if you did <i>not</i>, <b>1</b> if you <i>did</i>. </p>","""",49,"""",27,QueryConfidence,"""",1,11/20/2020 20:14,68.129.121.198,"Mozilla/5.0 (Windows NT 10.0; WOW64) AppleWebKit/537.36 (KHTML, like Gecko) Chrome/87.0.4280.66 Safari/537.36",WebKit,Chrome,87.0.4280.66,Windows,10
2,1,6.000000001,"""",html-keyboard-response,191,309410,0.0-191.0,"<p> What was the emotion of the hidden face? Go with your gut if you are not certain. <br> Press, <b>0</b> for <i>neutral face</i> or <b>1</b> for <i>disgust face</i></p>","""",48,"""",27,Query,"""",0,11/20/2020 20:14,68.129.121.198,"Mozilla/5.0 (Windows NT 10.0; WOW64) AppleWebKit/537.36 (KHTML, like Gecko) Chrome/87.0.4280.66 Safari/537.36",WebKit,Chrome,87.0.4280.66,Windows,10
2,1,null,"""",html-keyboard-response,192,310411,0.0-192.0,"<div style=""font-size:60px;"">+</div>","""",null,1000,28,ITI,"""","""",11/20/2020 20:14,68.129.121.198,"Mozilla/5.0 (Windows NT 10.0; WOW64) AppleWebKit/537.36 (KHTML, like Gecko) Chrome/87.0.4280.66 Safari/537.36",WebKit,Chrome,87.0.4280.66,Windows,10
2,1,null,"""",image-keyboard-response,193,310663,0.0-193.0,jspsych/scrambledDisgustFaces/scrambledAM17DIS.JPG,"""",null,250,28,forwardMask,1,"""",11/20/2020 20:14,68.129.121.198,"Mozilla/5.0 (Windows NT 10.0; WOW64) AppleWebKit/537.36 (KHTML, like Gecko) Chrome/87.0.4280.66 Safari/537.36",WebKit,Chrome,87.0.4280.66,Windows,10
2,1,null,"""",image-keyboard-response,194,310697,0.0-194.0,jspsych/disgustFaces/AM17DIS.JPG,"""",null,33,28,Cue,"""","""",11/20/2020 20:14,68.129.121.198,"Mozilla/5.0 (Windows NT 10.0; WOW64) AppleWebKit/537.36 (KHTML, like Gecko) Chrome/87.0.4280.66 Safari/537.36",WebKit,Chrome,87.0.4280.66,Windows,10
2,1,null,"""",image-keyboard-response,195,310798,0.0-195.0,jspsych/neutralFaces/AF21NES.JPG,"""",null,100,28,backwardMask,"""","""",11/20/2020 20:14,68.129.121.198,"Mozilla/5.0 (Windows NT 10.0; WOW64) AppleWebKit/537.36 (KHTML, like Gecko) Chrome/87.0.4280.66 Safari/537.36",WebKit,Chrome,87.0.4280.66,Windows,10
2,1,null,"""",html-keyboard-response,196,310999,0.0-196.0,"<div style=""font-size:60px;"">+</div>","""",null,200,28,fixationBtwnNeutralMaskAndPrompt,"""","""",11/20/2020 20:14,68.129.121.198,"Mozilla/5.0 (Windows NT 10.0; WOW64) AppleWebKit/537.36 (KHTML, like Gecko) Chrome/87.0.4280.66 Safari/537.36",WebKit,Chrome,87.0.4280.66,Windows,10
2,1,146,"""",html-keyboard-response,197,311146,0.0-197.0,"<p> Did you see the ""hidden"" face? Press <b>0</b> if you did <i>not</i>, <b>1</b> if you <i>did</i>. </p>","""",48,"""",28,QueryConfidence,"""",0,11/20/2020 20:14,68.129.121.198,"Mozilla/5.0 (Windows NT 10.0; WOW64) AppleWebKit/537.36 (KHTML, like Gecko) Chrome/87.0.4280.66 Safari/537.36",WebKit,Chrome,87.0.4280.66,Windows,10
2,1,197,"""",html-keyboard-response,198,311343,0.0-198.0,"<p> What was the emotion of the hidden face? Go with your gut if you are not certain. <br> Press, <b>0</b> for <i>neutral face</i> or <b>1</b> for <i>disgust face</i></p>","""",49,"""",28,Query,"""",1,11/20/2020 20:14,68.129.121.198,"Mozilla/5.0 (Windows NT 10.0; WOW64) AppleWebKit/537.36 (KHTML, like Gecko) Chrome/87.0.4280.66 Safari/537.36",WebKit,Chrome,87.0.4280.66,Windows,10
2,1,null,"""",html-keyboard-response,199,312345,0.0-199.0,"<div style=""font-size:60px;"">+</div>","""",null,1000,29,ITI,"""","""",11/20/2020 20:14,68.129.121.198,"Mozilla/5.0 (Windows NT 10.0; WOW64) AppleWebKit/537.36 (KHTML, like Gecko) Chrome/87.0.4280.66 Safari/537.36",WebKit,Chrome,87.0.4280.66,Windows,10
2,1,null,"""",image-keyboard-response,200,312596,0.0-200.0,jspsych/scrambledDisgustFaces/scrambledAM01DIS.JPG,"""",null,250,29,forwardMask,1,"""",11/20/2020 20:14,68.129.121.198,"Mozilla/5.0 (Windows NT 10.0; WOW64) AppleWebKit/537.36 (KHTML, like Gecko) Chrome/87.0.4280.66 Safari/537.36",WebKit,Chrome,87.0.4280.66,Windows,10
2,1,null,"""",image-keyboard-response,201,312663,0.0-201.0,jspsych/disgustFaces/AM01DIS.JPG,"""",null,66,29,Cue,"""","""",11/20/2020 20:14,68.129.121.198,"Mozilla/5.0 (Windows NT 10.0; WOW64) AppleWebKit/537.36 (KHTML, like Gecko) Chrome/87.0.4280.66 Safari/537.36",WebKit,Chrome,87.0.4280.66,Windows,10
2,1,null,"""",image-keyboard-response,202,312764,0.0-202.0,jspsych/neutralFaces/AM31NES.JPG,"""",null,100,29,backwardMask,"""","""",11/20/2020 20:14,68.129.121.198,"Mozilla/5.0 (Windows NT 10.0; WOW64) AppleWebKit/537.36 (KHTML, like Gecko) Chrome/87.0.4280.66 Safari/537.36",WebKit,Chrome,87.0.4280.66,Windows,10
2,1,null,"""",html-keyboard-response,203,312966,0.0-203.0,"<div style=""font-size:60px;"">+</div>","""",null,200,29,fixationBtwnNeutralMaskAndPrompt,"""","""",11/20/2020 20:14,68.129.121.198,"Mozilla/5.0 (Windows NT 10.0; WOW64) AppleWebKit/537.36 (KHTML, like Gecko) Chrome/87.0.4280.66 Safari/537.36",WebKit,Chrome,87.0.4280.66,Windows,10
2,1,67,"""",html-keyboard-response,204,313034,0.0-204.0,"<p> Did you see the ""hidden"" face? Press <b>0</b> if you did <i>not</i>, <b>1</b> if you <i>did</i>. </p>","""",48,"""",29,QueryConfidence,"""",0,11/20/2020 20:14,68.129.121.198,"Mozilla/5.0 (Windows NT 10.0; WOW64) AppleWebKit/537.36 (KHTML, like Gecko) Chrome/87.0.4280.66 Safari/537.36",WebKit,Chrome,87.0.4280.66,Windows,10
2,1,40,"""",html-keyboard-response,205,313075,0.0-205.0,"<p> What was the emotion of the hidden face? Go with your gut if you are not certain. <br> Press, <b>0</b> for <i>neutral face</i> or <b>1</b> for <i>disgust face</i></p>","""",49,"""",29,Query,"""",1,11/20/2020 20:14,68.129.121.198,"Mozilla/5.0 (Windows NT 10.0; WOW64) AppleWebKit/537.36 (KHTML, like Gecko) Chrome/87.0.4280.66 Safari/537.36",WebKit,Chrome,87.0.4280.66,Windows,10
2,1,null,"""",html-keyboard-response,206,314077,0.0-206.0,"<div style=""font-size:60px;"">+</div>","""",null,1000,30,ITI,"""","""",11/20/2020 20:14,68.129.121.198,"Mozilla/5.0 (Windows NT 10.0; WOW64) AppleWebKit/537.36 (KHTML, like Gecko) Chrome/87.0.4280.66 Safari/537.36",WebKit,Chrome,87.0.4280.66,Windows,10
2,1,null,"""",image-keyboard-response,207,314329,0.0-207.0,jspsych/scrambledDisgustFaces/scrambledAF02DIS.JPG,"""",null,250,30,forwardMask,1,"""",11/20/2020 20:14,68.129.121.198,"Mozilla/5.0 (Windows NT 10.0; WOW64) AppleWebKit/537.36 (KHTML, like Gecko) Chrome/87.0.4280.66 Safari/537.36",WebKit,Chrome,87.0.4280.66,Windows,10
2,1,null,"""",image-keyboard-response,208,314379,0.0-208.0,jspsych/disgustFaces/AF02DIS.JPG,"""",null,49,30,Cue,"""","""",11/20/2020 20:14,68.129.121.198,"Mozilla/5.0 (Windows NT 10.0; WOW64) AppleWebKit/537.36 (KHTML, like Gecko) Chrome/87.0.4280.66 Safari/537.36",WebKit,Chrome,87.0.4280.66,Windows,10
2,1,null,"""",image-keyboard-response,209,314481,0.0-209.0,jspsych/neutralFaces/AM04NES.JPG,"""",null,100,30,backwardMask,"""","""",11/20/2020 20:14,68.129.121.198,"Mozilla/5.0 (Windows NT 10.0; WOW64) AppleWebKit/537.36 (KHTML, like Gecko) Chrome/87.0.4280.66 Safari/537.36",WebKit,Chrome,87.0.4280.66,Windows,10
2,1,null,"""",html-keyboard-response,210,314683,0.0-210.0,"<div style=""font-size:60px;"">+</div>","""",null,200,30,fixationBtwnNeutralMaskAndPrompt,"""","""",11/20/2020 20:14,68.129.121.198,"Mozilla/5.0 (Windows NT 10.0; WOW64) AppleWebKit/537.36 (KHTML, like Gecko) Chrome/87.0.4280.66 Safari/537.36",WebKit,Chrome,87.0.4280.66,Windows,10
2,1,50,"""",html-keyboard-response,211,314733,0.0-211.0,"<p> Did you see the ""hidden"" face? Press <b>0</b> if you did <i>not</i>, <b>1</b> if you <i>did</i>. </p>","""",48,"""",30,QueryConfidence,"""",0,11/20/2020 20:14,68.129.121.198,"Mozilla/5.0 (Windows NT 10.0; WOW64) AppleWebKit/537.36 (KHTML, like Gecko) Chrome/87.0.4280.66 Safari/537.36",WebKit,Chrome,87.0.4280.66,Windows,10
2,1,143,"""",html-keyboard-response,212,314877,0.0-212.0,"<p> What was the emotion of the hidden face? Go with your gut if you are not certain. <br> Press, <b>0</b> for <i>neutral face</i> or <b>1</b> for <i>disgust face</i></p>","""",49,"""",30,Query,"""",1,11/20/2020 20:14,68.129.121.198,"Mozilla/5.0 (Windows NT 10.0; WOW64) AppleWebKit/537.36 (KHTML, like Gecko) Chrome/87.0.4280.66 Safari/537.36",WebKit,Chrome,87.0.4280.66,Windows,10
2,1,null,"""",html-keyboard-response,213,315879,0.0-213.0,"<div style=""font-size:60px;"">+</div>","""",null,1000,31,ITI,"""","""",11/20/2020 20:14,68.129.121.198,"Mozilla/5.0 (Windows NT 10.0; WOW64) AppleWebKit/537.36 (KHTML, like Gecko) Chrome/87.0.4280.66 Safari/537.36",WebKit,Chrome,87.0.4280.66,Windows,10
2,1,null,"""",image-keyboard-response,214,316131,0.0-214.0,jspsych/scrambledDisgustFaces/scrambledBM25DIS.JPG,"""",null,250,31,forwardMask,1,"""",11/20/2020 20:14,68.129.121.198,"Mozilla/5.0 (Windows NT 10.0; WOW64) AppleWebKit/537.36 (KHTML, like Gecko) Chrome/87.0.4280.66 Safari/537.36",WebKit,Chrome,87.0.4280.66,Windows,10
2,1,null,"""",image-keyboard-response,215,316274,0.0-215.0,jspsych/disgustFaces/BM25DIS.JPG,"""",null,136,31,Cue,"""","""",11/20/2020 20:14,68.129.121.198,"Mozilla/5.0 (Windows NT 10.0; WOW64) AppleWebKit/537.36 (KHTML, like Gecko) Chrome/87.0.4280.66 Safari/537.36",WebKit,Chrome,87.0.4280.66,Windows,10
2,1,null,"""",image-keyboard-response,216,316377,0.0-216.0,jspsych/neutralFaces/BF06NES.JPG,"""",null,100,31,backwardMask,"""","""",11/20/2020 20:14,68.129.121.198,"Mozilla/5.0 (Windows NT 10.0; WOW64) AppleWebKit/537.36 (KHTML, like Gecko) Chrome/87.0.4280.66 Safari/537.36",WebKit,Chrome,87.0.4280.66,Windows,10
2,1,null,"""",html-keyboard-response,217,316578,0.0-217.0,"<div style=""font-size:60px;"">+</div>","""",null,200,31,fixationBtwnNeutralMaskAndPrompt,"""","""",11/20/2020 20:14,68.129.121.198,"Mozilla/5.0 (Windows NT 10.0; WOW64) AppleWebKit/537.36 (KHTML, like Gecko) Chrome/87.0.4280.66 Safari/537.36",WebKit,Chrome,87.0.4280.66,Windows,10
2,1,111,"""",html-keyboard-response,218,316690,0.0-218.0,"<p> Did you see the ""hidden"" face? Press <b>0</b> if you did <i>not</i>, <b>1</b> if you <i>did</i>. </p>","""",48,"""",31,QueryConfidence,"""",0,11/20/2020 20:14,68.129.121.198,"Mozilla/5.0 (Windows NT 10.0; WOW64) AppleWebKit/537.36 (KHTML, like Gecko) Chrome/87.0.4280.66 Safari/537.36",WebKit,Chrome,87.0.4280.66,Windows,10
2,1,246,"""",html-keyboard-response,219,316937,0.0-219.0,"<p> What was the emotion of the hidden face? Go with your gut if you are not certain. <br> Press, <b>0</b> for <i>neutral face</i> or <b>1</b> for <i>disgust face</i></p>","""",48,"""",31,Query,"""",0,11/20/2020 20:14,68.129.121.198,"Mozilla/5.0 (Windows NT 10.0; WOW64) AppleWebKit/537.36 (KHTML, like Gecko) Chrome/87.0.4280.66 Safari/537.36",WebKit,Chrome,87.0.4280.66,Windows,10
2,1,null,"""",html-keyboard-response,220,317938,0.0-220.0,"<div style=""font-size:60px;"">+</div>","""",null,1000,32,ITI,"""","""",11/20/2020 20:14,68.129.121.198,"Mozilla/5.0 (Windows NT 10.0; WOW64) AppleWebKit/537.36 (KHTML, like Gecko) Chrome/87.0.4280.66 Safari/537.36",WebKit,Chrome,87.0.4280.66,Windows,10
2,1,null,"""",image-keyboard-response,221,318190,0.0-221.0,jspsych/scrambledNeutralFaces/scrambledAM17NES.JPG,"""",null,250,32,forwardMask,0,"""",11/20/2020 20:14,68.129.121.198,"Mozilla/5.0 (Windows NT 10.0; WOW64) AppleWebKit/537.36 (KHTML, like Gecko) Chrome/87.0.4280.66 Safari/537.36",WebKit,Chrome,87.0.4280.66,Windows,10
2,1,null,"""",image-keyboard-response,222,318273,0.0-222.0,jspsych/neutralFaces/AM17NES.JPG,"""",null,82,32,Cue,"""","""",11/20/2020 20:14,68.129.121.198,"Mozilla/5.0 (Windows NT 10.0; WOW64) AppleWebKit/537.36 (KHTML, like Gecko) Chrome/87.0.4280.66 Safari/537.36",WebKit,Chrome,87.0.4280.66,Windows,10
2,1,null,"""",image-keyboard-response,223,318375,0.0-223.0,jspsych/neutralFaces/AM18NES.JPG,"""",null,100,32,backwardMask,"""","""",11/20/2020 20:14,68.129.121.198,"Mozilla/5.0 (Windows NT 10.0; WOW64) AppleWebKit/537.36 (KHTML, like Gecko) Chrome/87.0.4280.66 Safari/537.36",WebKit,Chrome,87.0.4280.66,Windows,10
2,1,null,"""",html-keyboard-response,224,318576,0.0-224.0,"<div style=""font-size:60px;"">+</div>","""",null,200,32,fixationBtwnNeutralMaskAndPrompt,"""","""",11/20/2020 20:14,68.129.121.198,"Mozilla/5.0 (Windows NT 10.0; WOW64) AppleWebKit/537.36 (KHTML, like Gecko) Chrome/87.0.4280.66 Safari/537.36",WebKit,Chrome,87.0.4280.66,Windows,10
2,1,105,"""",html-keyboard-response,225,318683,0.0-225.0,"<p> Did you see the ""hidden"" face? Press <b>0</b> if you did <i>not</i>, <b>1</b> if you <i>did</i>. </p>","""",48,"""",32,QueryConfidence,"""",0,11/20/2020 20:14,68.129.121.198,"Mozilla/5.0 (Windows NT 10.0; WOW64) AppleWebKit/537.36 (KHTML, like Gecko) Chrome/87.0.4280.66 Safari/537.36",WebKit,Chrome,87.0.4280.66,Windows,10
2,1,210,"""",html-keyboard-response,226,318894,0.0-226.0,"<p> What was the emotion of the hidden face? Go with your gut if you are not certain. <br> Press, <b>0</b> for <i>neutral face</i> or <b>1</b> for <i>disgust face</i></p>","""",48,"""",32,Query,"""",0,11/20/2020 20:14,68.129.121.198,"Mozilla/5.0 (Windows NT 10.0; WOW64) AppleWebKit/537.36 (KHTML, like Gecko) Chrome/87.0.4280.66 Safari/537.36",WebKit,Chrome,87.0.4280.66,Windows,10
2,1,null,"""",html-keyboard-response,227,319895,0.0-227.0,"<div style=""font-size:60px;"">+</div>","""",null,1000,33,ITI,"""","""",11/20/2020 20:14,68.129.121.198,"Mozilla/5.0 (Windows NT 10.0; WOW64) AppleWebKit/537.36 (KHTML, like Gecko) Chrome/87.0.4280.66 Safari/537.36",WebKit,Chrome,87.0.4280.66,Windows,10
2,1,null,"""",image-keyboard-response,228,320147,0.0-228.0,jspsych/scrambledDisgustFaces/scrambledAM23DIS.JPG,"""",null,250,33,forwardMask,1,"""",11/20/2020 20:14,68.129.121.198,"Mozilla/5.0 (Windows NT 10.0; WOW64) AppleWebKit/537.36 (KHTML, like Gecko) Chrome/87.0.4280.66 Safari/537.36",WebKit,Chrome,87.0.4280.66,Windows,10
2,1,null,"""",image-keyboard-response,229,320199,0.0-229.0,jspsych/disgustFaces/AM23DIS.JPG,"""",null,49,33,Cue,"""","""",11/20/2020 20:14,68.129.121.198,"Mozilla/5.0 (Windows NT 10.0; WOW64) AppleWebKit/537.36 (KHTML, like Gecko) Chrome/87.0.4280.66 Safari/537.36",WebKit,Chrome,87.0.4280.66,Windows,10
2,1,null,"""",image-keyboard-response,230,320311,0.0-230.0,jspsych/neutralFaces/BF19NES.JPG,"""",null,100,33,backwardMask,"""","""",11/20/2020 20:14,68.129.121.198,"Mozilla/5.0 (Windows NT 10.0; WOW64) AppleWebKit/537.36 (KHTML, like Gecko) Chrome/87.0.4280.66 Safari/537.36",WebKit,Chrome,87.0.4280.66,Windows,10
2,1,null,"""",html-keyboard-response,231,320512,0.0-231.0,"<div style=""font-size:60px;"">+</div>","""",null,200,33,fixationBtwnNeutralMaskAndPrompt,"""","""",11/20/2020 20:14,68.129.121.198,"Mozilla/5.0 (Windows NT 10.0; WOW64) AppleWebKit/537.36 (KHTML, like Gecko) Chrome/87.0.4280.66 Safari/537.36",WebKit,Chrome,87.0.4280.66,Windows,10
2,1,146,"""",html-keyboard-response,232,320658,0.0-232.0,"<p> Did you see the ""hidden"" face? Press <b>0</b> if you did <i>not</i>, <b>1</b> if you <i>did</i>. </p>","""",48,"""",33,QueryConfidence,"""",0,11/20/2020 20:14,68.129.121.198,"Mozilla/5.0 (Windows NT 10.0; WOW64) AppleWebKit/537.36 (KHTML, like Gecko) Chrome/87.0.4280.66 Safari/537.36",WebKit,Chrome,87.0.4280.66,Windows,10
2,1,7.999999998,"""",html-keyboard-response,233,320667,0.0-233.0,"<p> What was the emotion of the hidden face? Go with your gut if you are not certain. <br> Press, <b>0</b> for <i>neutral face</i> or <b>1</b> for <i>disgust face</i></p>","""",49,"""",33,Query,"""",1,11/20/2020 20:14,68.129.121.198,"Mozilla/5.0 (Windows NT 10.0; WOW64) AppleWebKit/537.36 (KHTML, like Gecko) Chrome/87.0.4280.66 Safari/537.36",WebKit,Chrome,87.0.4280.66,Windows,10
2,1,null,"""",html-keyboard-response,234,321672,0.0-234.0,"<div style=""font-size:60px;"">+</div>","""",null,1000,34,ITI,"""","""",11/20/2020 20:14,68.129.121.198,"Mozilla/5.0 (Windows NT 10.0; WOW64) AppleWebKit/537.36 (KHTML, like Gecko) Chrome/87.0.4280.66 Safari/537.36",WebKit,Chrome,87.0.4280.66,Windows,10
2,1,null,"""",image-keyboard-response,235,321924,0.0-235.0,jspsych/scrambledDisgustFaces/scrambledAF05DIS.JPG,"""",null,250,34,forwardMask,1,"""",11/20/2020 20:14,68.129.121.198,"Mozilla/5.0 (Windows NT 10.0; WOW64) AppleWebKit/537.36 (KHTML, like Gecko) Chrome/87.0.4280.66 Safari/537.36",WebKit,Chrome,87.0.4280.66,Windows,10
2,1,null,"""",image-keyboard-response,236,321941,0.0-236.0,jspsych/disgustFaces/AF05DIS.JPG,"""",null,16,34,Cue,"""","""",11/20/2020 20:14,68.129.121.198,"Mozilla/5.0 (Windows NT 10.0; WOW64) AppleWebKit/537.36 (KHTML, like Gecko) Chrome/87.0.4280.66 Safari/537.36",WebKit,Chrome,87.0.4280.66,Windows,10
2,1,null,"""",image-keyboard-response,237,322043,0.0-237.0,jspsych/neutralFaces/BF02NES.JPG,"""",null,100,34,backwardMask,"""","""",11/20/2020 20:14,68.129.121.198,"Mozilla/5.0 (Windows NT 10.0; WOW64) AppleWebKit/537.36 (KHTML, like Gecko) Chrome/87.0.4280.66 Safari/537.36",WebKit,Chrome,87.0.4280.66,Windows,10
2,1,null,"""",html-keyboard-response,238,322247,0.0-238.0,"<div style=""font-size:60px;"">+</div>","""",null,200,34,fixationBtwnNeutralMaskAndPrompt,"""","""",11/20/2020 20:14,68.129.121.198,"Mozilla/5.0 (Windows NT 10.0; WOW64) AppleWebKit/537.36 (KHTML, like Gecko) Chrome/87.0.4280.66 Safari/537.36",WebKit,Chrome,87.0.4280.66,Windows,10
2,1,46,"""",html-keyboard-response,239,322294,0.0-239.0,"<p> Did you see the ""hidden"" face? Press <b>0</b> if you did <i>not</i>, <b>1</b> if you <i>did</i>. </p>","""",49,"""",34,QueryConfidence,"""",1,11/20/2020 20:14,68.129.121.198,"Mozilla/5.0 (Windows NT 10.0; WOW64) AppleWebKit/537.36 (KHTML, like Gecko) Chrome/87.0.4280.66 Safari/537.36",WebKit,Chrome,87.0.4280.66,Windows,10
2,1,4.000000001,"""",html-keyboard-response,240,322299,0.0-240.0,"<p> What was the emotion of the hidden face? Go with your gut if you are not certain. <br> Press, <b>0</b> for <i>neutral face</i> or <b>1</b> for <i>disgust face</i></p>","""",48,"""",34,Query,"""",0,11/20/2020 20:14,68.129.121.198,"Mozilla/5.0 (Windows NT 10.0; WOW64) AppleWebKit/537.36 (KHTML, like Gecko) Chrome/87.0.4280.66 Safari/537.36",WebKit,Chrome,87.0.4280.66,Windows,10
2,1,null,"""",html-keyboard-response,241,323300,0.0-241.0,"<div style=""font-size:60px;"">+</div>","""",null,1000,35,ITI,"""","""",11/20/2020 20:14,68.129.121.198,"Mozilla/5.0 (Windows NT 10.0; WOW64) AppleWebKit/537.36 (KHTML, like Gecko) Chrome/87.0.4280.66 Safari/537.36",WebKit,Chrome,87.0.4280.66,Windows,10
2,1,null,"""",image-keyboard-response,242,323552,0.0-242.0,jspsych/scrambledNeutralFaces/scrambledAM05NES.JPG,"""",null,250,35,forwardMask,0,"""",11/20/2020 20:14,68.129.121.198,"Mozilla/5.0 (Windows NT 10.0; WOW64) AppleWebKit/537.36 (KHTML, like Gecko) Chrome/87.0.4280.66 Safari/537.36",WebKit,Chrome,87.0.4280.66,Windows,10
2,1,null,"""",image-keyboard-response,243,323658,0.0-243.0,jspsych/neutralFaces/AM05NES.JPG,"""",null,104,35,Cue,"""","""",11/20/2020 20:14,68.129.121.198,"Mozilla/5.0 (Windows NT 10.0; WOW64) AppleWebKit/537.36 (KHTML, like Gecko) Chrome/87.0.4280.66 Safari/537.36",WebKit,Chrome,87.0.4280.66,Windows,10
2,1,null,"""",image-keyboard-response,244,323760,0.0-244.0,jspsych/neutralFaces/AF21NES.JPG,"""",null,100,35,backwardMask,"""","""",11/20/2020 20:14,68.129.121.198,"Mozilla/5.0 (Windows NT 10.0; WOW64) AppleWebKit/537.36 (KHTML, like Gecko) Chrome/87.0.4280.66 Safari/537.36",WebKit,Chrome,87.0.4280.66,Windows,10
2,1,null,"""",html-keyboard-response,245,323960,0.0-245.0,"<div style=""font-size:60px;"">+</div>","""",null,200,35,fixationBtwnNeutralMaskAndPrompt,"""","""",11/20/2020 20:14,68.129.121.198,"Mozilla/5.0 (Windows NT 10.0; WOW64) AppleWebKit/537.36 (KHTML, like Gecko) Chrome/87.0.4280.66 Safari/537.36",WebKit,Chrome,87.0.4280.66,Windows,10
2,1,2347,"""",html-keyboard-response,246,326309,0.0-246.0,"<p> Did you see the ""hidden"" face? Press <b>0</b> if you did <i>not</i>, <b>1</b> if you <i>did</i>. </p>","""",48,"""",35,QueryConfidence,"""",0,11/20/2020 20:14,68.129.121.198,"Mozilla/5.0 (Windows NT 10.0; WOW64) AppleWebKit/537.36 (KHTML, like Gecko) Chrome/87.0.4280.66 Safari/537.36",WebKit,Chrome,87.0.4280.66,Windows,10
2,1,248,"""",html-keyboard-response,247,326565,0.0-247.0,"<p> What was the emotion of the hidden face? Go with your gut if you are not certain. <br> Press, <b>0</b> for <i>neutral face</i> or <b>1</b> for <i>disgust face</i></p>","""",48,"""",35,Query,"""",0,11/20/2020 20:14,68.129.121.198,"Mozilla/5.0 (Windows NT 10.0; WOW64) AppleWebKit/537.36 (KHTML, like Gecko) Chrome/87.0.4280.66 Safari/537.36",WebKit,Chrome,87.0.4280.66,Windows,10
2,1,null,"""",html-keyboard-response,248,327566,0.0-248.0,"<div style=""font-size:60px;"">+</div>","""",null,1000,36,ITI,"""","""",11/20/2020 20:14,68.129.121.198,"Mozilla/5.0 (Windows NT 10.0; WOW64) AppleWebKit/537.36 (KHTML, like Gecko) Chrome/87.0.4280.66 Safari/537.36",WebKit,Chrome,87.0.4280.66,Windows,10
2,1,null,"""",image-keyboard-response,249,327818,0.0-249.0,jspsych/scrambledDisgustFaces/scrambledBF23DIS.JPG,"""",null,250,36,forwardMask,1,"""",11/20/2020 20:14,68.129.121.198,"Mozilla/5.0 (Windows NT 10.0; WOW64) AppleWebKit/537.36 (KHTML, like Gecko) Chrome/87.0.4280.66 Safari/537.36",WebKit,Chrome,87.0.4280.66,Windows,10
2,1,null,"""",image-keyboard-response,250,327852,0.0-250.0,jspsych/disgustFaces/BF23DIS.JPG,"""",null,33,36,Cue,"""","""",11/20/2020 20:14,68.129.121.198,"Mozilla/5.0 (Windows NT 10.0; WOW64) AppleWebKit/537.36 (KHTML, like Gecko) Chrome/87.0.4280.66 Safari/537.36",WebKit,Chrome,87.0.4280.66,Windows,10
2,1,null,"""",image-keyboard-response,251,327953,0.0-251.0,jspsych/neutralFaces/AF17NES.JPG,"""",null,100,36,backwardMask,"""","""",11/20/2020 20:14,68.129.121.198,"Mozilla/5.0 (Windows NT 10.0; WOW64) AppleWebKit/537.36 (KHTML, like Gecko) Chrome/87.0.4280.66 Safari/537.36",WebKit,Chrome,87.0.4280.66,Windows,10
2,1,null,"""",html-keyboard-response,252,328154,0.0-252.0,"<div style=""font-size:60px;"">+</div>","""",null,200,36,fixationBtwnNeutralMaskAndPrompt,"""","""",11/20/2020 20:14,68.129.121.198,"Mozilla/5.0 (Windows NT 10.0; WOW64) AppleWebKit/537.36 (KHTML, like Gecko) Chrome/87.0.4280.66 Safari/537.36",WebKit,Chrome,87.0.4280.66,Windows,10
2,1,61,"""",html-keyboard-response,253,328216,0.0-253.0,"<p> Did you see the ""hidden"" face? Press <b>0</b> if you did <i>not</i>, <b>1</b> if you <i>did</i>. </p>","""",48,"""",36,QueryConfidence,"""",0,11/20/2020 20:14,68.129.121.198,"Mozilla/5.0 (Windows NT 10.0; WOW64) AppleWebKit/537.36 (KHTML, like Gecko) Chrome/87.0.4280.66 Safari/537.36",WebKit,Chrome,87.0.4280.66,Windows,10
2,1,134,"""",html-keyboard-response,254,328352,0.0-254.0,"<p> What was the emotion of the hidden face? Go with your gut if you are not certain. <br> Press, <b>0</b> for <i>neutral face</i> or <b>1</b> for <i>disgust face</i></p>","""",49,"""",36,Query,"""",1,11/20/2020 20:14,68.129.121.198,"Mozilla/5.0 (Windows NT 10.0; WOW64) AppleWebKit/537.36 (KHTML, like Gecko) Chrome/87.0.4280.66 Safari/537.36",WebKit,Chrome,87.0.4280.66,Windows,10
2,1,null,"""",html-keyboard-response,255,329352,0.0-255.0,"<div style=""font-size:60px;"">+</div>","""",null,1000,37,ITI,"""","""",11/20/2020 20:14,68.129.121.198,"Mozilla/5.0 (Windows NT 10.0; WOW64) AppleWebKit/537.36 (KHTML, like Gecko) Chrome/87.0.4280.66 Safari/537.36",WebKit,Chrome,87.0.4280.66,Windows,10
2,1,null,"""",image-keyboard-response,256,329603,0.0-256.0,jspsych/scrambledDisgustFaces/scrambledBF06DIS.JPG,"""",null,250,37,forwardMask,1,"""",11/20/2020 20:14,68.129.121.198,"Mozilla/5.0 (Windows NT 10.0; WOW64) AppleWebKit/537.36 (KHTML, like Gecko) Chrome/87.0.4280.66 Safari/537.36",WebKit,Chrome,87.0.4280.66,Windows,10
2,1,null,"""",image-keyboard-response,257,329653,0.0-257.0,jspsych/disgustFaces/BF06DIS.JPG,"""",null,49,37,Cue,"""","""",11/20/2020 20:14,68.129.121.198,"Mozilla/5.0 (Windows NT 10.0; WOW64) AppleWebKit/537.36 (KHTML, like Gecko) Chrome/87.0.4280.66 Safari/537.36",WebKit,Chrome,87.0.4280.66,Windows,10
2,1,null,"""",image-keyboard-response,258,329755,0.0-258.0,jspsych/neutralFaces/BF15NES.JPG,"""",null,100,37,backwardMask,"""","""",11/20/2020 20:14,68.129.121.198,"Mozilla/5.0 (Windows NT 10.0; WOW64) AppleWebKit/537.36 (KHTML, like Gecko) Chrome/87.0.4280.66 Safari/537.36",WebKit,Chrome,87.0.4280.66,Windows,10
2,1,null,"""",html-keyboard-response,259,329958,0.0-259.0,"<div style=""font-size:60px;"">+</div>","""",null,200,37,fixationBtwnNeutralMaskAndPrompt,"""","""",11/20/2020 20:14,68.129.121.198,"Mozilla/5.0 (Windows NT 10.0; WOW64) AppleWebKit/537.36 (KHTML, like Gecko) Chrome/87.0.4280.66 Safari/537.36",WebKit,Chrome,87.0.4280.66,Windows,10
2,1,107,"""",html-keyboard-response,260,330066,0.0-260.0,"<p> Did you see the ""hidden"" face? Press <b>0</b> if you did <i>not</i>, <b>1</b> if you <i>did</i>. </p>","""",49,"""",37,QueryConfidence,"""",1,11/20/2020 20:14,68.129.121.198,"Mozilla/5.0 (Windows NT 10.0; WOW64) AppleWebKit/537.36 (KHTML, like Gecko) Chrome/87.0.4280.66 Safari/537.36",WebKit,Chrome,87.0.4280.66,Windows,10
2,1,85,"""",html-keyboard-response,261,330153,0.0-261.0,"<p> What was the emotion of the hidden face? Go with your gut if you are not certain. <br> Press, <b>0</b> for <i>neutral face</i> or <b>1</b> for <i>disgust face</i></p>","""",48,"""",37,Query,"""",0,11/20/2020 20:14,68.129.121.198,"Mozilla/5.0 (Windows NT 10.0; WOW64) AppleWebKit/537.36 (KHTML, like Gecko) Chrome/87.0.4280.66 Safari/537.36",WebKit,Chrome,87.0.4280.66,Windows,10
2,1,null,"""",html-keyboard-response,262,332155,0.0-262.0,Good job! 25% Done,"""",null,2000,38,encouragement,"""","""",11/20/2020 20:14,68.129.121.198,"Mozilla/5.0 (Windows NT 10.0; WOW64) AppleWebKit/537.36 (KHTML, like Gecko) Chrome/87.0.4280.66 Safari/537.36",WebKit,Chrome,87.0.4280.66,Windows,10
2,1,null,"""",html-keyboard-response,263,333159,0.0-263.0,"<div style=""font-size:60px;"">+</div>","""",null,1000,38,ITI,"""","""",11/20/2020 20:14,68.129.121.198,"Mozilla/5.0 (Windows NT 10.0; WOW64) AppleWebKit/537.36 (KHTML, like Gecko) Chrome/87.0.4280.66 Safari/537.36",WebKit,Chrome,87.0.4280.66,Windows,10
2,1,null,"""",image-keyboard-response,264,333411,0.0-264.0,jspsych/scrambledDisgustFaces/scrambledBM28DIS.JPG,"""",null,250,38,forwardMask,1,"""",11/20/2020 20:14,68.129.121.198,"Mozilla/5.0 (Windows NT 10.0; WOW64) AppleWebKit/537.36 (KHTML, like Gecko) Chrome/87.0.4280.66 Safari/537.36",WebKit,Chrome,87.0.4280.66,Windows,10
2,1,null,"""",image-keyboard-response,265,333461,0.0-265.0,jspsych/disgustFaces/BM28DIS.JPG,"""",null,49,38,Cue,"""","""",11/20/2020 20:14,68.129.121.198,"Mozilla/5.0 (Windows NT 10.0; WOW64) AppleWebKit/537.36 (KHTML, like Gecko) Chrome/87.0.4280.66 Safari/537.36",WebKit,Chrome,87.0.4280.66,Windows,10
2,1,null,"""",image-keyboard-response,266,333563,0.0-266.0,jspsych/neutralFaces/AM13NES.JPG,"""",null,100,38,backwardMask,"""","""",11/20/2020 20:14,68.129.121.198,"Mozilla/5.0 (Windows NT 10.0; WOW64) AppleWebKit/537.36 (KHTML, like Gecko) Chrome/87.0.4280.66 Safari/537.36",WebKit,Chrome,87.0.4280.66,Windows,10
2,1,null,"""",html-keyboard-response,267,333766,0.0-267.0,"<div style=""font-size:60px;"">+</div>","""",null,200,38,fixationBtwnNeutralMaskAndPrompt,"""","""",11/20/2020 20:14,68.129.121.198,"Mozilla/5.0 (Windows NT 10.0; WOW64) AppleWebKit/537.36 (KHTML, like Gecko) Chrome/87.0.4280.66 Safari/537.36",WebKit,Chrome,87.0.4280.66,Windows,10
2,1,62,"""",html-keyboard-response,268,333830,0.0-268.0,"<p> Did you see the ""hidden"" face? Press <b>0</b> if you did <i>not</i>, <b>1</b> if you <i>did</i>. </p>","""",49,"""",38,QueryConfidence,"""",1,11/20/2020 20:14,68.129.121.198,"Mozilla/5.0 (Windows NT 10.0; WOW64) AppleWebKit/537.36 (KHTML, like Gecko) Chrome/87.0.4280.66 Safari/537.36",WebKit,Chrome,87.0.4280.66,Windows,10
2,1,49,"""",html-keyboard-response,269,333879,0.0-269.0,"<p> What was the emotion of the hidden face? Go with your gut if you are not certain. <br> Press, <b>0</b> for <i>neutral face</i> or <b>1</b> for <i>disgust face</i></p>","""",48,"""",38,Query,"""",0,11/20/2020 20:14,68.129.121.198,"Mozilla/5.0 (Windows NT 10.0; WOW64) AppleWebKit/537.36 (KHTML, like Gecko) Chrome/87.0.4280.66 Safari/537.36",WebKit,Chrome,87.0.4280.66,Windows,10
2,1,null,"""",html-keyboard-response,270,334880,0.0-270.0,"<div style=""font-size:60px;"">+</div>","""",null,1000,39,ITI,"""","""",11/20/2020 20:14,68.129.121.198,"Mozilla/5.0 (Windows NT 10.0; WOW64) AppleWebKit/537.36 (KHTML, like Gecko) Chrome/87.0.4280.66 Safari/537.36",WebKit,Chrome,87.0.4280.66,Windows,10
2,1,null,"""",image-keyboard-response,271,335132,0.0-271.0,jspsych/scrambledDisgustFaces/scrambledBF34DIS.JPG,"""",null,250,39,forwardMask,1,"""",11/20/2020 20:14,68.129.121.198,"Mozilla/5.0 (Windows NT 10.0; WOW64) AppleWebKit/537.36 (KHTML, like Gecko) Chrome/87.0.4280.66 Safari/537.36",WebKit,Chrome,87.0.4280.66,Windows,10
2,1,null,"""",image-keyboard-response,272,335216,0.0-272.0,jspsych/disgustFaces/BF34DIS.JPG,"""",null,82,39,Cue,"""","""",11/20/2020 20:14,68.129.121.198,"Mozilla/5.0 (Windows NT 10.0; WOW64) AppleWebKit/537.36 (KHTML, like Gecko) Chrome/87.0.4280.66 Safari/537.36",WebKit,Chrome,87.0.4280.66,Windows,10
2,1,null,"""",image-keyboard-response,273,335318,0.0-273.0,jspsych/neutralFaces/AM15NES.JPG,"""",null,100,39,backwardMask,"""","""",11/20/2020 20:14,68.129.121.198,"Mozilla/5.0 (Windows NT 10.0; WOW64) AppleWebKit/537.36 (KHTML, like Gecko) Chrome/87.0.4280.66 Safari/537.36",WebKit,Chrome,87.0.4280.66,Windows,10
2,1,null,"""",html-keyboard-response,274,335520,0.0-274.0,"<div style=""font-size:60px;"">+</div>","""",null,200,39,fixationBtwnNeutralMaskAndPrompt,"""","""",11/20/2020 20:14,68.129.121.198,"Mozilla/5.0 (Windows NT 10.0; WOW64) AppleWebKit/537.36 (KHTML, like Gecko) Chrome/87.0.4280.66 Safari/537.36",WebKit,Chrome,87.0.4280.66,Windows,10
2,1,50,"""",html-keyboard-response,275,335571,0.0-275.0,"<p> Did you see the ""hidden"" face? Press <b>0</b> if you did <i>not</i>, <b>1</b> if you <i>did</i>. </p>","""",49,"""",39,QueryConfidence,"""",1,11/20/2020 20:14,68.129.121.198,"Mozilla/5.0 (Windows NT 10.0; WOW64) AppleWebKit/537.36 (KHTML, like Gecko) Chrome/87.0.4280.66 Safari/537.36",WebKit,Chrome,87.0.4280.66,Windows,10
2,1,18,"""",html-keyboard-response,276,335590,0.0-276.0,"<p> What was the emotion of the hidden face? Go with your gut if you are not certain. <br> Press, <b>0</b> for <i>neutral face</i> or <b>1</b> for <i>disgust face</i></p>","""",48,"""",39,Query,"""",0,11/20/2020 20:14,68.129.121.198,"Mozilla/5.0 (Windows NT 10.0; WOW64) AppleWebKit/537.36 (KHTML, like Gecko) Chrome/87.0.4280.66 Safari/537.36",WebKit,Chrome,87.0.4280.66,Windows,10
2,1,null,"""",html-keyboard-response,277,336595,0.0-277.0,"<div style=""font-size:60px;"">+</div>","""",null,1000,40,ITI,"""","""",11/20/2020 20:14,68.129.121.198,"Mozilla/5.0 (Windows NT 10.0; WOW64) AppleWebKit/537.36 (KHTML, like Gecko) Chrome/87.0.4280.66 Safari/537.36",WebKit,Chrome,87.0.4280.66,Windows,10
2,1,null,"""",image-keyboard-response,278,336847,0.0-278.0,jspsych/scrambledDisgustFaces/scrambledAF11DIS.JPG,"""",null,250,40,forwardMask,1,"""",11/20/2020 20:14,68.129.121.198,"Mozilla/5.0 (Windows NT 10.0; WOW64) AppleWebKit/537.36 (KHTML, like Gecko) Chrome/87.0.4280.66 Safari/537.36",WebKit,Chrome,87.0.4280.66,Windows,10
2,1,null,"""",image-keyboard-response,279,336898,0.0-279.0,jspsych/disgustFaces/AF11DIS.JPG,"""",null,49,40,Cue,"""","""",11/20/2020 20:14,68.129.121.198,"Mozilla/5.0 (Windows NT 10.0; WOW64) AppleWebKit/537.36 (KHTML, like Gecko) Chrome/87.0.4280.66 Safari/537.36",WebKit,Chrome,87.0.4280.66,Windows,10
2,1,null,"""",image-keyboard-response,280,336999,0.0-280.0,jspsych/neutralFaces/BM30NES.JPG,"""",null,100,40,backwardMask,"""","""",11/20/2020 20:14,68.129.121.198,"Mozilla/5.0 (Windows NT 10.0; WOW64) AppleWebKit/537.36 (KHTML, like Gecko) Chrome/87.0.4280.66 Safari/537.36",WebKit,Chrome,87.0.4280.66,Windows,10
2,1,null,"""",html-keyboard-response,281,337200,0.0-281.0,"<div style=""font-size:60px;"">+</div>","""",null,200,40,fixationBtwnNeutralMaskAndPrompt,"""","""",11/20/2020 20:14,68.129.121.198,"Mozilla/5.0 (Windows NT 10.0; WOW64) AppleWebKit/537.36 (KHTML, like Gecko) Chrome/87.0.4280.66 Safari/537.36",WebKit,Chrome,87.0.4280.66,Windows,10
2,1,141,"""",html-keyboard-response,282,337341,0.0-282.0,"<p> Did you see the ""hidden"" face? Press <b>0</b> if you did <i>not</i>, <b>1</b> if you <i>did</i>. </p>","""",48,"""",40,QueryConfidence,"""",0,11/20/2020 20:14,68.129.121.198,"Mozilla/5.0 (Windows NT 10.0; WOW64) AppleWebKit/537.36 (KHTML, like Gecko) Chrome/87.0.4280.66 Safari/537.36",WebKit,Chrome,87.0.4280.66,Windows,10
2,1,13,"""",html-keyboard-response,283,337354,0.0-283.0,"<p> What was the emotion of the hidden face? Go with your gut if you are not certain. <br> Press, <b>0</b> for <i>neutral face</i> or <b>1</b> for <i>disgust face</i></p>","""",49,"""",40,Query,"""",1,11/20/2020 20:14,68.129.121.198,"Mozilla/5.0 (Windows NT 10.0; WOW64) AppleWebKit/537.36 (KHTML, like Gecko) Chrome/87.0.4280.66 Safari/537.36",WebKit,Chrome,87.0.4280.66,Windows,10
2,1,null,"""",html-keyboard-response,284,338355,0.0-284.0,"<div style=""font-size:60px;"">+</div>","""",null,1000,41,ITI,"""","""",11/20/2020 20:14,68.129.121.198,"Mozilla/5.0 (Windows NT 10.0; WOW64) AppleWebKit/537.36 (KHTML, like Gecko) Chrome/87.0.4280.66 Safari/537.36",WebKit,Chrome,87.0.4280.66,Windows,10
2,1,null,"""",image-keyboard-response,285,338607,0.0-285.0,jspsych/scrambledDisgustFaces/scrambledBF02DIS.JPG,"""",null,250,41,forwardMask,1,"""",11/20/2020 20:14,68.129.121.198,"Mozilla/5.0 (Windows NT 10.0; WOW64) AppleWebKit/537.36 (KHTML, like Gecko) Chrome/87.0.4280.66 Safari/537.36",WebKit,Chrome,87.0.4280.66,Windows,10
2,1,null,"""",image-keyboard-response,286,338630,0.0-286.0,jspsych/disgustFaces/BF02DIS.JPG,"""",null,16,41,Cue,"""","""",11/20/2020 20:14,68.129.121.198,"Mozilla/5.0 (Windows NT 10.0; WOW64) AppleWebKit/537.36 (KHTML, like Gecko) Chrome/87.0.4280.66 Safari/537.36",WebKit,Chrome,87.0.4280.66,Windows,10
2,1,null,"""",image-keyboard-response,287,338730,0.0-287.0,jspsych/neutralFaces/AM27NES.JPG,"""",null,100,41,backwardMask,"""","""",11/20/2020 20:14,68.129.121.198,"Mozilla/5.0 (Windows NT 10.0; WOW64) AppleWebKit/537.36 (KHTML, like Gecko) Chrome/87.0.4280.66 Safari/537.36",WebKit,Chrome,87.0.4280.66,Windows,10
2,1,null,"""",html-keyboard-response,288,338930,0.0-288.0,"<div style=""font-size:60px;"">+</div>","""",null,200,41,fixationBtwnNeutralMaskAndPrompt,"""","""",11/20/2020 20:14,68.129.121.198,"Mozilla/5.0 (Windows NT 10.0; WOW64) AppleWebKit/537.36 (KHTML, like Gecko) Chrome/87.0.4280.66 Safari/537.36",WebKit,Chrome,87.0.4280.66,Windows,10
