run_id,condition,rt,responses,trial_type,trial_index,time_elapsed,internal_node_id,question_order,stimulus,button_pressed,iTrial,Phase,ExperimentPhase,key_press,StimulusDurationSetting,CharacterResponse,correctResponse,Face,Name,rearranged,didSubjectEnterRearranged,slider_start,response,Block,recorded_at,ip,user_agent,device,browser,browser_version,platform,platform_version
225,1,13778,"{""Q0"":""A8AHU8NCH1P9X""}",survey-text,0,13781,0.0-0.0,"""","""","""","""","""","""","""","""","""","""","""","""","""","""","""","""","""",5/1/2021 23:14,47.27.72.87,Mozilla/5.0 (Windows NT 10.0; Win64; x64; rv:88.0) Gecko/20100101 Firefox/88.0,,Firefox,88,Windows,10
225,1,4154,"{""Q0"":""23""}",survey-text,1,17941,0.0-1.0,"""","""","""","""","""","""","""","""","""","""","""","""","""","""","""","""","""",5/1/2021 23:14,47.27.72.87,Mozilla/5.0 (Windows NT 10.0; Win64; x64; rv:88.0) Gecko/20100101 Firefox/88.0,,Firefox,88,Windows,10
225,1,8007,"{""Q0"":""male"",""Q1"":""Not Hispanic/Latino"",""Q2"":""White or Caucasian""}",survey-multi-choice,2,25951,0.0-2.0,"[0,1,2]","""","""","""","""","""","""","""","""","""","""","""","""","""","""","""","""",5/1/2021 23:14,47.27.72.87,Mozilla/5.0 (Windows NT 10.0; Win64; x64; rv:88.0) Gecko/20100101 Firefox/88.0,,Firefox,88,Windows,10
225,1,26071,"""",image-button-response,3,52032,0.0-3.0,"""",directionsMemoryAssociation1.JPG,0,1,IntroDirections1,break,"""","""","""","""","""","""","""","""","""","""","""",5/1/2021 23:14,47.27.72.87,Mozilla/5.0 (Windows NT 10.0; Win64; x64; rv:88.0) Gecko/20100101 Firefox/88.0,,Firefox,88,Windows,10
225,1,26281,"""",image-button-response,4,78320,0.0-4.0,"""",directionsMemoryAssociation2.JPG,0,1,IntroDirections2,break,"""","""","""","""","""","""","""","""","""","""","""",5/1/2021 23:14,47.27.72.87,Mozilla/5.0 (Windows NT 10.0; Win64; x64; rv:88.0) Gecko/20100101 Firefox/88.0,,Firefox,88,Windows,10
225,1,null,"""",html-keyboard-response,5,83326,0.0-5.0,"""","<img src='jspsych/CFDfaces/CFD-BM-211-174-N.jpg' height=""250px"">,</br><b>Carlos</b>","""",1,IntactFace,Practice,null,5000,"""","""","""","""","""","""","""","""","""",5/1/2021 23:14,47.27.72.87,Mozilla/5.0 (Windows NT 10.0; Win64; x64; rv:88.0) Gecko/20100101 Firefox/88.0,,Firefox,88,Windows,10
225,1,null,"""",html-keyboard-response,6,83846,0.0-6.0,"""","<div style=""font-size:60px;"">+</div>","""",1,ITI,Practice,null,1000,"""","""","""","""","""","""","""","""","""",5/1/2021 23:14,47.27.72.87,Mozilla/5.0 (Windows NT 10.0; Win64; x64; rv:88.0) Gecko/20100101 Firefox/88.0,,Firefox,88,Windows,10
225,1,3444,"""",html-keyboard-response,7,88866,0.0-7.0,"""","<img src='jspsych/CFDfaces/CFD-AF-241-141-N.jpg' height=""250px"">,</br><b>Tara</b>","""",2,IntactFace,Practice,78,5000,n,"""","""","""","""","""","""","""","""",5/1/2021 23:14,47.27.72.87,Mozilla/5.0 (Windows NT 10.0; Win64; x64; rv:88.0) Gecko/20100101 Firefox/88.0,,Firefox,88,Windows,10
225,1,null,"""",html-keyboard-response,8,89385,0.0-8.0,"""","<div style=""font-size:60px;"">+</div>","""",2,ITI,Practice,null,1000,"""","""","""","""","""","""","""","""","""",5/1/2021 23:14,47.27.72.87,Mozilla/5.0 (Windows NT 10.0; Win64; x64; rv:88.0) Gecko/20100101 Firefox/88.0,,Firefox,88,Windows,10
225,1,3700,"""",html-keyboard-response,9,94395,0.0-9.0,"""","<img src='jspsych/CFDfaces/CFD-LM-200-045-N.jpg' height=""250px"">,</br><b>Patrick</b>","""",3,IntactFace,Practice,70,5000,f,"""","""","""","""","""","""","""","""",5/1/2021 23:14,47.27.72.87,Mozilla/5.0 (Windows NT 10.0; Win64; x64; rv:88.0) Gecko/20100101 Firefox/88.0,,Firefox,88,Windows,10
225,1,null,"""",html-keyboard-response,10,94915,0.0-10.0,"""","<div style=""font-size:60px;"">+</div>","""",3,ITI,Practice,null,1000,"""","""","""","""","""","""","""","""","""",5/1/2021 23:14,47.27.72.87,Mozilla/5.0 (Windows NT 10.0; Win64; x64; rv:88.0) Gecko/20100101 Firefox/88.0,,Firefox,88,Windows,10
225,1,3632,"""",html-keyboard-response,11,99935,0.0-11.0,"""","<img src='jspsych/CFDfaces/CFD-LF-231-260-N.jpg' height=""250px"">,</br><b>Shannon</b>","""",4,IntactFace,Practice,78,5000,n,"""","""","""","""","""","""","""","""",5/1/2021 23:14,47.27.72.87,Mozilla/5.0 (Windows NT 10.0; Win64; x64; rv:88.0) Gecko/20100101 Firefox/88.0,,Firefox,88,Windows,10
225,1,null,"""",html-keyboard-response,12,100455,0.0-12.0,"""","<div style=""font-size:60px;"">+</div>","""",4,ITI,Practice,null,1000,"""","""","""","""","""","""","""","""","""",5/1/2021 23:14,47.27.72.87,Mozilla/5.0 (Windows NT 10.0; Win64; x64; rv:88.0) Gecko/20100101 Firefox/88.0,,Firefox,88,Windows,10
225,1,3980,"""",html-keyboard-response,13,105476,0.0-13.0,"""","<img src='jspsych/CFDfaces/CFD-AF-220-107-N.jpg' height=""250px"">,</br><b>Cassandra</b>","""",5,IntactFace,Practice,70,5000,f,"""","""","""","""","""","""","""","""",5/1/2021 23:14,47.27.72.87,Mozilla/5.0 (Windows NT 10.0; Win64; x64; rv:88.0) Gecko/20100101 Firefox/88.0,,Firefox,88,Windows,10
225,1,null,"""",html-keyboard-response,14,105995,0.0-14.0,"""","<div style=""font-size:60px;"">+</div>","""",5,ITI,Practice,null,1000,"""","""","""","""","""","""","""","""","""",5/1/2021 23:14,47.27.72.87,Mozilla/5.0 (Windows NT 10.0; Win64; x64; rv:88.0) Gecko/20100101 Firefox/88.0,,Firefox,88,Windows,10
225,1,3456,"""",html-keyboard-response,15,111012,0.0-15.0,"""","<img src='jspsych/CFDfaces/CFD-AM-220-134-N.jpg' height=""250px"">,</br><b>Marcus</b>","""",6,IntactFace,Practice,78,5000,n,"""","""","""","""","""","""","""","""",5/1/2021 23:14,47.27.72.87,Mozilla/5.0 (Windows NT 10.0; Win64; x64; rv:88.0) Gecko/20100101 Firefox/88.0,,Firefox,88,Windows,10
225,1,null,"""",html-keyboard-response,16,111526,0.0-16.0,"""","<div style=""font-size:60px;"">+</div>","""",6,ITI,Practice,null,1000,"""","""","""","""","""","""","""","""","""",5/1/2021 23:14,47.27.72.87,Mozilla/5.0 (Windows NT 10.0; Win64; x64; rv:88.0) Gecko/20100101 Firefox/88.0,,Firefox,88,Windows,10
225,1,4911,"""",html-keyboard-response,17,116545,0.0-17.0,"""","<img src='jspsych/CFDfaces/CFD-LM-209-111-N.jpg' height=""250px"">,</br><b>Samuel</b>","""",7,IntactFace,Practice,70,5000,f,"""","""","""","""","""","""","""","""",5/1/2021 23:14,47.27.72.87,Mozilla/5.0 (Windows NT 10.0; Win64; x64; rv:88.0) Gecko/20100101 Firefox/88.0,,Firefox,88,Windows,10
225,1,null,"""",html-keyboard-response,18,117066,0.0-18.0,"""","<div style=""font-size:60px;"">+</div>","""",7,ITI,Practice,null,1000,"""","""","""","""","""","""","""","""","""",5/1/2021 23:14,47.27.72.87,Mozilla/5.0 (Windows NT 10.0; Win64; x64; rv:88.0) Gecko/20100101 Firefox/88.0,,Firefox,88,Windows,10
225,1,4360,"""",html-keyboard-response,19,122085,0.0-19.0,"""","<img src='jspsych/CFDfaces/CFD-AF-239-171-N.jpg' height=""250px"">,</br><b>Katelyn</b>","""",8,IntactFace,Practice,70,5000,f,"""","""","""","""","""","""","""","""",5/1/2021 23:14,47.27.72.87,Mozilla/5.0 (Windows NT 10.0; Win64; x64; rv:88.0) Gecko/20100101 Firefox/88.0,,Firefox,88,Windows,10
225,1,null,"""",html-keyboard-response,20,122606,0.0-20.0,"""","<div style=""font-size:60px;"">+</div>","""",8,ITI,Practice,null,1000,"""","""","""","""","""","""","""","""","""",5/1/2021 23:14,47.27.72.87,Mozilla/5.0 (Windows NT 10.0; Win64; x64; rv:88.0) Gecko/20100101 Firefox/88.0,,Firefox,88,Windows,10
225,1,30223,"""",image-button-response,21,152834,0.0-21.0,"""",directionsForTest.JPG,0,1,directionsForTest,break,"""","""","""","""","""","""","""","""","""","""","""",5/1/2021 23:14,47.27.72.87,Mozilla/5.0 (Windows NT 10.0; Win64; x64; rv:88.0) Gecko/20100101 Firefox/88.0,,Firefox,88,Windows,10
225,1,19649,"""",image-button-response,22,172489,0.0-22.0,"""",directionsForTest2.JPG,0,1,directionsForTest2,break,"""","""","""","""","""","""","""","""","""","""","""",5/1/2021 23:14,47.27.72.87,Mozilla/5.0 (Windows NT 10.0; Win64; x64; rv:88.0) Gecko/20100101 Firefox/88.0,,Firefox,88,Windows,10
225,1,null,"""",html-keyboard-response,23,173502,0.0-23.0,"""","<div style=""font-size:60px;"">+</div>","""",1,ITI,Practice,null,1000,"""","""","""","""","""","""","""","""","""",5/1/2021 23:14,47.27.72.87,Mozilla/5.0 (Windows NT 10.0; Win64; x64; rv:88.0) Gecko/20100101 Firefox/88.0,,Firefox,88,Windows,10
225,1,null,"""",image-keyboard-response,24,173766,0.0-24.0,"""",jspsych/scrambledNeutralFaces/scrambledAM21NES.JPG,"""",1,forwardMask,Practice,null,250,"""",n,"""","""","""","""","""","""","""",5/1/2021 23:14,47.27.72.87,Mozilla/5.0 (Windows NT 10.0; Win64; x64; rv:88.0) Gecko/20100101 Firefox/88.0,,Firefox,88,Windows,10
225,1,null,"""",image-keyboard-response,25,173786,0.0-25.0,"""",jspsych/neutralFaces/AM21NES.JPG,"""",1,Cue,Practice,null,16,"""","""","""","""","""","""","""","""","""",5/1/2021 23:14,47.27.72.87,Mozilla/5.0 (Windows NT 10.0; Win64; x64; rv:88.0) Gecko/20100101 Firefox/88.0,,Firefox,88,Windows,10
225,1,null,"""",image-keyboard-response,26,173906,0.0-26.0,"""",jspsych/neutralFaces/BM09NES.JPG,"""",1,backwardMask,Practice,null,100,"""","""","""","""","""","""","""","""","""",5/1/2021 23:14,47.27.72.87,Mozilla/5.0 (Windows NT 10.0; Win64; x64; rv:88.0) Gecko/20100101 Firefox/88.0,,Firefox,88,Windows,10
225,1,null,"""",html-keyboard-response,27,174926,0.0-27.0,"""","<div style=""font-size:60px;"">+</div>","""",1,fixationBtwnNeutralMaskAndPrompt,Practice,null,1000,"""","""","""","""","""","""","""","""","""",5/1/2021 23:14,47.27.72.87,Mozilla/5.0 (Windows NT 10.0; Win64; x64; rv:88.0) Gecko/20100101 Firefox/88.0,,Firefox,88,Windows,10
225,1,1864,"""",html-button-response,28,176791,0.0-28.0,"""","<img src='jspsych/CFDfaces/CFD-LM-200-045-N.jpg'height=""250px""></br><b>Patrick</b>",0,1,IntactOrRearranged,Practice,"""","""","""","""",CFD-LM-200-045-N.jpg,Patrick,0,0,"""","""","""",5/1/2021 23:14,47.27.72.87,Mozilla/5.0 (Windows NT 10.0; Win64; x64; rv:88.0) Gecko/20100101 Firefox/88.0,,Firefox,88,Windows,10
225,1,2608,"""",html-slider-response,29,179402,0.0-29.0,"""","<img src='jspsych/CFDfaces/CFD-LM-200-045-N.jpg'height=""250px""></br><b>Patrick</b>","""",1,ConfidenceQuery,Practice,"""","""","""","""",CFD-AM-231-136-N.jpg,Dustin,0,"""",0,100,"""",5/1/2021 23:14,47.27.72.87,Mozilla/5.0 (Windows NT 10.0; Win64; x64; rv:88.0) Gecko/20100101 Firefox/88.0,,Firefox,88,Windows,10
225,1,2022,"""",html-button-response,30,181426,0.0-30.0,"""",You are Correct. You called an Intact Pair Intact,0,1,feedback,Practice,"""","""","""","""","""","""","""","""","""","""","""",5/1/2021 23:14,47.27.72.87,Mozilla/5.0 (Windows NT 10.0; Win64; x64; rv:88.0) Gecko/20100101 Firefox/88.0,,Firefox,88,Windows,10
225,1,null,"""",html-keyboard-response,31,182445,0.0-31.0,"""","<div style=""font-size:60px;"">+</div>","""",2,ITI,Practice,null,1000,"""","""","""","""","""","""","""","""","""",5/1/2021 23:14,47.27.72.87,Mozilla/5.0 (Windows NT 10.0; Win64; x64; rv:88.0) Gecko/20100101 Firefox/88.0,,Firefox,88,Windows,10
225,1,null,"""",image-keyboard-response,32,182705,0.0-32.0,"""",jspsych/scrambledNeutralFaces/scrambledAF32NES.JPG,"""",2,forwardMask,Practice,null,250,"""",n,"""","""","""","""","""","""","""",5/1/2021 23:14,47.27.72.87,Mozilla/5.0 (Windows NT 10.0; Win64; x64; rv:88.0) Gecko/20100101 Firefox/88.0,,Firefox,88,Windows,10
225,1,null,"""",image-keyboard-response,33,182725,0.0-33.0,"""",jspsych/neutralFaces/AF32NES.JPG,"""",2,Cue,Practice,null,16,"""","""","""","""","""","""","""","""","""",5/1/2021 23:14,47.27.72.87,Mozilla/5.0 (Windows NT 10.0; Win64; x64; rv:88.0) Gecko/20100101 Firefox/88.0,,Firefox,88,Windows,10
225,1,null,"""",image-keyboard-response,34,182846,0.0-34.0,"""",jspsych/neutralFaces/BF15NES.JPG,"""",2,backwardMask,Practice,null,100,"""","""","""","""","""","""","""","""","""",5/1/2021 23:14,47.27.72.87,Mozilla/5.0 (Windows NT 10.0; Win64; x64; rv:88.0) Gecko/20100101 Firefox/88.0,,Firefox,88,Windows,10
225,1,null,"""",html-keyboard-response,35,183865,0.0-35.0,"""","<div style=""font-size:60px;"">+</div>","""",2,fixationBtwnNeutralMaskAndPrompt,Practice,null,1000,"""","""","""","""","""","""","""","""","""",5/1/2021 23:14,47.27.72.87,Mozilla/5.0 (Windows NT 10.0; Win64; x64; rv:88.0) Gecko/20100101 Firefox/88.0,,Firefox,88,Windows,10
225,1,1594,"""",html-button-response,36,185461,0.0-36.0,"""","<img src='jspsych/CFDfaces/CFD-BM-211-174-N.jpg'height=""250px""></br><b>Marcus</b>",0,2,IntactOrRearranged,Practice,"""","""","""","""",CFD-BM-211-174-N.jpg,Marcus,1,0,"""","""","""",5/1/2021 23:14,47.27.72.87,Mozilla/5.0 (Windows NT 10.0; Win64; x64; rv:88.0) Gecko/20100101 Firefox/88.0,,Firefox,88,Windows,10
225,1,3743,"""",html-slider-response,37,189206,0.0-37.0,"""","<img src='jspsych/CFDfaces/CFD-BM-211-174-N.jpg'height=""250px""></br><b>Marcus</b>","""",2,ConfidenceQuery,Practice,"""","""","""","""",CFD-AM-231-136-N.jpg,Dustin,1,"""",0,0,"""",5/1/2021 23:14,47.27.72.87,Mozilla/5.0 (Windows NT 10.0; Win64; x64; rv:88.0) Gecko/20100101 Firefox/88.0,,Firefox,88,Windows,10
225,1,1854,"""",html-button-response,38,191061,0.0-38.0,"""",You are Incorrect. You called a Rearranged Pair Intact,0,2,feedback,Practice,"""","""","""","""","""","""","""","""","""","""","""",5/1/2021 23:14,47.27.72.87,Mozilla/5.0 (Windows NT 10.0; Win64; x64; rv:88.0) Gecko/20100101 Firefox/88.0,,Firefox,88,Windows,10
225,1,null,"""",html-keyboard-response,39,192066,0.0-39.0,"""","<div style=""font-size:60px;"">+</div>","""",3,ITI,Practice,null,1000,"""","""","""","""","""","""","""","""","""",5/1/2021 23:14,47.27.72.87,Mozilla/5.0 (Windows NT 10.0; Win64; x64; rv:88.0) Gecko/20100101 Firefox/88.0,,Firefox,88,Windows,10
225,1,null,"""",image-keyboard-response,40,192326,0.0-40.0,"""",jspsych/scrambledDisgustFaces/scrambledBF26DIS.JPG,"""",3,forwardMask,Practice,null,250,"""",d,"""","""","""","""","""","""","""",5/1/2021 23:14,47.27.72.87,Mozilla/5.0 (Windows NT 10.0; Win64; x64; rv:88.0) Gecko/20100101 Firefox/88.0,,Firefox,88,Windows,10
225,1,null,"""",image-keyboard-response,41,192345,0.0-41.0,"""",jspsych/disgustFaces/BF26DIS.JPG,"""",3,Cue,Practice,null,16,"""","""","""","""","""","""","""","""","""",5/1/2021 23:14,47.27.72.87,Mozilla/5.0 (Windows NT 10.0; Win64; x64; rv:88.0) Gecko/20100101 Firefox/88.0,,Firefox,88,Windows,10
225,1,null,"""",image-keyboard-response,42,192465,0.0-42.0,"""",jspsych/neutralFaces/AF31NES.JPG,"""",3,backwardMask,Practice,null,100,"""","""","""","""","""","""","""","""","""",5/1/2021 23:14,47.27.72.87,Mozilla/5.0 (Windows NT 10.0; Win64; x64; rv:88.0) Gecko/20100101 Firefox/88.0,,Firefox,88,Windows,10
225,1,null,"""",html-keyboard-response,43,193485,0.0-43.0,"""","<div style=""font-size:60px;"">+</div>","""",3,fixationBtwnNeutralMaskAndPrompt,Practice,null,1000,"""","""","""","""","""","""","""","""","""",5/1/2021 23:14,47.27.72.87,Mozilla/5.0 (Windows NT 10.0; Win64; x64; rv:88.0) Gecko/20100101 Firefox/88.0,,Firefox,88,Windows,10
225,1,1874,"""",html-button-response,44,195361,0.0-44.0,"""","<img src='jspsych/CFDfaces/CFD-AF-239-171-N.jpg'height=""250px""></br><b>Cassandra</b>",1,3,IntactOrRearranged,Practice,"""","""","""","""",CFD-AF-239-171-N.jpg,Cassandra,1,1,"""","""","""",5/1/2021 23:14,47.27.72.87,Mozilla/5.0 (Windows NT 10.0; Win64; x64; rv:88.0) Gecko/20100101 Firefox/88.0,,Firefox,88,Windows,10
225,1,2226,"""",html-slider-response,45,197588,0.0-45.0,"""","<img src='jspsych/CFDfaces/CFD-AF-239-171-N.jpg'height=""250px""></br><b>Cassandra</b>","""",3,ConfidenceQuery,Practice,"""","""","""","""",CFD-AM-231-136-N.jpg,Dustin,1,"""",0,100,"""",5/1/2021 23:14,47.27.72.87,Mozilla/5.0 (Windows NT 10.0; Win64; x64; rv:88.0) Gecko/20100101 Firefox/88.0,,Firefox,88,Windows,10
225,1,1175,"""",html-button-response,46,198765,0.0-46.0,"""",You are Correct. You Called A Rearranged Pair Rearranged,0,3,feedback,Practice,"""","""","""","""","""","""","""","""","""","""","""",5/1/2021 23:14,47.27.72.87,Mozilla/5.0 (Windows NT 10.0; Win64; x64; rv:88.0) Gecko/20100101 Firefox/88.0,,Firefox,88,Windows,10
225,1,null,"""",html-keyboard-response,47,199786,0.0-47.0,"""","<div style=""font-size:60px;"">+</div>","""",4,ITI,Practice,null,1000,"""","""","""","""","""","""","""","""","""",5/1/2021 23:14,47.27.72.87,Mozilla/5.0 (Windows NT 10.0; Win64; x64; rv:88.0) Gecko/20100101 Firefox/88.0,,Firefox,88,Windows,10
225,1,null,"""",image-keyboard-response,48,200045,0.0-48.0,"""",jspsych/scrambledDisgustFaces/scrambledAM28DIS.JPG,"""",4,forwardMask,Practice,null,250,"""",d,"""","""","""","""","""","""","""",5/1/2021 23:14,47.27.72.87,Mozilla/5.0 (Windows NT 10.0; Win64; x64; rv:88.0) Gecko/20100101 Firefox/88.0,,Firefox,88,Windows,10
225,1,null,"""",image-keyboard-response,49,200065,0.0-49.0,"""",jspsych/disgustFaces/AM28DIS.JPG,"""",4,Cue,Practice,null,16,"""","""","""","""","""","""","""","""","""",5/1/2021 23:14,47.27.72.87,Mozilla/5.0 (Windows NT 10.0; Win64; x64; rv:88.0) Gecko/20100101 Firefox/88.0,,Firefox,88,Windows,10
225,1,null,"""",image-keyboard-response,50,200185,0.0-50.0,"""",jspsych/neutralFaces/AM33NES.JPG,"""",4,backwardMask,Practice,null,100,"""","""","""","""","""","""","""","""","""",5/1/2021 23:14,47.27.72.87,Mozilla/5.0 (Windows NT 10.0; Win64; x64; rv:88.0) Gecko/20100101 Firefox/88.0,,Firefox,88,Windows,10
225,1,null,"""",html-keyboard-response,51,201205,0.0-51.0,"""","<div style=""font-size:60px;"">+</div>","""",4,fixationBtwnNeutralMaskAndPrompt,Practice,null,1000,"""","""","""","""","""","""","""","""","""",5/1/2021 23:14,47.27.72.87,Mozilla/5.0 (Windows NT 10.0; Win64; x64; rv:88.0) Gecko/20100101 Firefox/88.0,,Firefox,88,Windows,10
225,1,1198,"""",html-button-response,52,202405,0.0-52.0,"""","<img src='jspsych/CFDfaces/CFD-AF-241-141-N.jpg'height=""250px""></br><b>Tara</b>",0,4,IntactOrRearranged,Practice,"""","""","""","""",CFD-AF-241-141-N.jpg,Tara,0,0,"""","""","""",5/1/2021 23:14,47.27.72.87,Mozilla/5.0 (Windows NT 10.0; Win64; x64; rv:88.0) Gecko/20100101 Firefox/88.0,,Firefox,88,Windows,10
225,1,2089,"""",html-slider-response,53,204496,0.0-53.0,"""","<img src='jspsych/CFDfaces/CFD-AF-241-141-N.jpg'height=""250px""></br><b>Tara</b>","""",4,ConfidenceQuery,Practice,"""","""","""","""",CFD-AM-231-136-N.jpg,Dustin,0,"""",0,100,"""",5/1/2021 23:14,47.27.72.87,Mozilla/5.0 (Windows NT 10.0; Win64; x64; rv:88.0) Gecko/20100101 Firefox/88.0,,Firefox,88,Windows,10
225,1,1329,"""",html-button-response,54,205827,0.0-54.0,"""",You are Correct. You called an Intact Pair Intact,0,4,feedback,Practice,"""","""","""","""","""","""","""","""","""","""","""",5/1/2021 23:14,47.27.72.87,Mozilla/5.0 (Windows NT 10.0; Win64; x64; rv:88.0) Gecko/20100101 Firefox/88.0,,Firefox,88,Windows,10
225,1,null,"""",html-keyboard-response,55,206837,0.0-55.0,"""","<div style=""font-size:60px;"">+</div>","""",5,ITI,Practice,null,1000,"""","""","""","""","""","""","""","""","""",5/1/2021 23:14,47.27.72.87,Mozilla/5.0 (Windows NT 10.0; Win64; x64; rv:88.0) Gecko/20100101 Firefox/88.0,,Firefox,88,Windows,10
225,1,null,"""",image-keyboard-response,56,207106,0.0-56.0,"""",jspsych/scrambledNeutralFaces/scrambledAM18NES.JPG,"""",5,forwardMask,Practice,null,250,"""",n,"""","""","""","""","""","""","""",5/1/2021 23:14,47.27.72.87,Mozilla/5.0 (Windows NT 10.0; Win64; x64; rv:88.0) Gecko/20100101 Firefox/88.0,,Firefox,88,Windows,10
225,1,null,"""",image-keyboard-response,57,207126,0.0-57.0,"""",jspsych/neutralFaces/AM18NES.JPG,"""",5,Cue,Practice,null,16,"""","""","""","""","""","""","""","""","""",5/1/2021 23:14,47.27.72.87,Mozilla/5.0 (Windows NT 10.0; Win64; x64; rv:88.0) Gecko/20100101 Firefox/88.0,,Firefox,88,Windows,10
225,1,null,"""",image-keyboard-response,58,207245,0.0-58.0,"""",jspsych/neutralFaces/AM14NES.JPG,"""",5,backwardMask,Practice,null,100,"""","""","""","""","""","""","""","""","""",5/1/2021 23:14,47.27.72.87,Mozilla/5.0 (Windows NT 10.0; Win64; x64; rv:88.0) Gecko/20100101 Firefox/88.0,,Firefox,88,Windows,10
225,1,null,"""",html-keyboard-response,59,208265,0.0-59.0,"""","<div style=""font-size:60px;"">+</div>","""",5,fixationBtwnNeutralMaskAndPrompt,Practice,null,1000,"""","""","""","""","""","""","""","""","""",5/1/2021 23:14,47.27.72.87,Mozilla/5.0 (Windows NT 10.0; Win64; x64; rv:88.0) Gecko/20100101 Firefox/88.0,,Firefox,88,Windows,10
225,1,1621,"""",html-button-response,60,209887,0.0-60.0,"""","<img src='jspsych/CFDfaces/CFD-AF-220-107-N.jpg'height=""250px""></br><b>Katelyn</b>",1,5,IntactOrRearranged,Practice,"""","""","""","""",CFD-AF-220-107-N.jpg,Katelyn,1,1,"""","""","""",5/1/2021 23:14,47.27.72.87,Mozilla/5.0 (Windows NT 10.0; Win64; x64; rv:88.0) Gecko/20100101 Firefox/88.0,,Firefox,88,Windows,10
225,1,1984,"""",html-slider-response,61,211873,0.0-61.0,"""","<img src='jspsych/CFDfaces/CFD-AF-220-107-N.jpg'height=""250px""></br><b>Katelyn</b>","""",5,ConfidenceQuery,Practice,"""","""","""","""",CFD-AM-231-136-N.jpg,Dustin,1,"""",0,100,"""",5/1/2021 23:14,47.27.72.87,Mozilla/5.0 (Windows NT 10.0; Win64; x64; rv:88.0) Gecko/20100101 Firefox/88.0,,Firefox,88,Windows,10
225,1,1065,"""",html-button-response,62,212941,0.0-62.0,"""",You are Correct. You Called A Rearranged Pair Rearranged,0,5,feedback,Practice,"""","""","""","""","""","""","""","""","""","""","""",5/1/2021 23:14,47.27.72.87,Mozilla/5.0 (Windows NT 10.0; Win64; x64; rv:88.0) Gecko/20100101 Firefox/88.0,,Firefox,88,Windows,10
225,1,null,"""",html-keyboard-response,63,213942,0.0-63.0,"""","<div style=""font-size:60px;"">+</div>","""",6,ITI,Practice,null,1000,"""","""","""","""","""","""","""","""","""",5/1/2021 23:14,47.27.72.87,Mozilla/5.0 (Windows NT 10.0; Win64; x64; rv:88.0) Gecko/20100101 Firefox/88.0,,Firefox,88,Windows,10
225,1,null,"""",image-keyboard-response,64,214205,0.0-64.0,"""",jspsych/scrambledNeutralFaces/scrambledBF29NES.JPG,"""",6,forwardMask,Practice,null,250,"""",n,"""","""","""","""","""","""","""",5/1/2021 23:14,47.27.72.87,Mozilla/5.0 (Windows NT 10.0; Win64; x64; rv:88.0) Gecko/20100101 Firefox/88.0,,Firefox,88,Windows,10
225,1,null,"""",image-keyboard-response,65,214225,0.0-65.0,"""",jspsych/neutralFaces/BF29NES.JPG,"""",6,Cue,Practice,null,16,"""","""","""","""","""","""","""","""","""",5/1/2021 23:14,47.27.72.87,Mozilla/5.0 (Windows NT 10.0; Win64; x64; rv:88.0) Gecko/20100101 Firefox/88.0,,Firefox,88,Windows,10
225,1,null,"""",image-keyboard-response,66,214337,0.0-66.0,"""",jspsych/neutralFaces/AF12NES.JPG,"""",6,backwardMask,Practice,null,100,"""","""","""","""","""","""","""","""","""",5/1/2021 23:14,47.27.72.87,Mozilla/5.0 (Windows NT 10.0; Win64; x64; rv:88.0) Gecko/20100101 Firefox/88.0,,Firefox,88,Windows,10
225,1,null,"""",html-keyboard-response,67,215342,0.0-67.0,"""","<div style=""font-size:60px;"">+</div>","""",6,fixationBtwnNeutralMaskAndPrompt,Practice,null,1000,"""","""","""","""","""","""","""","""","""",5/1/2021 23:14,47.27.72.87,Mozilla/5.0 (Windows NT 10.0; Win64; x64; rv:88.0) Gecko/20100101 Firefox/88.0,,Firefox,88,Windows,10
225,1,1752,"""",html-button-response,68,217095,0.0-68.0,"""","<img src='jspsych/CFDfaces/CFD-AM-220-134-N.jpg'height=""250px""></br><b>Carlos</b>",1,6,IntactOrRearranged,Practice,"""","""","""","""",CFD-AM-220-134-N.jpg,Carlos,1,1,"""","""","""",5/1/2021 23:14,47.27.72.87,Mozilla/5.0 (Windows NT 10.0; Win64; x64; rv:88.0) Gecko/20100101 Firefox/88.0,,Firefox,88,Windows,10
225,1,1696,"""",html-slider-response,69,218792,0.0-69.0,"""","<img src='jspsych/CFDfaces/CFD-AM-220-134-N.jpg'height=""250px""></br><b>Carlos</b>","""",6,ConfidenceQuery,Practice,"""","""","""","""",CFD-AM-231-136-N.jpg,Dustin,1,"""",0,100,"""",5/1/2021 23:14,47.27.72.87,Mozilla/5.0 (Windows NT 10.0; Win64; x64; rv:88.0) Gecko/20100101 Firefox/88.0,,Firefox,88,Windows,10
225,1,945,"""",html-button-response,70,219741,0.0-70.0,"""",You are Correct. You Called A Rearranged Pair Rearranged,0,6,feedback,Practice,"""","""","""","""","""","""","""","""","""","""","""",5/1/2021 23:14,47.27.72.87,Mozilla/5.0 (Windows NT 10.0; Win64; x64; rv:88.0) Gecko/20100101 Firefox/88.0,,Firefox,88,Windows,10
225,1,null,"""",html-keyboard-response,71,220745,0.0-71.0,"""","<div style=""font-size:60px;"">+</div>","""",7,ITI,Practice,null,1000,"""","""","""","""","""","""","""","""","""",5/1/2021 23:14,47.27.72.87,Mozilla/5.0 (Windows NT 10.0; Win64; x64; rv:88.0) Gecko/20100101 Firefox/88.0,,Firefox,88,Windows,10
225,1,null,"""",image-keyboard-response,72,221006,0.0-72.0,"""",jspsych/scrambledDisgustFaces/scrambledBF07DIS.JPG,"""",7,forwardMask,Practice,null,250,"""",d,"""","""","""","""","""","""","""",5/1/2021 23:14,47.27.72.87,Mozilla/5.0 (Windows NT 10.0; Win64; x64; rv:88.0) Gecko/20100101 Firefox/88.0,,Firefox,88,Windows,10
225,1,null,"""",image-keyboard-response,73,221025,0.0-73.0,"""",jspsych/disgustFaces/BF07DIS.JPG,"""",7,Cue,Practice,null,16,"""","""","""","""","""","""","""","""","""",5/1/2021 23:14,47.27.72.87,Mozilla/5.0 (Windows NT 10.0; Win64; x64; rv:88.0) Gecko/20100101 Firefox/88.0,,Firefox,88,Windows,10
225,1,null,"""",image-keyboard-response,74,221146,0.0-74.0,"""",jspsych/neutralFaces/BF30NES.JPG,"""",7,backwardMask,Practice,null,100,"""","""","""","""","""","""","""","""","""",5/1/2021 23:14,47.27.72.87,Mozilla/5.0 (Windows NT 10.0; Win64; x64; rv:88.0) Gecko/20100101 Firefox/88.0,,Firefox,88,Windows,10
225,1,null,"""",html-keyboard-response,75,222165,0.0-75.0,"""","<div style=""font-size:60px;"">+</div>","""",7,fixationBtwnNeutralMaskAndPrompt,Practice,null,1000,"""","""","""","""","""","""","""","""","""",5/1/2021 23:14,47.27.72.87,Mozilla/5.0 (Windows NT 10.0; Win64; x64; rv:88.0) Gecko/20100101 Firefox/88.0,,Firefox,88,Windows,10
225,1,1291,"""",html-button-response,76,223458,0.0-76.0,"""","<img src='jspsych/CFDfaces/CFD-LF-231-260-N.jpg'height=""250px""></br><b>Shannon</b>",0,7,IntactOrRearranged,Practice,"""","""","""","""",CFD-LF-231-260-N.jpg,Shannon,0,0,"""","""","""",5/1/2021 23:14,47.27.72.87,Mozilla/5.0 (Windows NT 10.0; Win64; x64; rv:88.0) Gecko/20100101 Firefox/88.0,,Firefox,88,Windows,10
225,1,1898,"""",html-slider-response,77,225356,0.0-77.0,"""","<img src='jspsych/CFDfaces/CFD-LF-231-260-N.jpg'height=""250px""></br><b>Shannon</b>","""",7,ConfidenceQuery,Practice,"""","""","""","""",CFD-AM-231-136-N.jpg,Dustin,0,"""",0,100,"""",5/1/2021 23:14,47.27.72.87,Mozilla/5.0 (Windows NT 10.0; Win64; x64; rv:88.0) Gecko/20100101 Firefox/88.0,,Firefox,88,Windows,10
225,1,1039,"""",html-button-response,78,226398,0.0-78.0,"""",You are Correct. You called an Intact Pair Intact,0,7,feedback,Practice,"""","""","""","""","""","""","""","""","""","""","""",5/1/2021 23:14,47.27.72.87,Mozilla/5.0 (Windows NT 10.0; Win64; x64; rv:88.0) Gecko/20100101 Firefox/88.0,,Firefox,88,Windows,10
225,1,null,"""",html-keyboard-response,79,227406,0.0-79.0,"""","<div style=""font-size:60px;"">+</div>","""",8,ITI,Practice,null,1000,"""","""","""","""","""","""","""","""","""",5/1/2021 23:14,47.27.72.87,Mozilla/5.0 (Windows NT 10.0; Win64; x64; rv:88.0) Gecko/20100101 Firefox/88.0,,Firefox,88,Windows,10
225,1,null,"""",image-keyboard-response,80,227665,0.0-80.0,"""",jspsych/scrambledNeutralFaces/scrambledBM34NES.JPG,"""",8,forwardMask,Practice,null,250,"""",n,"""","""","""","""","""","""","""",5/1/2021 23:14,47.27.72.87,Mozilla/5.0 (Windows NT 10.0; Win64; x64; rv:88.0) Gecko/20100101 Firefox/88.0,,Firefox,88,Windows,10
225,1,null,"""",image-keyboard-response,81,227686,0.0-81.0,"""",jspsych/neutralFaces/BM34NES.JPG,"""",8,Cue,Practice,null,16,"""","""","""","""","""","""","""","""","""",5/1/2021 23:14,47.27.72.87,Mozilla/5.0 (Windows NT 10.0; Win64; x64; rv:88.0) Gecko/20100101 Firefox/88.0,,Firefox,88,Windows,10
225,1,null,"""",image-keyboard-response,82,227805,0.0-82.0,"""",jspsych/neutralFaces/AM25NES.JPG,"""",8,backwardMask,Practice,null,100,"""","""","""","""","""","""","""","""","""",5/1/2021 23:14,47.27.72.87,Mozilla/5.0 (Windows NT 10.0; Win64; x64; rv:88.0) Gecko/20100101 Firefox/88.0,,Firefox,88,Windows,10
225,1,null,"""",html-keyboard-response,83,228825,0.0-83.0,"""","<div style=""font-size:60px;"">+</div>","""",8,fixationBtwnNeutralMaskAndPrompt,Practice,null,1000,"""","""","""","""","""","""","""","""","""",5/1/2021 23:14,47.27.72.87,Mozilla/5.0 (Windows NT 10.0; Win64; x64; rv:88.0) Gecko/20100101 Firefox/88.0,,Firefox,88,Windows,10
225,1,1425,"""",html-button-response,84,230251,0.0-84.0,"""","<img src='jspsych/CFDfaces/CFD-LM-209-111-N.jpg'height=""250px""></br><b>Samuel</b>",1,8,IntactOrRearranged,Practice,"""","""","""","""",CFD-LM-209-111-N.jpg,Samuel,0,1,"""","""","""",5/1/2021 23:14,47.27.72.87,Mozilla/5.0 (Windows NT 10.0; Win64; x64; rv:88.0) Gecko/20100101 Firefox/88.0,,Firefox,88,Windows,10
225,1,3337,"""",html-slider-response,85,233591,0.0-85.0,"""","<img src='jspsych/CFDfaces/CFD-LM-209-111-N.jpg'height=""250px""></br><b>Samuel</b>","""",8,ConfidenceQuery,Practice,"""","""","""","""",CFD-AM-231-136-N.jpg,Dustin,0,"""",0,49,"""",5/1/2021 23:14,47.27.72.87,Mozilla/5.0 (Windows NT 10.0; Win64; x64; rv:88.0) Gecko/20100101 Firefox/88.0,,Firefox,88,Windows,10
225,1,1517,"""",html-button-response,86,235109,0.0-86.0,"""",You are Incorrect. You Called an Intact Pair Rearranged,0,8,feedback,Practice,"""","""","""","""","""","""","""","""","""","""","""",5/1/2021 23:14,47.27.72.87,Mozilla/5.0 (Windows NT 10.0; Win64; x64; rv:88.0) Gecko/20100101 Firefox/88.0,,Firefox,88,Windows,10
225,1,14356,"""",image-button-response,87,249471,0.0-87.0,"""",directionsMemoryAssociation3.JPG,0,128,DirectionsBeforeActualTEst,Break,"""","""","""","""","""","""","""","""","""","""","""",5/1/2021 23:14,47.27.72.87,Mozilla/5.0 (Windows NT 10.0; Win64; x64; rv:88.0) Gecko/20100101 Firefox/88.0,,Firefox,88,Windows,10
225,1,12023,"""",image-button-response,88,261497,0.0-88.0,"""",directionsForTest2.JPG,0,1,directionsForTest2,break,"""","""","""","""","""","""","""","""","""","""","""",5/1/2021 23:14,47.27.72.87,Mozilla/5.0 (Windows NT 10.0; Win64; x64; rv:88.0) Gecko/20100101 Firefox/88.0,,Firefox,88,Windows,10
225,1,7584,"""",html-button-response,89,269082,0.0-89.0,"""","<p>You will be asked to memorize and then recall four sets of face-name pairs. </p> <p> Each set will have 32 pairs. </p> <p>After the fourth set, there will be a brief follow-up experiment (<40 min alltogether)</p>",0,"""","""","""","""","""","""","""","""","""","""","""","""","""","""",5/1/2021 23:14,47.27.72.87,Mozilla/5.0 (Windows NT 10.0; Win64; x64; rv:88.0) Gecko/20100101 Firefox/88.0,,Firefox,88,Windows,10
225,1,2746,"""",html-keyboard-response,90,274106,0.0-90.0,"""","<img src='jspsych/CFDfaces/CFD-LF-202-065-N.jpg' height=""250px""></br><b>Vanessa</b>","""",256,IntactFace,Memorization,70,5000,f,"""",CFD-WM-020-001-N.jpg,Jacob,0,"""","""","""",1,5/1/2021 23:14,47.27.72.87,Mozilla/5.0 (Windows NT 10.0; Win64; x64; rv:88.0) Gecko/20100101 Firefox/88.0,,Firefox,88,Windows,10
225,1,null,"""",html-keyboard-response,91,274625,0.0-91.0,"""","<div style=""font-size:60px;"">+</div>","""",256,fixation,Memorization,null,500,"""","""","""","""","""","""","""","""",1,5/1/2021 23:14,47.27.72.87,Mozilla/5.0 (Windows NT 10.0; Win64; x64; rv:88.0) Gecko/20100101 Firefox/88.0,,Firefox,88,Windows,10
225,1,2149,"""",html-keyboard-response,92,279646,0.0-92.0,"""","<img src='jspsych/CFDfaces/CFD-AM-205-153-N.jpg' height=""250px""></br><b>Brandon</b>","""",256,IntactFace,Memorization,78,5000,n,"""",CFD-LM-224-162-N.jpg,Cameron,0,"""","""","""",1,5/1/2021 23:14,47.27.72.87,Mozilla/5.0 (Windows NT 10.0; Win64; x64; rv:88.0) Gecko/20100101 Firefox/88.0,,Firefox,88,Windows,10
225,1,null,"""",html-keyboard-response,93,280166,0.0-93.0,"""","<div style=""font-size:60px;"">+</div>","""",256,fixation,Memorization,null,500,"""","""","""","""","""","""","""","""",1,5/1/2021 23:14,47.27.72.87,Mozilla/5.0 (Windows NT 10.0; Win64; x64; rv:88.0) Gecko/20100101 Firefox/88.0,,Firefox,88,Windows,10
225,1,2745,"""",html-keyboard-response,94,285186,0.0-94.0,"""","<img src='jspsych/CFDfaces/CFD-BM-210-148-N.jpg' height=""250px""></br><b>Brian</b>","""",256,IntactFace,Memorization,78,5000,n,"""",CFD-BM-022-022-N.jpg,Mark,0,"""","""","""",1,5/1/2021 23:14,47.27.72.87,Mozilla/5.0 (Windows NT 10.0; Win64; x64; rv:88.0) Gecko/20100101 Firefox/88.0,,Firefox,88,Windows,10
225,1,null,"""",html-keyboard-response,95,285705,0.0-95.0,"""","<div style=""font-size:60px;"">+</div>","""",256,fixation,Memorization,null,500,"""","""","""","""","""","""","""","""",1,5/1/2021 23:14,47.27.72.87,Mozilla/5.0 (Windows NT 10.0; Win64; x64; rv:88.0) Gecko/20100101 Firefox/88.0,,Firefox,88,Windows,10
225,1,3110,"""",html-keyboard-response,96,290725,0.0-96.0,"""","<img src='jspsych/CFDfaces/CFD-LF-213-079-N.jpg' height=""250px""></br><b>Ashley</b>","""",256,IntactFace,Memorization,70,5000,f,"""",CFD-LF-220-120-N.jpg,Tiffany,0,"""","""","""",1,5/1/2021 23:14,47.27.72.87,Mozilla/5.0 (Windows NT 10.0; Win64; x64; rv:88.0) Gecko/20100101 Firefox/88.0,,Firefox,88,Windows,10
225,1,null,"""",html-keyboard-response,97,291246,0.0-97.0,"""","<div style=""font-size:60px;"">+</div>","""",256,fixation,Memorization,null,500,"""","""","""","""","""","""","""","""",1,5/1/2021 23:14,47.27.72.87,Mozilla/5.0 (Windows NT 10.0; Win64; x64; rv:88.0) Gecko/20100101 Firefox/88.0,,Firefox,88,Windows,10
225,1,1538,"""",html-keyboard-response,98,296266,0.0-98.0,"""","<img src='jspsych/CFDfaces/CFD-LF-201-035-N.jpg' height=""250px""></br><b>Kimberly</b>","""",256,IntactFace,Memorization,70,5000,f,"""",CFD-BM-032-024-N.jpg,Sean,0,"""","""","""",1,5/1/2021 23:14,47.27.72.87,Mozilla/5.0 (Windows NT 10.0; Win64; x64; rv:88.0) Gecko/20100101 Firefox/88.0,,Firefox,88,Windows,10
225,1,null,"""",html-keyboard-response,99,296785,0.0-99.0,"""","<div style=""font-size:60px;"">+</div>","""",256,fixation,Memorization,null,500,"""","""","""","""","""","""","""","""",1,5/1/2021 23:14,47.27.72.87,Mozilla/5.0 (Windows NT 10.0; Win64; x64; rv:88.0) Gecko/20100101 Firefox/88.0,,Firefox,88,Windows,10
225,1,4587,"""",html-keyboard-response,100,301805,0.0-100.0,"""","<img src='jspsych/CFDfaces/CFD-BF-016-017-N.jpg' height=""250px""></br><b>Elizabeth</b>","""",256,IntactFace,Memorization,78,5000,n,"""",CFD-BM-017-021-N.jpg,Steven,0,"""","""","""",1,5/1/2021 23:14,47.27.72.87,Mozilla/5.0 (Windows NT 10.0; Win64; x64; rv:88.0) Gecko/20100101 Firefox/88.0,,Firefox,88,Windows,10
225,1,null,"""",html-keyboard-response,101,302325,0.0-101.0,"""","<div style=""font-size:60px;"">+</div>","""",256,fixation,Memorization,null,500,"""","""","""","""","""","""","""","""",1,5/1/2021 23:14,47.27.72.87,Mozilla/5.0 (Windows NT 10.0; Win64; x64; rv:88.0) Gecko/20100101 Firefox/88.0,,Firefox,88,Windows,10
225,1,2348,"""",html-keyboard-response,102,307343,0.0-102.0,"""","<img src='jspsych/CFDfaces/CFD-AF-203-077-N.jpg' height=""250px""></br><b>Christina</b>","""",256,IntactFace,Memorization,70,5000,f,"""",CFD-LM-225-130-N.jpg,Jesse,0,"""","""","""",1,5/1/2021 23:14,47.27.72.87,Mozilla/5.0 (Windows NT 10.0; Win64; x64; rv:88.0) Gecko/20100101 Firefox/88.0,,Firefox,88,Windows,10
225,1,null,"""",html-keyboard-response,103,307866,0.0-103.0,"""","<div style=""font-size:60px;"">+</div>","""",256,fixation,Memorization,null,500,"""","""","""","""","""","""","""","""",1,5/1/2021 23:14,47.27.72.87,Mozilla/5.0 (Windows NT 10.0; Win64; x64; rv:88.0) Gecko/20100101 Firefox/88.0,,Firefox,88,Windows,10
225,1,2353,"""",html-keyboard-response,104,312886,0.0-104.0,"""","<img src='jspsych/CFDfaces/CFD-WM-022-001-N.jpg' height=""250px""></br><b>Jason</b>","""",256,IntactFace,Memorization,70,5000,f,"""",CFD-AF-226-251-N.jpg,Taylor,0,"""","""","""",1,5/1/2021 23:14,47.27.72.87,Mozilla/5.0 (Windows NT 10.0; Win64; x64; rv:88.0) Gecko/20100101 Firefox/88.0,,Firefox,88,Windows,10
225,1,null,"""",html-keyboard-response,105,313406,0.0-105.0,"""","<div style=""font-size:60px;"">+</div>","""",256,fixation,Memorization,null,500,"""","""","""","""","""","""","""","""",1,5/1/2021 23:14,47.27.72.87,Mozilla/5.0 (Windows NT 10.0; Win64; x64; rv:88.0) Gecko/20100101 Firefox/88.0,,Firefox,88,Windows,10
225,1,2376,"""",html-keyboard-response,106,318427,0.0-106.0,"""","<img src='jspsych/CFDfaces/CFD-LF-218-072-N.jpg' height=""250px""></br><b>Michelle</b>","""",256,IntactFace,Memorization,78,5000,n,"""",CFD-AF-201-060-N.jpg,Erin,0,"""","""","""",1,5/1/2021 23:14,47.27.72.87,Mozilla/5.0 (Windows NT 10.0; Win64; x64; rv:88.0) Gecko/20100101 Firefox/88.0,,Firefox,88,Windows,10
225,1,null,"""",html-keyboard-response,107,318947,0.0-107.0,"""","<div style=""font-size:60px;"">+</div>","""",256,fixation,Memorization,null,500,"""","""","""","""","""","""","""","""",1,5/1/2021 23:14,47.27.72.87,Mozilla/5.0 (Windows NT 10.0; Win64; x64; rv:88.0) Gecko/20100101 Firefox/88.0,,Firefox,88,Windows,10
225,1,1943,"""",html-keyboard-response,108,323966,0.0-108.0,"""","<img src='jspsych/CFDfaces/CFD-WM-034-030-N.jpg' height=""250px""></br><b>Juan</b>","""",256,IntactFace,Memorization,78,5000,n,"""",CFD-LF-204-133-N.jpg,Lindsey,0,"""","""","""",1,5/1/2021 23:14,47.27.72.87,Mozilla/5.0 (Windows NT 10.0; Win64; x64; rv:88.0) Gecko/20100101 Firefox/88.0,,Firefox,88,Windows,10
225,1,null,"""",html-keyboard-response,109,324486,0.0-109.0,"""","<div style=""font-size:60px;"">+</div>","""",256,fixation,Memorization,null,500,"""","""","""","""","""","""","""","""",1,5/1/2021 23:14,47.27.72.87,Mozilla/5.0 (Windows NT 10.0; Win64; x64; rv:88.0) Gecko/20100101 Firefox/88.0,,Firefox,88,Windows,10
225,1,2698,"""",html-keyboard-response,110,329494,0.0-110.0,"""","<img src='jspsych/CFDfaces/CFD-BM-018-001-N.jpg' height=""250px""></br><b>Jeffrey</b>","""",256,IntactFace,Memorization,70,5000,f,"""",CFD-WF-019-005-N.jpg,Sara,0,"""","""","""",1,5/1/2021 23:14,47.27.72.87,Mozilla/5.0 (Windows NT 10.0; Win64; x64; rv:88.0) Gecko/20100101 Firefox/88.0,,Firefox,88,Windows,10
225,1,null,"""",html-keyboard-response,111,330016,0.0-111.0,"""","<div style=""font-size:60px;"">+</div>","""",256,fixation,Memorization,null,500,"""","""","""","""","""","""","""","""",1,5/1/2021 23:14,47.27.72.87,Mozilla/5.0 (Windows NT 10.0; Win64; x64; rv:88.0) Gecko/20100101 Firefox/88.0,,Firefox,88,Windows,10
225,1,1417,"""",html-keyboard-response,112,335036,0.0-112.0,"""","<img src='jspsych/CFDfaces/CFD-WM-011-002-N.jpg' height=""250px""></br><b>Peter</b>","""",256,IntactFace,Memorization,70,5000,f,"""",CFD-AF-237-223-N.jpg,Rebecca,0,"""","""","""",1,5/1/2021 23:14,47.27.72.87,Mozilla/5.0 (Windows NT 10.0; Win64; x64; rv:88.0) Gecko/20100101 Firefox/88.0,,Firefox,88,Windows,10
225,1,null,"""",html-keyboard-response,113,335556,0.0-113.0,"""","<div style=""font-size:60px;"">+</div>","""",256,fixation,Memorization,null,500,"""","""","""","""","""","""","""","""",1,5/1/2021 23:14,47.27.72.87,Mozilla/5.0 (Windows NT 10.0; Win64; x64; rv:88.0) Gecko/20100101 Firefox/88.0,,Firefox,88,Windows,10
225,1,1276,"""",html-keyboard-response,114,340576,0.0-114.0,"""","<img src='jspsych/CFDfaces/CFD-BM-026-002-N.jpg' height=""250px""></br><b>Joshua</b>","""",256,IntactFace,Memorization,70,5000,f,"""",CFD-AF-233-190-N.jpg,Amy,0,"""","""","""",1,5/1/2021 23:14,47.27.72.87,Mozilla/5.0 (Windows NT 10.0; Win64; x64; rv:88.0) Gecko/20100101 Firefox/88.0,,Firefox,88,Windows,10
225,1,null,"""",html-keyboard-response,115,341096,0.0-115.0,"""","<div style=""font-size:60px;"">+</div>","""",256,fixation,Memorization,null,500,"""","""","""","""","""","""","""","""",1,5/1/2021 23:14,47.27.72.87,Mozilla/5.0 (Windows NT 10.0; Win64; x64; rv:88.0) Gecko/20100101 Firefox/88.0,,Firefox,88,Windows,10
225,1,1504,"""",html-keyboard-response,116,346115,0.0-116.0,"""","<img src='jspsych/CFDfaces/CFD-WM-207-048-N.jpg' height=""250px""></br><b>Christian</b>","""",256,IntactFace,Memorization,70,5000,f,"""",CFD-BM-043-071-N.jpg,Austin,0,"""","""","""",1,5/1/2021 23:14,47.27.72.87,Mozilla/5.0 (Windows NT 10.0; Win64; x64; rv:88.0) Gecko/20100101 Firefox/88.0,,Firefox,88,Windows,10
225,1,null,"""",html-keyboard-response,117,346636,0.0-117.0,"""","<div style=""font-size:60px;"">+</div>","""",256,fixation,Memorization,null,500,"""","""","""","""","""","""","""","""",1,5/1/2021 23:14,47.27.72.87,Mozilla/5.0 (Windows NT 10.0; Win64; x64; rv:88.0) Gecko/20100101 Firefox/88.0,,Firefox,88,Windows,10
225,1,2370,"""",html-keyboard-response,118,351656,0.0-118.0,"""","<img src='jspsych/CFDfaces/CFD-LM-213-061-N.jpg' height=""250px""></br><b>Eric</b>","""",256,IntactFace,Memorization,70,5000,f,"""",CFD-LM-248-089-N.jpg,Luis,0,"""","""","""",1,5/1/2021 23:14,47.27.72.87,Mozilla/5.0 (Windows NT 10.0; Win64; x64; rv:88.0) Gecko/20100101 Firefox/88.0,,Firefox,88,Windows,10
225,1,null,"""",html-keyboard-response,119,352176,0.0-119.0,"""","<div style=""font-size:60px;"">+</div>","""",256,fixation,Memorization,null,500,"""","""","""","""","""","""","""","""",1,5/1/2021 23:14,47.27.72.87,Mozilla/5.0 (Windows NT 10.0; Win64; x64; rv:88.0) Gecko/20100101 Firefox/88.0,,Firefox,88,Windows,10
225,1,1888,"""",html-keyboard-response,120,357196,0.0-120.0,"""","<img src='jspsych/CFDfaces/CFD-AM-238-269-N.jpg' height=""250px""></br><b>Robert</b>","""",256,IntactFace,Memorization,70,5000,f,"""",CFD-WF-006-002-N.jpg,Whitney,0,"""","""","""",1,5/1/2021 23:14,47.27.72.87,Mozilla/5.0 (Windows NT 10.0; Win64; x64; rv:88.0) Gecko/20100101 Firefox/88.0,,Firefox,88,Windows,10
225,1,null,"""",html-keyboard-response,121,357715,0.0-121.0,"""","<div style=""font-size:60px;"">+</div>","""",256,fixation,Memorization,null,500,"""","""","""","""","""","""","""","""",1,5/1/2021 23:14,47.27.72.87,Mozilla/5.0 (Windows NT 10.0; Win64; x64; rv:88.0) Gecko/20100101 Firefox/88.0,,Firefox,88,Windows,10
225,1,2533,"""",html-keyboard-response,122,362736,0.0-122.0,"""","<img src='jspsych/CFDfaces/CFD-AM-246-184-N.jpg' height=""250px""></br><b>Daniel</b>","""",256,IntactFace,Memorization,70,5000,f,"""",CFD-BM-029-024-N.jpg,Timothy,0,"""","""","""",1,5/1/2021 23:14,47.27.72.87,Mozilla/5.0 (Windows NT 10.0; Win64; x64; rv:88.0) Gecko/20100101 Firefox/88.0,,Firefox,88,Windows,10
225,1,null,"""",html-keyboard-response,123,363253,0.0-123.0,"""","<div style=""font-size:60px;"">+</div>","""",256,fixation,Memorization,null,500,"""","""","""","""","""","""","""","""",1,5/1/2021 23:14,47.27.72.87,Mozilla/5.0 (Windows NT 10.0; Win64; x64; rv:88.0) Gecko/20100101 Firefox/88.0,,Firefox,88,Windows,10
225,1,2176,"""",html-keyboard-response,124,368256,0.0-124.0,"""","<img src='jspsych/CFDfaces/CFD-WF-202-056-N.jpg' height=""250px""></br><b>Andrea</b>","""",256,IntactFace,Memorization,70,5000,f,"""",CFD-LF-243-175-N.jpg,Jenna,0,"""","""","""",1,5/1/2021 23:14,47.27.72.87,Mozilla/5.0 (Windows NT 10.0; Win64; x64; rv:88.0) Gecko/20100101 Firefox/88.0,,Firefox,88,Windows,10
225,1,null,"""",html-keyboard-response,125,368776,0.0-125.0,"""","<div style=""font-size:60px;"">+</div>","""",256,fixation,Memorization,null,500,"""","""","""","""","""","""","""","""",1,5/1/2021 23:14,47.27.72.87,Mozilla/5.0 (Windows NT 10.0; Win64; x64; rv:88.0) Gecko/20100101 Firefox/88.0,,Firefox,88,Windows,10
225,1,1695,"""",html-keyboard-response,126,373796,0.0-126.0,"""","<img src='jspsych/CFDfaces/CFD-AF-209-006-N.jpg' height=""250px""></br><b>Emily</b>","""",256,IntactFace,Memorization,70,5000,f,"""",CFD-AF-243-170-N.jpg,Laura,0,"""","""","""",1,5/1/2021 23:14,47.27.72.87,Mozilla/5.0 (Windows NT 10.0; Win64; x64; rv:88.0) Gecko/20100101 Firefox/88.0,,Firefox,88,Windows,10
225,1,null,"""",html-keyboard-response,127,374316,0.0-127.0,"""","<div style=""font-size:60px;"">+</div>","""",256,fixation,Memorization,null,500,"""","""","""","""","""","""","""","""",1,5/1/2021 23:14,47.27.72.87,Mozilla/5.0 (Windows NT 10.0; Win64; x64; rv:88.0) Gecko/20100101 Firefox/88.0,,Firefox,88,Windows,10
225,1,1748,"""",html-keyboard-response,128,379336,0.0-128.0,"""","<img src='jspsych/CFDfaces/CFD-BF-009-002-N.jpg' height=""250px""></br><b>Samantha</b>","""",256,IntactFace,Memorization,70,5000,f,"""",CFD-LF-203-066-N.jpg,Jasmine,0,"""","""","""",1,5/1/2021 23:14,47.27.72.87,Mozilla/5.0 (Windows NT 10.0; Win64; x64; rv:88.0) Gecko/20100101 Firefox/88.0,,Firefox,88,Windows,10
225,1,null,"""",html-keyboard-response,129,379857,0.0-129.0,"""","<div style=""font-size:60px;"">+</div>","""",256,fixation,Memorization,null,500,"""","""","""","""","""","""","""","""",1,5/1/2021 23:14,47.27.72.87,Mozilla/5.0 (Windows NT 10.0; Win64; x64; rv:88.0) Gecko/20100101 Firefox/88.0,,Firefox,88,Windows,10
225,1,1419,"""",html-keyboard-response,130,384876,0.0-130.0,"""","<img src='jspsych/CFDfaces/CFD-WF-023-003-N.jpg' height=""250px""></br><b>Brittany</b>","""",256,IntactFace,Memorization,78,5000,n,"""",CFD-AM-202-079-N.jpg,Jeremy,0,"""","""","""",1,5/1/2021 23:14,47.27.72.87,Mozilla/5.0 (Windows NT 10.0; Win64; x64; rv:88.0) Gecko/20100101 Firefox/88.0,,Firefox,88,Windows,10
225,1,null,"""",html-keyboard-response,131,385396,0.0-131.0,"""","<div style=""font-size:60px;"">+</div>","""",256,fixation,Memorization,null,500,"""","""","""","""","""","""","""","""",1,5/1/2021 23:14,47.27.72.87,Mozilla/5.0 (Windows NT 10.0; Win64; x64; rv:88.0) Gecko/20100101 Firefox/88.0,,Firefox,88,Windows,10
225,1,1611,"""",html-keyboard-response,132,390416,0.0-132.0,"""","<img src='jspsych/CFDfaces/CFD-AF-240-206-N.jpg' height=""250px""></br><b>Kayla</b>","""",256,IntactFace,Memorization,78,5000,n,"""",CFD-LF-206-078-N.jpg,Heather,0,"""","""","""",1,5/1/2021 23:14,47.27.72.87,Mozilla/5.0 (Windows NT 10.0; Win64; x64; rv:88.0) Gecko/20100101 Firefox/88.0,,Firefox,88,Windows,10
225,1,null,"""",html-keyboard-response,133,390936,0.0-133.0,"""","<div style=""font-size:60px;"">+</div>","""",256,fixation,Memorization,null,500,"""","""","""","""","""","""","""","""",1,5/1/2021 23:14,47.27.72.87,Mozilla/5.0 (Windows NT 10.0; Win64; x64; rv:88.0) Gecko/20100101 Firefox/88.0,,Firefox,88,Windows,10
225,1,4025,"""",html-keyboard-response,134,395956,0.0-134.0,"""","<img src='jspsych/CFDfaces/CFD-WM-237-052-N.jpg' height=""250px""></br><b>Gregory</b>","""",256,IntactFace,Memorization,70,5000,f,"""",CFD-AM-234-355-N.jpg,Justin,0,"""","""","""",1,5/1/2021 23:14,47.27.72.87,Mozilla/5.0 (Windows NT 10.0; Win64; x64; rv:88.0) Gecko/20100101 Firefox/88.0,,Firefox,88,Windows,10
225,1,null,"""",html-keyboard-response,135,396476,0.0-135.0,"""","<div style=""font-size:60px;"">+</div>","""",256,fixation,Memorization,null,500,"""","""","""","""","""","""","""","""",1,5/1/2021 23:14,47.27.72.87,Mozilla/5.0 (Windows NT 10.0; Win64; x64; rv:88.0) Gecko/20100101 Firefox/88.0,,Firefox,88,Windows,10
225,1,1320,"""",html-keyboard-response,136,401497,0.0-136.0,"""","<img src='jspsych/CFDfaces/CFD-LM-239-075-N.jpg' height=""250px""></br><b>Nicholas</b>","""",256,IntactFace,Memorization,70,5000,f,"""",CFD-AM-229-224-N.jpg,Vincent,0,"""","""","""",1,5/1/2021 23:14,47.27.72.87,Mozilla/5.0 (Windows NT 10.0; Win64; x64; rv:88.0) Gecko/20100101 Firefox/88.0,,Firefox,88,Windows,10
225,1,null,"""",html-keyboard-response,137,402016,0.0-137.0,"""","<div style=""font-size:60px;"">+</div>","""",256,fixation,Memorization,null,500,"""","""","""","""","""","""","""","""",1,5/1/2021 23:14,47.27.72.87,Mozilla/5.0 (Windows NT 10.0; Win64; x64; rv:88.0) Gecko/20100101 Firefox/88.0,,Firefox,88,Windows,10
225,1,1907,"""",html-keyboard-response,138,407037,0.0-138.0,"""","<img src='jspsych/CFDfaces/CFD-AF-230-193-N.jpg' height=""250px""></br><b>Amanda</b>","""",256,IntactFace,Memorization,78,5000,n,"""",CFD-AM-231-136-N.jpg,Dustin,0,"""","""","""",1,5/1/2021 23:14,47.27.72.87,Mozilla/5.0 (Windows NT 10.0; Win64; x64; rv:88.0) Gecko/20100101 Firefox/88.0,,Firefox,88,Windows,10
225,1,null,"""",html-keyboard-response,139,407556,0.0-139.0,"""","<div style=""font-size:60px;"">+</div>","""",256,fixation,Memorization,null,500,"""","""","""","""","""","""","""","""",1,5/1/2021 23:14,47.27.72.87,Mozilla/5.0 (Windows NT 10.0; Win64; x64; rv:88.0) Gecko/20100101 Firefox/88.0,,Firefox,88,Windows,10
225,1,1219,"""",html-keyboard-response,140,412575,0.0-140.0,"""","<img src='jspsych/CFDfaces/CFD-WM-216-061-N.jpg' height=""250px""></br><b>James</b>","""",256,IntactFace,Memorization,70,5000,f,"""",CFD-BM-011-016-N.jpg,Travis,0,"""","""","""",1,5/1/2021 23:14,47.27.72.87,Mozilla/5.0 (Windows NT 10.0; Win64; x64; rv:88.0) Gecko/20100101 Firefox/88.0,,Firefox,88,Windows,10
225,1,null,"""",html-keyboard-response,141,413096,0.0-141.0,"""","<div style=""font-size:60px;"">+</div>","""",256,fixation,Memorization,null,500,"""","""","""","""","""","""","""","""",1,5/1/2021 23:14,47.27.72.87,Mozilla/5.0 (Windows NT 10.0; Win64; x64; rv:88.0) Gecko/20100101 Firefox/88.0,,Firefox,88,Windows,10
225,1,1956,"""",html-keyboard-response,142,418115,0.0-142.0,"""","<img src='jspsych/CFDfaces/CFD-AF-200-228-N.jpg' height=""250px""></br><b>Stephanie</b>","""",256,IntactFace,Memorization,70,5000,f,"""",CFD-LF-205-100-N.jpg,Melissa,0,"""","""","""",1,5/1/2021 23:14,47.27.72.87,Mozilla/5.0 (Windows NT 10.0; Win64; x64; rv:88.0) Gecko/20100101 Firefox/88.0,,Firefox,88,Windows,10
225,1,null,"""",html-keyboard-response,143,418636,0.0-143.0,"""","<div style=""font-size:60px;"">+</div>","""",256,fixation,Memorization,null,500,"""","""","""","""","""","""","""","""",1,5/1/2021 23:14,47.27.72.87,Mozilla/5.0 (Windows NT 10.0; Win64; x64; rv:88.0) Gecko/20100101 Firefox/88.0,,Firefox,88,Windows,10
225,1,2832,"""",html-keyboard-response,144,423656,0.0-144.0,"""","<img src='jspsych/CFDfaces/CFD-WF-029-002-N.jpg' height=""250px""></br><b>Victoria</b>","""",256,IntactFace,Memorization,70,5000,f,"""",CFD-AF-214-139-N.jpg,Jordan,0,"""","""","""",1,5/1/2021 23:14,47.27.72.87,Mozilla/5.0 (Windows NT 10.0; Win64; x64; rv:88.0) Gecko/20100101 Firefox/88.0,,Firefox,88,Windows,10
225,1,null,"""",html-keyboard-response,145,424176,0.0-145.0,"""","<div style=""font-size:60px;"">+</div>","""",256,fixation,Memorization,null,500,"""","""","""","""","""","""","""","""",1,5/1/2021 23:14,47.27.72.87,Mozilla/5.0 (Windows NT 10.0; Win64; x64; rv:88.0) Gecko/20100101 Firefox/88.0,,Firefox,88,Windows,10
225,1,1284,"""",html-keyboard-response,146,429197,0.0-146.0,"""","<img src='jspsych/CFDfaces/CFD-WM-009-002-N.jpg' height=""250px""></br><b>Ian</b>","""",256,IntactFace,Memorization,70,5000,f,"""",CFD-WF-018-017-N.jpg,Angela,0,"""","""","""",1,5/1/2021 23:14,47.27.72.87,Mozilla/5.0 (Windows NT 10.0; Win64; x64; rv:88.0) Gecko/20100101 Firefox/88.0,,Firefox,88,Windows,10
225,1,null,"""",html-keyboard-response,147,429716,0.0-147.0,"""","<div style=""font-size:60px;"">+</div>","""",256,fixation,Memorization,null,500,"""","""","""","""","""","""","""","""",1,5/1/2021 23:14,47.27.72.87,Mozilla/5.0 (Windows NT 10.0; Win64; x64; rv:88.0) Gecko/20100101 Firefox/88.0,,Firefox,88,Windows,10
225,1,1430,"""",html-keyboard-response,148,434736,0.0-148.0,"""","<img src='jspsych/CFDfaces/CFD-WM-212-097-N.jpg' height=""250px""></br><b>Richard</b>","""",256,IntactFace,Memorization,70,5000,f,"""",CFD-LM-246-087-N.jpg,Kenneth,0,"""","""","""",1,5/1/2021 23:14,47.27.72.87,Mozilla/5.0 (Windows NT 10.0; Win64; x64; rv:88.0) Gecko/20100101 Firefox/88.0,,Firefox,88,Windows,10
225,1,null,"""",html-keyboard-response,149,435256,0.0-149.0,"""","<div style=""font-size:60px;"">+</div>","""",256,fixation,Memorization,null,500,"""","""","""","""","""","""","""","""",1,5/1/2021 23:14,47.27.72.87,Mozilla/5.0 (Windows NT 10.0; Win64; x64; rv:88.0) Gecko/20100101 Firefox/88.0,,Firefox,88,Windows,10
225,1,2111,"""",html-keyboard-response,150,440276,0.0-150.0,"""","<img src='jspsych/CFDfaces/CFD-BF-201-080-N.jpg' height=""250px""></br><b>Meghan</b>","""",256,IntactFace,Memorization,70,5000,f,"""",CFD-BF-019-001-N.jpg,Lauren,0,"""","""","""",1,5/1/2021 23:14,47.27.72.87,Mozilla/5.0 (Windows NT 10.0; Win64; x64; rv:88.0) Gecko/20100101 Firefox/88.0,,Firefox,88,Windows,10
225,1,null,"""",html-keyboard-response,151,440796,0.0-151.0,"""","<div style=""font-size:60px;"">+</div>","""",256,fixation,Memorization,null,500,"""","""","""","""","""","""","""","""",1,5/1/2021 23:14,47.27.72.87,Mozilla/5.0 (Windows NT 10.0; Win64; x64; rv:88.0) Gecko/20100101 Firefox/88.0,,Firefox,88,Windows,10
225,1,2464,"""",html-keyboard-response,152,445817,0.0-152.0,"""","<img src='jspsych/CFDfaces/CFD-WF-200-099-N.jpg' height=""250px""></br><b>Julie</b>","""",256,IntactFace,Memorization,70,5000,f,"""",CFD-BM-010-003-N.jpg,Ryan,0,"""","""","""",1,5/1/2021 23:14,47.27.72.87,Mozilla/5.0 (Windows NT 10.0; Win64; x64; rv:88.0) Gecko/20100101 Firefox/88.0,,Firefox,88,Windows,10
225,1,null,"""",html-keyboard-response,153,446336,0.0-153.0,"""","<div style=""font-size:60px;"">+</div>","""",256,fixation,Memorization,null,500,"""","""","""","""","""","""","""","""",1,5/1/2021 23:14,47.27.72.87,Mozilla/5.0 (Windows NT 10.0; Win64; x64; rv:88.0) Gecko/20100101 Firefox/88.0,,Firefox,88,Windows,10
225,1,1667,"""",html-keyboard-response,154,448004,0.0-154.0,"""",Press Any Key to Begin Memory Test,"""",1,welcomeScreen,Break,70,"""","""","""","""","""","""","""","""","""",1,5/1/2021 23:14,47.27.72.87,Mozilla/5.0 (Windows NT 10.0; Win64; x64; rv:88.0) Gecko/20100101 Firefox/88.0,,Firefox,88,Windows,10
225,1,null,"""",html-keyboard-response,155,449016,0.0-155.0,"""","<div style=""font-size:60px;"">+</div>","""",256,ITI,Test,null,1000,"""","""","""","""","""","""","""","""",1,5/1/2021 23:14,47.27.72.87,Mozilla/5.0 (Windows NT 10.0; Win64; x64; rv:88.0) Gecko/20100101 Firefox/88.0,,Firefox,88,Windows,10
225,1,null,"""",image-keyboard-response,156,449276,0.0-156.0,"""",jspsych/scrambledNeutralFaces/scrambledAM21NES.JPG,"""",256,forwardMask,Test,null,250,"""",n,"""","""","""","""","""","""",1,5/1/2021 23:14,47.27.72.87,Mozilla/5.0 (Windows NT 10.0; Win64; x64; rv:88.0) Gecko/20100101 Firefox/88.0,,Firefox,88,Windows,10
225,1,null,"""",image-keyboard-response,157,449296,0.0-157.0,"""",jspsych/neutralFaces/AM21NES.JPG,"""",256,Cue,Test,null,16,"""","""","""","""","""","""","""","""",1,5/1/2021 23:14,47.27.72.87,Mozilla/5.0 (Windows NT 10.0; Win64; x64; rv:88.0) Gecko/20100101 Firefox/88.0,,Firefox,88,Windows,10
225,1,null,"""",image-keyboard-response,158,449416,0.0-158.0,"""",jspsych/neutralFaces/BM09NES.JPG,"""",256,backwardMask,Test,null,100,"""","""","""","""","""","""","""","""",1,5/1/2021 23:14,47.27.72.87,Mozilla/5.0 (Windows NT 10.0; Win64; x64; rv:88.0) Gecko/20100101 Firefox/88.0,,Firefox,88,Windows,10
225,1,null,"""",html-keyboard-response,159,450436,0.0-159.0,"""","<div style=""font-size:60px;"">+</div>","""",256,fixationBtwnNeutralMaskAndPrompt,Test,null,1000,"""","""","""","""","""","""","""","""",1,5/1/2021 23:14,47.27.72.87,Mozilla/5.0 (Windows NT 10.0; Win64; x64; rv:88.0) Gecko/20100101 Firefox/88.0,,Firefox,88,Windows,10
225,1,2467,"""",html-button-response,160,452904,0.0-160.0,"""","<img src='jspsych/CFDfaces/CFD-AF-203-077-N.jpg' height=""250px"">,</br><b>Victoria</b>",0,256,IntactOrRearranged,Test,"""","""","""","""",CFD-BM-043-071-N.jpg,Mark,1,0,"""","""",1,5/1/2021 23:14,47.27.72.87,Mozilla/5.0 (Windows NT 10.0; Win64; x64; rv:88.0) Gecko/20100101 Firefox/88.0,,Firefox,88,Windows,10
225,1,2078,"""",html-slider-response,161,454985,0.0-161.0,"""","<img src='jspsych/CFDfaces/CFD-AF-203-077-N.jpg' height=""250px"">,</br><b>Victoria</b>","""",256,ConfidenceQuery,Test,"""","""","""","""",CFD-BM-043-071-N.jpg,Mark,1,"""",0,81,1,5/1/2021 23:14,47.27.72.87,Mozilla/5.0 (Windows NT 10.0; Win64; x64; rv:88.0) Gecko/20100101 Firefox/88.0,,Firefox,88,Windows,10
225,1,null,"""",html-keyboard-response,162,455996,0.0-162.0,"""","<div style=""font-size:60px;"">+</div>","""",256,ITI,Test,null,1000,"""","""","""","""","""","""","""","""",1,5/1/2021 23:14,47.27.72.87,Mozilla/5.0 (Windows NT 10.0; Win64; x64; rv:88.0) Gecko/20100101 Firefox/88.0,,Firefox,88,Windows,10
225,1,null,"""",image-keyboard-response,163,456256,0.0-163.0,"""",jspsych/scrambledNeutralFaces/scrambledAF32NES.JPG,"""",256,forwardMask,Test,null,250,"""",n,"""","""","""","""","""","""",1,5/1/2021 23:14,47.27.72.87,Mozilla/5.0 (Windows NT 10.0; Win64; x64; rv:88.0) Gecko/20100101 Firefox/88.0,,Firefox,88,Windows,10
225,1,null,"""",image-keyboard-response,164,456277,0.0-164.0,"""",jspsych/neutralFaces/AF32NES.JPG,"""",256,Cue,Test,null,16,"""","""","""","""","""","""","""","""",1,5/1/2021 23:14,47.27.72.87,Mozilla/5.0 (Windows NT 10.0; Win64; x64; rv:88.0) Gecko/20100101 Firefox/88.0,,Firefox,88,Windows,10
225,1,null,"""",image-keyboard-response,165,456396,0.0-165.0,"""",jspsych/neutralFaces/BF15NES.JPG,"""",256,backwardMask,Test,null,100,"""","""","""","""","""","""","""","""",1,5/1/2021 23:14,47.27.72.87,Mozilla/5.0 (Windows NT 10.0; Win64; x64; rv:88.0) Gecko/20100101 Firefox/88.0,,Firefox,88,Windows,10
225,1,null,"""",html-keyboard-response,166,457415,0.0-166.0,"""","<div style=""font-size:60px;"">+</div>","""",256,fixationBtwnNeutralMaskAndPrompt,Test,null,1000,"""","""","""","""","""","""","""","""",1,5/1/2021 23:14,47.27.72.87,Mozilla/5.0 (Windows NT 10.0; Win64; x64; rv:88.0) Gecko/20100101 Firefox/88.0,,Firefox,88,Windows,10
225,1,1411,"""",html-button-response,167,458827,0.0-167.0,"""","<img src='jspsych/CFDfaces/CFD-BF-201-080-N.jpg' height=""250px"">,</br><b>Meghan</b>",1,256,IntactOrRearranged,Test,"""","""","""","""",CFD-LF-204-133-N.jpg,Lindsey,0,1,"""","""",1,5/1/2021 23:14,47.27.72.87,Mozilla/5.0 (Windows NT 10.0; Win64; x64; rv:88.0) Gecko/20100101 Firefox/88.0,,Firefox,88,Windows,10
225,1,2006,"""",html-slider-response,168,460835,0.0-168.0,"""","<img src='jspsych/CFDfaces/CFD-BF-201-080-N.jpg' height=""250px"">,</br><b>Meghan</b>","""",256,ConfidenceQuery,Test,"""","""","""","""",CFD-LF-204-133-N.jpg,Lindsey,0,"""",0,77,1,5/1/2021 23:14,47.27.72.87,Mozilla/5.0 (Windows NT 10.0; Win64; x64; rv:88.0) Gecko/20100101 Firefox/88.0,,Firefox,88,Windows,10
225,1,null,"""",html-keyboard-response,169,461847,0.0-169.0,"""","<div style=""font-size:60px;"">+</div>","""",256,ITI,Test,null,1000,"""","""","""","""","""","""","""","""",1,5/1/2021 23:14,47.27.72.87,Mozilla/5.0 (Windows NT 10.0; Win64; x64; rv:88.0) Gecko/20100101 Firefox/88.0,,Firefox,88,Windows,10
225,1,null,"""",image-keyboard-response,170,462106,0.0-170.0,"""",jspsych/scrambledDisgustFaces/scrambledBF26DIS.JPG,"""",256,forwardMask,Test,null,250,"""",d,"""","""","""","""","""","""",1,5/1/2021 23:14,47.27.72.87,Mozilla/5.0 (Windows NT 10.0; Win64; x64; rv:88.0) Gecko/20100101 Firefox/88.0,,Firefox,88,Windows,10
225,1,null,"""",image-keyboard-response,171,462126,0.0-171.0,"""",jspsych/disgustFaces/BF26DIS.JPG,"""",256,Cue,Test,null,16,"""","""","""","""","""","""","""","""",1,5/1/2021 23:14,47.27.72.87,Mozilla/5.0 (Windows NT 10.0; Win64; x64; rv:88.0) Gecko/20100101 Firefox/88.0,,Firefox,88,Windows,10
225,1,null,"""",image-keyboard-response,172,462232,0.0-172.0,"""",jspsych/neutralFaces/AF31NES.JPG,"""",256,backwardMask,Test,null,100,"""","""","""","""","""","""","""","""",1,5/1/2021 23:14,47.27.72.87,Mozilla/5.0 (Windows NT 10.0; Win64; x64; rv:88.0) Gecko/20100101 Firefox/88.0,,Firefox,88,Windows,10
225,1,null,"""",html-keyboard-response,173,463246,0.0-173.0,"""","<div style=""font-size:60px;"">+</div>","""",256,fixationBtwnNeutralMaskAndPrompt,Test,null,1000,"""","""","""","""","""","""","""","""",1,5/1/2021 23:14,47.27.72.87,Mozilla/5.0 (Windows NT 10.0; Win64; x64; rv:88.0) Gecko/20100101 Firefox/88.0,,Firefox,88,Windows,10
225,1,2271,"""",html-button-response,174,465517,0.0-174.0,"""","<img src='jspsych/CFDfaces/CFD-BF-016-017-N.jpg' height=""250px"">,</br><b>Kimberly</b>",1,256,IntactOrRearranged,Test,"""","""","""","""",CFD-BM-017-021-N.jpg,Steven,1,1,"""","""",1,5/1/2021 23:14,47.27.72.87,Mozilla/5.0 (Windows NT 10.0; Win64; x64; rv:88.0) Gecko/20100101 Firefox/88.0,,Firefox,88,Windows,10
225,1,2305,"""",html-slider-response,175,467824,0.0-175.0,"""","<img src='jspsych/CFDfaces/CFD-BF-016-017-N.jpg' height=""250px"">,</br><b>Kimberly</b>","""",256,ConfidenceQuery,Test,"""","""","""","""",CFD-BM-017-021-N.jpg,Steven,1,"""",0,83,1,5/1/2021 23:14,47.27.72.87,Mozilla/5.0 (Windows NT 10.0; Win64; x64; rv:88.0) Gecko/20100101 Firefox/88.0,,Firefox,88,Windows,10
225,1,null,"""",html-keyboard-response,176,468846,0.0-176.0,"""","<div style=""font-size:60px;"">+</div>","""",256,ITI,Test,null,1000,"""","""","""","""","""","""","""","""",1,5/1/2021 23:14,47.27.72.87,Mozilla/5.0 (Windows NT 10.0; Win64; x64; rv:88.0) Gecko/20100101 Firefox/88.0,,Firefox,88,Windows,10
225,1,null,"""",image-keyboard-response,177,469106,0.0-177.0,"""",jspsych/scrambledDisgustFaces/scrambledAM28DIS.JPG,"""",256,forwardMask,Test,null,250,"""",d,"""","""","""","""","""","""",1,5/1/2021 23:14,47.27.72.87,Mozilla/5.0 (Windows NT 10.0; Win64; x64; rv:88.0) Gecko/20100101 Firefox/88.0,,Firefox,88,Windows,10
225,1,null,"""",image-keyboard-response,178,469126,0.0-178.0,"""",jspsych/disgustFaces/AM28DIS.JPG,"""",256,Cue,Test,null,16,"""","""","""","""","""","""","""","""",1,5/1/2021 23:14,47.27.72.87,Mozilla/5.0 (Windows NT 10.0; Win64; x64; rv:88.0) Gecko/20100101 Firefox/88.0,,Firefox,88,Windows,10
225,1,null,"""",image-keyboard-response,179,469246,0.0-179.0,"""",jspsych/neutralFaces/AM33NES.JPG,"""",256,backwardMask,Test,null,100,"""","""","""","""","""","""","""","""",1,5/1/2021 23:14,47.27.72.87,Mozilla/5.0 (Windows NT 10.0; Win64; x64; rv:88.0) Gecko/20100101 Firefox/88.0,,Firefox,88,Windows,10
225,1,null,"""",html-keyboard-response,180,470266,0.0-180.0,"""","<div style=""font-size:60px;"">+</div>","""",256,fixationBtwnNeutralMaskAndPrompt,Test,null,1000,"""","""","""","""","""","""","""","""",1,5/1/2021 23:14,47.27.72.87,Mozilla/5.0 (Windows NT 10.0; Win64; x64; rv:88.0) Gecko/20100101 Firefox/88.0,,Firefox,88,Windows,10
225,1,1127,"""",html-button-response,181,471395,0.0-181.0,"""","<img src='jspsych/CFDfaces/CFD-WM-009-002-N.jpg' height=""250px"">,</br><b>Ian</b>",0,256,IntactOrRearranged,Test,"""","""","""","""",CFD-AM-229-224-N.jpg,Vincent,0,0,"""","""",1,5/1/2021 23:14,47.27.72.87,Mozilla/5.0 (Windows NT 10.0; Win64; x64; rv:88.0) Gecko/20100101 Firefox/88.0,,Firefox,88,Windows,10
225,1,1915,"""",html-slider-response,182,473311,0.0-182.0,"""","<img src='jspsych/CFDfaces/CFD-WM-009-002-N.jpg' height=""250px"">,</br><b>Ian</b>","""",256,ConfidenceQuery,Test,"""","""","""","""",CFD-AM-229-224-N.jpg,Vincent,0,"""",0,100,1,5/1/2021 23:14,47.27.72.87,Mozilla/5.0 (Windows NT 10.0; Win64; x64; rv:88.0) Gecko/20100101 Firefox/88.0,,Firefox,88,Windows,10
225,1,null,"""",html-keyboard-response,183,474326,0.0-183.0,"""","<div style=""font-size:60px;"">+</div>","""",256,ITI,Test,null,1000,"""","""","""","""","""","""","""","""",1,5/1/2021 23:14,47.27.72.87,Mozilla/5.0 (Windows NT 10.0; Win64; x64; rv:88.0) Gecko/20100101 Firefox/88.0,,Firefox,88,Windows,10
225,1,null,"""",image-keyboard-response,184,474586,0.0-184.0,"""",jspsych/scrambledNeutralFaces/scrambledAM18NES.JPG,"""",256,forwardMask,Test,null,250,"""",n,"""","""","""","""","""","""",1,5/1/2021 23:14,47.27.72.87,Mozilla/5.0 (Windows NT 10.0; Win64; x64; rv:88.0) Gecko/20100101 Firefox/88.0,,Firefox,88,Windows,10
225,1,null,"""",image-keyboard-response,185,474606,0.0-185.0,"""",jspsych/neutralFaces/AM18NES.JPG,"""",256,Cue,Test,null,16,"""","""","""","""","""","""","""","""",1,5/1/2021 23:14,47.27.72.87,Mozilla/5.0 (Windows NT 10.0; Win64; x64; rv:88.0) Gecko/20100101 Firefox/88.0,,Firefox,88,Windows,10
225,1,null,"""",image-keyboard-response,186,474726,0.0-186.0,"""",jspsych/neutralFaces/AM14NES.JPG,"""",256,backwardMask,Test,null,100,"""","""","""","""","""","""","""","""",1,5/1/2021 23:14,47.27.72.87,Mozilla/5.0 (Windows NT 10.0; Win64; x64; rv:88.0) Gecko/20100101 Firefox/88.0,,Firefox,88,Windows,10
225,1,null,"""",html-keyboard-response,187,475733,0.0-187.0,"""","<div style=""font-size:60px;"">+</div>","""",256,fixationBtwnNeutralMaskAndPrompt,Test,null,1000,"""","""","""","""","""","""","""","""",1,5/1/2021 23:14,47.27.72.87,Mozilla/5.0 (Windows NT 10.0; Win64; x64; rv:88.0) Gecko/20100101 Firefox/88.0,,Firefox,88,Windows,10
225,1,1627,"""",html-button-response,188,477361,0.0-188.0,"""","<img src='jspsych/CFDfaces/CFD-LF-201-035-N.jpg' height=""250px"">,</br><b>Emily</b>",1,256,IntactOrRearranged,Test,"""","""","""","""",CFD-BM-022-022-N.jpg,Jesse,1,1,"""","""",1,5/1/2021 23:14,47.27.72.87,Mozilla/5.0 (Windows NT 10.0; Win64; x64; rv:88.0) Gecko/20100101 Firefox/88.0,,Firefox,88,Windows,10
225,1,2054,"""",html-slider-response,189,479417,0.0-189.0,"""","<img src='jspsych/CFDfaces/CFD-LF-201-035-N.jpg' height=""250px"">,</br><b>Emily</b>","""",256,ConfidenceQuery,Test,"""","""","""","""",CFD-BM-022-022-N.jpg,Jesse,1,"""",0,100,1,5/1/2021 23:14,47.27.72.87,Mozilla/5.0 (Windows NT 10.0; Win64; x64; rv:88.0) Gecko/20100101 Firefox/88.0,,Firefox,88,Windows,10
225,1,null,"""",html-keyboard-response,190,480436,0.0-190.0,"""","<div style=""font-size:60px;"">+</div>","""",256,ITI,Test,null,1000,"""","""","""","""","""","""","""","""",1,5/1/2021 23:14,47.27.72.87,Mozilla/5.0 (Windows NT 10.0; Win64; x64; rv:88.0) Gecko/20100101 Firefox/88.0,,Firefox,88,Windows,10
225,1,null,"""",image-keyboard-response,191,480696,0.0-191.0,"""",jspsych/scrambledNeutralFaces/scrambledBF29NES.JPG,"""",256,forwardMask,Test,null,250,"""",n,"""","""","""","""","""","""",1,5/1/2021 23:14,47.27.72.87,Mozilla/5.0 (Windows NT 10.0; Win64; x64; rv:88.0) Gecko/20100101 Firefox/88.0,,Firefox,88,Windows,10
225,1,null,"""",image-keyboard-response,192,480734,0.0-192.0,"""",jspsych/neutralFaces/BF29NES.JPG,"""",256,Cue,Test,null,16,"""","""","""","""","""","""","""","""",1,5/1/2021 23:14,47.27.72.87,Mozilla/5.0 (Windows NT 10.0; Win64; x64; rv:88.0) Gecko/20100101 Firefox/88.0,,Firefox,88,Windows,10
225,1,null,"""",image-keyboard-response,193,480836,0.0-193.0,"""",jspsych/neutralFaces/AF12NES.JPG,"""",256,backwardMask,Test,null,100,"""","""","""","""","""","""","""","""",1,5/1/2021 23:14,47.27.72.87,Mozilla/5.0 (Windows NT 10.0; Win64; x64; rv:88.0) Gecko/20100101 Firefox/88.0,,Firefox,88,Windows,10
225,1,null,"""",html-keyboard-response,194,481856,0.0-194.0,"""","<div style=""font-size:60px;"">+</div>","""",256,fixationBtwnNeutralMaskAndPrompt,Test,null,1000,"""","""","""","""","""","""","""","""",1,5/1/2021 23:14,47.27.72.87,Mozilla/5.0 (Windows NT 10.0; Win64; x64; rv:88.0) Gecko/20100101 Firefox/88.0,,Firefox,88,Windows,10
225,1,2290,"""",html-button-response,195,484147,0.0-195.0,"""","<img src='jspsych/CFDfaces/CFD-AF-200-228-N.jpg' height=""250px"">,</br><b>Stephanie</b>",0,256,IntactOrRearranged,Test,"""","""","""","""",CFD-LM-248-089-N.jpg,Luis,0,0,"""","""",1,5/1/2021 23:14,47.27.72.87,Mozilla/5.0 (Windows NT 10.0; Win64; x64; rv:88.0) Gecko/20100101 Firefox/88.0,,Firefox,88,Windows,10
225,1,2303,"""",html-slider-response,196,486452,0.0-196.0,"""","<img src='jspsych/CFDfaces/CFD-AF-200-228-N.jpg' height=""250px"">,</br><b>Stephanie</b>","""",256,ConfidenceQuery,Test,"""","""","""","""",CFD-LM-248-089-N.jpg,Luis,0,"""",0,46,1,5/1/2021 23:14,47.27.72.87,Mozilla/5.0 (Windows NT 10.0; Win64; x64; rv:88.0) Gecko/20100101 Firefox/88.0,,Firefox,88,Windows,10
225,1,null,"""",html-keyboard-response,197,487456,0.0-197.0,"""","<div style=""font-size:60px;"">+</div>","""",256,ITI,Test,null,1000,"""","""","""","""","""","""","""","""",1,5/1/2021 23:14,47.27.72.87,Mozilla/5.0 (Windows NT 10.0; Win64; x64; rv:88.0) Gecko/20100101 Firefox/88.0,,Firefox,88,Windows,10
225,1,null,"""",image-keyboard-response,198,487716,0.0-198.0,"""",jspsych/scrambledDisgustFaces/scrambledBF07DIS.JPG,"""",256,forwardMask,Test,null,250,"""",d,"""","""","""","""","""","""",1,5/1/2021 23:14,47.27.72.87,Mozilla/5.0 (Windows NT 10.0; Win64; x64; rv:88.0) Gecko/20100101 Firefox/88.0,,Firefox,88,Windows,10
225,1,null,"""",image-keyboard-response,199,487736,0.0-199.0,"""",jspsych/disgustFaces/BF07DIS.JPG,"""",256,Cue,Test,null,16,"""","""","""","""","""","""","""","""",1,5/1/2021 23:14,47.27.72.87,Mozilla/5.0 (Windows NT 10.0; Win64; x64; rv:88.0) Gecko/20100101 Firefox/88.0,,Firefox,88,Windows,10
225,1,null,"""",image-keyboard-response,200,487856,0.0-200.0,"""",jspsych/neutralFaces/BF30NES.JPG,"""",256,backwardMask,Test,null,100,"""","""","""","""","""","""","""","""",1,5/1/2021 23:14,47.27.72.87,Mozilla/5.0 (Windows NT 10.0; Win64; x64; rv:88.0) Gecko/20100101 Firefox/88.0,,Firefox,88,Windows,10
225,1,null,"""",html-keyboard-response,201,488877,0.0-201.0,"""","<div style=""font-size:60px;"">+</div>","""",256,fixationBtwnNeutralMaskAndPrompt,Test,null,1000,"""","""","""","""","""","""","""","""",1,5/1/2021 23:14,47.27.72.87,Mozilla/5.0 (Windows NT 10.0; Win64; x64; rv:88.0) Gecko/20100101 Firefox/88.0,,Firefox,88,Windows,10
225,1,3110,"""",html-button-response,202,491988,0.0-202.0,"""","<img src='jspsych/CFDfaces/CFD-WM-237-052-N.jpg' height=""250px"">,</br><b>Daniel</b>",1,256,IntactOrRearranged,Test,"""","""","""","""",CFD-AF-226-251-N.jpg,Taylor,1,1,"""","""",1,5/1/2021 23:14,47.27.72.87,Mozilla/5.0 (Windows NT 10.0; Win64; x64; rv:88.0) Gecko/20100101 Firefox/88.0,,Firefox,88,Windows,10
225,1,2212,"""",html-slider-response,203,494202,0.0-203.0,"""","<img src='jspsych/CFDfaces/CFD-WM-237-052-N.jpg' height=""250px"">,</br><b>Daniel</b>","""",256,ConfidenceQuery,Test,"""","""","""","""",CFD-AF-226-251-N.jpg,Taylor,1,"""",0,80,1,5/1/2021 23:14,47.27.72.87,Mozilla/5.0 (Windows NT 10.0; Win64; x64; rv:88.0) Gecko/20100101 Firefox/88.0,,Firefox,88,Windows,10
225,1,null,"""",html-keyboard-response,204,495217,0.0-204.0,"""","<div style=""font-size:60px;"">+</div>","""",256,ITI,Test,null,1000,"""","""","""","""","""","""","""","""",1,5/1/2021 23:14,47.27.72.87,Mozilla/5.0 (Windows NT 10.0; Win64; x64; rv:88.0) Gecko/20100101 Firefox/88.0,,Firefox,88,Windows,10
225,1,null,"""",image-keyboard-response,205,495476,0.0-205.0,"""",jspsych/scrambledNeutralFaces/scrambledBM34NES.JPG,"""",256,forwardMask,Test,null,250,"""",n,"""","""","""","""","""","""",1,5/1/2021 23:14,47.27.72.87,Mozilla/5.0 (Windows NT 10.0; Win64; x64; rv:88.0) Gecko/20100101 Firefox/88.0,,Firefox,88,Windows,10
225,1,null,"""",image-keyboard-response,206,495496,0.0-206.0,"""",jspsych/neutralFaces/BM34NES.JPG,"""",256,Cue,Test,null,16,"""","""","""","""","""","""","""","""",1,5/1/2021 23:14,47.27.72.87,Mozilla/5.0 (Windows NT 10.0; Win64; x64; rv:88.0) Gecko/20100101 Firefox/88.0,,Firefox,88,Windows,10
225,1,null,"""",image-keyboard-response,207,495616,0.0-207.0,"""",jspsych/neutralFaces/AM25NES.JPG,"""",256,backwardMask,Test,null,100,"""","""","""","""","""","""","""","""",1,5/1/2021 23:14,47.27.72.87,Mozilla/5.0 (Windows NT 10.0; Win64; x64; rv:88.0) Gecko/20100101 Firefox/88.0,,Firefox,88,Windows,10
225,1,null,"""",html-keyboard-response,208,496636,0.0-208.0,"""","<div style=""font-size:60px;"">+</div>","""",256,fixationBtwnNeutralMaskAndPrompt,Test,null,1000,"""","""","""","""","""","""","""","""",1,5/1/2021 23:14,47.27.72.87,Mozilla/5.0 (Windows NT 10.0; Win64; x64; rv:88.0) Gecko/20100101 Firefox/88.0,,Firefox,88,Windows,10
225,1,1254,"""",html-button-response,209,497891,0.0-209.0,"""","<img src='jspsych/CFDfaces/CFD-WF-200-099-N.jpg' height=""250px"">,</br><b>Julie</b>",0,256,IntactOrRearranged,Test,"""","""","""","""",CFD-LF-220-120-N.jpg,Tiffany,0,0,"""","""",1,5/1/2021 23:14,47.27.72.87,Mozilla/5.0 (Windows NT 10.0; Win64; x64; rv:88.0) Gecko/20100101 Firefox/88.0,,Firefox,88,Windows,10
225,1,1510,"""",html-slider-response,210,499404,0.0-210.0,"""","<img src='jspsych/CFDfaces/CFD-WF-200-099-N.jpg' height=""250px"">,</br><b>Julie</b>","""",256,ConfidenceQuery,Test,"""","""","""","""",CFD-LF-220-120-N.jpg,Tiffany,0,"""",0,100,1,5/1/2021 23:14,47.27.72.87,Mozilla/5.0 (Windows NT 10.0; Win64; x64; rv:88.0) Gecko/20100101 Firefox/88.0,,Firefox,88,Windows,10
225,1,null,"""",html-keyboard-response,211,500416,0.0-211.0,"""","<div style=""font-size:60px;"">+</div>","""",256,ITI,Test,null,1000,"""","""","""","""","""","""","""","""",1,5/1/2021 23:14,47.27.72.87,Mozilla/5.0 (Windows NT 10.0; Win64; x64; rv:88.0) Gecko/20100101 Firefox/88.0,,Firefox,88,Windows,10
225,1,null,"""",image-keyboard-response,212,500676,0.0-212.0,"""",jspsych/scrambledNeutralFaces/scrambledBM01NES.JPG,"""",256,forwardMask,Test,null,250,"""",n,"""","""","""","""","""","""",1,5/1/2021 23:14,47.27.72.87,Mozilla/5.0 (Windows NT 10.0; Win64; x64; rv:88.0) Gecko/20100101 Firefox/88.0,,Firefox,88,Windows,10
225,1,null,"""",image-keyboard-response,213,500716,0.0-213.0,"""",jspsych/neutralFaces/BM01NES.JPG,"""",256,Cue,Test,null,16,"""","""","""","""","""","""","""","""",1,5/1/2021 23:14,47.27.72.87,Mozilla/5.0 (Windows NT 10.0; Win64; x64; rv:88.0) Gecko/20100101 Firefox/88.0,,Firefox,88,Windows,10
225,1,null,"""",image-keyboard-response,214,500836,0.0-214.0,"""",jspsych/neutralFaces/BM13NES.JPG,"""",256,backwardMask,Test,null,100,"""","""","""","""","""","""","""","""",1,5/1/2021 23:14,47.27.72.87,Mozilla/5.0 (Windows NT 10.0; Win64; x64; rv:88.0) Gecko/20100101 Firefox/88.0,,Firefox,88,Windows,10
225,1,null,"""",html-keyboard-response,215,501856,0.0-215.0,"""","<div style=""font-size:60px;"">+</div>","""",256,fixationBtwnNeutralMaskAndPrompt,Test,null,1000,"""","""","""","""","""","""","""","""",1,5/1/2021 23:14,47.27.72.87,Mozilla/5.0 (Windows NT 10.0; Win64; x64; rv:88.0) Gecko/20100101 Firefox/88.0,,Firefox,88,Windows,10
225,1,1499,"""",html-button-response,216,503356,0.0-216.0,"""","<img src='jspsych/CFDfaces/CFD-BF-009-002-N.jpg' height=""250px"">,</br><b>Samantha</b>",0,256,IntactOrRearranged,Test,"""","""","""","""",CFD-WM-020-001-N.jpg,Jacob,0,0,"""","""",1,5/1/2021 23:14,47.27.72.87,Mozilla/5.0 (Windows NT 10.0; Win64; x64; rv:88.0) Gecko/20100101 Firefox/88.0,,Firefox,88,Windows,10
225,1,1551,"""",html-slider-response,217,504908,0.0-217.0,"""","<img src='jspsych/CFDfaces/CFD-BF-009-002-N.jpg' height=""250px"">,</br><b>Samantha</b>","""",256,ConfidenceQuery,Test,"""","""","""","""",CFD-WM-020-001-N.jpg,Jacob,0,"""",0,100,1,5/1/2021 23:14,47.27.72.87,Mozilla/5.0 (Windows NT 10.0; Win64; x64; rv:88.0) Gecko/20100101 Firefox/88.0,,Firefox,88,Windows,10
225,1,null,"""",html-keyboard-response,218,505916,0.0-218.0,"""","<div style=""font-size:60px;"">+</div>","""",256,ITI,Test,null,1000,"""","""","""","""","""","""","""","""",1,5/1/2021 23:14,47.27.72.87,Mozilla/5.0 (Windows NT 10.0; Win64; x64; rv:88.0) Gecko/20100101 Firefox/88.0,,Firefox,88,Windows,10
225,1,null,"""",image-keyboard-response,219,506176,0.0-219.0,"""",jspsych/scrambledDisgustFaces/scrambledAM05DIS.JPG,"""",256,forwardMask,Test,null,250,"""",d,"""","""","""","""","""","""",1,5/1/2021 23:14,47.27.72.87,Mozilla/5.0 (Windows NT 10.0; Win64; x64; rv:88.0) Gecko/20100101 Firefox/88.0,,Firefox,88,Windows,10
225,1,null,"""",image-keyboard-response,220,506197,0.0-220.0,"""",jspsych/disgustFaces/AM05DIS.JPG,"""",256,Cue,Test,null,16,"""","""","""","""","""","""","""","""",1,5/1/2021 23:14,47.27.72.87,Mozilla/5.0 (Windows NT 10.0; Win64; x64; rv:88.0) Gecko/20100101 Firefox/88.0,,Firefox,88,Windows,10
225,1,null,"""",image-keyboard-response,221,506316,0.0-221.0,"""",jspsych/neutralFaces/BM35NES.JPG,"""",256,backwardMask,Test,null,100,"""","""","""","""","""","""","""","""",1,5/1/2021 23:14,47.27.72.87,Mozilla/5.0 (Windows NT 10.0; Win64; x64; rv:88.0) Gecko/20100101 Firefox/88.0,,Firefox,88,Windows,10
225,1,null,"""",html-keyboard-response,222,507334,0.0-222.0,"""","<div style=""font-size:60px;"">+</div>","""",256,fixationBtwnNeutralMaskAndPrompt,Test,null,1000,"""","""","""","""","""","""","""","""",1,5/1/2021 23:14,47.27.72.87,Mozilla/5.0 (Windows NT 10.0; Win64; x64; rv:88.0) Gecko/20100101 Firefox/88.0,,Firefox,88,Windows,10
225,1,2102,"""",html-button-response,223,509442,0.0-223.0,"""","<img src='jspsych/CFDfaces/CFD-LF-202-065-N.jpg' height=""250px"">,</br><b>Vanessa</b>",0,256,IntactOrRearranged,Test,"""","""","""","""",CFD-AF-201-060-N.jpg,Laura,0,0,"""","""",1,5/1/2021 23:14,47.27.72.87,Mozilla/5.0 (Windows NT 10.0; Win64; x64; rv:88.0) Gecko/20100101 Firefox/88.0,,Firefox,88,Windows,10
225,1,1730,"""",html-slider-response,224,511172,0.0-224.0,"""","<img src='jspsych/CFDfaces/CFD-LF-202-065-N.jpg' height=""250px"">,</br><b>Vanessa</b>","""",256,ConfidenceQuery,Test,"""","""","""","""",CFD-AF-201-060-N.jpg,Laura,0,"""",0,100,1,5/1/2021 23:14,47.27.72.87,Mozilla/5.0 (Windows NT 10.0; Win64; x64; rv:88.0) Gecko/20100101 Firefox/88.0,,Firefox,88,Windows,10
225,1,null,"""",html-keyboard-response,225,512176,0.0-225.0,"""","<div style=""font-size:60px;"">+</div>","""",256,ITI,Test,null,1000,"""","""","""","""","""","""","""","""",1,5/1/2021 23:14,47.27.72.87,Mozilla/5.0 (Windows NT 10.0; Win64; x64; rv:88.0) Gecko/20100101 Firefox/88.0,,Firefox,88,Windows,10
225,1,null,"""",image-keyboard-response,226,512436,0.0-226.0,"""",jspsych/scrambledDisgustFaces/scrambledAF12DIS.JPG,"""",256,forwardMask,Test,null,250,"""",d,"""","""","""","""","""","""",1,5/1/2021 23:14,47.27.72.87,Mozilla/5.0 (Windows NT 10.0; Win64; x64; rv:88.0) Gecko/20100101 Firefox/88.0,,Firefox,88,Windows,10
225,1,null,"""",image-keyboard-response,227,512456,0.0-227.0,"""",jspsych/disgustFaces/AF12DIS.JPG,"""",256,Cue,Test,null,16,"""","""","""","""","""","""","""","""",1,5/1/2021 23:14,47.27.72.87,Mozilla/5.0 (Windows NT 10.0; Win64; x64; rv:88.0) Gecko/20100101 Firefox/88.0,,Firefox,88,Windows,10
225,1,null,"""",image-keyboard-response,228,512576,0.0-228.0,"""",jspsych/neutralFaces/AF08NES.JPG,"""",256,backwardMask,Test,null,100,"""","""","""","""","""","""","""","""",1,5/1/2021 23:14,47.27.72.87,Mozilla/5.0 (Windows NT 10.0; Win64; x64; rv:88.0) Gecko/20100101 Firefox/88.0,,Firefox,88,Windows,10
225,1,null,"""",html-keyboard-response,229,513597,0.0-229.0,"""","<div style=""font-size:60px;"">+</div>","""",256,fixationBtwnNeutralMaskAndPrompt,Test,null,1000,"""","""","""","""","""","""","""","""",1,5/1/2021 23:14,47.27.72.87,Mozilla/5.0 (Windows NT 10.0; Win64; x64; rv:88.0) Gecko/20100101 Firefox/88.0,,Firefox,88,Windows,10
225,1,1614,"""",html-button-response,230,515214,0.0-230.0,"""","<img src='jspsych/CFDfaces/CFD-AF-240-206-N.jpg' height=""250px"">,</br><b>Kayla</b>",0,256,IntactOrRearranged,Test,"""","""","""","""",CFD-BM-032-024-N.jpg,Sean,0,0,"""","""",1,5/1/2021 23:14,47.27.72.87,Mozilla/5.0 (Windows NT 10.0; Win64; x64; rv:88.0) Gecko/20100101 Firefox/88.0,,Firefox,88,Windows,10
225,1,1768,"""",html-slider-response,231,516984,0.0-231.0,"""","<img src='jspsych/CFDfaces/CFD-AF-240-206-N.jpg' height=""250px"">,</br><b>Kayla</b>","""",256,ConfidenceQuery,Test,"""","""","""","""",CFD-BM-032-024-N.jpg,Sean,0,"""",0,100,1,5/1/2021 23:14,47.27.72.87,Mozilla/5.0 (Windows NT 10.0; Win64; x64; rv:88.0) Gecko/20100101 Firefox/88.0,,Firefox,88,Windows,10
225,1,null,"""",html-keyboard-response,232,517996,0.0-232.0,"""","<div style=""font-size:60px;"">+</div>","""",256,ITI,Test,null,1000,"""","""","""","""","""","""","""","""",1,5/1/2021 23:14,47.27.72.87,Mozilla/5.0 (Windows NT 10.0; Win64; x64; rv:88.0) Gecko/20100101 Firefox/88.0,,Firefox,88,Windows,10
225,1,null,"""",image-keyboard-response,233,518256,0.0-233.0,"""",jspsych/scrambledDisgustFaces/scrambledBF05DIS.JPG,"""",256,forwardMask,Test,null,250,"""",d,"""","""","""","""","""","""",1,5/1/2021 23:14,47.27.72.87,Mozilla/5.0 (Windows NT 10.0; Win64; x64; rv:88.0) Gecko/20100101 Firefox/88.0,,Firefox,88,Windows,10
225,1,null,"""",image-keyboard-response,234,518276,0.0-234.0,"""",jspsych/disgustFaces/BF05DIS.JPG,"""",256,Cue,Test,null,16,"""","""","""","""","""","""","""","""",1,5/1/2021 23:14,47.27.72.87,Mozilla/5.0 (Windows NT 10.0; Win64; x64; rv:88.0) Gecko/20100101 Firefox/88.0,,Firefox,88,Windows,10
225,1,null,"""",image-keyboard-response,235,518396,0.0-235.0,"""",jspsych/neutralFaces/AF30NES.JPG,"""",256,backwardMask,Test,null,100,"""","""","""","""","""","""","""","""",1,5/1/2021 23:14,47.27.72.87,Mozilla/5.0 (Windows NT 10.0; Win64; x64; rv:88.0) Gecko/20100101 Firefox/88.0,,Firefox,88,Windows,10
225,1,null,"""",html-keyboard-response,236,519417,0.0-236.0,"""","<div style=""font-size:60px;"">+</div>","""",256,fixationBtwnNeutralMaskAndPrompt,Test,null,1000,"""","""","""","""","""","""","""","""",1,5/1/2021 23:14,47.27.72.87,Mozilla/5.0 (Windows NT 10.0; Win64; x64; rv:88.0) Gecko/20100101 Firefox/88.0,,Firefox,88,Windows,10
225,1,1622,"""",html-button-response,237,521038,0.0-237.0,"""","<img src='jspsych/CFDfaces/CFD-WM-011-002-N.jpg' height=""250px"">,</br><b>Peter</b>",0,256,IntactOrRearranged,Test,"""","""","""","""",CFD-BF-019-001-N.jpg,Jordan,0,0,"""","""",1,5/1/2021 23:14,47.27.72.87,Mozilla/5.0 (Windows NT 10.0; Win64; x64; rv:88.0) Gecko/20100101 Firefox/88.0,,Firefox,88,Windows,10
225,1,1624,"""",html-slider-response,238,522667,0.0-238.0,"""","<img src='jspsych/CFDfaces/CFD-WM-011-002-N.jpg' height=""250px"">,</br><b>Peter</b>","""",256,ConfidenceQuery,Test,"""","""","""","""",CFD-BF-019-001-N.jpg,Jordan,0,"""",0,100,1,5/1/2021 23:14,47.27.72.87,Mozilla/5.0 (Windows NT 10.0; Win64; x64; rv:88.0) Gecko/20100101 Firefox/88.0,,Firefox,88,Windows,10
225,1,null,"""",html-keyboard-response,239,523675,0.0-239.0,"""","<div style=""font-size:60px;"">+</div>","""",256,ITI,Test,null,1000,"""","""","""","""","""","""","""","""",1,5/1/2021 23:14,47.27.72.87,Mozilla/5.0 (Windows NT 10.0; Win64; x64; rv:88.0) Gecko/20100101 Firefox/88.0,,Firefox,88,Windows,10
225,1,null,"""",image-keyboard-response,240,523936,0.0-240.0,"""",jspsych/scrambledDisgustFaces/scrambledAM09DIS.JPG,"""",256,forwardMask,Test,null,250,"""",d,"""","""","""","""","""","""",1,5/1/2021 23:14,47.27.72.87,Mozilla/5.0 (Windows NT 10.0; Win64; x64; rv:88.0) Gecko/20100101 Firefox/88.0,,Firefox,88,Windows,10
225,1,null,"""",image-keyboard-response,241,523956,0.0-241.0,"""",jspsych/disgustFaces/AM09DIS.JPG,"""",256,Cue,Test,null,16,"""","""","""","""","""","""","""","""",1,5/1/2021 23:14,47.27.72.87,Mozilla/5.0 (Windows NT 10.0; Win64; x64; rv:88.0) Gecko/20100101 Firefox/88.0,,Firefox,88,Windows,10
225,1,null,"""",image-keyboard-response,242,524075,0.0-242.0,"""",jspsych/neutralFaces/AM27NES.JPG,"""",256,backwardMask,Test,null,100,"""","""","""","""","""","""","""","""",1,5/1/2021 23:14,47.27.72.87,Mozilla/5.0 (Windows NT 10.0; Win64; x64; rv:88.0) Gecko/20100101 Firefox/88.0,,Firefox,88,Windows,10
225,1,null,"""",html-keyboard-response,243,525086,0.0-243.0,"""","<div style=""font-size:60px;"">+</div>","""",256,fixationBtwnNeutralMaskAndPrompt,Test,null,1000,"""","""","""","""","""","""","""","""",1,5/1/2021 23:14,47.27.72.87,Mozilla/5.0 (Windows NT 10.0; Win64; x64; rv:88.0) Gecko/20100101 Firefox/88.0,,Firefox,88,Windows,10
225,1,3266,"""",html-button-response,244,528352,0.0-244.0,"""","<img src='jspsych/CFDfaces/CFD-AF-230-193-N.jpg' height=""250px"">,</br><b>Christina</b>",1,256,IntactOrRearranged,Test,"""","""","""","""",CFD-BM-011-016-N.jpg,Travis,1,1,"""","""",1,5/1/2021 23:14,47.27.72.87,Mozilla/5.0 (Windows NT 10.0; Win64; x64; rv:88.0) Gecko/20100101 Firefox/88.0,,Firefox,88,Windows,10
225,1,1734,"""",html-slider-response,245,530089,0.0-245.0,"""","<img src='jspsych/CFDfaces/CFD-AF-230-193-N.jpg' height=""250px"">,</br><b>Christina</b>","""",256,ConfidenceQuery,Test,"""","""","""","""",CFD-BM-011-016-N.jpg,Travis,1,"""",0,100,1,5/1/2021 23:14,47.27.72.87,Mozilla/5.0 (Windows NT 10.0; Win64; x64; rv:88.0) Gecko/20100101 Firefox/88.0,,Firefox,88,Windows,10
225,1,null,"""",html-keyboard-response,246,531097,0.0-246.0,"""","<div style=""font-size:60px;"">+</div>","""",256,ITI,Test,null,1000,"""","""","""","""","""","""","""","""",1,5/1/2021 23:14,47.27.72.87,Mozilla/5.0 (Windows NT 10.0; Win64; x64; rv:88.0) Gecko/20100101 Firefox/88.0,,Firefox,88,Windows,10
225,1,null,"""",image-keyboard-response,247,531356,0.0-247.0,"""",jspsych/scrambledDisgustFaces/scrambledAF34DIS.JPG,"""",256,forwardMask,Test,null,250,"""",d,"""","""","""","""","""","""",1,5/1/2021 23:14,47.27.72.87,Mozilla/5.0 (Windows NT 10.0; Win64; x64; rv:88.0) Gecko/20100101 Firefox/88.0,,Firefox,88,Windows,10
225,1,null,"""",image-keyboard-response,248,531376,0.0-248.0,"""",jspsych/disgustFaces/AF34DIS.JPG,"""",256,Cue,Test,null,16,"""","""","""","""","""","""","""","""",1,5/1/2021 23:14,47.27.72.87,Mozilla/5.0 (Windows NT 10.0; Win64; x64; rv:88.0) Gecko/20100101 Firefox/88.0,,Firefox,88,Windows,10
225,1,null,"""",image-keyboard-response,249,531486,0.0-249.0,"""",jspsych/neutralFaces/AF02NES.JPG,"""",256,backwardMask,Test,null,100,"""","""","""","""","""","""","""","""",1,5/1/2021 23:14,47.27.72.87,Mozilla/5.0 (Windows NT 10.0; Win64; x64; rv:88.0) Gecko/20100101 Firefox/88.0,,Firefox,88,Windows,10
225,1,null,"""",html-keyboard-response,250,532496,0.0-250.0,"""","<div style=""font-size:60px;"">+</div>","""",256,fixationBtwnNeutralMaskAndPrompt,Test,null,1000,"""","""","""","""","""","""","""","""",1,5/1/2021 23:14,47.27.72.87,Mozilla/5.0 (Windows NT 10.0; Win64; x64; rv:88.0) Gecko/20100101 Firefox/88.0,,Firefox,88,Windows,10
225,1,2052,"""",html-button-response,251,534550,0.0-251.0,"""","<img src='jspsych/CFDfaces/CFD-LF-213-079-N.jpg' height=""250px"">,</br><b>Elizabeth</b>",1,256,IntactOrRearranged,Test,"""","""","""","""",CFD-WF-019-005-N.jpg,Lauren,1,1,"""","""",1,5/1/2021 23:14,47.27.72.87,Mozilla/5.0 (Windows NT 10.0; Win64; x64; rv:88.0) Gecko/20100101 Firefox/88.0,,Firefox,88,Windows,10
225,1,1429,"""",html-slider-response,252,535980,0.0-252.0,"""","<img src='jspsych/CFDfaces/CFD-LF-213-079-N.jpg' height=""250px"">,</br><b>Elizabeth</b>","""",256,ConfidenceQuery,Test,"""","""","""","""",CFD-WF-019-005-N.jpg,Lauren,1,"""",0,100,1,5/1/2021 23:14,47.27.72.87,Mozilla/5.0 (Windows NT 10.0; Win64; x64; rv:88.0) Gecko/20100101 Firefox/88.0,,Firefox,88,Windows,10
225,1,null,"""",html-keyboard-response,253,536996,0.0-253.0,"""","<div style=""font-size:60px;"">+</div>","""",256,ITI,Test,null,1000,"""","""","""","""","""","""","""","""",1,5/1/2021 23:14,47.27.72.87,Mozilla/5.0 (Windows NT 10.0; Win64; x64; rv:88.0) Gecko/20100101 Firefox/88.0,,Firefox,88,Windows,10
225,1,null,"""",image-keyboard-response,254,537256,0.0-254.0,"""",jspsych/scrambledDisgustFaces/scrambledAF20DIS.JPG,"""",256,forwardMask,Test,null,250,"""",d,"""","""","""","""","""","""",1,5/1/2021 23:14,47.27.72.87,Mozilla/5.0 (Windows NT 10.0; Win64; x64; rv:88.0) Gecko/20100101 Firefox/88.0,,Firefox,88,Windows,10
225,1,null,"""",image-keyboard-response,255,537276,0.0-255.0,"""",jspsych/disgustFaces/AF20DIS.JPG,"""",256,Cue,Test,null,16,"""","""","""","""","""","""","""","""",1,5/1/2021 23:14,47.27.72.87,Mozilla/5.0 (Windows NT 10.0; Win64; x64; rv:88.0) Gecko/20100101 Firefox/88.0,,Firefox,88,Windows,10
225,1,null,"""",image-keyboard-response,256,537396,0.0-256.0,"""",jspsych/neutralFaces/AF05NES.JPG,"""",256,backwardMask,Test,null,100,"""","""","""","""","""","""","""","""",1,5/1/2021 23:14,47.27.72.87,Mozilla/5.0 (Windows NT 10.0; Win64; x64; rv:88.0) Gecko/20100101 Firefox/88.0,,Firefox,88,Windows,10
225,1,null,"""",html-keyboard-response,257,538416,0.0-257.0,"""","<div style=""font-size:60px;"">+</div>","""",256,fixationBtwnNeutralMaskAndPrompt,Test,null,1000,"""","""","""","""","""","""","""","""",1,5/1/2021 23:14,47.27.72.87,Mozilla/5.0 (Windows NT 10.0; Win64; x64; rv:88.0) Gecko/20100101 Firefox/88.0,,Firefox,88,Windows,10
225,1,1528,"""",html-button-response,258,539944,0.0-258.0,"""","<img src='jspsych/CFDfaces/CFD-AF-209-006-N.jpg' height=""250px"">,</br><b>Andrea</b>",1,256,IntactOrRearranged,Test,"""","""","""","""",CFD-WF-006-002-N.jpg,Whitney,1,1,"""","""",1,5/1/2021 23:14,47.27.72.87,Mozilla/5.0 (Windows NT 10.0; Win64; x64; rv:88.0) Gecko/20100101 Firefox/88.0,,Firefox,88,Windows,10
225,1,1646,"""",html-slider-response,259,541591,0.0-259.0,"""","<img src='jspsych/CFDfaces/CFD-AF-209-006-N.jpg' height=""250px"">,</br><b>Andrea</b>","""",256,ConfidenceQuery,Test,"""","""","""","""",CFD-WF-006-002-N.jpg,Whitney,1,"""",0,100,1,5/1/2021 23:14,47.27.72.87,Mozilla/5.0 (Windows NT 10.0; Win64; x64; rv:88.0) Gecko/20100101 Firefox/88.0,,Firefox,88,Windows,10
225,1,null,"""",html-keyboard-response,260,542597,0.0-260.0,"""","<div style=""font-size:60px;"">+</div>","""",256,ITI,Test,null,1000,"""","""","""","""","""","""","""","""",1,5/1/2021 23:14,47.27.72.87,Mozilla/5.0 (Windows NT 10.0; Win64; x64; rv:88.0) Gecko/20100101 Firefox/88.0,,Firefox,88,Windows,10
225,1,null,"""",image-keyboard-response,261,542856,0.0-261.0,"""",jspsych/scrambledNeutralFaces/scrambledAF30NES.JPG,"""",256,forwardMask,Test,null,250,"""",n,"""","""","""","""","""","""",1,5/1/2021 23:14,47.27.72.87,Mozilla/5.0 (Windows NT 10.0; Win64; x64; rv:88.0) Gecko/20100101 Firefox/88.0,,Firefox,88,Windows,10
225,1,null,"""",image-keyboard-response,262,542876,0.0-262.0,"""",jspsych/neutralFaces/AF30NES.JPG,"""",256,Cue,Test,null,16,"""","""","""","""","""","""","""","""",1,5/1/2021 23:14,47.27.72.87,Mozilla/5.0 (Windows NT 10.0; Win64; x64; rv:88.0) Gecko/20100101 Firefox/88.0,,Firefox,88,Windows,10
225,1,null,"""",image-keyboard-response,263,542996,0.0-263.0,"""",jspsych/neutralFaces/BF15NES.JPG,"""",256,backwardMask,Test,null,100,"""","""","""","""","""","""","""","""",1,5/1/2021 23:14,47.27.72.87,Mozilla/5.0 (Windows NT 10.0; Win64; x64; rv:88.0) Gecko/20100101 Firefox/88.0,,Firefox,88,Windows,10
225,1,null,"""",html-keyboard-response,264,544016,0.0-264.0,"""","<div style=""font-size:60px;"">+</div>","""",256,fixationBtwnNeutralMaskAndPrompt,Test,null,1000,"""","""","""","""","""","""","""","""",1,5/1/2021 23:14,47.27.72.87,Mozilla/5.0 (Windows NT 10.0; Win64; x64; rv:88.0) Gecko/20100101 Firefox/88.0,,Firefox,88,Windows,10
225,1,2894,"""",html-button-response,265,546911,0.0-265.0,"""","<img src='jspsych/CFDfaces/CFD-WM-212-097-N.jpg' height=""250px"">,</br><b>Christian</b>",1,256,IntactOrRearranged,Test,"""","""","""","""",CFD-BM-010-003-N.jpg,Cameron,1,1,"""","""",1,5/1/2021 23:14,47.27.72.87,Mozilla/5.0 (Windows NT 10.0; Win64; x64; rv:88.0) Gecko/20100101 Firefox/88.0,,Firefox,88,Windows,10
225,1,2030,"""",html-slider-response,266,548942,0.0-266.0,"""","<img src='jspsych/CFDfaces/CFD-WM-212-097-N.jpg' height=""250px"">,</br><b>Christian</b>","""",256,ConfidenceQuery,Test,"""","""","""","""",CFD-BM-010-003-N.jpg,Cameron,1,"""",0,100,1,5/1/2021 23:14,47.27.72.87,Mozilla/5.0 (Windows NT 10.0; Win64; x64; rv:88.0) Gecko/20100101 Firefox/88.0,,Firefox,88,Windows,10
225,1,null,"""",html-keyboard-response,267,549946,0.0-267.0,"""","<div style=""font-size:60px;"">+</div>","""",256,ITI,Test,null,1000,"""","""","""","""","""","""","""","""",1,5/1/2021 23:14,47.27.72.87,Mozilla/5.0 (Windows NT 10.0; Win64; x64; rv:88.0) Gecko/20100101 Firefox/88.0,,Firefox,88,Windows,10
225,1,null,"""",image-keyboard-response,268,550206,0.0-268.0,"""",jspsych/scrambledDisgustFaces/scrambledBM31DIS.JPG,"""",256,forwardMask,Test,null,250,"""",d,"""","""","""","""","""","""",1,5/1/2021 23:14,47.27.72.87,Mozilla/5.0 (Windows NT 10.0; Win64; x64; rv:88.0) Gecko/20100101 Firefox/88.0,,Firefox,88,Windows,10
225,1,null,"""",image-keyboard-response,269,550226,0.0-269.0,"""",jspsych/disgustFaces/BM32DIS.JPG,"""",256,Cue,Test,null,16,"""","""","""","""","""","""","""","""",1,5/1/2021 23:14,47.27.72.87,Mozilla/5.0 (Windows NT 10.0; Win64; x64; rv:88.0) Gecko/20100101 Firefox/88.0,,Firefox,88,Windows,10
225,1,null,"""",image-keyboard-response,270,550346,0.0-270.0,"""",jspsych/neutralFaces/BM03NES.JPG,"""",256,backwardMask,Test,null,100,"""","""","""","""","""","""","""","""",1,5/1/2021 23:14,47.27.72.87,Mozilla/5.0 (Windows NT 10.0; Win64; x64; rv:88.0) Gecko/20100101 Firefox/88.0,,Firefox,88,Windows,10
225,1,null,"""",html-keyboard-response,271,551366,0.0-271.0,"""","<div style=""font-size:60px;"">+</div>","""",256,fixationBtwnNeutralMaskAndPrompt,Test,null,1000,"""","""","""","""","""","""","""","""",1,5/1/2021 23:14,47.27.72.87,Mozilla/5.0 (Windows NT 10.0; Win64; x64; rv:88.0) Gecko/20100101 Firefox/88.0,,Firefox,88,Windows,10
225,1,null,"""",html-button-response,272,556370,0.0-272.0,"""","<img src='jspsych/CFDfaces/CFD-WF-029-002-N.jpg' height=""250px"">,</br><b>Ashley</b>",null,256,IntactOrRearranged,Test,"""","""","""","""",CFD-LF-205-100-N.jpg,Melissa,1,"""","""","""",1,5/1/2021 23:14,47.27.72.87,Mozilla/5.0 (Windows NT 10.0; Win64; x64; rv:88.0) Gecko/20100101 Firefox/88.0,,Firefox,88,Windows,10
225,1,2128,"""",html-slider-response,273,558502,0.0-273.0,"""","<img src='jspsych/CFDfaces/CFD-WF-029-002-N.jpg' height=""250px"">,</br><b>Ashley</b>","""",256,ConfidenceQuery,Test,"""","""","""","""",CFD-LF-205-100-N.jpg,Melissa,1,"""",0,55,1,5/1/2021 23:14,47.27.72.87,Mozilla/5.0 (Windows NT 10.0; Win64; x64; rv:88.0) Gecko/20100101 Firefox/88.0,,Firefox,88,Windows,10
225,1,null,"""",html-keyboard-response,274,559504,0.0-274.0,"""","<div style=""font-size:60px;"">+</div>","""",256,ITI,Test,null,1000,"""","""","""","""","""","""","""","""",1,5/1/2021 23:14,47.27.72.87,Mozilla/5.0 (Windows NT 10.0; Win64; x64; rv:88.0) Gecko/20100101 Firefox/88.0,,Firefox,88,Windows,10
225,1,null,"""",image-keyboard-response,275,559766,0.0-275.0,"""",jspsych/scrambledNeutralFaces/scrambledBM24NES.JPG,"""",256,forwardMask,Test,null,250,"""",n,"""","""","""","""","""","""",1,5/1/2021 23:14,47.27.72.87,Mozilla/5.0 (Windows NT 10.0; Win64; x64; rv:88.0) Gecko/20100101 Firefox/88.0,,Firefox,88,Windows,10
225,1,null,"""",image-keyboard-response,276,559786,0.0-276.0,"""",jspsych/neutralFaces/BM24NES.JPG,"""",256,Cue,Test,null,16,"""","""","""","""","""","""","""","""",1,5/1/2021 23:14,47.27.72.87,Mozilla/5.0 (Windows NT 10.0; Win64; x64; rv:88.0) Gecko/20100101 Firefox/88.0,,Firefox,88,Windows,10
225,1,null,"""",image-keyboard-response,277,559904,0.0-277.0,"""",jspsych/neutralFaces/AM23NES.JPG,"""",256,backwardMask,Test,null,100,"""","""","""","""","""","""","""","""",1,5/1/2021 23:14,47.27.72.87,Mozilla/5.0 (Windows NT 10.0; Win64; x64; rv:88.0) Gecko/20100101 Firefox/88.0,,Firefox,88,Windows,10
225,1,null,"""",html-keyboard-response,278,560926,0.0-278.0,"""","<div style=""font-size:60px;"">+</div>","""",256,fixationBtwnNeutralMaskAndPrompt,Test,null,1000,"""","""","""","""","""","""","""","""",1,5/1/2021 23:14,47.27.72.87,Mozilla/5.0 (Windows NT 10.0; Win64; x64; rv:88.0) Gecko/20100101 Firefox/88.0,,Firefox,88,Windows,10
225,1,1276,"""",html-button-response,279,562203,0.0-279.0,"""","<img src='jspsych/CFDfaces/CFD-LM-239-075-N.jpg' height=""250px"">,</br><b>Nicholas</b>",0,256,IntactOrRearranged,Test,"""","""","""","""",CFD-AF-214-139-N.jpg,Jenna,0,0,"""","""",1,5/1/2021 23:14,47.27.72.87,Mozilla/5.0 (Windows NT 10.0; Win64; x64; rv:88.0) Gecko/20100101 Firefox/88.0,,Firefox,88,Windows,10
225,1,1306,"""",html-slider-response,280,563511,0.0-280.0,"""","<img src='jspsych/CFDfaces/CFD-LM-239-075-N.jpg' height=""250px"">,</br><b>Nicholas</b>","""",256,ConfidenceQuery,Test,"""","""","""","""",CFD-AF-214-139-N.jpg,Jenna,0,"""",0,100,1,5/1/2021 23:14,47.27.72.87,Mozilla/5.0 (Windows NT 10.0; Win64; x64; rv:88.0) Gecko/20100101 Firefox/88.0,,Firefox,88,Windows,10
225,1,null,"""",html-keyboard-response,281,564516,0.0-281.0,"""","<div style=""font-size:60px;"">+</div>","""",256,ITI,Test,null,1000,"""","""","""","""","""","""","""","""",1,5/1/2021 23:14,47.27.72.87,Mozilla/5.0 (Windows NT 10.0; Win64; x64; rv:88.0) Gecko/20100101 Firefox/88.0,,Firefox,88,Windows,10
225,1,null,"""",image-keyboard-response,282,564776,0.0-282.0,"""",jspsych/scrambledDisgustFaces/scrambledBF30DIS.JPG,"""",256,forwardMask,Test,null,250,"""",d,"""","""","""","""","""","""",1,5/1/2021 23:14,47.27.72.87,Mozilla/5.0 (Windows NT 10.0; Win64; x64; rv:88.0) Gecko/20100101 Firefox/88.0,,Firefox,88,Windows,10
225,1,null,"""",image-keyboard-response,283,564796,0.0-283.0,"""",jspsych/disgustFaces/BF30DIS.JPG,"""",256,Cue,Test,null,16,"""","""","""","""","""","""","""","""",1,5/1/2021 23:14,47.27.72.87,Mozilla/5.0 (Windows NT 10.0; Win64; x64; rv:88.0) Gecko/20100101 Firefox/88.0,,Firefox,88,Windows,10
225,1,null,"""",image-keyboard-response,284,564916,0.0-284.0,"""",jspsych/neutralFaces/BF02NES.JPG,"""",256,backwardMask,Test,null,100,"""","""","""","""","""","""","""","""",1,5/1/2021 23:14,47.27.72.87,Mozilla/5.0 (Windows NT 10.0; Win64; x64; rv:88.0) Gecko/20100101 Firefox/88.0,,Firefox,88,Windows,10
225,1,null,"""",html-keyboard-response,285,565921,0.0-285.0,"""","<div style=""font-size:60px;"">+</div>","""",256,fixationBtwnNeutralMaskAndPrompt,Test,null,1000,"""","""","""","""","""","""","""","""",1,5/1/2021 23:14,47.27.72.87,Mozilla/5.0 (Windows NT 10.0; Win64; x64; rv:88.0) Gecko/20100101 Firefox/88.0,,Firefox,88,Windows,10
225,1,1322,"""",html-button-response,286,567245,0.0-286.0,"""","<img src='jspsych/CFDfaces/CFD-WF-023-003-N.jpg' height=""250px"">,</br><b>Brittany</b>",0,256,IntactOrRearranged,Test,"""","""","""","""",CFD-AM-234-355-N.jpg,Justin,0,0,"""","""",1,5/1/2021 23:14,47.27.72.87,Mozilla/5.0 (Windows NT 10.0; Win64; x64; rv:88.0) Gecko/20100101 Firefox/88.0,,Firefox,88,Windows,10
225,1,1378,"""",html-slider-response,287,568625,0.0-287.0,"""","<img src='jspsych/CFDfaces/CFD-WF-023-003-N.jpg' height=""250px"">,</br><b>Brittany</b>","""",256,ConfidenceQuery,Test,"""","""","""","""",CFD-AM-234-355-N.jpg,Justin,0,"""",0,100,1,5/1/2021 23:14,47.27.72.87,Mozilla/5.0 (Windows NT 10.0; Win64; x64; rv:88.0) Gecko/20100101 Firefox/88.0,,Firefox,88,Windows,10
225,1,null,"""",html-keyboard-response,288,569637,0.0-288.0,"""","<div style=""font-size:60px;"">+</div>","""",256,ITI,Test,null,1000,"""","""","""","""","""","""","""","""",1,5/1/2021 23:14,47.27.72.87,Mozilla/5.0 (Windows NT 10.0; Win64; x64; rv:88.0) Gecko/20100101 Firefox/88.0,,Firefox,88,Windows,10
225,1,null,"""",image-keyboard-response,289,569896,0.0-289.0,"""",jspsych/scrambledDisgustFaces/scrambledBF03DIS.JPG,"""",256,forwardMask,Test,null,250,"""",d,"""","""","""","""","""","""",1,5/1/2021 23:14,47.27.72.87,Mozilla/5.0 (Windows NT 10.0; Win64; x64; rv:88.0) Gecko/20100101 Firefox/88.0,,Firefox,88,Windows,10
225,1,null,"""",image-keyboard-response,290,569936,0.0-290.0,"""",jspsych/disgustFaces/BF03DIS.JPG,"""",256,Cue,Test,null,16,"""","""","""","""","""","""","""","""",1,5/1/2021 23:14,47.27.72.87,Mozilla/5.0 (Windows NT 10.0; Win64; x64; rv:88.0) Gecko/20100101 Firefox/88.0,,Firefox,88,Windows,10
225,1,null,"""",image-keyboard-response,291,570056,0.0-291.0,"""",jspsych/neutralFaces/BF09NES.JPG,"""",256,backwardMask,Test,null,100,"""","""","""","""","""","""","""","""",1,5/1/2021 23:14,47.27.72.87,Mozilla/5.0 (Windows NT 10.0; Win64; x64; rv:88.0) Gecko/20100101 Firefox/88.0,,Firefox,88,Windows,10
225,1,null,"""",html-keyboard-response,292,571077,0.0-292.0,"""","<div style=""font-size:60px;"">+</div>","""",256,fixationBtwnNeutralMaskAndPrompt,Test,null,1000,"""","""","""","""","""","""","""","""",1,5/1/2021 23:14,47.27.72.87,Mozilla/5.0 (Windows NT 10.0; Win64; x64; rv:88.0) Gecko/20100101 Firefox/88.0,,Firefox,88,Windows,10
225,1,2081,"""",html-button-response,293,573159,0.0-293.0,"""","<img src='jspsych/CFDfaces/CFD-LF-218-072-N.jpg' height=""250px"">,</br><b>Michelle</b>",0,256,IntactOrRearranged,Test,"""","""","""","""",CFD-LM-224-162-N.jpg,Timothy,0,0,"""","""",1,5/1/2021 23:14,47.27.72.87,Mozilla/5.0 (Windows NT 10.0; Win64; x64; rv:88.0) Gecko/20100101 Firefox/88.0,,Firefox,88,Windows,10
225,1,1992,"""",html-slider-response,294,575152,0.0-294.0,"""","<img src='jspsych/CFDfaces/CFD-LF-218-072-N.jpg' height=""250px"">,</br><b>Michelle</b>","""",256,ConfidenceQuery,Test,"""","""","""","""",CFD-LM-224-162-N.jpg,Timothy,0,"""",0,70,1,5/1/2021 23:14,47.27.72.87,Mozilla/5.0 (Windows NT 10.0; Win64; x64; rv:88.0) Gecko/20100101 Firefox/88.0,,Firefox,88,Windows,10
225,1,null,"""",html-keyboard-response,295,576166,0.0-295.0,"""","<div style=""font-size:60px;"">+</div>","""",256,ITI,Test,null,1000,"""","""","""","""","""","""","""","""",1,5/1/2021 23:14,47.27.72.87,Mozilla/5.0 (Windows NT 10.0; Win64; x64; rv:88.0) Gecko/20100101 Firefox/88.0,,Firefox,88,Windows,10
225,1,null,"""",image-keyboard-response,296,576421,0.0-296.0,"""",jspsych/scrambledDisgustFaces/scrambledAF02DIS.JPG,"""",256,forwardMask,Test,null,250,"""",d,"""","""","""","""","""","""",1,5/1/2021 23:14,47.27.72.87,Mozilla/5.0 (Windows NT 10.0; Win64; x64; rv:88.0) Gecko/20100101 Firefox/88.0,,Firefox,88,Windows,10
225,1,null,"""",image-keyboard-response,297,576446,0.0-297.0,"""",jspsych/disgustFaces/AF02DIS.JPG,"""",256,Cue,Test,null,16,"""","""","""","""","""","""","""","""",1,5/1/2021 23:14,47.27.72.87,Mozilla/5.0 (Windows NT 10.0; Win64; x64; rv:88.0) Gecko/20100101 Firefox/88.0,,Firefox,88,Windows,10
225,1,null,"""",image-keyboard-response,298,576554,0.0-298.0,"""",jspsych/neutralFaces/BF15NES.JPG,"""",256,backwardMask,Test,null,100,"""","""","""","""","""","""","""","""",1,5/1/2021 23:14,47.27.72.87,Mozilla/5.0 (Windows NT 10.0; Win64; x64; rv:88.0) Gecko/20100101 Firefox/88.0,,Firefox,88,Windows,10
