run_id,condition,rt,responses,trial_type,trial_index,time_elapsed,internal_node_id,question_order,stimulus,button_pressed,iTrial,Phase,ExperimentPhase,key_press,StimulusDurationSetting,CharacterResponse,correctResponse,Face,Name,rearranged,didSubjectEnterRearranged,slider_start,response,Block,recorded_at,ip,user_agent,device,browser,browser_version,platform,platform_version
195,1,10822,"{""Q0"":""A3NNBKMR1WMS7R""}",survey-text,0,10824,0.0-0.0,"""","""","""","""","""","""","""","""","""","""","""","""","""","""","""","""","""",4/30/2021 4:09,98.252.224.31,Mozilla/5.0 (Windows NT 10.0; Win64; x64; rv:78.0) Gecko/20100101 Firefox/78.0 Waterfox/78.10.0,,Firefox,78,Windows,10
195,1,1973,"{""Q0"":""23""}",survey-text,1,12803,0.0-1.0,"""","""","""","""","""","""","""","""","""","""","""","""","""","""","""","""","""",4/30/2021 4:09,98.252.224.31,Mozilla/5.0 (Windows NT 10.0; Win64; x64; rv:78.0) Gecko/20100101 Firefox/78.0 Waterfox/78.10.0,,Firefox,78,Windows,10
195,1,5094,"{""Q0"":""female"",""Q1"":""Hispanic/Latino"",""Q2"":""White or Caucasian""}",survey-multi-choice,2,17901,0.0-2.0,"[0,1,2]","""","""","""","""","""","""","""","""","""","""","""","""","""","""","""","""",4/30/2021 4:09,98.252.224.31,Mozilla/5.0 (Windows NT 10.0; Win64; x64; rv:78.0) Gecko/20100101 Firefox/78.0 Waterfox/78.10.0,,Firefox,78,Windows,10
195,1,20558,"""",image-button-response,3,38470,0.0-3.0,"""",directionsMemoryAssociation1.JPG,0,1,IntroDirections1,break,"""","""","""","""","""","""","""","""","""","""","""",4/30/2021 4:09,98.252.224.31,Mozilla/5.0 (Windows NT 10.0; Win64; x64; rv:78.0) Gecko/20100101 Firefox/78.0 Waterfox/78.10.0,,Firefox,78,Windows,10
195,1,15416,"""",image-button-response,4,53892,0.0-4.0,"""",directionsMemoryAssociation2.JPG,0,1,IntroDirections2,break,"""","""","""","""","""","""","""","""","""","""","""",4/30/2021 4:09,98.252.224.31,Mozilla/5.0 (Windows NT 10.0; Win64; x64; rv:78.0) Gecko/20100101 Firefox/78.0 Waterfox/78.10.0,,Firefox,78,Windows,10
195,1,4529,"""",html-keyboard-response,5,58898,0.0-5.0,"""","<img src='jspsych/CFDfaces/CFD-LF-210-220-N.jpg' height=""250px"">,</br><b>Tara</b>","""",1,IntactFace,Practice,70,5000,f,"""","""","""","""","""","""","""","""",4/30/2021 4:09,98.252.224.31,Mozilla/5.0 (Windows NT 10.0; Win64; x64; rv:78.0) Gecko/20100101 Firefox/78.0 Waterfox/78.10.0,,Firefox,78,Windows,10
195,1,null,"""",html-keyboard-response,6,59400,0.0-6.0,"""","<div style=""font-size:60px;"">+</div>","""",1,ITI,Practice,null,1000,"""","""","""","""","""","""","""","""","""",4/30/2021 4:09,98.252.224.31,Mozilla/5.0 (Windows NT 10.0; Win64; x64; rv:78.0) Gecko/20100101 Firefox/78.0 Waterfox/78.10.0,,Firefox,78,Windows,10
195,1,null,"""",html-keyboard-response,7,64405,0.0-7.0,"""","<img src='jspsych/CFDfaces/CFD-BF-039-031-N.jpg' height=""250px"">,</br><b>Cassandra</b>","""",2,IntactFace,Practice,null,5000,"""","""","""","""","""","""","""","""","""",4/30/2021 4:09,98.252.224.31,Mozilla/5.0 (Windows NT 10.0; Win64; x64; rv:78.0) Gecko/20100101 Firefox/78.0 Waterfox/78.10.0,,Firefox,78,Windows,10
195,1,null,"""",html-keyboard-response,8,64907,0.0-8.0,"""","<div style=""font-size:60px;"">+</div>","""",2,ITI,Practice,null,1000,"""","""","""","""","""","""","""","""","""",4/30/2021 4:09,98.252.224.31,Mozilla/5.0 (Windows NT 10.0; Win64; x64; rv:78.0) Gecko/20100101 Firefox/78.0 Waterfox/78.10.0,,Firefox,78,Windows,10
195,1,2222,"""",html-keyboard-response,9,69911,0.0-9.0,"""","<img src='jspsych/CFDfaces/CFD-WM-034-030-N.jpg' height=""250px"">,</br><b>Patrick</b>","""",3,IntactFace,Practice,70,5000,f,"""","""","""","""","""","""","""","""",4/30/2021 4:09,98.252.224.31,Mozilla/5.0 (Windows NT 10.0; Win64; x64; rv:78.0) Gecko/20100101 Firefox/78.0 Waterfox/78.10.0,,Firefox,78,Windows,10
195,1,null,"""",html-keyboard-response,10,70412,0.0-10.0,"""","<div style=""font-size:60px;"">+</div>","""",3,ITI,Practice,null,1000,"""","""","""","""","""","""","""","""","""",4/30/2021 4:09,98.252.224.31,Mozilla/5.0 (Windows NT 10.0; Win64; x64; rv:78.0) Gecko/20100101 Firefox/78.0 Waterfox/78.10.0,,Firefox,78,Windows,10
195,1,3022,"""",html-keyboard-response,11,75414,0.0-11.0,"""","<img src='jspsych/CFDfaces/CFD-AM-202-079-N.jpg' height=""250px"">,</br><b>Carlos</b>","""",4,IntactFace,Practice,70,5000,f,"""","""","""","""","""","""","""","""",4/30/2021 4:09,98.252.224.31,Mozilla/5.0 (Windows NT 10.0; Win64; x64; rv:78.0) Gecko/20100101 Firefox/78.0 Waterfox/78.10.0,,Firefox,78,Windows,10
195,1,null,"""",html-keyboard-response,12,75917,0.0-12.0,"""","<div style=""font-size:60px;"">+</div>","""",4,ITI,Practice,null,1000,"""","""","""","""","""","""","""","""","""",4/30/2021 4:09,98.252.224.31,Mozilla/5.0 (Windows NT 10.0; Win64; x64; rv:78.0) Gecko/20100101 Firefox/78.0 Waterfox/78.10.0,,Firefox,78,Windows,10
195,1,2868,"""",html-keyboard-response,13,80918,0.0-13.0,"""","<img src='jspsych/CFDfaces/CFD-BM-210-148-N.jpg' height=""250px"">,</br><b>Samuel</b>","""",5,IntactFace,Practice,78,5000,n,"""","""","""","""","""","""","""","""",4/30/2021 4:09,98.252.224.31,Mozilla/5.0 (Windows NT 10.0; Win64; x64; rv:78.0) Gecko/20100101 Firefox/78.0 Waterfox/78.10.0,,Firefox,78,Windows,10
195,1,null,"""",html-keyboard-response,14,81420,0.0-14.0,"""","<div style=""font-size:60px;"">+</div>","""",5,ITI,Practice,null,1000,"""","""","""","""","""","""","""","""","""",4/30/2021 4:09,98.252.224.31,Mozilla/5.0 (Windows NT 10.0; Win64; x64; rv:78.0) Gecko/20100101 Firefox/78.0 Waterfox/78.10.0,,Firefox,78,Windows,10
195,1,2765,"""",html-keyboard-response,15,86424,0.0-15.0,"""","<img src='jspsych/CFDfaces/CFD-WM-032-001-N.jpg' height=""250px"">,</br><b>Marcus</b>","""",6,IntactFace,Practice,78,5000,n,"""","""","""","""","""","""","""","""",4/30/2021 4:09,98.252.224.31,Mozilla/5.0 (Windows NT 10.0; Win64; x64; rv:78.0) Gecko/20100101 Firefox/78.0 Waterfox/78.10.0,,Firefox,78,Windows,10
195,1,null,"""",html-keyboard-response,16,86925,0.0-16.0,"""","<div style=""font-size:60px;"">+</div>","""",6,ITI,Practice,null,1000,"""","""","""","""","""","""","""","""","""",4/30/2021 4:09,98.252.224.31,Mozilla/5.0 (Windows NT 10.0; Win64; x64; rv:78.0) Gecko/20100101 Firefox/78.0 Waterfox/78.10.0,,Firefox,78,Windows,10
195,1,2706,"""",html-keyboard-response,17,91928,0.0-17.0,"""","<img src='jspsych/CFDfaces/CFD-BF-004-014-N.jpg' height=""250px"">,</br><b>Shannon</b>","""",7,IntactFace,Practice,70,5000,f,"""","""","""","""","""","""","""","""",4/30/2021 4:09,98.252.224.31,Mozilla/5.0 (Windows NT 10.0; Win64; x64; rv:78.0) Gecko/20100101 Firefox/78.0 Waterfox/78.10.0,,Firefox,78,Windows,10
195,1,null,"""",html-keyboard-response,18,92431,0.0-18.0,"""","<div style=""font-size:60px;"">+</div>","""",7,ITI,Practice,null,1000,"""","""","""","""","""","""","""","""","""",4/30/2021 4:09,98.252.224.31,Mozilla/5.0 (Windows NT 10.0; Win64; x64; rv:78.0) Gecko/20100101 Firefox/78.0 Waterfox/78.10.0,,Firefox,78,Windows,10
195,1,3442,"""",html-keyboard-response,19,97432,0.0-19.0,"""","<img src='jspsych/CFDfaces/CFD-WF-223-133-N.jpg' height=""250px"">,</br><b>Katelyn</b>","""",8,IntactFace,Practice,70,5000,f,"""","""","""","""","""","""","""","""",4/30/2021 4:09,98.252.224.31,Mozilla/5.0 (Windows NT 10.0; Win64; x64; rv:78.0) Gecko/20100101 Firefox/78.0 Waterfox/78.10.0,,Firefox,78,Windows,10
195,1,null,"""",html-keyboard-response,20,97934,0.0-20.0,"""","<div style=""font-size:60px;"">+</div>","""",8,ITI,Practice,null,1000,"""","""","""","""","""","""","""","""","""",4/30/2021 4:09,98.252.224.31,Mozilla/5.0 (Windows NT 10.0; Win64; x64; rv:78.0) Gecko/20100101 Firefox/78.0 Waterfox/78.10.0,,Firefox,78,Windows,10
195,1,13662,"""",image-button-response,21,111603,0.0-21.0,"""",directionsForTest.JPG,0,1,directionsForTest,break,"""","""","""","""","""","""","""","""","""","""","""",4/30/2021 4:09,98.252.224.31,Mozilla/5.0 (Windows NT 10.0; Win64; x64; rv:78.0) Gecko/20100101 Firefox/78.0 Waterfox/78.10.0,,Firefox,78,Windows,10
195,1,4949,"""",image-button-response,22,116556,0.0-22.0,"""",directionsForTest2.JPG,0,1,directionsForTest2,break,"""","""","""","""","""","""","""","""","""","""","""",4/30/2021 4:09,98.252.224.31,Mozilla/5.0 (Windows NT 10.0; Win64; x64; rv:78.0) Gecko/20100101 Firefox/78.0 Waterfox/78.10.0,,Firefox,78,Windows,10
195,1,null,"""",html-keyboard-response,23,117560,0.0-23.0,"""","<div style=""font-size:60px;"">+</div>","""",1,ITI,Practice,null,1000,"""","""","""","""","""","""","""","""","""",4/30/2021 4:09,98.252.224.31,Mozilla/5.0 (Windows NT 10.0; Win64; x64; rv:78.0) Gecko/20100101 Firefox/78.0 Waterfox/78.10.0,,Firefox,78,Windows,10
195,1,null,"""",image-keyboard-response,24,117813,0.0-24.0,"""",jspsych/scrambledDisgustFaces/scrambledBF31DIS.JPG,"""",1,forwardMask,Practice,null,250,"""",d,"""","""","""","""","""","""","""",4/30/2021 4:09,98.252.224.31,Mozilla/5.0 (Windows NT 10.0; Win64; x64; rv:78.0) Gecko/20100101 Firefox/78.0 Waterfox/78.10.0,,Firefox,78,Windows,10
195,1,null,"""",image-keyboard-response,25,117831,0.0-25.0,"""",jspsych/disgustFaces/BF31DIS.JPG,"""",1,Cue,Practice,null,16,"""","""","""","""","""","""","""","""","""",4/30/2021 4:09,98.252.224.31,Mozilla/5.0 (Windows NT 10.0; Win64; x64; rv:78.0) Gecko/20100101 Firefox/78.0 Waterfox/78.10.0,,Firefox,78,Windows,10
195,1,null,"""",image-keyboard-response,26,117933,0.0-26.0,"""",jspsych/neutralFaces/AF13NES.JPG,"""",1,backwardMask,Practice,null,100,"""","""","""","""","""","""","""","""","""",4/30/2021 4:09,98.252.224.31,Mozilla/5.0 (Windows NT 10.0; Win64; x64; rv:78.0) Gecko/20100101 Firefox/78.0 Waterfox/78.10.0,,Firefox,78,Windows,10
195,1,null,"""",html-keyboard-response,27,118933,0.0-27.0,"""","<div style=""font-size:60px;"">+</div>","""",1,fixationBtwnNeutralMaskAndPrompt,Practice,null,1000,"""","""","""","""","""","""","""","""","""",4/30/2021 4:09,98.252.224.31,Mozilla/5.0 (Windows NT 10.0; Win64; x64; rv:78.0) Gecko/20100101 Firefox/78.0 Waterfox/78.10.0,,Firefox,78,Windows,10
195,1,3868,"""",html-button-response,28,122804,0.0-28.0,"""","<img src='jspsych/CFDfaces/CFD-BM-210-148-N.jpg'height=""250px""></br><b>Samuel</b>",0,1,IntactOrRearranged,Practice,"""","""","""","""",CFD-BM-210-148-N.jpg,Samuel,0,0,"""","""","""",4/30/2021 4:09,98.252.224.31,Mozilla/5.0 (Windows NT 10.0; Win64; x64; rv:78.0) Gecko/20100101 Firefox/78.0 Waterfox/78.10.0,,Firefox,78,Windows,10
195,1,2723,"""",html-slider-response,29,125535,0.0-29.0,"""","<img src='jspsych/CFDfaces/CFD-BM-210-148-N.jpg'height=""250px""></br><b>Samuel</b>","""",1,ConfidenceQuery,Practice,"""","""","""","""",CFD-WM-015-002-N.jpg,Travis,0,"""",0,95,"""",4/30/2021 4:09,98.252.224.31,Mozilla/5.0 (Windows NT 10.0; Win64; x64; rv:78.0) Gecko/20100101 Firefox/78.0 Waterfox/78.10.0,,Firefox,78,Windows,10
195,1,1861,"""",html-button-response,30,127399,0.0-30.0,"""",You are Correct. You called an Intact Pair Intact,0,1,feedback,Practice,"""","""","""","""","""","""","""","""","""","""","""",4/30/2021 4:09,98.252.224.31,Mozilla/5.0 (Windows NT 10.0; Win64; x64; rv:78.0) Gecko/20100101 Firefox/78.0 Waterfox/78.10.0,,Firefox,78,Windows,10
195,1,null,"""",html-keyboard-response,31,128401,0.0-31.0,"""","<div style=""font-size:60px;"">+</div>","""",2,ITI,Practice,null,1000,"""","""","""","""","""","""","""","""","""",4/30/2021 4:09,98.252.224.31,Mozilla/5.0 (Windows NT 10.0; Win64; x64; rv:78.0) Gecko/20100101 Firefox/78.0 Waterfox/78.10.0,,Firefox,78,Windows,10
195,1,null,"""",image-keyboard-response,32,128656,0.0-32.0,"""",jspsych/scrambledDisgustFaces/scrambledAF03DIS.JPG,"""",2,forwardMask,Practice,null,250,"""",d,"""","""","""","""","""","""","""",4/30/2021 4:09,98.252.224.31,Mozilla/5.0 (Windows NT 10.0; Win64; x64; rv:78.0) Gecko/20100101 Firefox/78.0 Waterfox/78.10.0,,Firefox,78,Windows,10
195,1,null,"""",image-keyboard-response,33,128674,0.0-33.0,"""",jspsych/disgustFaces/AF03DIS.JPG,"""",2,Cue,Practice,null,16,"""","""","""","""","""","""","""","""","""",4/30/2021 4:09,98.252.224.31,Mozilla/5.0 (Windows NT 10.0; Win64; x64; rv:78.0) Gecko/20100101 Firefox/78.0 Waterfox/78.10.0,,Firefox,78,Windows,10
195,1,null,"""",image-keyboard-response,34,128777,0.0-34.0,"""",jspsych/neutralFaces/BF19NES.JPG,"""",2,backwardMask,Practice,null,100,"""","""","""","""","""","""","""","""","""",4/30/2021 4:09,98.252.224.31,Mozilla/5.0 (Windows NT 10.0; Win64; x64; rv:78.0) Gecko/20100101 Firefox/78.0 Waterfox/78.10.0,,Firefox,78,Windows,10
195,1,null,"""",html-keyboard-response,35,129778,0.0-35.0,"""","<div style=""font-size:60px;"">+</div>","""",2,fixationBtwnNeutralMaskAndPrompt,Practice,null,1000,"""","""","""","""","""","""","""","""","""",4/30/2021 4:09,98.252.224.31,Mozilla/5.0 (Windows NT 10.0; Win64; x64; rv:78.0) Gecko/20100101 Firefox/78.0 Waterfox/78.10.0,,Firefox,78,Windows,10
195,1,4931,"""",html-button-response,36,134710,0.0-36.0,"""","<img src='jspsych/CFDfaces/CFD-LF-210-220-N.jpg'height=""250px""></br><b>Tara</b>",0,2,IntactOrRearranged,Practice,"""","""","""","""",CFD-LF-210-220-N.jpg,Tara,0,0,"""","""","""",4/30/2021 4:09,98.252.224.31,Mozilla/5.0 (Windows NT 10.0; Win64; x64; rv:78.0) Gecko/20100101 Firefox/78.0 Waterfox/78.10.0,,Firefox,78,Windows,10
195,1,3474,"""",html-slider-response,37,138189,0.0-37.0,"""","<img src='jspsych/CFDfaces/CFD-LF-210-220-N.jpg'height=""250px""></br><b>Tara</b>","""",2,ConfidenceQuery,Practice,"""","""","""","""",CFD-WM-015-002-N.jpg,Travis,0,"""",0,60,"""",4/30/2021 4:09,98.252.224.31,Mozilla/5.0 (Windows NT 10.0; Win64; x64; rv:78.0) Gecko/20100101 Firefox/78.0 Waterfox/78.10.0,,Firefox,78,Windows,10
195,1,1289,"""",html-button-response,38,139480,0.0-38.0,"""",You are Correct. You called an Intact Pair Intact,0,2,feedback,Practice,"""","""","""","""","""","""","""","""","""","""","""",4/30/2021 4:09,98.252.224.31,Mozilla/5.0 (Windows NT 10.0; Win64; x64; rv:78.0) Gecko/20100101 Firefox/78.0 Waterfox/78.10.0,,Firefox,78,Windows,10
195,1,null,"""",html-keyboard-response,39,140482,0.0-39.0,"""","<div style=""font-size:60px;"">+</div>","""",3,ITI,Practice,null,1000,"""","""","""","""","""","""","""","""","""",4/30/2021 4:09,98.252.224.31,Mozilla/5.0 (Windows NT 10.0; Win64; x64; rv:78.0) Gecko/20100101 Firefox/78.0 Waterfox/78.10.0,,Firefox,78,Windows,10
195,1,null,"""",image-keyboard-response,40,140735,0.0-40.0,"""",jspsych/scrambledDisgustFaces/scrambledAM07DIS.JPG,"""",3,forwardMask,Practice,null,250,"""",d,"""","""","""","""","""","""","""",4/30/2021 4:09,98.252.224.31,Mozilla/5.0 (Windows NT 10.0; Win64; x64; rv:78.0) Gecko/20100101 Firefox/78.0 Waterfox/78.10.0,,Firefox,78,Windows,10
195,1,null,"""",image-keyboard-response,41,140753,0.0-41.0,"""",jspsych/disgustFaces/AM07DIS.JPG,"""",3,Cue,Practice,null,16,"""","""","""","""","""","""","""","""","""",4/30/2021 4:09,98.252.224.31,Mozilla/5.0 (Windows NT 10.0; Win64; x64; rv:78.0) Gecko/20100101 Firefox/78.0 Waterfox/78.10.0,,Firefox,78,Windows,10
195,1,null,"""",image-keyboard-response,42,140854,0.0-42.0,"""",jspsych/neutralFaces/BM14NES.JPG,"""",3,backwardMask,Practice,null,100,"""","""","""","""","""","""","""","""","""",4/30/2021 4:09,98.252.224.31,Mozilla/5.0 (Windows NT 10.0; Win64; x64; rv:78.0) Gecko/20100101 Firefox/78.0 Waterfox/78.10.0,,Firefox,78,Windows,10
195,1,null,"""",html-keyboard-response,43,141855,0.0-43.0,"""","<div style=""font-size:60px;"">+</div>","""",3,fixationBtwnNeutralMaskAndPrompt,Practice,null,1000,"""","""","""","""","""","""","""","""","""",4/30/2021 4:09,98.252.224.31,Mozilla/5.0 (Windows NT 10.0; Win64; x64; rv:78.0) Gecko/20100101 Firefox/78.0 Waterfox/78.10.0,,Firefox,78,Windows,10
195,1,1947,"""",html-button-response,44,143802,0.0-44.0,"""","<img src='jspsych/CFDfaces/CFD-BF-004-014-N.jpg'height=""250px""></br><b>Shannon</b>",0,3,IntactOrRearranged,Practice,"""","""","""","""",CFD-BF-004-014-N.jpg,Shannon,0,0,"""","""","""",4/30/2021 4:09,98.252.224.31,Mozilla/5.0 (Windows NT 10.0; Win64; x64; rv:78.0) Gecko/20100101 Firefox/78.0 Waterfox/78.10.0,,Firefox,78,Windows,10
195,1,3903,"""",html-slider-response,45,147707,0.0-45.0,"""","<img src='jspsych/CFDfaces/CFD-BF-004-014-N.jpg'height=""250px""></br><b>Shannon</b>","""",3,ConfidenceQuery,Practice,"""","""","""","""",CFD-WM-015-002-N.jpg,Travis,0,"""",0,98,"""",4/30/2021 4:09,98.252.224.31,Mozilla/5.0 (Windows NT 10.0; Win64; x64; rv:78.0) Gecko/20100101 Firefox/78.0 Waterfox/78.10.0,,Firefox,78,Windows,10
195,1,1001,"""",html-button-response,46,148711,0.0-46.0,"""",You are Correct. You called an Intact Pair Intact,0,3,feedback,Practice,"""","""","""","""","""","""","""","""","""","""","""",4/30/2021 4:09,98.252.224.31,Mozilla/5.0 (Windows NT 10.0; Win64; x64; rv:78.0) Gecko/20100101 Firefox/78.0 Waterfox/78.10.0,,Firefox,78,Windows,10
195,1,null,"""",html-keyboard-response,47,149713,0.0-47.0,"""","<div style=""font-size:60px;"">+</div>","""",4,ITI,Practice,null,1000,"""","""","""","""","""","""","""","""","""",4/30/2021 4:09,98.252.224.31,Mozilla/5.0 (Windows NT 10.0; Win64; x64; rv:78.0) Gecko/20100101 Firefox/78.0 Waterfox/78.10.0,,Firefox,78,Windows,10
195,1,null,"""",image-keyboard-response,48,149965,0.0-48.0,"""",jspsych/scrambledDisgustFaces/scrambledAM04DIS.JPG,"""",4,forwardMask,Practice,null,250,"""",d,"""","""","""","""","""","""","""",4/30/2021 4:09,98.252.224.31,Mozilla/5.0 (Windows NT 10.0; Win64; x64; rv:78.0) Gecko/20100101 Firefox/78.0 Waterfox/78.10.0,,Firefox,78,Windows,10
195,1,null,"""",image-keyboard-response,49,149983,0.0-49.0,"""",jspsych/disgustFaces/AM04DIS.JPG,"""",4,Cue,Practice,null,16,"""","""","""","""","""","""","""","""","""",4/30/2021 4:09,98.252.224.31,Mozilla/5.0 (Windows NT 10.0; Win64; x64; rv:78.0) Gecko/20100101 Firefox/78.0 Waterfox/78.10.0,,Firefox,78,Windows,10
195,1,null,"""",image-keyboard-response,50,150084,0.0-50.0,"""",jspsych/neutralFaces/BM34NES.JPG,"""",4,backwardMask,Practice,null,100,"""","""","""","""","""","""","""","""","""",4/30/2021 4:09,98.252.224.31,Mozilla/5.0 (Windows NT 10.0; Win64; x64; rv:78.0) Gecko/20100101 Firefox/78.0 Waterfox/78.10.0,,Firefox,78,Windows,10
195,1,null,"""",html-keyboard-response,51,151087,0.0-51.0,"""","<div style=""font-size:60px;"">+</div>","""",4,fixationBtwnNeutralMaskAndPrompt,Practice,null,1000,"""","""","""","""","""","""","""","""","""",4/30/2021 4:09,98.252.224.31,Mozilla/5.0 (Windows NT 10.0; Win64; x64; rv:78.0) Gecko/20100101 Firefox/78.0 Waterfox/78.10.0,,Firefox,78,Windows,10
195,1,2181,"""",html-button-response,52,153269,0.0-52.0,"""","<img src='jspsych/CFDfaces/CFD-AM-202-079-N.jpg'height=""250px""></br><b>Marcus</b>",1,4,IntactOrRearranged,Practice,"""","""","""","""",CFD-AM-202-079-N.jpg,Marcus,1,1,"""","""","""",4/30/2021 4:09,98.252.224.31,Mozilla/5.0 (Windows NT 10.0; Win64; x64; rv:78.0) Gecko/20100101 Firefox/78.0 Waterfox/78.10.0,,Firefox,78,Windows,10
195,1,4130,"""",html-slider-response,53,157402,0.0-53.0,"""","<img src='jspsych/CFDfaces/CFD-AM-202-079-N.jpg'height=""250px""></br><b>Marcus</b>","""",4,ConfidenceQuery,Practice,"""","""","""","""",CFD-WM-015-002-N.jpg,Travis,1,"""",0,100,"""",4/30/2021 4:09,98.252.224.31,Mozilla/5.0 (Windows NT 10.0; Win64; x64; rv:78.0) Gecko/20100101 Firefox/78.0 Waterfox/78.10.0,,Firefox,78,Windows,10
195,1,1006,"""",html-button-response,54,158409,0.0-54.0,"""",You are Correct. You Called A Rearranged Pair Rearranged,0,4,feedback,Practice,"""","""","""","""","""","""","""","""","""","""","""",4/30/2021 4:09,98.252.224.31,Mozilla/5.0 (Windows NT 10.0; Win64; x64; rv:78.0) Gecko/20100101 Firefox/78.0 Waterfox/78.10.0,,Firefox,78,Windows,10
195,1,null,"""",html-keyboard-response,55,159410,0.0-55.0,"""","<div style=""font-size:60px;"">+</div>","""",5,ITI,Practice,null,1000,"""","""","""","""","""","""","""","""","""",4/30/2021 4:09,98.252.224.31,Mozilla/5.0 (Windows NT 10.0; Win64; x64; rv:78.0) Gecko/20100101 Firefox/78.0 Waterfox/78.10.0,,Firefox,78,Windows,10
195,1,null,"""",image-keyboard-response,56,159663,0.0-56.0,"""",jspsych/scrambledDisgustFaces/scrambledBM26DIS.JPG,"""",5,forwardMask,Practice,null,250,"""",d,"""","""","""","""","""","""","""",4/30/2021 4:09,98.252.224.31,Mozilla/5.0 (Windows NT 10.0; Win64; x64; rv:78.0) Gecko/20100101 Firefox/78.0 Waterfox/78.10.0,,Firefox,78,Windows,10
195,1,null,"""",image-keyboard-response,57,159682,0.0-57.0,"""",jspsych/disgustFaces/BM27DIS.JPG,"""",5,Cue,Practice,null,16,"""","""","""","""","""","""","""","""","""",4/30/2021 4:09,98.252.224.31,Mozilla/5.0 (Windows NT 10.0; Win64; x64; rv:78.0) Gecko/20100101 Firefox/78.0 Waterfox/78.10.0,,Firefox,78,Windows,10
195,1,null,"""",image-keyboard-response,58,159785,0.0-58.0,"""",jspsych/neutralFaces/AM22NES.JPG,"""",5,backwardMask,Practice,null,100,"""","""","""","""","""","""","""","""","""",4/30/2021 4:09,98.252.224.31,Mozilla/5.0 (Windows NT 10.0; Win64; x64; rv:78.0) Gecko/20100101 Firefox/78.0 Waterfox/78.10.0,,Firefox,78,Windows,10
195,1,null,"""",html-keyboard-response,59,160786,0.0-59.0,"""","<div style=""font-size:60px;"">+</div>","""",5,fixationBtwnNeutralMaskAndPrompt,Practice,null,1000,"""","""","""","""","""","""","""","""","""",4/30/2021 4:09,98.252.224.31,Mozilla/5.0 (Windows NT 10.0; Win64; x64; rv:78.0) Gecko/20100101 Firefox/78.0 Waterfox/78.10.0,,Firefox,78,Windows,10
195,1,3508,"""",html-button-response,60,164296,0.0-60.0,"""","<img src='jspsych/CFDfaces/CFD-WM-032-001-N.jpg'height=""250px""></br><b>Carlos</b>",1,5,IntactOrRearranged,Practice,"""","""","""","""",CFD-WM-032-001-N.jpg,Carlos,1,1,"""","""","""",4/30/2021 4:09,98.252.224.31,Mozilla/5.0 (Windows NT 10.0; Win64; x64; rv:78.0) Gecko/20100101 Firefox/78.0 Waterfox/78.10.0,,Firefox,78,Windows,10
195,1,1905,"""",html-slider-response,61,166201,0.0-61.0,"""","<img src='jspsych/CFDfaces/CFD-WM-032-001-N.jpg'height=""250px""></br><b>Carlos</b>","""",5,ConfidenceQuery,Practice,"""","""","""","""",CFD-WM-015-002-N.jpg,Travis,1,"""",0,100,"""",4/30/2021 4:09,98.252.224.31,Mozilla/5.0 (Windows NT 10.0; Win64; x64; rv:78.0) Gecko/20100101 Firefox/78.0 Waterfox/78.10.0,,Firefox,78,Windows,10
195,1,812,"""",html-button-response,62,167017,0.0-62.0,"""",You are Correct. You Called A Rearranged Pair Rearranged,0,5,feedback,Practice,"""","""","""","""","""","""","""","""","""","""","""",4/30/2021 4:09,98.252.224.31,Mozilla/5.0 (Windows NT 10.0; Win64; x64; rv:78.0) Gecko/20100101 Firefox/78.0 Waterfox/78.10.0,,Firefox,78,Windows,10
195,1,null,"""",html-keyboard-response,63,168020,0.0-63.0,"""","<div style=""font-size:60px;"">+</div>","""",6,ITI,Practice,null,1000,"""","""","""","""","""","""","""","""","""",4/30/2021 4:09,98.252.224.31,Mozilla/5.0 (Windows NT 10.0; Win64; x64; rv:78.0) Gecko/20100101 Firefox/78.0 Waterfox/78.10.0,,Firefox,78,Windows,10
195,1,null,"""",image-keyboard-response,64,168272,0.0-64.0,"""",jspsych/scrambledNeutralFaces/scrambledBF05NES.JPG,"""",6,forwardMask,Practice,null,250,"""",n,"""","""","""","""","""","""","""",4/30/2021 4:09,98.252.224.31,Mozilla/5.0 (Windows NT 10.0; Win64; x64; rv:78.0) Gecko/20100101 Firefox/78.0 Waterfox/78.10.0,,Firefox,78,Windows,10
195,1,null,"""",image-keyboard-response,65,168290,0.0-65.0,"""",jspsych/neutralFaces/BF05NES.JPG,"""",6,Cue,Practice,null,16,"""","""","""","""","""","""","""","""","""",4/30/2021 4:09,98.252.224.31,Mozilla/5.0 (Windows NT 10.0; Win64; x64; rv:78.0) Gecko/20100101 Firefox/78.0 Waterfox/78.10.0,,Firefox,78,Windows,10
195,1,null,"""",image-keyboard-response,66,168391,0.0-66.0,"""",jspsych/neutralFaces/AF35NES.JPG,"""",6,backwardMask,Practice,null,100,"""","""","""","""","""","""","""","""","""",4/30/2021 4:09,98.252.224.31,Mozilla/5.0 (Windows NT 10.0; Win64; x64; rv:78.0) Gecko/20100101 Firefox/78.0 Waterfox/78.10.0,,Firefox,78,Windows,10
195,1,null,"""",html-keyboard-response,67,169391,0.0-67.0,"""","<div style=""font-size:60px;"">+</div>","""",6,fixationBtwnNeutralMaskAndPrompt,Practice,null,1000,"""","""","""","""","""","""","""","""","""",4/30/2021 4:09,98.252.224.31,Mozilla/5.0 (Windows NT 10.0; Win64; x64; rv:78.0) Gecko/20100101 Firefox/78.0 Waterfox/78.10.0,,Firefox,78,Windows,10
195,1,2199,"""",html-button-response,68,171592,0.0-68.0,"""","<img src='jspsych/CFDfaces/CFD-WM-034-030-N.jpg'height=""250px""></br><b>Patrick</b>",0,6,IntactOrRearranged,Practice,"""","""","""","""",CFD-WM-034-030-N.jpg,Patrick,0,0,"""","""","""",4/30/2021 4:09,98.252.224.31,Mozilla/5.0 (Windows NT 10.0; Win64; x64; rv:78.0) Gecko/20100101 Firefox/78.0 Waterfox/78.10.0,,Firefox,78,Windows,10
195,1,2247,"""",html-slider-response,69,173842,0.0-69.0,"""","<img src='jspsych/CFDfaces/CFD-WM-034-030-N.jpg'height=""250px""></br><b>Patrick</b>","""",6,ConfidenceQuery,Practice,"""","""","""","""",CFD-WM-015-002-N.jpg,Travis,0,"""",0,80,"""",4/30/2021 4:09,98.252.224.31,Mozilla/5.0 (Windows NT 10.0; Win64; x64; rv:78.0) Gecko/20100101 Firefox/78.0 Waterfox/78.10.0,,Firefox,78,Windows,10
195,1,866,"""",html-button-response,70,174710,0.0-70.0,"""",You are Correct. You called an Intact Pair Intact,0,6,feedback,Practice,"""","""","""","""","""","""","""","""","""","""","""",4/30/2021 4:09,98.252.224.31,Mozilla/5.0 (Windows NT 10.0; Win64; x64; rv:78.0) Gecko/20100101 Firefox/78.0 Waterfox/78.10.0,,Firefox,78,Windows,10
195,1,null,"""",html-keyboard-response,71,175711,0.0-71.0,"""","<div style=""font-size:60px;"">+</div>","""",7,ITI,Practice,null,1000,"""","""","""","""","""","""","""","""","""",4/30/2021 4:09,98.252.224.31,Mozilla/5.0 (Windows NT 10.0; Win64; x64; rv:78.0) Gecko/20100101 Firefox/78.0 Waterfox/78.10.0,,Firefox,78,Windows,10
195,1,null,"""",image-keyboard-response,72,175963,0.0-72.0,"""",jspsych/scrambledNeutralFaces/scrambledAM17NES.JPG,"""",7,forwardMask,Practice,null,250,"""",n,"""","""","""","""","""","""","""",4/30/2021 4:09,98.252.224.31,Mozilla/5.0 (Windows NT 10.0; Win64; x64; rv:78.0) Gecko/20100101 Firefox/78.0 Waterfox/78.10.0,,Firefox,78,Windows,10
195,1,null,"""",image-keyboard-response,73,175981,0.0-73.0,"""",jspsych/neutralFaces/AM17NES.JPG,"""",7,Cue,Practice,null,16,"""","""","""","""","""","""","""","""","""",4/30/2021 4:09,98.252.224.31,Mozilla/5.0 (Windows NT 10.0; Win64; x64; rv:78.0) Gecko/20100101 Firefox/78.0 Waterfox/78.10.0,,Firefox,78,Windows,10
195,1,null,"""",image-keyboard-response,74,176083,0.0-74.0,"""",jspsych/neutralFaces/BM13NES.JPG,"""",7,backwardMask,Practice,null,100,"""","""","""","""","""","""","""","""","""",4/30/2021 4:09,98.252.224.31,Mozilla/5.0 (Windows NT 10.0; Win64; x64; rv:78.0) Gecko/20100101 Firefox/78.0 Waterfox/78.10.0,,Firefox,78,Windows,10
195,1,null,"""",html-keyboard-response,75,177084,0.0-75.0,"""","<div style=""font-size:60px;"">+</div>","""",7,fixationBtwnNeutralMaskAndPrompt,Practice,null,1000,"""","""","""","""","""","""","""","""","""",4/30/2021 4:09,98.252.224.31,Mozilla/5.0 (Windows NT 10.0; Win64; x64; rv:78.0) Gecko/20100101 Firefox/78.0 Waterfox/78.10.0,,Firefox,78,Windows,10
195,1,3438,"""",html-button-response,76,180525,0.0-76.0,"""","<img src='jspsych/CFDfaces/CFD-WF-223-133-N.jpg'height=""250px""></br><b>Cassandra</b>",1,7,IntactOrRearranged,Practice,"""","""","""","""",CFD-WF-223-133-N.jpg,Cassandra,1,1,"""","""","""",4/30/2021 4:09,98.252.224.31,Mozilla/5.0 (Windows NT 10.0; Win64; x64; rv:78.0) Gecko/20100101 Firefox/78.0 Waterfox/78.10.0,,Firefox,78,Windows,10
195,1,1351,"""",html-slider-response,77,181878,0.0-77.0,"""","<img src='jspsych/CFDfaces/CFD-WF-223-133-N.jpg'height=""250px""></br><b>Cassandra</b>","""",7,ConfidenceQuery,Practice,"""","""","""","""",CFD-WM-015-002-N.jpg,Travis,1,"""",0,100,"""",4/30/2021 4:09,98.252.224.31,Mozilla/5.0 (Windows NT 10.0; Win64; x64; rv:78.0) Gecko/20100101 Firefox/78.0 Waterfox/78.10.0,,Firefox,78,Windows,10
195,1,644,"""",html-button-response,78,182524,0.0-78.0,"""",You are Correct. You Called A Rearranged Pair Rearranged,0,7,feedback,Practice,"""","""","""","""","""","""","""","""","""","""","""",4/30/2021 4:09,98.252.224.31,Mozilla/5.0 (Windows NT 10.0; Win64; x64; rv:78.0) Gecko/20100101 Firefox/78.0 Waterfox/78.10.0,,Firefox,78,Windows,10
195,1,null,"""",html-keyboard-response,79,183530,0.0-79.0,"""","<div style=""font-size:60px;"">+</div>","""",8,ITI,Practice,null,1000,"""","""","""","""","""","""","""","""","""",4/30/2021 4:09,98.252.224.31,Mozilla/5.0 (Windows NT 10.0; Win64; x64; rv:78.0) Gecko/20100101 Firefox/78.0 Waterfox/78.10.0,,Firefox,78,Windows,10
195,1,null,"""",image-keyboard-response,80,183783,0.0-80.0,"""",jspsych/scrambledDisgustFaces/scrambledBF25DIS.JPG,"""",8,forwardMask,Practice,null,250,"""",d,"""","""","""","""","""","""","""",4/30/2021 4:09,98.252.224.31,Mozilla/5.0 (Windows NT 10.0; Win64; x64; rv:78.0) Gecko/20100101 Firefox/78.0 Waterfox/78.10.0,,Firefox,78,Windows,10
195,1,null,"""",image-keyboard-response,81,183802,0.0-81.0,"""",jspsych/disgustFaces/BF25DIS.JPG,"""",8,Cue,Practice,null,16,"""","""","""","""","""","""","""","""","""",4/30/2021 4:09,98.252.224.31,Mozilla/5.0 (Windows NT 10.0; Win64; x64; rv:78.0) Gecko/20100101 Firefox/78.0 Waterfox/78.10.0,,Firefox,78,Windows,10
195,1,null,"""",image-keyboard-response,82,183905,0.0-82.0,"""",jspsych/neutralFaces/AF06NES.JPG,"""",8,backwardMask,Practice,null,100,"""","""","""","""","""","""","""","""","""",4/30/2021 4:09,98.252.224.31,Mozilla/5.0 (Windows NT 10.0; Win64; x64; rv:78.0) Gecko/20100101 Firefox/78.0 Waterfox/78.10.0,,Firefox,78,Windows,10
195,1,null,"""",html-keyboard-response,83,184905,0.0-83.0,"""","<div style=""font-size:60px;"">+</div>","""",8,fixationBtwnNeutralMaskAndPrompt,Practice,null,1000,"""","""","""","""","""","""","""","""","""",4/30/2021 4:09,98.252.224.31,Mozilla/5.0 (Windows NT 10.0; Win64; x64; rv:78.0) Gecko/20100101 Firefox/78.0 Waterfox/78.10.0,,Firefox,78,Windows,10
195,1,2545,"""",html-button-response,84,187451,0.0-84.0,"""","<img src='jspsych/CFDfaces/CFD-BF-039-031-N.jpg'height=""250px""></br><b>Katelyn</b>",1,8,IntactOrRearranged,Practice,"""","""","""","""",CFD-BF-039-031-N.jpg,Katelyn,1,1,"""","""","""",4/30/2021 4:09,98.252.224.31,Mozilla/5.0 (Windows NT 10.0; Win64; x64; rv:78.0) Gecko/20100101 Firefox/78.0 Waterfox/78.10.0,,Firefox,78,Windows,10
195,1,1691,"""",html-slider-response,85,189145,0.0-85.0,"""","<img src='jspsych/CFDfaces/CFD-BF-039-031-N.jpg'height=""250px""></br><b>Katelyn</b>","""",8,ConfidenceQuery,Practice,"""","""","""","""",CFD-WM-015-002-N.jpg,Travis,1,"""",0,100,"""",4/30/2021 4:09,98.252.224.31,Mozilla/5.0 (Windows NT 10.0; Win64; x64; rv:78.0) Gecko/20100101 Firefox/78.0 Waterfox/78.10.0,,Firefox,78,Windows,10
195,1,1058,"""",html-button-response,86,190212,0.0-86.0,"""",You are Correct. You Called A Rearranged Pair Rearranged,0,8,feedback,Practice,"""","""","""","""","""","""","""","""","""","""","""",4/30/2021 4:09,98.252.224.31,Mozilla/5.0 (Windows NT 10.0; Win64; x64; rv:78.0) Gecko/20100101 Firefox/78.0 Waterfox/78.10.0,,Firefox,78,Windows,10
195,1,5507,"""",image-button-response,87,195723,0.0-87.0,"""",directionsMemoryAssociation3.JPG,0,128,DirectionsBeforeActualTEst,Break,"""","""","""","""","""","""","""","""","""","""","""",4/30/2021 4:09,98.252.224.31,Mozilla/5.0 (Windows NT 10.0; Win64; x64; rv:78.0) Gecko/20100101 Firefox/78.0 Waterfox/78.10.0,,Firefox,78,Windows,10
195,1,7021,"""",image-button-response,88,202750,0.0-88.0,"""",directionsForTest2.JPG,0,1,directionsForTest2,break,"""","""","""","""","""","""","""","""","""","""","""",4/30/2021 4:09,98.252.224.31,Mozilla/5.0 (Windows NT 10.0; Win64; x64; rv:78.0) Gecko/20100101 Firefox/78.0 Waterfox/78.10.0,,Firefox,78,Windows,10
195,1,22296,"""",html-button-response,89,225048,0.0-89.0,"""","<p>You will be asked to memorize and then recall four sets of face-name pairs. </p> <p> Each set will have 32 pairs. </p> <p>After the fourth set, there will be a brief follow-up experiment (<40 min alltogether)</p>",0,"""","""","""","""","""","""","""","""","""","""","""","""","""","""",4/30/2021 4:09,98.252.224.31,Mozilla/5.0 (Windows NT 10.0; Win64; x64; rv:78.0) Gecko/20100101 Firefox/78.0 Waterfox/78.10.0,,Firefox,78,Windows,10
195,1,2023,"""",html-keyboard-response,90,230052,0.0-90.0,"""","<img src='jspsych/CFDfaces/CFD-BM-043-071-N.jpg' height=""250px""></br><b>Peter</b>","""",256,IntactFace,Memorization,70,5000,f,"""",CFD-WF-220-101-N.jpg,Sara,0,"""","""","""",1,4/30/2021 4:09,98.252.224.31,Mozilla/5.0 (Windows NT 10.0; Win64; x64; rv:78.0) Gecko/20100101 Firefox/78.0 Waterfox/78.10.0,,Firefox,78,Windows,10
195,1,null,"""",html-keyboard-response,91,230554,0.0-91.0,"""","<div style=""font-size:60px;"">+</div>","""",256,fixation,Memorization,null,500,"""","""","""","""","""","""","""","""",1,4/30/2021 4:09,98.252.224.31,Mozilla/5.0 (Windows NT 10.0; Win64; x64; rv:78.0) Gecko/20100101 Firefox/78.0 Waterfox/78.10.0,,Firefox,78,Windows,10
195,1,3239,"""",html-keyboard-response,92,235559,0.0-92.0,"""","<img src='jspsych/CFDfaces/CFD-BM-205-001-N.jpg' height=""250px""></br><b>Gregory</b>","""",256,IntactFace,Memorization,78,5000,n,"""",CFD-WM-222-057-N.jpg,Dustin,0,"""","""","""",1,4/30/2021 4:09,98.252.224.31,Mozilla/5.0 (Windows NT 10.0; Win64; x64; rv:78.0) Gecko/20100101 Firefox/78.0 Waterfox/78.10.0,,Firefox,78,Windows,10
195,1,null,"""",html-keyboard-response,93,236060,0.0-93.0,"""","<div style=""font-size:60px;"">+</div>","""",256,fixation,Memorization,null,500,"""","""","""","""","""","""","""","""",1,4/30/2021 4:09,98.252.224.31,Mozilla/5.0 (Windows NT 10.0; Win64; x64; rv:78.0) Gecko/20100101 Firefox/78.0 Waterfox/78.10.0,,Firefox,78,Windows,10
195,1,2562,"""",html-keyboard-response,94,241064,0.0-94.0,"""","<img src='jspsych/CFDfaces/CFD-BF-226-119-N.jpg' height=""250px""></br><b>Samantha</b>","""",256,IntactFace,Memorization,70,5000,f,"""",CFD-BM-041-035-N.jpg,Jesse,0,"""","""","""",1,4/30/2021 4:09,98.252.224.31,Mozilla/5.0 (Windows NT 10.0; Win64; x64; rv:78.0) Gecko/20100101 Firefox/78.0 Waterfox/78.10.0,,Firefox,78,Windows,10
195,1,null,"""",html-keyboard-response,95,241567,0.0-95.0,"""","<div style=""font-size:60px;"">+</div>","""",256,fixation,Memorization,null,500,"""","""","""","""","""","""","""","""",1,4/30/2021 4:09,98.252.224.31,Mozilla/5.0 (Windows NT 10.0; Win64; x64; rv:78.0) Gecko/20100101 Firefox/78.0 Waterfox/78.10.0,,Firefox,78,Windows,10
195,1,2971,"""",html-keyboard-response,96,246571,0.0-96.0,"""","<img src='jspsych/CFDfaces/CFD-WM-213-076-N.jpg' height=""250px""></br><b>Richard</b>","""",256,IntactFace,Memorization,70,5000,f,"""",CFD-LM-252-076-N.jpg,Jacob,0,"""","""","""",1,4/30/2021 4:09,98.252.224.31,Mozilla/5.0 (Windows NT 10.0; Win64; x64; rv:78.0) Gecko/20100101 Firefox/78.0 Waterfox/78.10.0,,Firefox,78,Windows,10
195,1,null,"""",html-keyboard-response,97,247073,0.0-97.0,"""","<div style=""font-size:60px;"">+</div>","""",256,fixation,Memorization,null,500,"""","""","""","""","""","""","""","""",1,4/30/2021 4:09,98.252.224.31,Mozilla/5.0 (Windows NT 10.0; Win64; x64; rv:78.0) Gecko/20100101 Firefox/78.0 Waterfox/78.10.0,,Firefox,78,Windows,10
195,1,3747,"""",html-keyboard-response,98,252083,0.0-98.0,"""","<img src='jspsych/CFDfaces/CFD-LF-204-133-N.jpg' height=""250px""></br><b>Elizabeth</b>","""",256,IntactFace,Memorization,78,5000,n,"""",CFD-BM-017-021-N.jpg,Sean,0,"""","""","""",1,4/30/2021 4:09,98.252.224.31,Mozilla/5.0 (Windows NT 10.0; Win64; x64; rv:78.0) Gecko/20100101 Firefox/78.0 Waterfox/78.10.0,,Firefox,78,Windows,10
195,1,null,"""",html-keyboard-response,99,252586,0.0-99.0,"""","<div style=""font-size:60px;"">+</div>","""",256,fixation,Memorization,null,500,"""","""","""","""","""","""","""","""",1,4/30/2021 4:09,98.252.224.31,Mozilla/5.0 (Windows NT 10.0; Win64; x64; rv:78.0) Gecko/20100101 Firefox/78.0 Waterfox/78.10.0,,Firefox,78,Windows,10
195,1,2624,"""",html-keyboard-response,100,257598,0.0-100.0,"""","<img src='jspsych/CFDfaces/CFD-BF-005-001-N.jpg' height=""250px""></br><b>Brittany</b>","""",256,IntactFace,Memorization,70,5000,f,"""",CFD-AM-243-212-N.jpg,Luis,0,"""","""","""",1,4/30/2021 4:09,98.252.224.31,Mozilla/5.0 (Windows NT 10.0; Win64; x64; rv:78.0) Gecko/20100101 Firefox/78.0 Waterfox/78.10.0,,Firefox,78,Windows,10
195,1,null,"""",html-keyboard-response,101,258101,0.0-101.0,"""","<div style=""font-size:60px;"">+</div>","""",256,fixation,Memorization,null,500,"""","""","""","""","""","""","""","""",1,4/30/2021 4:09,98.252.224.31,Mozilla/5.0 (Windows NT 10.0; Win64; x64; rv:78.0) Gecko/20100101 Firefox/78.0 Waterfox/78.10.0,,Firefox,78,Windows,10
195,1,2809,"""",html-keyboard-response,102,263104,0.0-102.0,"""","<img src='jspsych/CFDfaces/CFD-AM-246-184-N.jpg' height=""250px""></br><b>Ian</b>","""",256,IntactFace,Memorization,70,5000,f,"""",CFD-LM-224-162-N.jpg,Jeremy,0,"""","""","""",1,4/30/2021 4:09,98.252.224.31,Mozilla/5.0 (Windows NT 10.0; Win64; x64; rv:78.0) Gecko/20100101 Firefox/78.0 Waterfox/78.10.0,,Firefox,78,Windows,10
195,1,null,"""",html-keyboard-response,103,263605,0.0-103.0,"""","<div style=""font-size:60px;"">+</div>","""",256,fixation,Memorization,null,500,"""","""","""","""","""","""","""","""",1,4/30/2021 4:09,98.252.224.31,Mozilla/5.0 (Windows NT 10.0; Win64; x64; rv:78.0) Gecko/20100101 Firefox/78.0 Waterfox/78.10.0,,Firefox,78,Windows,10
195,1,4003,"""",html-keyboard-response,104,268609,0.0-104.0,"""","<img src='jspsych/CFDfaces/CFD-AF-228-173-N.jpg' height=""250px""></br><b>Kimberly</b>","""",256,IntactFace,Memorization,78,5000,n,"""",CFD-WF-207-014-N.jpg,Melissa,0,"""","""","""",1,4/30/2021 4:09,98.252.224.31,Mozilla/5.0 (Windows NT 10.0; Win64; x64; rv:78.0) Gecko/20100101 Firefox/78.0 Waterfox/78.10.0,,Firefox,78,Windows,10
195,1,null,"""",html-keyboard-response,105,269110,0.0-105.0,"""","<div style=""font-size:60px;"">+</div>","""",256,fixation,Memorization,null,500,"""","""","""","""","""","""","""","""",1,4/30/2021 4:09,98.252.224.31,Mozilla/5.0 (Windows NT 10.0; Win64; x64; rv:78.0) Gecko/20100101 Firefox/78.0 Waterfox/78.10.0,,Firefox,78,Windows,10
195,1,3154,"""",html-keyboard-response,106,274115,0.0-106.0,"""","<img src='jspsych/CFDfaces/CFD-BM-011-016-N.jpg' height=""250px""></br><b>Nicholas</b>","""",256,IntactFace,Memorization,70,5000,f,"""",CFD-BF-016-017-N.jpg,Taylor,0,"""","""","""",1,4/30/2021 4:09,98.252.224.31,Mozilla/5.0 (Windows NT 10.0; Win64; x64; rv:78.0) Gecko/20100101 Firefox/78.0 Waterfox/78.10.0,,Firefox,78,Windows,10
195,1,null,"""",html-keyboard-response,107,274616,0.0-107.0,"""","<div style=""font-size:60px;"">+</div>","""",256,fixation,Memorization,null,500,"""","""","""","""","""","""","""","""",1,4/30/2021 4:09,98.252.224.31,Mozilla/5.0 (Windows NT 10.0; Win64; x64; rv:78.0) Gecko/20100101 Firefox/78.0 Waterfox/78.10.0,,Firefox,78,Windows,10
195,1,2583,"""",html-keyboard-response,108,279620,0.0-108.0,"""","<img src='jspsych/CFDfaces/CFD-BF-209-172-N.jpg' height=""250px""></br><b>Victoria</b>","""",256,IntactFace,Memorization,70,5000,f,"""",CFD-LM-239-075-N.jpg,Austin,0,"""","""","""",1,4/30/2021 4:09,98.252.224.31,Mozilla/5.0 (Windows NT 10.0; Win64; x64; rv:78.0) Gecko/20100101 Firefox/78.0 Waterfox/78.10.0,,Firefox,78,Windows,10
195,1,null,"""",html-keyboard-response,109,280122,0.0-109.0,"""","<div style=""font-size:60px;"">+</div>","""",256,fixation,Memorization,null,500,"""","""","""","""","""","""","""","""",1,4/30/2021 4:09,98.252.224.31,Mozilla/5.0 (Windows NT 10.0; Win64; x64; rv:78.0) Gecko/20100101 Firefox/78.0 Waterfox/78.10.0,,Firefox,78,Windows,10
195,1,3600,"""",html-keyboard-response,110,285125,0.0-110.0,"""","<img src='jspsych/CFDfaces/CFD-AF-214-139-N.jpg' height=""250px""></br><b>Vanessa</b>","""",256,IntactFace,Memorization,70,5000,f,"""",CFD-LF-230-203-N.jpg,Lindsey,0,"""","""","""",1,4/30/2021 4:09,98.252.224.31,Mozilla/5.0 (Windows NT 10.0; Win64; x64; rv:78.0) Gecko/20100101 Firefox/78.0 Waterfox/78.10.0,,Firefox,78,Windows,10
195,1,null,"""",html-keyboard-response,111,285626,0.0-111.0,"""","<div style=""font-size:60px;"">+</div>","""",256,fixation,Memorization,null,500,"""","""","""","""","""","""","""","""",1,4/30/2021 4:09,98.252.224.31,Mozilla/5.0 (Windows NT 10.0; Win64; x64; rv:78.0) Gecko/20100101 Firefox/78.0 Waterfox/78.10.0,,Firefox,78,Windows,10
195,1,2972,"""",html-keyboard-response,112,290629,0.0-112.0,"""","<img src='jspsych/CFDfaces/CFD-BF-008-001-N.jpg' height=""250px""></br><b>Julie</b>","""",256,IntactFace,Memorization,70,5000,f,"""",CFD-AF-226-251-N.jpg,Tiffany,0,"""","""","""",1,4/30/2021 4:09,98.252.224.31,Mozilla/5.0 (Windows NT 10.0; Win64; x64; rv:78.0) Gecko/20100101 Firefox/78.0 Waterfox/78.10.0,,Firefox,78,Windows,10
195,1,null,"""",html-keyboard-response,113,291130,0.0-113.0,"""","<div style=""font-size:60px;"">+</div>","""",256,fixation,Memorization,null,500,"""","""","""","""","""","""","""","""",1,4/30/2021 4:09,98.252.224.31,Mozilla/5.0 (Windows NT 10.0; Win64; x64; rv:78.0) Gecko/20100101 Firefox/78.0 Waterfox/78.10.0,,Firefox,78,Windows,10
195,1,2032,"""",html-keyboard-response,114,296133,0.0-114.0,"""","<img src='jspsych/CFDfaces/CFD-WF-200-099-N.jpg' height=""250px""></br><b>Christina</b>","""",256,IntactFace,Memorization,70,5000,f,"""",CFD-LF-236-221-N.jpg,Jordan,0,"""","""","""",1,4/30/2021 4:09,98.252.224.31,Mozilla/5.0 (Windows NT 10.0; Win64; x64; rv:78.0) Gecko/20100101 Firefox/78.0 Waterfox/78.10.0,,Firefox,78,Windows,10
195,1,null,"""",html-keyboard-response,115,296634,0.0-115.0,"""","<div style=""font-size:60px;"">+</div>","""",256,fixation,Memorization,null,500,"""","""","""","""","""","""","""","""",1,4/30/2021 4:09,98.252.224.31,Mozilla/5.0 (Windows NT 10.0; Win64; x64; rv:78.0) Gecko/20100101 Firefox/78.0 Waterfox/78.10.0,,Firefox,78,Windows,10
195,1,2155,"""",html-keyboard-response,116,301638,0.0-116.0,"""","<img src='jspsych/CFDfaces/CFD-AM-207-108-N.jpg' height=""250px""></br><b>Jason</b>","""",256,IntactFace,Memorization,70,5000,f,"""",CFD-AM-230-150-N.jpg,Kenneth,0,"""","""","""",1,4/30/2021 4:09,98.252.224.31,Mozilla/5.0 (Windows NT 10.0; Win64; x64; rv:78.0) Gecko/20100101 Firefox/78.0 Waterfox/78.10.0,,Firefox,78,Windows,10
195,1,null,"""",html-keyboard-response,117,302139,0.0-117.0,"""","<div style=""font-size:60px;"">+</div>","""",256,fixation,Memorization,null,500,"""","""","""","""","""","""","""","""",1,4/30/2021 4:09,98.252.224.31,Mozilla/5.0 (Windows NT 10.0; Win64; x64; rv:78.0) Gecko/20100101 Firefox/78.0 Waterfox/78.10.0,,Firefox,78,Windows,10
195,1,2585,"""",html-keyboard-response,118,307142,0.0-118.0,"""","<img src='jspsych/CFDfaces/CFD-LF-239-148-N.jpg' height=""250px""></br><b>Michelle</b>","""",256,IntactFace,Memorization,70,5000,f,"""",CFD-LM-209-111-N.jpg,Cameron,0,"""","""","""",1,4/30/2021 4:09,98.252.224.31,Mozilla/5.0 (Windows NT 10.0; Win64; x64; rv:78.0) Gecko/20100101 Firefox/78.0 Waterfox/78.10.0,,Firefox,78,Windows,10
195,1,null,"""",html-keyboard-response,119,307643,0.0-119.0,"""","<div style=""font-size:60px;"">+</div>","""",256,fixation,Memorization,null,500,"""","""","""","""","""","""","""","""",1,4/30/2021 4:09,98.252.224.31,Mozilla/5.0 (Windows NT 10.0; Win64; x64; rv:78.0) Gecko/20100101 Firefox/78.0 Waterfox/78.10.0,,Firefox,78,Windows,10
195,1,3109,"""",html-keyboard-response,120,312646,0.0-120.0,"""","<img src='jspsych/CFDfaces/CFD-WF-218-087-N.jpg' height=""250px""></br><b>Kayla</b>","""",256,IntactFace,Memorization,70,5000,f,"""",CFD-LM-221-216-N.jpg,Justin,0,"""","""","""",1,4/30/2021 4:09,98.252.224.31,Mozilla/5.0 (Windows NT 10.0; Win64; x64; rv:78.0) Gecko/20100101 Firefox/78.0 Waterfox/78.10.0,,Firefox,78,Windows,10
195,1,null,"""",html-keyboard-response,121,313149,0.0-121.0,"""","<div style=""font-size:60px;"">+</div>","""",256,fixation,Memorization,null,500,"""","""","""","""","""","""","""","""",1,4/30/2021 4:09,98.252.224.31,Mozilla/5.0 (Windows NT 10.0; Win64; x64; rv:78.0) Gecko/20100101 Firefox/78.0 Waterfox/78.10.0,,Firefox,78,Windows,10
195,1,3993,"""",html-keyboard-response,122,318161,0.0-122.0,"""","<img src='jspsych/CFDfaces/CFD-LM-200-045-N.jpg' height=""250px""></br><b>Joshua</b>","""",256,IntactFace,Memorization,70,5000,f,"""",CFD-WM-006-002-N.jpg,Mark,0,"""","""","""",1,4/30/2021 4:09,98.252.224.31,Mozilla/5.0 (Windows NT 10.0; Win64; x64; rv:78.0) Gecko/20100101 Firefox/78.0 Waterfox/78.10.0,,Firefox,78,Windows,10
195,1,null,"""",html-keyboard-response,123,318663,0.0-123.0,"""","<div style=""font-size:60px;"">+</div>","""",256,fixation,Memorization,null,500,"""","""","""","""","""","""","""","""",1,4/30/2021 4:09,98.252.224.31,Mozilla/5.0 (Windows NT 10.0; Win64; x64; rv:78.0) Gecko/20100101 Firefox/78.0 Waterfox/78.10.0,,Firefox,78,Windows,10
195,1,null,"""",html-keyboard-response,124,323672,0.0-124.0,"""","<img src='jspsych/CFDfaces/CFD-LM-233-171-N.jpg' height=""250px""></br><b>Robert</b>","""",256,IntactFace,Memorization,null,5000,"""","""",CFD-LF-215-157-N.jpg,Amy,0,"""","""","""",1,4/30/2021 4:09,98.252.224.31,Mozilla/5.0 (Windows NT 10.0; Win64; x64; rv:78.0) Gecko/20100101 Firefox/78.0 Waterfox/78.10.0,,Firefox,78,Windows,10
195,1,null,"""",html-keyboard-response,125,324174,0.0-125.0,"""","<div style=""font-size:60px;"">+</div>","""",256,fixation,Memorization,null,500,"""","""","""","""","""","""","""","""",1,4/30/2021 4:09,98.252.224.31,Mozilla/5.0 (Windows NT 10.0; Win64; x64; rv:78.0) Gecko/20100101 Firefox/78.0 Waterfox/78.10.0,,Firefox,78,Windows,10
195,1,2479,"""",html-keyboard-response,126,329180,0.0-126.0,"""","<img src='jspsych/CFDfaces/CFD-AM-234-355-N.jpg' height=""250px""></br><b>James</b>","""",256,IntactFace,Memorization,78,5000,n,"""",CFD-WF-217-085-N.jpg,Lauren,0,"""","""","""",1,4/30/2021 4:09,98.252.224.31,Mozilla/5.0 (Windows NT 10.0; Win64; x64; rv:78.0) Gecko/20100101 Firefox/78.0 Waterfox/78.10.0,,Firefox,78,Windows,10
195,1,null,"""",html-keyboard-response,127,329681,0.0-127.0,"""","<div style=""font-size:60px;"">+</div>","""",256,fixation,Memorization,null,500,"""","""","""","""","""","""","""","""",1,4/30/2021 4:09,98.252.224.31,Mozilla/5.0 (Windows NT 10.0; Win64; x64; rv:78.0) Gecko/20100101 Firefox/78.0 Waterfox/78.10.0,,Firefox,78,Windows,10
195,1,2335,"""",html-keyboard-response,128,334685,0.0-128.0,"""","<img src='jspsych/CFDfaces/CFD-AM-212-050-N.jpg' height=""250px""></br><b>Daniel</b>","""",256,IntactFace,Memorization,70,5000,f,"""",CFD-LF-213-079-N.jpg,Jasmine,0,"""","""","""",1,4/30/2021 4:09,98.252.224.31,Mozilla/5.0 (Windows NT 10.0; Win64; x64; rv:78.0) Gecko/20100101 Firefox/78.0 Waterfox/78.10.0,,Firefox,78,Windows,10
195,1,null,"""",html-keyboard-response,129,335187,0.0-129.0,"""","<div style=""font-size:60px;"">+</div>","""",256,fixation,Memorization,null,500,"""","""","""","""","""","""","""","""",1,4/30/2021 4:09,98.252.224.31,Mozilla/5.0 (Windows NT 10.0; Win64; x64; rv:78.0) Gecko/20100101 Firefox/78.0 Waterfox/78.10.0,,Firefox,78,Windows,10
195,1,3058,"""",html-keyboard-response,130,340192,0.0-130.0,"""","<img src='jspsych/CFDfaces/CFD-AF-239-171-N.jpg' height=""250px""></br><b>Meghan</b>","""",256,IntactFace,Memorization,70,5000,f,"""",CFD-LM-223-175-N.jpg,Steven,0,"""","""","""",1,4/30/2021 4:09,98.252.224.31,Mozilla/5.0 (Windows NT 10.0; Win64; x64; rv:78.0) Gecko/20100101 Firefox/78.0 Waterfox/78.10.0,,Firefox,78,Windows,10
195,1,null,"""",html-keyboard-response,131,340694,0.0-131.0,"""","<div style=""font-size:60px;"">+</div>","""",256,fixation,Memorization,null,500,"""","""","""","""","""","""","""","""",1,4/30/2021 4:09,98.252.224.31,Mozilla/5.0 (Windows NT 10.0; Win64; x64; rv:78.0) Gecko/20100101 Firefox/78.0 Waterfox/78.10.0,,Firefox,78,Windows,10
195,1,1792,"""",html-keyboard-response,132,345698,0.0-132.0,"""","<img src='jspsych/CFDfaces/CFD-WM-009-002-N.jpg' height=""250px""></br><b>Brian</b>","""",256,IntactFace,Memorization,70,5000,f,"""",CFD-AF-243-170-N.jpg,Rebecca,0,"""","""","""",1,4/30/2021 4:09,98.252.224.31,Mozilla/5.0 (Windows NT 10.0; Win64; x64; rv:78.0) Gecko/20100101 Firefox/78.0 Waterfox/78.10.0,,Firefox,78,Windows,10
195,1,null,"""",html-keyboard-response,133,346199,0.0-133.0,"""","<div style=""font-size:60px;"">+</div>","""",256,fixation,Memorization,null,500,"""","""","""","""","""","""","""","""",1,4/30/2021 4:09,98.252.224.31,Mozilla/5.0 (Windows NT 10.0; Win64; x64; rv:78.0) Gecko/20100101 Firefox/78.0 Waterfox/78.10.0,,Firefox,78,Windows,10
195,1,3706,"""",html-keyboard-response,134,351204,0.0-134.0,"""","<img src='jspsych/CFDfaces/CFD-WM-003-002-N.jpg' height=""250px""></br><b>Jeffrey</b>","""",256,IntactFace,Memorization,78,5000,n,"""",CFD-WF-202-056-N.jpg,Erin,0,"""","""","""",1,4/30/2021 4:09,98.252.224.31,Mozilla/5.0 (Windows NT 10.0; Win64; x64; rv:78.0) Gecko/20100101 Firefox/78.0 Waterfox/78.10.0,,Firefox,78,Windows,10
195,1,null,"""",html-keyboard-response,135,351705,0.0-135.0,"""","<div style=""font-size:60px;"">+</div>","""",256,fixation,Memorization,null,500,"""","""","""","""","""","""","""","""",1,4/30/2021 4:09,98.252.224.31,Mozilla/5.0 (Windows NT 10.0; Win64; x64; rv:78.0) Gecko/20100101 Firefox/78.0 Waterfox/78.10.0,,Firefox,78,Windows,10
195,1,2102,"""",html-keyboard-response,136,356710,0.0-136.0,"""","<img src='jspsych/CFDfaces/CFD-WM-041-021-N.jpg' height=""250px""></br><b>Christian</b>","""",256,IntactFace,Memorization,70,5000,f,"""",CFD-WM-015-002-N.jpg,Travis,0,"""","""","""",1,4/30/2021 4:09,98.252.224.31,Mozilla/5.0 (Windows NT 10.0; Win64; x64; rv:78.0) Gecko/20100101 Firefox/78.0 Waterfox/78.10.0,,Firefox,78,Windows,10
195,1,null,"""",html-keyboard-response,137,357210,0.0-137.0,"""","<div style=""font-size:60px;"">+</div>","""",256,fixation,Memorization,null,500,"""","""","""","""","""","""","""","""",1,4/30/2021 4:09,98.252.224.31,Mozilla/5.0 (Windows NT 10.0; Win64; x64; rv:78.0) Gecko/20100101 Firefox/78.0 Waterfox/78.10.0,,Firefox,78,Windows,10
195,1,3150,"""",html-keyboard-response,138,362216,0.0-138.0,"""","<img src='jspsych/CFDfaces/CFD-BF-212-315-N.jpg' height=""250px""></br><b>Stephanie</b>","""",256,IntactFace,Memorization,70,5000,f,"""",CFD-WF-205-006-N.jpg,Laura,0,"""","""","""",1,4/30/2021 4:09,98.252.224.31,Mozilla/5.0 (Windows NT 10.0; Win64; x64; rv:78.0) Gecko/20100101 Firefox/78.0 Waterfox/78.10.0,,Firefox,78,Windows,10
195,1,null,"""",html-keyboard-response,139,362719,0.0-139.0,"""","<div style=""font-size:60px;"">+</div>","""",256,fixation,Memorization,null,500,"""","""","""","""","""","""","""","""",1,4/30/2021 4:09,98.252.224.31,Mozilla/5.0 (Windows NT 10.0; Win64; x64; rv:78.0) Gecko/20100101 Firefox/78.0 Waterfox/78.10.0,,Firefox,78,Windows,10
195,1,4135,"""",html-keyboard-response,140,367723,0.0-140.0,"""","<img src='jspsych/CFDfaces/CFD-BF-025-002-N.jpg' height=""250px""></br><b>Ashley</b>","""",256,IntactFace,Memorization,70,5000,f,"""",CFD-AM-242-176-N.jpg,Vincent,0,"""","""","""",1,4/30/2021 4:09,98.252.224.31,Mozilla/5.0 (Windows NT 10.0; Win64; x64; rv:78.0) Gecko/20100101 Firefox/78.0 Waterfox/78.10.0,,Firefox,78,Windows,10
195,1,null,"""",html-keyboard-response,141,368226,0.0-141.0,"""","<div style=""font-size:60px;"">+</div>","""",256,fixation,Memorization,null,500,"""","""","""","""","""","""","""","""",1,4/30/2021 4:09,98.252.224.31,Mozilla/5.0 (Windows NT 10.0; Win64; x64; rv:78.0) Gecko/20100101 Firefox/78.0 Waterfox/78.10.0,,Firefox,78,Windows,10
195,1,2183,"""",html-keyboard-response,142,373231,0.0-142.0,"""","<img src='jspsych/CFDfaces/CFD-WM-212-097-N.jpg' height=""250px""></br><b>Eric</b>","""",256,IntactFace,Memorization,70,5000,f,"""",CFD-LF-220-120-N.jpg,Jenna,0,"""","""","""",1,4/30/2021 4:09,98.252.224.31,Mozilla/5.0 (Windows NT 10.0; Win64; x64; rv:78.0) Gecko/20100101 Firefox/78.0 Waterfox/78.10.0,,Firefox,78,Windows,10
195,1,null,"""",html-keyboard-response,143,373733,0.0-143.0,"""","<div style=""font-size:60px;"">+</div>","""",256,fixation,Memorization,null,500,"""","""","""","""","""","""","""","""",1,4/30/2021 4:09,98.252.224.31,Mozilla/5.0 (Windows NT 10.0; Win64; x64; rv:78.0) Gecko/20100101 Firefox/78.0 Waterfox/78.10.0,,Firefox,78,Windows,10
195,1,2415,"""",html-keyboard-response,144,378738,0.0-144.0,"""","<img src='jspsych/CFDfaces/CFD-WF-024-003-N.jpg' height=""250px""></br><b>Andrea</b>","""",256,IntactFace,Memorization,70,5000,f,"""",CFD-LF-200-058-N.jpg,Heather,0,"""","""","""",1,4/30/2021 4:09,98.252.224.31,Mozilla/5.0 (Windows NT 10.0; Win64; x64; rv:78.0) Gecko/20100101 Firefox/78.0 Waterfox/78.10.0,,Firefox,78,Windows,10
195,1,null,"""",html-keyboard-response,145,379241,0.0-145.0,"""","<div style=""font-size:60px;"">+</div>","""",256,fixation,Memorization,null,500,"""","""","""","""","""","""","""","""",1,4/30/2021 4:09,98.252.224.31,Mozilla/5.0 (Windows NT 10.0; Win64; x64; rv:78.0) Gecko/20100101 Firefox/78.0 Waterfox/78.10.0,,Firefox,78,Windows,10
195,1,2730,"""",html-keyboard-response,146,384252,0.0-146.0,"""","<img src='jspsych/CFDfaces/CFD-AF-240-206-N.jpg' height=""250px""></br><b>Emily</b>","""",256,IntactFace,Memorization,78,5000,n,"""",CFD-BM-010-003-N.jpg,Ryan,0,"""","""","""",1,4/30/2021 4:09,98.252.224.31,Mozilla/5.0 (Windows NT 10.0; Win64; x64; rv:78.0) Gecko/20100101 Firefox/78.0 Waterfox/78.10.0,,Firefox,78,Windows,10
195,1,null,"""",html-keyboard-response,147,384754,0.0-147.0,"""","<div style=""font-size:60px;"">+</div>","""",256,fixation,Memorization,null,500,"""","""","""","""","""","""","""","""",1,4/30/2021 4:09,98.252.224.31,Mozilla/5.0 (Windows NT 10.0; Win64; x64; rv:78.0) Gecko/20100101 Firefox/78.0 Waterfox/78.10.0,,Firefox,78,Windows,10
195,1,3036,"""",html-keyboard-response,148,389763,0.0-148.0,"""","<img src='jspsych/CFDfaces/CFD-AM-220-134-N.jpg' height=""250px""></br><b>Brandon</b>","""",256,IntactFace,Memorization,70,5000,f,"""",CFD-LF-206-078-N.jpg,Whitney,0,"""","""","""",1,4/30/2021 4:09,98.252.224.31,Mozilla/5.0 (Windows NT 10.0; Win64; x64; rv:78.0) Gecko/20100101 Firefox/78.0 Waterfox/78.10.0,,Firefox,78,Windows,10
195,1,null,"""",html-keyboard-response,149,390264,0.0-149.0,"""","<div style=""font-size:60px;"">+</div>","""",256,fixation,Memorization,null,500,"""","""","""","""","""","""","""","""",1,4/30/2021 4:09,98.252.224.31,Mozilla/5.0 (Windows NT 10.0; Win64; x64; rv:78.0) Gecko/20100101 Firefox/78.0 Waterfox/78.10.0,,Firefox,78,Windows,10
195,1,1878,"""",html-keyboard-response,150,395271,0.0-150.0,"""","<img src='jspsych/CFDfaces/CFD-WM-020-001-N.jpg' height=""250px""></br><b>Juan</b>","""",256,IntactFace,Memorization,78,5000,n,"""",CFD-BF-021-013-N.jpg,Angela,0,"""","""","""",1,4/30/2021 4:09,98.252.224.31,Mozilla/5.0 (Windows NT 10.0; Win64; x64; rv:78.0) Gecko/20100101 Firefox/78.0 Waterfox/78.10.0,,Firefox,78,Windows,10
195,1,null,"""",html-keyboard-response,151,395772,0.0-151.0,"""","<div style=""font-size:60px;"">+</div>","""",256,fixation,Memorization,null,500,"""","""","""","""","""","""","""","""",1,4/30/2021 4:09,98.252.224.31,Mozilla/5.0 (Windows NT 10.0; Win64; x64; rv:78.0) Gecko/20100101 Firefox/78.0 Waterfox/78.10.0,,Firefox,78,Windows,10
195,1,2770,"""",html-keyboard-response,152,400779,0.0-152.0,"""","<img src='jspsych/CFDfaces/CFD-BF-009-002-N.jpg' height=""250px""></br><b>Amanda</b>","""",256,IntactFace,Memorization,70,5000,f,"""",CFD-BM-203-001-N.jpg,Timothy,0,"""","""","""",1,4/30/2021 4:09,98.252.224.31,Mozilla/5.0 (Windows NT 10.0; Win64; x64; rv:78.0) Gecko/20100101 Firefox/78.0 Waterfox/78.10.0,,Firefox,78,Windows,10
195,1,null,"""",html-keyboard-response,153,401279,0.0-153.0,"""","<div style=""font-size:60px;"">+</div>","""",256,fixation,Memorization,null,500,"""","""","""","""","""","""","""","""",1,4/30/2021 4:09,98.252.224.31,Mozilla/5.0 (Windows NT 10.0; Win64; x64; rv:78.0) Gecko/20100101 Firefox/78.0 Waterfox/78.10.0,,Firefox,78,Windows,10
195,1,1841,"""",html-keyboard-response,154,403125,0.0-154.0,"""",Press Any Key to Begin Memory Test,"""",1,welcomeScreen,Break,65,"""","""","""","""","""","""","""","""","""",1,4/30/2021 4:09,98.252.224.31,Mozilla/5.0 (Windows NT 10.0; Win64; x64; rv:78.0) Gecko/20100101 Firefox/78.0 Waterfox/78.10.0,,Firefox,78,Windows,10
195,1,null,"""",html-keyboard-response,155,404125,0.0-155.0,"""","<div style=""font-size:60px;"">+</div>","""",256,ITI,Test,null,1000,"""","""","""","""","""","""","""","""",1,4/30/2021 4:09,98.252.224.31,Mozilla/5.0 (Windows NT 10.0; Win64; x64; rv:78.0) Gecko/20100101 Firefox/78.0 Waterfox/78.10.0,,Firefox,78,Windows,10
195,1,null,"""",image-keyboard-response,156,404378,0.0-156.0,"""",jspsych/scrambledDisgustFaces/scrambledBF31DIS.JPG,"""",256,forwardMask,Test,null,250,"""",d,"""","""","""","""","""","""",1,4/30/2021 4:09,98.252.224.31,Mozilla/5.0 (Windows NT 10.0; Win64; x64; rv:78.0) Gecko/20100101 Firefox/78.0 Waterfox/78.10.0,,Firefox,78,Windows,10
195,1,null,"""",image-keyboard-response,157,404397,0.0-157.0,"""",jspsych/disgustFaces/BF31DIS.JPG,"""",256,Cue,Test,null,16,"""","""","""","""","""","""","""","""",1,4/30/2021 4:09,98.252.224.31,Mozilla/5.0 (Windows NT 10.0; Win64; x64; rv:78.0) Gecko/20100101 Firefox/78.0 Waterfox/78.10.0,,Firefox,78,Windows,10
195,1,null,"""",image-keyboard-response,158,404499,0.0-158.0,"""",jspsych/neutralFaces/AF13NES.JPG,"""",256,backwardMask,Test,null,100,"""","""","""","""","""","""","""","""",1,4/30/2021 4:09,98.252.224.31,Mozilla/5.0 (Windows NT 10.0; Win64; x64; rv:78.0) Gecko/20100101 Firefox/78.0 Waterfox/78.10.0,,Firefox,78,Windows,10
195,1,null,"""",html-keyboard-response,159,405499,0.0-159.0,"""","<div style=""font-size:60px;"">+</div>","""",256,fixationBtwnNeutralMaskAndPrompt,Test,null,1000,"""","""","""","""","""","""","""","""",1,4/30/2021 4:09,98.252.224.31,Mozilla/5.0 (Windows NT 10.0; Win64; x64; rv:78.0) Gecko/20100101 Firefox/78.0 Waterfox/78.10.0,,Firefox,78,Windows,10
195,1,4235,"""",html-button-response,160,409737,0.0-160.0,"""","<img src='jspsych/CFDfaces/CFD-WF-218-087-N.jpg' height=""250px"">,</br><b>Kayla</b>",0,256,IntactOrRearranged,Test,"""","""","""","""",CFD-AF-226-251-N.jpg,Tiffany,0,0,"""","""",1,4/30/2021 4:09,98.252.224.31,Mozilla/5.0 (Windows NT 10.0; Win64; x64; rv:78.0) Gecko/20100101 Firefox/78.0 Waterfox/78.10.0,,Firefox,78,Windows,10
195,1,2215,"""",html-slider-response,161,411957,0.0-161.0,"""","<img src='jspsych/CFDfaces/CFD-WF-218-087-N.jpg' height=""250px"">,</br><b>Kayla</b>","""",256,ConfidenceQuery,Test,"""","""","""","""",CFD-AF-226-251-N.jpg,Tiffany,0,"""",0,70,1,4/30/2021 4:09,98.252.224.31,Mozilla/5.0 (Windows NT 10.0; Win64; x64; rv:78.0) Gecko/20100101 Firefox/78.0 Waterfox/78.10.0,,Firefox,78,Windows,10
195,1,null,"""",html-keyboard-response,162,412958,0.0-162.0,"""","<div style=""font-size:60px;"">+</div>","""",256,ITI,Test,null,1000,"""","""","""","""","""","""","""","""",1,4/30/2021 4:09,98.252.224.31,Mozilla/5.0 (Windows NT 10.0; Win64; x64; rv:78.0) Gecko/20100101 Firefox/78.0 Waterfox/78.10.0,,Firefox,78,Windows,10
195,1,null,"""",image-keyboard-response,163,413210,0.0-163.0,"""",jspsych/scrambledDisgustFaces/scrambledAF03DIS.JPG,"""",256,forwardMask,Test,null,250,"""",d,"""","""","""","""","""","""",1,4/30/2021 4:09,98.252.224.31,Mozilla/5.0 (Windows NT 10.0; Win64; x64; rv:78.0) Gecko/20100101 Firefox/78.0 Waterfox/78.10.0,,Firefox,78,Windows,10
195,1,null,"""",image-keyboard-response,164,413228,0.0-164.0,"""",jspsych/disgustFaces/AF03DIS.JPG,"""",256,Cue,Test,null,16,"""","""","""","""","""","""","""","""",1,4/30/2021 4:09,98.252.224.31,Mozilla/5.0 (Windows NT 10.0; Win64; x64; rv:78.0) Gecko/20100101 Firefox/78.0 Waterfox/78.10.0,,Firefox,78,Windows,10
195,1,null,"""",image-keyboard-response,165,413332,0.0-165.0,"""",jspsych/neutralFaces/BF19NES.JPG,"""",256,backwardMask,Test,null,100,"""","""","""","""","""","""","""","""",1,4/30/2021 4:09,98.252.224.31,Mozilla/5.0 (Windows NT 10.0; Win64; x64; rv:78.0) Gecko/20100101 Firefox/78.0 Waterfox/78.10.0,,Firefox,78,Windows,10
195,1,null,"""",html-keyboard-response,166,414332,0.0-166.0,"""","<div style=""font-size:60px;"">+</div>","""",256,fixationBtwnNeutralMaskAndPrompt,Test,null,1000,"""","""","""","""","""","""","""","""",1,4/30/2021 4:09,98.252.224.31,Mozilla/5.0 (Windows NT 10.0; Win64; x64; rv:78.0) Gecko/20100101 Firefox/78.0 Waterfox/78.10.0,,Firefox,78,Windows,10
195,1,null,"""",html-button-response,167,419333,0.0-167.0,"""","<img src='jspsych/CFDfaces/CFD-BF-005-001-N.jpg' height=""250px"">,</br><b>Brittany</b>",null,256,IntactOrRearranged,Test,"""","""","""","""",CFD-AM-230-150-N.jpg,Jeremy,0,"""","""","""",1,4/30/2021 4:09,98.252.224.31,Mozilla/5.0 (Windows NT 10.0; Win64; x64; rv:78.0) Gecko/20100101 Firefox/78.0 Waterfox/78.10.0,,Firefox,78,Windows,10
195,1,null,"""",html-slider-response,168,424340,0.0-168.0,"""","<img src='jspsych/CFDfaces/CFD-BF-005-001-N.jpg' height=""250px"">,</br><b>Brittany</b>","""",256,ConfidenceQuery,Test,"""","""","""","""",CFD-AM-230-150-N.jpg,Jeremy,0,"""",0,null,1,4/30/2021 4:09,98.252.224.31,Mozilla/5.0 (Windows NT 10.0; Win64; x64; rv:78.0) Gecko/20100101 Firefox/78.0 Waterfox/78.10.0,,Firefox,78,Windows,10
195,1,null,"""",html-keyboard-response,169,425341,0.0-169.0,"""","<div style=""font-size:60px;"">+</div>","""",256,ITI,Test,null,1000,"""","""","""","""","""","""","""","""",1,4/30/2021 4:09,98.252.224.31,Mozilla/5.0 (Windows NT 10.0; Win64; x64; rv:78.0) Gecko/20100101 Firefox/78.0 Waterfox/78.10.0,,Firefox,78,Windows,10
195,1,null,"""",image-keyboard-response,170,425595,0.0-170.0,"""",jspsych/scrambledDisgustFaces/scrambledAM07DIS.JPG,"""",256,forwardMask,Test,null,250,"""",d,"""","""","""","""","""","""",1,4/30/2021 4:09,98.252.224.31,Mozilla/5.0 (Windows NT 10.0; Win64; x64; rv:78.0) Gecko/20100101 Firefox/78.0 Waterfox/78.10.0,,Firefox,78,Windows,10
195,1,null,"""",image-keyboard-response,171,425613,0.0-171.0,"""",jspsych/disgustFaces/AM07DIS.JPG,"""",256,Cue,Test,null,16,"""","""","""","""","""","""","""","""",1,4/30/2021 4:09,98.252.224.31,Mozilla/5.0 (Windows NT 10.0; Win64; x64; rv:78.0) Gecko/20100101 Firefox/78.0 Waterfox/78.10.0,,Firefox,78,Windows,10
195,1,null,"""",image-keyboard-response,172,425714,0.0-172.0,"""",jspsych/neutralFaces/BM14NES.JPG,"""",256,backwardMask,Test,null,100,"""","""","""","""","""","""","""","""",1,4/30/2021 4:09,98.252.224.31,Mozilla/5.0 (Windows NT 10.0; Win64; x64; rv:78.0) Gecko/20100101 Firefox/78.0 Waterfox/78.10.0,,Firefox,78,Windows,10
195,1,null,"""",html-keyboard-response,173,426715,0.0-173.0,"""","<div style=""font-size:60px;"">+</div>","""",256,fixationBtwnNeutralMaskAndPrompt,Test,null,1000,"""","""","""","""","""","""","""","""",1,4/30/2021 4:09,98.252.224.31,Mozilla/5.0 (Windows NT 10.0; Win64; x64; rv:78.0) Gecko/20100101 Firefox/78.0 Waterfox/78.10.0,,Firefox,78,Windows,10
195,1,1572,"""",html-button-response,174,428288,0.0-174.0,"""","<img src='jspsych/CFDfaces/CFD-WM-020-001-N.jpg' height=""250px"">,</br><b>Juan</b>",0,256,IntactOrRearranged,Test,"""","""","""","""",CFD-WF-205-006-N.jpg,Sara,0,0,"""","""",1,4/30/2021 4:09,98.252.224.31,Mozilla/5.0 (Windows NT 10.0; Win64; x64; rv:78.0) Gecko/20100101 Firefox/78.0 Waterfox/78.10.0,,Firefox,78,Windows,10
195,1,3318,"""",html-slider-response,175,431608,0.0-175.0,"""","<img src='jspsych/CFDfaces/CFD-WM-020-001-N.jpg' height=""250px"">,</br><b>Juan</b>","""",256,ConfidenceQuery,Test,"""","""","""","""",CFD-WF-205-006-N.jpg,Sara,0,"""",0,79,1,4/30/2021 4:09,98.252.224.31,Mozilla/5.0 (Windows NT 10.0; Win64; x64; rv:78.0) Gecko/20100101 Firefox/78.0 Waterfox/78.10.0,,Firefox,78,Windows,10
195,1,null,"""",html-keyboard-response,176,432614,0.0-176.0,"""","<div style=""font-size:60px;"">+</div>","""",256,ITI,Test,null,1000,"""","""","""","""","""","""","""","""",1,4/30/2021 4:09,98.252.224.31,Mozilla/5.0 (Windows NT 10.0; Win64; x64; rv:78.0) Gecko/20100101 Firefox/78.0 Waterfox/78.10.0,,Firefox,78,Windows,10
195,1,null,"""",image-keyboard-response,177,432865,0.0-177.0,"""",jspsych/scrambledDisgustFaces/scrambledAM04DIS.JPG,"""",256,forwardMask,Test,null,250,"""",d,"""","""","""","""","""","""",1,4/30/2021 4:09,98.252.224.31,Mozilla/5.0 (Windows NT 10.0; Win64; x64; rv:78.0) Gecko/20100101 Firefox/78.0 Waterfox/78.10.0,,Firefox,78,Windows,10
195,1,null,"""",image-keyboard-response,178,432884,0.0-178.0,"""",jspsych/disgustFaces/AM04DIS.JPG,"""",256,Cue,Test,null,16,"""","""","""","""","""","""","""","""",1,4/30/2021 4:09,98.252.224.31,Mozilla/5.0 (Windows NT 10.0; Win64; x64; rv:78.0) Gecko/20100101 Firefox/78.0 Waterfox/78.10.0,,Firefox,78,Windows,10
195,1,null,"""",image-keyboard-response,179,432985,0.0-179.0,"""",jspsych/neutralFaces/BM34NES.JPG,"""",256,backwardMask,Test,null,100,"""","""","""","""","""","""","""","""",1,4/30/2021 4:09,98.252.224.31,Mozilla/5.0 (Windows NT 10.0; Win64; x64; rv:78.0) Gecko/20100101 Firefox/78.0 Waterfox/78.10.0,,Firefox,78,Windows,10
195,1,null,"""",html-keyboard-response,180,433987,0.0-180.0,"""","<div style=""font-size:60px;"">+</div>","""",256,fixationBtwnNeutralMaskAndPrompt,Test,null,1000,"""","""","""","""","""","""","""","""",1,4/30/2021 4:09,98.252.224.31,Mozilla/5.0 (Windows NT 10.0; Win64; x64; rv:78.0) Gecko/20100101 Firefox/78.0 Waterfox/78.10.0,,Firefox,78,Windows,10
195,1,2127,"""",html-button-response,181,436116,0.0-181.0,"""","<img src='jspsych/CFDfaces/CFD-AM-234-355-N.jpg' height=""250px"">,</br><b>Jeffrey</b>",0,256,IntactOrRearranged,Test,"""","""","""","""",CFD-LM-252-076-N.jpg,Jacob,1,0,"""","""",1,4/30/2021 4:09,98.252.224.31,Mozilla/5.0 (Windows NT 10.0; Win64; x64; rv:78.0) Gecko/20100101 Firefox/78.0 Waterfox/78.10.0,,Firefox,78,Windows,10
195,1,2905,"""",html-slider-response,182,439023,0.0-182.0,"""","<img src='jspsych/CFDfaces/CFD-AM-234-355-N.jpg' height=""250px"">,</br><b>Jeffrey</b>","""",256,ConfidenceQuery,Test,"""","""","""","""",CFD-LM-252-076-N.jpg,Jacob,1,"""",0,58,1,4/30/2021 4:09,98.252.224.31,Mozilla/5.0 (Windows NT 10.0; Win64; x64; rv:78.0) Gecko/20100101 Firefox/78.0 Waterfox/78.10.0,,Firefox,78,Windows,10
195,1,null,"""",html-keyboard-response,183,440028,0.0-183.0,"""","<div style=""font-size:60px;"">+</div>","""",256,ITI,Test,null,1000,"""","""","""","""","""","""","""","""",1,4/30/2021 4:09,98.252.224.31,Mozilla/5.0 (Windows NT 10.0; Win64; x64; rv:78.0) Gecko/20100101 Firefox/78.0 Waterfox/78.10.0,,Firefox,78,Windows,10
195,1,null,"""",image-keyboard-response,184,440281,0.0-184.0,"""",jspsych/scrambledDisgustFaces/scrambledBM26DIS.JPG,"""",256,forwardMask,Test,null,250,"""",d,"""","""","""","""","""","""",1,4/30/2021 4:09,98.252.224.31,Mozilla/5.0 (Windows NT 10.0; Win64; x64; rv:78.0) Gecko/20100101 Firefox/78.0 Waterfox/78.10.0,,Firefox,78,Windows,10
195,1,null,"""",image-keyboard-response,185,440300,0.0-185.0,"""",jspsych/disgustFaces/BM27DIS.JPG,"""",256,Cue,Test,null,16,"""","""","""","""","""","""","""","""",1,4/30/2021 4:09,98.252.224.31,Mozilla/5.0 (Windows NT 10.0; Win64; x64; rv:78.0) Gecko/20100101 Firefox/78.0 Waterfox/78.10.0,,Firefox,78,Windows,10
195,1,null,"""",image-keyboard-response,186,440402,0.0-186.0,"""",jspsych/neutralFaces/AM22NES.JPG,"""",256,backwardMask,Test,null,100,"""","""","""","""","""","""","""","""",1,4/30/2021 4:09,98.252.224.31,Mozilla/5.0 (Windows NT 10.0; Win64; x64; rv:78.0) Gecko/20100101 Firefox/78.0 Waterfox/78.10.0,,Firefox,78,Windows,10
195,1,null,"""",html-keyboard-response,187,441405,0.0-187.0,"""","<div style=""font-size:60px;"">+</div>","""",256,fixationBtwnNeutralMaskAndPrompt,Test,null,1000,"""","""","""","""","""","""","""","""",1,4/30/2021 4:09,98.252.224.31,Mozilla/5.0 (Windows NT 10.0; Win64; x64; rv:78.0) Gecko/20100101 Firefox/78.0 Waterfox/78.10.0,,Firefox,78,Windows,10
195,1,3834,"""",html-button-response,188,445242,0.0-188.0,"""","<img src='jspsych/CFDfaces/CFD-AM-212-050-N.jpg' height=""250px"">,</br><b>James</b>",1,256,IntactOrRearranged,Test,"""","""","""","""",CFD-LF-230-203-N.jpg,Lindsey,1,1,"""","""",1,4/30/2021 4:09,98.252.224.31,Mozilla/5.0 (Windows NT 10.0; Win64; x64; rv:78.0) Gecko/20100101 Firefox/78.0 Waterfox/78.10.0,,Firefox,78,Windows,10
195,1,2759,"""",html-slider-response,189,448011,0.0-189.0,"""","<img src='jspsych/CFDfaces/CFD-AM-212-050-N.jpg' height=""250px"">,</br><b>James</b>","""",256,ConfidenceQuery,Test,"""","""","""","""",CFD-LF-230-203-N.jpg,Lindsey,1,"""",0,58,1,4/30/2021 4:09,98.252.224.31,Mozilla/5.0 (Windows NT 10.0; Win64; x64; rv:78.0) Gecko/20100101 Firefox/78.0 Waterfox/78.10.0,,Firefox,78,Windows,10
195,1,null,"""",html-keyboard-response,190,449015,0.0-190.0,"""","<div style=""font-size:60px;"">+</div>","""",256,ITI,Test,null,1000,"""","""","""","""","""","""","""","""",1,4/30/2021 4:09,98.252.224.31,Mozilla/5.0 (Windows NT 10.0; Win64; x64; rv:78.0) Gecko/20100101 Firefox/78.0 Waterfox/78.10.0,,Firefox,78,Windows,10
195,1,null,"""",image-keyboard-response,191,449268,0.0-191.0,"""",jspsych/scrambledNeutralFaces/scrambledBF05NES.JPG,"""",256,forwardMask,Test,null,250,"""",n,"""","""","""","""","""","""",1,4/30/2021 4:09,98.252.224.31,Mozilla/5.0 (Windows NT 10.0; Win64; x64; rv:78.0) Gecko/20100101 Firefox/78.0 Waterfox/78.10.0,,Firefox,78,Windows,10
195,1,null,"""",image-keyboard-response,192,449287,0.0-192.0,"""",jspsych/neutralFaces/BF05NES.JPG,"""",256,Cue,Test,null,16,"""","""","""","""","""","""","""","""",1,4/30/2021 4:09,98.252.224.31,Mozilla/5.0 (Windows NT 10.0; Win64; x64; rv:78.0) Gecko/20100101 Firefox/78.0 Waterfox/78.10.0,,Firefox,78,Windows,10
195,1,null,"""",image-keyboard-response,193,449388,0.0-193.0,"""",jspsych/neutralFaces/AF35NES.JPG,"""",256,backwardMask,Test,null,100,"""","""","""","""","""","""","""","""",1,4/30/2021 4:09,98.252.224.31,Mozilla/5.0 (Windows NT 10.0; Win64; x64; rv:78.0) Gecko/20100101 Firefox/78.0 Waterfox/78.10.0,,Firefox,78,Windows,10
195,1,null,"""",html-keyboard-response,194,450389,0.0-194.0,"""","<div style=""font-size:60px;"">+</div>","""",256,fixationBtwnNeutralMaskAndPrompt,Test,null,1000,"""","""","""","""","""","""","""","""",1,4/30/2021 4:09,98.252.224.31,Mozilla/5.0 (Windows NT 10.0; Win64; x64; rv:78.0) Gecko/20100101 Firefox/78.0 Waterfox/78.10.0,,Firefox,78,Windows,10
195,1,2222,"""",html-button-response,195,452612,0.0-195.0,"""","<img src='jspsych/CFDfaces/CFD-BM-011-016-N.jpg' height=""250px"">,</br><b>Nicholas</b>",0,256,IntactOrRearranged,Test,"""","""","""","""",CFD-LM-239-075-N.jpg,Mark,0,0,"""","""",1,4/30/2021 4:09,98.252.224.31,Mozilla/5.0 (Windows NT 10.0; Win64; x64; rv:78.0) Gecko/20100101 Firefox/78.0 Waterfox/78.10.0,,Firefox,78,Windows,10
195,1,2140,"""",html-slider-response,196,454760,0.0-196.0,"""","<img src='jspsych/CFDfaces/CFD-BM-011-016-N.jpg' height=""250px"">,</br><b>Nicholas</b>","""",256,ConfidenceQuery,Test,"""","""","""","""",CFD-LM-239-075-N.jpg,Mark,0,"""",0,79,1,4/30/2021 4:09,98.252.224.31,Mozilla/5.0 (Windows NT 10.0; Win64; x64; rv:78.0) Gecko/20100101 Firefox/78.0 Waterfox/78.10.0,,Firefox,78,Windows,10
195,1,null,"""",html-keyboard-response,197,455762,0.0-197.0,"""","<div style=""font-size:60px;"">+</div>","""",256,ITI,Test,null,1000,"""","""","""","""","""","""","""","""",1,4/30/2021 4:09,98.252.224.31,Mozilla/5.0 (Windows NT 10.0; Win64; x64; rv:78.0) Gecko/20100101 Firefox/78.0 Waterfox/78.10.0,,Firefox,78,Windows,10
195,1,null,"""",image-keyboard-response,198,456013,0.0-198.0,"""",jspsych/scrambledNeutralFaces/scrambledAM17NES.JPG,"""",256,forwardMask,Test,null,250,"""",n,"""","""","""","""","""","""",1,4/30/2021 4:09,98.252.224.31,Mozilla/5.0 (Windows NT 10.0; Win64; x64; rv:78.0) Gecko/20100101 Firefox/78.0 Waterfox/78.10.0,,Firefox,78,Windows,10
195,1,null,"""",image-keyboard-response,199,456031,0.0-199.0,"""",jspsych/neutralFaces/AM17NES.JPG,"""",256,Cue,Test,null,16,"""","""","""","""","""","""","""","""",1,4/30/2021 4:09,98.252.224.31,Mozilla/5.0 (Windows NT 10.0; Win64; x64; rv:78.0) Gecko/20100101 Firefox/78.0 Waterfox/78.10.0,,Firefox,78,Windows,10
195,1,null,"""",image-keyboard-response,200,456133,0.0-200.0,"""",jspsych/neutralFaces/BM13NES.JPG,"""",256,backwardMask,Test,null,100,"""","""","""","""","""","""","""","""",1,4/30/2021 4:09,98.252.224.31,Mozilla/5.0 (Windows NT 10.0; Win64; x64; rv:78.0) Gecko/20100101 Firefox/78.0 Waterfox/78.10.0,,Firefox,78,Windows,10
195,1,null,"""",html-keyboard-response,201,457136,0.0-201.0,"""","<div style=""font-size:60px;"">+</div>","""",256,fixationBtwnNeutralMaskAndPrompt,Test,null,1000,"""","""","""","""","""","""","""","""",1,4/30/2021 4:09,98.252.224.31,Mozilla/5.0 (Windows NT 10.0; Win64; x64; rv:78.0) Gecko/20100101 Firefox/78.0 Waterfox/78.10.0,,Firefox,78,Windows,10
195,1,3832,"""",html-button-response,202,460969,0.0-202.0,"""","<img src='jspsych/CFDfaces/CFD-WM-213-076-N.jpg' height=""250px"">,</br><b>Christian</b>",1,256,IntactOrRearranged,Test,"""","""","""","""",CFD-WF-220-101-N.jpg,Lauren,1,1,"""","""",1,4/30/2021 4:09,98.252.224.31,Mozilla/5.0 (Windows NT 10.0; Win64; x64; rv:78.0) Gecko/20100101 Firefox/78.0 Waterfox/78.10.0,,Firefox,78,Windows,10
195,1,3077,"""",html-slider-response,203,464052,0.0-203.0,"""","<img src='jspsych/CFDfaces/CFD-WM-213-076-N.jpg' height=""250px"">,</br><b>Christian</b>","""",256,ConfidenceQuery,Test,"""","""","""","""",CFD-WF-220-101-N.jpg,Lauren,1,"""",0,87,1,4/30/2021 4:09,98.252.224.31,Mozilla/5.0 (Windows NT 10.0; Win64; x64; rv:78.0) Gecko/20100101 Firefox/78.0 Waterfox/78.10.0,,Firefox,78,Windows,10
195,1,null,"""",html-keyboard-response,204,465052,0.0-204.0,"""","<div style=""font-size:60px;"">+</div>","""",256,ITI,Test,null,1000,"""","""","""","""","""","""","""","""",1,4/30/2021 4:09,98.252.224.31,Mozilla/5.0 (Windows NT 10.0; Win64; x64; rv:78.0) Gecko/20100101 Firefox/78.0 Waterfox/78.10.0,,Firefox,78,Windows,10
195,1,null,"""",image-keyboard-response,205,465303,0.0-205.0,"""",jspsych/scrambledDisgustFaces/scrambledBF25DIS.JPG,"""",256,forwardMask,Test,null,250,"""",d,"""","""","""","""","""","""",1,4/30/2021 4:09,98.252.224.31,Mozilla/5.0 (Windows NT 10.0; Win64; x64; rv:78.0) Gecko/20100101 Firefox/78.0 Waterfox/78.10.0,,Firefox,78,Windows,10
195,1,null,"""",image-keyboard-response,206,465322,0.0-206.0,"""",jspsych/disgustFaces/BF25DIS.JPG,"""",256,Cue,Test,null,16,"""","""","""","""","""","""","""","""",1,4/30/2021 4:09,98.252.224.31,Mozilla/5.0 (Windows NT 10.0; Win64; x64; rv:78.0) Gecko/20100101 Firefox/78.0 Waterfox/78.10.0,,Firefox,78,Windows,10
195,1,null,"""",image-keyboard-response,207,465424,0.0-207.0,"""",jspsych/neutralFaces/AF06NES.JPG,"""",256,backwardMask,Test,null,100,"""","""","""","""","""","""","""","""",1,4/30/2021 4:09,98.252.224.31,Mozilla/5.0 (Windows NT 10.0; Win64; x64; rv:78.0) Gecko/20100101 Firefox/78.0 Waterfox/78.10.0,,Firefox,78,Windows,10
195,1,null,"""",html-keyboard-response,208,466425,0.0-208.0,"""","<div style=""font-size:60px;"">+</div>","""",256,fixationBtwnNeutralMaskAndPrompt,Test,null,1000,"""","""","""","""","""","""","""","""",1,4/30/2021 4:09,98.252.224.31,Mozilla/5.0 (Windows NT 10.0; Win64; x64; rv:78.0) Gecko/20100101 Firefox/78.0 Waterfox/78.10.0,,Firefox,78,Windows,10
195,1,4436,"""",html-button-response,209,470865,0.0-209.0,"""","<img src='jspsych/CFDfaces/CFD-AF-239-171-N.jpg' height=""250px"">,</br><b>Meghan</b>",0,256,IntactOrRearranged,Test,"""","""","""","""",CFD-AF-243-170-N.jpg,Rebecca,0,0,"""","""",1,4/30/2021 4:09,98.252.224.31,Mozilla/5.0 (Windows NT 10.0; Win64; x64; rv:78.0) Gecko/20100101 Firefox/78.0 Waterfox/78.10.0,,Firefox,78,Windows,10
195,1,2324,"""",html-slider-response,210,473191,0.0-210.0,"""","<img src='jspsych/CFDfaces/CFD-AF-239-171-N.jpg' height=""250px"">,</br><b>Meghan</b>","""",256,ConfidenceQuery,Test,"""","""","""","""",CFD-AF-243-170-N.jpg,Rebecca,0,"""",0,64,1,4/30/2021 4:09,98.252.224.31,Mozilla/5.0 (Windows NT 10.0; Win64; x64; rv:78.0) Gecko/20100101 Firefox/78.0 Waterfox/78.10.0,,Firefox,78,Windows,10
195,1,null,"""",html-keyboard-response,211,474196,0.0-211.0,"""","<div style=""font-size:60px;"">+</div>","""",256,ITI,Test,null,1000,"""","""","""","""","""","""","""","""",1,4/30/2021 4:09,98.252.224.31,Mozilla/5.0 (Windows NT 10.0; Win64; x64; rv:78.0) Gecko/20100101 Firefox/78.0 Waterfox/78.10.0,,Firefox,78,Windows,10
195,1,null,"""",image-keyboard-response,212,474447,0.0-212.0,"""",jspsych/scrambledNeutralFaces/scrambledAM29NES.JPG,"""",256,forwardMask,Test,null,250,"""",n,"""","""","""","""","""","""",1,4/30/2021 4:09,98.252.224.31,Mozilla/5.0 (Windows NT 10.0; Win64; x64; rv:78.0) Gecko/20100101 Firefox/78.0 Waterfox/78.10.0,,Firefox,78,Windows,10
195,1,null,"""",image-keyboard-response,213,474465,0.0-213.0,"""",jspsych/neutralFaces/AM29NES.JPG,"""",256,Cue,Test,null,16,"""","""","""","""","""","""","""","""",1,4/30/2021 4:09,98.252.224.31,Mozilla/5.0 (Windows NT 10.0; Win64; x64; rv:78.0) Gecko/20100101 Firefox/78.0 Waterfox/78.10.0,,Firefox,78,Windows,10
195,1,null,"""",image-keyboard-response,214,474567,0.0-214.0,"""",jspsych/neutralFaces/AM07NES.JPG,"""",256,backwardMask,Test,null,100,"""","""","""","""","""","""","""","""",1,4/30/2021 4:09,98.252.224.31,Mozilla/5.0 (Windows NT 10.0; Win64; x64; rv:78.0) Gecko/20100101 Firefox/78.0 Waterfox/78.10.0,,Firefox,78,Windows,10
195,1,null,"""",html-keyboard-response,215,475567,0.0-215.0,"""","<div style=""font-size:60px;"">+</div>","""",256,fixationBtwnNeutralMaskAndPrompt,Test,null,1000,"""","""","""","""","""","""","""","""",1,4/30/2021 4:09,98.252.224.31,Mozilla/5.0 (Windows NT 10.0; Win64; x64; rv:78.0) Gecko/20100101 Firefox/78.0 Waterfox/78.10.0,,Firefox,78,Windows,10
195,1,3570,"""",html-button-response,216,479139,0.0-216.0,"""","<img src='jspsych/CFDfaces/CFD-WM-009-002-N.jpg' height=""250px"">,</br><b>Brian</b>",0,256,IntactOrRearranged,Test,"""","""","""","""",CFD-LF-215-157-N.jpg,Amy,0,0,"""","""",1,4/30/2021 4:09,98.252.224.31,Mozilla/5.0 (Windows NT 10.0; Win64; x64; rv:78.0) Gecko/20100101 Firefox/78.0 Waterfox/78.10.0,,Firefox,78,Windows,10
195,1,2280,"""",html-slider-response,217,481424,0.0-217.0,"""","<img src='jspsych/CFDfaces/CFD-WM-009-002-N.jpg' height=""250px"">,</br><b>Brian</b>","""",256,ConfidenceQuery,Test,"""","""","""","""",CFD-LF-215-157-N.jpg,Amy,0,"""",0,86,1,4/30/2021 4:09,98.252.224.31,Mozilla/5.0 (Windows NT 10.0; Win64; x64; rv:78.0) Gecko/20100101 Firefox/78.0 Waterfox/78.10.0,,Firefox,78,Windows,10
195,1,null,"""",html-keyboard-response,218,482426,0.0-218.0,"""","<div style=""font-size:60px;"">+</div>","""",256,ITI,Test,null,1000,"""","""","""","""","""","""","""","""",1,4/30/2021 4:09,98.252.224.31,Mozilla/5.0 (Windows NT 10.0; Win64; x64; rv:78.0) Gecko/20100101 Firefox/78.0 Waterfox/78.10.0,,Firefox,78,Windows,10
195,1,null,"""",image-keyboard-response,219,482677,0.0-219.0,"""",jspsych/scrambledDisgustFaces/scrambledBF21DIS.JPG,"""",256,forwardMask,Test,null,250,"""",d,"""","""","""","""","""","""",1,4/30/2021 4:09,98.252.224.31,Mozilla/5.0 (Windows NT 10.0; Win64; x64; rv:78.0) Gecko/20100101 Firefox/78.0 Waterfox/78.10.0,,Firefox,78,Windows,10
195,1,null,"""",image-keyboard-response,220,482695,0.0-220.0,"""",jspsych/disgustFaces/BF21DIS.JPG,"""",256,Cue,Test,null,16,"""","""","""","""","""","""","""","""",1,4/30/2021 4:09,98.252.224.31,Mozilla/5.0 (Windows NT 10.0; Win64; x64; rv:78.0) Gecko/20100101 Firefox/78.0 Waterfox/78.10.0,,Firefox,78,Windows,10
195,1,null,"""",image-keyboard-response,221,482796,0.0-221.0,"""",jspsych/neutralFaces/BF18NES.JPG,"""",256,backwardMask,Test,null,100,"""","""","""","""","""","""","""","""",1,4/30/2021 4:09,98.252.224.31,Mozilla/5.0 (Windows NT 10.0; Win64; x64; rv:78.0) Gecko/20100101 Firefox/78.0 Waterfox/78.10.0,,Firefox,78,Windows,10
195,1,null,"""",html-keyboard-response,222,483797,0.0-222.0,"""","<div style=""font-size:60px;"">+</div>","""",256,fixationBtwnNeutralMaskAndPrompt,Test,null,1000,"""","""","""","""","""","""","""","""",1,4/30/2021 4:09,98.252.224.31,Mozilla/5.0 (Windows NT 10.0; Win64; x64; rv:78.0) Gecko/20100101 Firefox/78.0 Waterfox/78.10.0,,Firefox,78,Windows,10
195,1,3630,"""",html-button-response,223,487428,0.0-223.0,"""","<img src='jspsych/CFDfaces/CFD-LF-239-148-N.jpg' height=""250px"">,</br><b>Michelle</b>",0,256,IntactOrRearranged,Test,"""","""","""","""",CFD-LM-209-111-N.jpg,Timothy,0,0,"""","""",1,4/30/2021 4:09,98.252.224.31,Mozilla/5.0 (Windows NT 10.0; Win64; x64; rv:78.0) Gecko/20100101 Firefox/78.0 Waterfox/78.10.0,,Firefox,78,Windows,10
195,1,1902,"""",html-slider-response,224,489335,0.0-224.0,"""","<img src='jspsych/CFDfaces/CFD-LF-239-148-N.jpg' height=""250px"">,</br><b>Michelle</b>","""",256,ConfidenceQuery,Test,"""","""","""","""",CFD-LM-209-111-N.jpg,Timothy,0,"""",0,60,1,4/30/2021 4:09,98.252.224.31,Mozilla/5.0 (Windows NT 10.0; Win64; x64; rv:78.0) Gecko/20100101 Firefox/78.0 Waterfox/78.10.0,,Firefox,78,Windows,10
195,1,null,"""",html-keyboard-response,225,490336,0.0-225.0,"""","<div style=""font-size:60px;"">+</div>","""",256,ITI,Test,null,1000,"""","""","""","""","""","""","""","""",1,4/30/2021 4:09,98.252.224.31,Mozilla/5.0 (Windows NT 10.0; Win64; x64; rv:78.0) Gecko/20100101 Firefox/78.0 Waterfox/78.10.0,,Firefox,78,Windows,10
195,1,null,"""",image-keyboard-response,226,490588,0.0-226.0,"""",jspsych/scrambledDisgustFaces/scrambledBM09DIS.JPG,"""",256,forwardMask,Test,null,250,"""",d,"""","""","""","""","""","""",1,4/30/2021 4:09,98.252.224.31,Mozilla/5.0 (Windows NT 10.0; Win64; x64; rv:78.0) Gecko/20100101 Firefox/78.0 Waterfox/78.10.0,,Firefox,78,Windows,10
195,1,null,"""",image-keyboard-response,227,490607,0.0-227.0,"""",jspsych/disgustFaces/BM10DIS.JPG,"""",256,Cue,Test,null,16,"""","""","""","""","""","""","""","""",1,4/30/2021 4:09,98.252.224.31,Mozilla/5.0 (Windows NT 10.0; Win64; x64; rv:78.0) Gecko/20100101 Firefox/78.0 Waterfox/78.10.0,,Firefox,78,Windows,10
195,1,null,"""",image-keyboard-response,228,490710,0.0-228.0,"""",jspsych/neutralFaces/AM32NES.JPG,"""",256,backwardMask,Test,null,100,"""","""","""","""","""","""","""","""",1,4/30/2021 4:09,98.252.224.31,Mozilla/5.0 (Windows NT 10.0; Win64; x64; rv:78.0) Gecko/20100101 Firefox/78.0 Waterfox/78.10.0,,Firefox,78,Windows,10
195,1,null,"""",html-keyboard-response,229,491712,0.0-229.0,"""","<div style=""font-size:60px;"">+</div>","""",256,fixationBtwnNeutralMaskAndPrompt,Test,null,1000,"""","""","""","""","""","""","""","""",1,4/30/2021 4:09,98.252.224.31,Mozilla/5.0 (Windows NT 10.0; Win64; x64; rv:78.0) Gecko/20100101 Firefox/78.0 Waterfox/78.10.0,,Firefox,78,Windows,10
195,1,1496,"""",html-button-response,230,493209,0.0-230.0,"""","<img src='jspsych/CFDfaces/CFD-WM-041-021-N.jpg' height=""250px"">,</br><b>Joshua</b>",1,256,IntactOrRearranged,Test,"""","""","""","""",CFD-BM-041-035-N.jpg,Kenneth,1,1,"""","""",1,4/30/2021 4:09,98.252.224.31,Mozilla/5.0 (Windows NT 10.0; Win64; x64; rv:78.0) Gecko/20100101 Firefox/78.0 Waterfox/78.10.0,,Firefox,78,Windows,10
195,1,2524,"""",html-slider-response,231,495738,0.0-231.0,"""","<img src='jspsych/CFDfaces/CFD-WM-041-021-N.jpg' height=""250px"">,</br><b>Joshua</b>","""",256,ConfidenceQuery,Test,"""","""","""","""",CFD-BM-041-035-N.jpg,Kenneth,1,"""",0,92,1,4/30/2021 4:09,98.252.224.31,Mozilla/5.0 (Windows NT 10.0; Win64; x64; rv:78.0) Gecko/20100101 Firefox/78.0 Waterfox/78.10.0,,Firefox,78,Windows,10
195,1,null,"""",html-keyboard-response,232,496741,0.0-232.0,"""","<div style=""font-size:60px;"">+</div>","""",256,ITI,Test,null,1000,"""","""","""","""","""","""","""","""",1,4/30/2021 4:09,98.252.224.31,Mozilla/5.0 (Windows NT 10.0; Win64; x64; rv:78.0) Gecko/20100101 Firefox/78.0 Waterfox/78.10.0,,Firefox,78,Windows,10
195,1,null,"""",image-keyboard-response,233,496993,0.0-233.0,"""",jspsych/scrambledNeutralFaces/scrambledBF01NES.JPG,"""",256,forwardMask,Test,null,250,"""",n,"""","""","""","""","""","""",1,4/30/2021 4:09,98.252.224.31,Mozilla/5.0 (Windows NT 10.0; Win64; x64; rv:78.0) Gecko/20100101 Firefox/78.0 Waterfox/78.10.0,,Firefox,78,Windows,10
195,1,null,"""",image-keyboard-response,234,497011,0.0-234.0,"""",jspsych/neutralFaces/BF01NES.JPG,"""",256,Cue,Test,null,16,"""","""","""","""","""","""","""","""",1,4/30/2021 4:09,98.252.224.31,Mozilla/5.0 (Windows NT 10.0; Win64; x64; rv:78.0) Gecko/20100101 Firefox/78.0 Waterfox/78.10.0,,Firefox,78,Windows,10
195,1,null,"""",image-keyboard-response,235,497114,0.0-235.0,"""",jspsych/neutralFaces/BF30NES.JPG,"""",256,backwardMask,Test,null,100,"""","""","""","""","""","""","""","""",1,4/30/2021 4:09,98.252.224.31,Mozilla/5.0 (Windows NT 10.0; Win64; x64; rv:78.0) Gecko/20100101 Firefox/78.0 Waterfox/78.10.0,,Firefox,78,Windows,10
195,1,null,"""",html-keyboard-response,236,498114,0.0-236.0,"""","<div style=""font-size:60px;"">+</div>","""",256,fixationBtwnNeutralMaskAndPrompt,Test,null,1000,"""","""","""","""","""","""","""","""",1,4/30/2021 4:09,98.252.224.31,Mozilla/5.0 (Windows NT 10.0; Win64; x64; rv:78.0) Gecko/20100101 Firefox/78.0 Waterfox/78.10.0,,Firefox,78,Windows,10
195,1,2770,"""",html-button-response,237,500886,0.0-237.0,"""","<img src='jspsych/CFDfaces/CFD-AM-207-108-N.jpg' height=""250px"">,</br><b>Jason</b>",0,256,IntactOrRearranged,Test,"""","""","""","""",CFD-WF-217-085-N.jpg,Jordan,0,0,"""","""",1,4/30/2021 4:09,98.252.224.31,Mozilla/5.0 (Windows NT 10.0; Win64; x64; rv:78.0) Gecko/20100101 Firefox/78.0 Waterfox/78.10.0,,Firefox,78,Windows,10
195,1,2292,"""",html-slider-response,238,503184,0.0-238.0,"""","<img src='jspsych/CFDfaces/CFD-AM-207-108-N.jpg' height=""250px"">,</br><b>Jason</b>","""",256,ConfidenceQuery,Test,"""","""","""","""",CFD-WF-217-085-N.jpg,Jordan,0,"""",0,88,1,4/30/2021 4:09,98.252.224.31,Mozilla/5.0 (Windows NT 10.0; Win64; x64; rv:78.0) Gecko/20100101 Firefox/78.0 Waterfox/78.10.0,,Firefox,78,Windows,10
195,1,null,"""",html-keyboard-response,239,504186,0.0-239.0,"""","<div style=""font-size:60px;"">+</div>","""",256,ITI,Test,null,1000,"""","""","""","""","""","""","""","""",1,4/30/2021 4:09,98.252.224.31,Mozilla/5.0 (Windows NT 10.0; Win64; x64; rv:78.0) Gecko/20100101 Firefox/78.0 Waterfox/78.10.0,,Firefox,78,Windows,10
195,1,null,"""",image-keyboard-response,240,504439,0.0-240.0,"""",jspsych/scrambledDisgustFaces/scrambledAF33DIS.JPG,"""",256,forwardMask,Test,null,250,"""",d,"""","""","""","""","""","""",1,4/30/2021 4:09,98.252.224.31,Mozilla/5.0 (Windows NT 10.0; Win64; x64; rv:78.0) Gecko/20100101 Firefox/78.0 Waterfox/78.10.0,,Firefox,78,Windows,10
195,1,null,"""",image-keyboard-response,241,504459,0.0-241.0,"""",jspsych/disgustFaces/AF33DIS.JPG,"""",256,Cue,Test,null,16,"""","""","""","""","""","""","""","""",1,4/30/2021 4:09,98.252.224.31,Mozilla/5.0 (Windows NT 10.0; Win64; x64; rv:78.0) Gecko/20100101 Firefox/78.0 Waterfox/78.10.0,,Firefox,78,Windows,10
195,1,null,"""",image-keyboard-response,242,504560,0.0-242.0,"""",jspsych/neutralFaces/AF07NES.JPG,"""",256,backwardMask,Test,null,100,"""","""","""","""","""","""","""","""",1,4/30/2021 4:09,98.252.224.31,Mozilla/5.0 (Windows NT 10.0; Win64; x64; rv:78.0) Gecko/20100101 Firefox/78.0 Waterfox/78.10.0,,Firefox,78,Windows,10
195,1,null,"""",html-keyboard-response,243,505562,0.0-243.0,"""","<div style=""font-size:60px;"">+</div>","""",256,fixationBtwnNeutralMaskAndPrompt,Test,null,1000,"""","""","""","""","""","""","""","""",1,4/30/2021 4:09,98.252.224.31,Mozilla/5.0 (Windows NT 10.0; Win64; x64; rv:78.0) Gecko/20100101 Firefox/78.0 Waterfox/78.10.0,,Firefox,78,Windows,10
195,1,null,"""",html-button-response,244,510565,0.0-244.0,"""","<img src='jspsych/CFDfaces/CFD-WF-024-003-N.jpg' height=""250px"">,</br><b>Amanda</b>",null,256,IntactOrRearranged,Test,"""","""","""","""",CFD-LF-200-058-N.jpg,Heather,1,"""","""","""",1,4/30/2021 4:09,98.252.224.31,Mozilla/5.0 (Windows NT 10.0; Win64; x64; rv:78.0) Gecko/20100101 Firefox/78.0 Waterfox/78.10.0,,Firefox,78,Windows,10
195,1,2561,"""",html-slider-response,245,513138,0.0-245.0,"""","<img src='jspsych/CFDfaces/CFD-WF-024-003-N.jpg' height=""250px"">,</br><b>Amanda</b>","""",256,ConfidenceQuery,Test,"""","""","""","""",CFD-LF-200-058-N.jpg,Heather,1,"""",0,58,1,4/30/2021 4:09,98.252.224.31,Mozilla/5.0 (Windows NT 10.0; Win64; x64; rv:78.0) Gecko/20100101 Firefox/78.0 Waterfox/78.10.0,,Firefox,78,Windows,10
195,1,null,"""",html-keyboard-response,246,514140,0.0-246.0,"""","<div style=""font-size:60px;"">+</div>","""",256,ITI,Test,null,1000,"""","""","""","""","""","""","""","""",1,4/30/2021 4:09,98.252.224.31,Mozilla/5.0 (Windows NT 10.0; Win64; x64; rv:78.0) Gecko/20100101 Firefox/78.0 Waterfox/78.10.0,,Firefox,78,Windows,10
195,1,null,"""",image-keyboard-response,247,514392,0.0-247.0,"""",jspsych/scrambledNeutralFaces/scrambledAF17NES.JPG,"""",256,forwardMask,Test,null,250,"""",n,"""","""","""","""","""","""",1,4/30/2021 4:09,98.252.224.31,Mozilla/5.0 (Windows NT 10.0; Win64; x64; rv:78.0) Gecko/20100101 Firefox/78.0 Waterfox/78.10.0,,Firefox,78,Windows,10
195,1,null,"""",image-keyboard-response,248,514410,0.0-248.0,"""",jspsych/neutralFaces/AF17NES.JPG,"""",256,Cue,Test,null,16,"""","""","""","""","""","""","""","""",1,4/30/2021 4:09,98.252.224.31,Mozilla/5.0 (Windows NT 10.0; Win64; x64; rv:78.0) Gecko/20100101 Firefox/78.0 Waterfox/78.10.0,,Firefox,78,Windows,10
195,1,null,"""",image-keyboard-response,249,514514,0.0-249.0,"""",jspsych/neutralFaces/AF07NES.JPG,"""",256,backwardMask,Test,null,100,"""","""","""","""","""","""","""","""",1,4/30/2021 4:09,98.252.224.31,Mozilla/5.0 (Windows NT 10.0; Win64; x64; rv:78.0) Gecko/20100101 Firefox/78.0 Waterfox/78.10.0,,Firefox,78,Windows,10
195,1,null,"""",html-keyboard-response,250,515515,0.0-250.0,"""","<div style=""font-size:60px;"">+</div>","""",256,fixationBtwnNeutralMaskAndPrompt,Test,null,1000,"""","""","""","""","""","""","""","""",1,4/30/2021 4:09,98.252.224.31,Mozilla/5.0 (Windows NT 10.0; Win64; x64; rv:78.0) Gecko/20100101 Firefox/78.0 Waterfox/78.10.0,,Firefox,78,Windows,10
195,1,4234,"""",html-button-response,251,519751,0.0-251.0,"""","<img src='jspsych/CFDfaces/CFD-AF-214-139-N.jpg' height=""250px"">,</br><b>Vanessa</b>",0,256,IntactOrRearranged,Test,"""","""","""","""",CFD-WF-207-014-N.jpg,Melissa,0,0,"""","""",1,4/30/2021 4:09,98.252.224.31,Mozilla/5.0 (Windows NT 10.0; Win64; x64; rv:78.0) Gecko/20100101 Firefox/78.0 Waterfox/78.10.0,,Firefox,78,Windows,10
195,1,2150,"""",html-slider-response,252,521907,0.0-252.0,"""","<img src='jspsych/CFDfaces/CFD-AF-214-139-N.jpg' height=""250px"">,</br><b>Vanessa</b>","""",256,ConfidenceQuery,Test,"""","""","""","""",CFD-WF-207-014-N.jpg,Melissa,0,"""",0,67,1,4/30/2021 4:09,98.252.224.31,Mozilla/5.0 (Windows NT 10.0; Win64; x64; rv:78.0) Gecko/20100101 Firefox/78.0 Waterfox/78.10.0,,Firefox,78,Windows,10
195,1,null,"""",html-keyboard-response,253,522909,0.0-253.0,"""","<div style=""font-size:60px;"">+</div>","""",256,ITI,Test,null,1000,"""","""","""","""","""","""","""","""",1,4/30/2021 4:09,98.252.224.31,Mozilla/5.0 (Windows NT 10.0; Win64; x64; rv:78.0) Gecko/20100101 Firefox/78.0 Waterfox/78.10.0,,Firefox,78,Windows,10
195,1,null,"""",image-keyboard-response,254,523162,0.0-254.0,"""",jspsych/scrambledNeutralFaces/scrambledAF24NES.JPG,"""",256,forwardMask,Test,null,250,"""",n,"""","""","""","""","""","""",1,4/30/2021 4:09,98.252.224.31,Mozilla/5.0 (Windows NT 10.0; Win64; x64; rv:78.0) Gecko/20100101 Firefox/78.0 Waterfox/78.10.0,,Firefox,78,Windows,10
195,1,null,"""",image-keyboard-response,255,523181,0.0-255.0,"""",jspsych/neutralFaces/AF24NES.JPG,"""",256,Cue,Test,null,16,"""","""","""","""","""","""","""","""",1,4/30/2021 4:09,98.252.224.31,Mozilla/5.0 (Windows NT 10.0; Win64; x64; rv:78.0) Gecko/20100101 Firefox/78.0 Waterfox/78.10.0,,Firefox,78,Windows,10
195,1,null,"""",image-keyboard-response,256,523282,0.0-256.0,"""",jspsych/neutralFaces/AF04NES.JPG,"""",256,backwardMask,Test,null,100,"""","""","""","""","""","""","""","""",1,4/30/2021 4:09,98.252.224.31,Mozilla/5.0 (Windows NT 10.0; Win64; x64; rv:78.0) Gecko/20100101 Firefox/78.0 Waterfox/78.10.0,,Firefox,78,Windows,10
195,1,null,"""",html-keyboard-response,257,524283,0.0-257.0,"""","<div style=""font-size:60px;"">+</div>","""",256,fixationBtwnNeutralMaskAndPrompt,Test,null,1000,"""","""","""","""","""","""","""","""",1,4/30/2021 4:09,98.252.224.31,Mozilla/5.0 (Windows NT 10.0; Win64; x64; rv:78.0) Gecko/20100101 Firefox/78.0 Waterfox/78.10.0,,Firefox,78,Windows,10
195,1,3515,"""",html-button-response,258,527800,0.0-258.0,"""","<img src='jspsych/CFDfaces/CFD-AF-240-206-N.jpg' height=""250px"">,</br><b>Andrea</b>",1,256,IntactOrRearranged,Test,"""","""","""","""",CFD-BM-203-001-N.jpg,Austin,1,1,"""","""",1,4/30/2021 4:09,98.252.224.31,Mozilla/5.0 (Windows NT 10.0; Win64; x64; rv:78.0) Gecko/20100101 Firefox/78.0 Waterfox/78.10.0,,Firefox,78,Windows,10
195,1,3021,"""",html-slider-response,259,530828,0.0-259.0,"""","<img src='jspsych/CFDfaces/CFD-AF-240-206-N.jpg' height=""250px"">,</br><b>Andrea</b>","""",256,ConfidenceQuery,Test,"""","""","""","""",CFD-BM-203-001-N.jpg,Austin,1,"""",0,68,1,4/30/2021 4:09,98.252.224.31,Mozilla/5.0 (Windows NT 10.0; Win64; x64; rv:78.0) Gecko/20100101 Firefox/78.0 Waterfox/78.10.0,,Firefox,78,Windows,10
195,1,null,"""",html-keyboard-response,260,531829,0.0-260.0,"""","<div style=""font-size:60px;"">+</div>","""",256,ITI,Test,null,1000,"""","""","""","""","""","""","""","""",1,4/30/2021 4:09,98.252.224.31,Mozilla/5.0 (Windows NT 10.0; Win64; x64; rv:78.0) Gecko/20100101 Firefox/78.0 Waterfox/78.10.0,,Firefox,78,Windows,10
195,1,null,"""",image-keyboard-response,261,532081,0.0-261.0,"""",jspsych/scrambledDisgustFaces/scrambledAM05DIS.JPG,"""",256,forwardMask,Test,null,250,"""",d,"""","""","""","""","""","""",1,4/30/2021 4:09,98.252.224.31,Mozilla/5.0 (Windows NT 10.0; Win64; x64; rv:78.0) Gecko/20100101 Firefox/78.0 Waterfox/78.10.0,,Firefox,78,Windows,10
195,1,null,"""",image-keyboard-response,262,532099,0.0-262.0,"""",jspsych/disgustFaces/AM05DIS.JPG,"""",256,Cue,Test,null,16,"""","""","""","""","""","""","""","""",1,4/30/2021 4:09,98.252.224.31,Mozilla/5.0 (Windows NT 10.0; Win64; x64; rv:78.0) Gecko/20100101 Firefox/78.0 Waterfox/78.10.0,,Firefox,78,Windows,10
195,1,null,"""",image-keyboard-response,263,532203,0.0-263.0,"""",jspsych/neutralFaces/BM31NES.JPG,"""",256,backwardMask,Test,null,100,"""","""","""","""","""","""","""","""",1,4/30/2021 4:09,98.252.224.31,Mozilla/5.0 (Windows NT 10.0; Win64; x64; rv:78.0) Gecko/20100101 Firefox/78.0 Waterfox/78.10.0,,Firefox,78,Windows,10
195,1,null,"""",html-keyboard-response,264,533203,0.0-264.0,"""","<div style=""font-size:60px;"">+</div>","""",256,fixationBtwnNeutralMaskAndPrompt,Test,null,1000,"""","""","""","""","""","""","""","""",1,4/30/2021 4:09,98.252.224.31,Mozilla/5.0 (Windows NT 10.0; Win64; x64; rv:78.0) Gecko/20100101 Firefox/78.0 Waterfox/78.10.0,,Firefox,78,Windows,10
195,1,3549,"""",html-button-response,265,536753,0.0-265.0,"""","<img src='jspsych/CFDfaces/CFD-AF-228-173-N.jpg' height=""250px"">,</br><b>Emily</b>",1,256,IntactOrRearranged,Test,"""","""","""","""",CFD-LF-220-120-N.jpg,Jasmine,1,1,"""","""",1,4/30/2021 4:09,98.252.224.31,Mozilla/5.0 (Windows NT 10.0; Win64; x64; rv:78.0) Gecko/20100101 Firefox/78.0 Waterfox/78.10.0,,Firefox,78,Windows,10
195,1,2922,"""",html-slider-response,266,539681,0.0-266.0,"""","<img src='jspsych/CFDfaces/CFD-AF-228-173-N.jpg' height=""250px"">,</br><b>Emily</b>","""",256,ConfidenceQuery,Test,"""","""","""","""",CFD-LF-220-120-N.jpg,Jasmine,1,"""",0,59,1,4/30/2021 4:09,98.252.224.31,Mozilla/5.0 (Windows NT 10.0; Win64; x64; rv:78.0) Gecko/20100101 Firefox/78.0 Waterfox/78.10.0,,Firefox,78,Windows,10
195,1,null,"""",html-keyboard-response,267,540683,0.0-267.0,"""","<div style=""font-size:60px;"">+</div>","""",256,ITI,Test,null,1000,"""","""","""","""","""","""","""","""",1,4/30/2021 4:09,98.252.224.31,Mozilla/5.0 (Windows NT 10.0; Win64; x64; rv:78.0) Gecko/20100101 Firefox/78.0 Waterfox/78.10.0,,Firefox,78,Windows,10
195,1,null,"""",image-keyboard-response,268,540935,0.0-268.0,"""",jspsych/scrambledDisgustFaces/scrambledAF15DIS.JPG,"""",256,forwardMask,Test,null,250,"""",d,"""","""","""","""","""","""",1,4/30/2021 4:09,98.252.224.31,Mozilla/5.0 (Windows NT 10.0; Win64; x64; rv:78.0) Gecko/20100101 Firefox/78.0 Waterfox/78.10.0,,Firefox,78,Windows,10
195,1,null,"""",image-keyboard-response,269,540952,0.0-269.0,"""",jspsych/disgustFaces/AF15DIS.JPG,"""",256,Cue,Test,null,16,"""","""","""","""","""","""","""","""",1,4/30/2021 4:09,98.252.224.31,Mozilla/5.0 (Windows NT 10.0; Win64; x64; rv:78.0) Gecko/20100101 Firefox/78.0 Waterfox/78.10.0,,Firefox,78,Windows,10
195,1,null,"""",image-keyboard-response,270,541054,0.0-270.0,"""",jspsych/neutralFaces/AF23NES.JPG,"""",256,backwardMask,Test,null,100,"""","""","""","""","""","""","""","""",1,4/30/2021 4:09,98.252.224.31,Mozilla/5.0 (Windows NT 10.0; Win64; x64; rv:78.0) Gecko/20100101 Firefox/78.0 Waterfox/78.10.0,,Firefox,78,Windows,10
195,1,null,"""",html-keyboard-response,271,542054,0.0-271.0,"""","<div style=""font-size:60px;"">+</div>","""",256,fixationBtwnNeutralMaskAndPrompt,Test,null,1000,"""","""","""","""","""","""","""","""",1,4/30/2021 4:09,98.252.224.31,Mozilla/5.0 (Windows NT 10.0; Win64; x64; rv:78.0) Gecko/20100101 Firefox/78.0 Waterfox/78.10.0,,Firefox,78,Windows,10
195,1,3613,"""",html-button-response,272,545669,0.0-272.0,"""","<img src='jspsych/CFDfaces/CFD-BF-009-002-N.jpg' height=""250px"">,</br><b>Christina</b>",1,256,IntactOrRearranged,Test,"""","""","""","""",CFD-LF-213-079-N.jpg,Angela,1,1,"""","""",1,4/30/2021 4:09,98.252.224.31,Mozilla/5.0 (Windows NT 10.0; Win64; x64; rv:78.0) Gecko/20100101 Firefox/78.0 Waterfox/78.10.0,,Firefox,78,Windows,10
195,1,2582,"""",html-slider-response,273,548257,0.0-273.0,"""","<img src='jspsych/CFDfaces/CFD-BF-009-002-N.jpg' height=""250px"">,</br><b>Christina</b>","""",256,ConfidenceQuery,Test,"""","""","""","""",CFD-LF-213-079-N.jpg,Angela,1,"""",0,68,1,4/30/2021 4:09,98.252.224.31,Mozilla/5.0 (Windows NT 10.0; Win64; x64; rv:78.0) Gecko/20100101 Firefox/78.0 Waterfox/78.10.0,,Firefox,78,Windows,10
195,1,null,"""",html-keyboard-response,274,549260,0.0-274.0,"""","<div style=""font-size:60px;"">+</div>","""",256,ITI,Test,null,1000,"""","""","""","""","""","""","""","""",1,4/30/2021 4:09,98.252.224.31,Mozilla/5.0 (Windows NT 10.0; Win64; x64; rv:78.0) Gecko/20100101 Firefox/78.0 Waterfox/78.10.0,,Firefox,78,Windows,10
195,1,null,"""",image-keyboard-response,275,549512,0.0-275.0,"""",jspsych/scrambledNeutralFaces/scrambledAF09NES.JPG,"""",256,forwardMask,Test,null,250,"""",n,"""","""","""","""","""","""",1,4/30/2021 4:09,98.252.224.31,Mozilla/5.0 (Windows NT 10.0; Win64; x64; rv:78.0) Gecko/20100101 Firefox/78.0 Waterfox/78.10.0,,Firefox,78,Windows,10
195,1,null,"""",image-keyboard-response,276,549531,0.0-276.0,"""",jspsych/neutralFaces/AF09NES.JPG,"""",256,Cue,Test,null,16,"""","""","""","""","""","""","""","""",1,4/30/2021 4:09,98.252.224.31,Mozilla/5.0 (Windows NT 10.0; Win64; x64; rv:78.0) Gecko/20100101 Firefox/78.0 Waterfox/78.10.0,,Firefox,78,Windows,10
195,1,null,"""",image-keyboard-response,277,549633,0.0-277.0,"""",jspsych/neutralFaces/AF14NES.JPG,"""",256,backwardMask,Test,null,100,"""","""","""","""","""","""","""","""",1,4/30/2021 4:09,98.252.224.31,Mozilla/5.0 (Windows NT 10.0; Win64; x64; rv:78.0) Gecko/20100101 Firefox/78.0 Waterfox/78.10.0,,Firefox,78,Windows,10
195,1,null,"""",html-keyboard-response,278,550636,0.0-278.0,"""","<div style=""font-size:60px;"">+</div>","""",256,fixationBtwnNeutralMaskAndPrompt,Test,null,1000,"""","""","""","""","""","""","""","""",1,4/30/2021 4:09,98.252.224.31,Mozilla/5.0 (Windows NT 10.0; Win64; x64; rv:78.0) Gecko/20100101 Firefox/78.0 Waterfox/78.10.0,,Firefox,78,Windows,10
195,1,2703,"""",html-button-response,279,553339,0.0-279.0,"""","<img src='jspsych/CFDfaces/CFD-LM-200-045-N.jpg' height=""250px"">,</br><b>Eric</b>",0,256,IntactOrRearranged,Test,"""","""","""","""",CFD-BF-016-017-N.jpg,Taylor,1,0,"""","""",1,4/30/2021 4:09,98.252.224.31,Mozilla/5.0 (Windows NT 10.0; Win64; x64; rv:78.0) Gecko/20100101 Firefox/78.0 Waterfox/78.10.0,,Firefox,78,Windows,10
195,1,2432,"""",html-slider-response,280,555778,0.0-280.0,"""","<img src='jspsych/CFDfaces/CFD-LM-200-045-N.jpg' height=""250px"">,</br><b>Eric</b>","""",256,ConfidenceQuery,Test,"""","""","""","""",CFD-BF-016-017-N.jpg,Taylor,1,"""",0,66,1,4/30/2021 4:09,98.252.224.31,Mozilla/5.0 (Windows NT 10.0; Win64; x64; rv:78.0) Gecko/20100101 Firefox/78.0 Waterfox/78.10.0,,Firefox,78,Windows,10
195,1,null,"""",html-keyboard-response,281,556780,0.0-281.0,"""","<div style=""font-size:60px;"">+</div>","""",256,ITI,Test,null,1000,"""","""","""","""","""","""","""","""",1,4/30/2021 4:09,98.252.224.31,Mozilla/5.0 (Windows NT 10.0; Win64; x64; rv:78.0) Gecko/20100101 Firefox/78.0 Waterfox/78.10.0,,Firefox,78,Windows,10
