run_id,condition,rt,responses,trial_type,trial_index,time_elapsed,internal_node_id,question_order,stimulus,button_pressed,iTrial,Phase,ExperimentPhase,key_press,StimulusDurationSetting,CharacterResponse,correctResponse,Face,Name,rearranged,didSubjectEnterRearranged,slider_start,response,Block,recorded_at,ip,user_agent,device,browser,browser_version,platform,platform_version
91,1,2803,"{""Q0"":""A1Q0TDPZW53SSJ""}",survey-text,0,2808,0.0-0.0,"""","""","""","""","""","""","""","""","""","""","""","""","""","""","""","""","""",4/22/2021 8:25,93.40.224.54,Mozilla/5.0 (Windows NT 10.0; Win64; x64; rv:88.0) Gecko/20100101 Firefox/88.0,,Firefox,88,Windows,10
91,1,2517,"{""Q0"":""26""}",survey-text,1,5331,0.0-1.0,"""","""","""","""","""","""","""","""","""","""","""","""","""","""","""","""","""",4/22/2021 8:25,93.40.224.54,Mozilla/5.0 (Windows NT 10.0; Win64; x64; rv:88.0) Gecko/20100101 Firefox/88.0,,Firefox,88,Windows,10
91,1,5610,"{""Q0"":""male"",""Q1"":""Not Hispanic/Latino"",""Q2"":""White or Caucasian""}",survey-multi-choice,2,10945,0.0-2.0,"[0,1,2]","""","""","""","""","""","""","""","""","""","""","""","""","""","""","""","""",4/22/2021 8:25,93.40.224.54,Mozilla/5.0 (Windows NT 10.0; Win64; x64; rv:88.0) Gecko/20100101 Firefox/88.0,,Firefox,88,Windows,10
91,1,198796,"""",image-button-response,3,209756,0.0-3.0,"""",directionsMemoryAssociation1.JPG,0,1,IntroDirections1,break,"""","""","""","""","""","""","""","""","""","""","""",4/22/2021 8:25,93.40.224.54,Mozilla/5.0 (Windows NT 10.0; Win64; x64; rv:88.0) Gecko/20100101 Firefox/88.0,,Firefox,88,Windows,10
91,1,484,"""",image-button-response,4,210251,0.0-4.0,"""",directionsMemoryAssociation2.JPG,0,1,IntroDirections2,break,"""","""","""","""","""","""","""","""","""","""","""",4/22/2021 8:25,93.40.224.54,Mozilla/5.0 (Windows NT 10.0; Win64; x64; rv:88.0) Gecko/20100101 Firefox/88.0,,Firefox,88,Windows,10
91,1,2198,"""",html-keyboard-response,5,215262,0.0-5.0,"""","<img src='jspsych/CFDfaces/CFD-BM-018-001-N.jpg' height=""250px"">,</br><b>Marcus</b>","""",1,IntactFace,Practice,70,5000,f,"""","""","""","""","""","""","""","""",4/22/2021 8:25,93.40.224.54,Mozilla/5.0 (Windows NT 10.0; Win64; x64; rv:88.0) Gecko/20100101 Firefox/88.0,,Firefox,88,Windows,10
91,1,null,"""",html-keyboard-response,6,215766,0.0-6.0,"""","<div style=""font-size:60px;"">+</div>","""",1,ITI,Practice,null,1000,"""","""","""","""","""","""","""","""","""",4/22/2021 8:25,93.40.224.54,Mozilla/5.0 (Windows NT 10.0; Win64; x64; rv:88.0) Gecko/20100101 Firefox/88.0,,Firefox,88,Windows,10
91,1,1463,"""",html-keyboard-response,7,220780,0.0-7.0,"""","<img src='jspsych/CFDfaces/CFD-LF-200-058-N.jpg' height=""250px"">,</br><b>Katelyn</b>","""",2,IntactFace,Practice,70,5000,f,"""","""","""","""","""","""","""","""",4/22/2021 8:25,93.40.224.54,Mozilla/5.0 (Windows NT 10.0; Win64; x64; rv:88.0) Gecko/20100101 Firefox/88.0,,Firefox,88,Windows,10
91,1,null,"""",html-keyboard-response,8,221285,0.0-8.0,"""","<div style=""font-size:60px;"">+</div>","""",2,ITI,Practice,null,1000,"""","""","""","""","""","""","""","""","""",4/22/2021 8:25,93.40.224.54,Mozilla/5.0 (Windows NT 10.0; Win64; x64; rv:88.0) Gecko/20100101 Firefox/88.0,,Firefox,88,Windows,10
91,1,4568,"""",html-keyboard-response,9,226297,0.0-9.0,"""","<img src='jspsych/CFDfaces/CFD-AM-242-176-N.jpg' height=""250px"">,</br><b>Carlos</b>","""",3,IntactFace,Practice,70,5000,f,"""","""","""","""","""","""","""","""",4/22/2021 8:25,93.40.224.54,Mozilla/5.0 (Windows NT 10.0; Win64; x64; rv:88.0) Gecko/20100101 Firefox/88.0,,Firefox,88,Windows,10
91,1,null,"""",html-keyboard-response,10,226805,0.0-10.0,"""","<div style=""font-size:60px;"">+</div>","""",3,ITI,Practice,null,1000,"""","""","""","""","""","""","""","""","""",4/22/2021 8:25,93.40.224.54,Mozilla/5.0 (Windows NT 10.0; Win64; x64; rv:88.0) Gecko/20100101 Firefox/88.0,,Firefox,88,Windows,10
91,1,1149,"""",html-keyboard-response,11,231813,0.0-11.0,"""","<img src='jspsych/CFDfaces/CFD-AF-220-107-N.jpg' height=""250px"">,</br><b>Shannon</b>","""",4,IntactFace,Practice,70,5000,f,"""","""","""","""","""","""","""","""",4/22/2021 8:25,93.40.224.54,Mozilla/5.0 (Windows NT 10.0; Win64; x64; rv:88.0) Gecko/20100101 Firefox/88.0,,Firefox,88,Windows,10
91,1,null,"""",html-keyboard-response,12,232325,0.0-12.0,"""","<div style=""font-size:60px;"">+</div>","""",4,ITI,Practice,null,1000,"""","""","""","""","""","""","""","""","""",4/22/2021 8:25,93.40.224.54,Mozilla/5.0 (Windows NT 10.0; Win64; x64; rv:88.0) Gecko/20100101 Firefox/88.0,,Firefox,88,Windows,10
91,1,2146,"""",html-keyboard-response,13,237330,0.0-13.0,"""","<img src='jspsych/CFDfaces/CFD-WM-009-002-N.jpg' height=""250px"">,</br><b>Samuel</b>","""",5,IntactFace,Practice,70,5000,f,"""","""","""","""","""","""","""","""",4/22/2021 8:25,93.40.224.54,Mozilla/5.0 (Windows NT 10.0; Win64; x64; rv:88.0) Gecko/20100101 Firefox/88.0,,Firefox,88,Windows,10
91,1,null,"""",html-keyboard-response,14,237851,0.0-14.0,"""","<div style=""font-size:60px;"">+</div>","""",5,ITI,Practice,null,1000,"""","""","""","""","""","""","""","""","""",4/22/2021 8:25,93.40.224.54,Mozilla/5.0 (Windows NT 10.0; Win64; x64; rv:88.0) Gecko/20100101 Firefox/88.0,,Firefox,88,Windows,10
91,1,1238,"""",html-keyboard-response,15,242859,0.0-15.0,"""","<img src='jspsych/CFDfaces/CFD-BF-039-031-N.jpg' height=""250px"">,</br><b>Tara</b>","""",6,IntactFace,Practice,78,5000,n,"""","""","""","""","""","""","""","""",4/22/2021 8:25,93.40.224.54,Mozilla/5.0 (Windows NT 10.0; Win64; x64; rv:88.0) Gecko/20100101 Firefox/88.0,,Firefox,88,Windows,10
91,1,null,"""",html-keyboard-response,16,243366,0.0-16.0,"""","<div style=""font-size:60px;"">+</div>","""",6,ITI,Practice,null,1000,"""","""","""","""","""","""","""","""","""",4/22/2021 8:25,93.40.224.54,Mozilla/5.0 (Windows NT 10.0; Win64; x64; rv:88.0) Gecko/20100101 Firefox/88.0,,Firefox,88,Windows,10
91,1,1379,"""",html-keyboard-response,17,248369,0.0-17.0,"""","<img src='jspsych/CFDfaces/CFD-LM-246-087-N.jpg' height=""250px"">,</br><b>Patrick</b>","""",7,IntactFace,Practice,70,5000,f,"""","""","""","""","""","""","""","""",4/22/2021 8:25,93.40.224.54,Mozilla/5.0 (Windows NT 10.0; Win64; x64; rv:88.0) Gecko/20100101 Firefox/88.0,,Firefox,88,Windows,10
91,1,null,"""",html-keyboard-response,18,248881,0.0-18.0,"""","<div style=""font-size:60px;"">+</div>","""",7,ITI,Practice,null,1000,"""","""","""","""","""","""","""","""","""",4/22/2021 8:25,93.40.224.54,Mozilla/5.0 (Windows NT 10.0; Win64; x64; rv:88.0) Gecko/20100101 Firefox/88.0,,Firefox,88,Windows,10
91,1,2229,"""",html-keyboard-response,19,253891,0.0-19.0,"""","<img src='jspsych/CFDfaces/CFD-BF-001-025-N.jpg' height=""250px"">,</br><b>Cassandra</b>","""",8,IntactFace,Practice,78,5000,n,"""","""","""","""","""","""","""","""",4/22/2021 8:25,93.40.224.54,Mozilla/5.0 (Windows NT 10.0; Win64; x64; rv:88.0) Gecko/20100101 Firefox/88.0,,Firefox,88,Windows,10
91,1,null,"""",html-keyboard-response,20,254410,0.0-20.0,"""","<div style=""font-size:60px;"">+</div>","""",8,ITI,Practice,null,1000,"""","""","""","""","""","""","""","""","""",4/22/2021 8:25,93.40.224.54,Mozilla/5.0 (Windows NT 10.0; Win64; x64; rv:88.0) Gecko/20100101 Firefox/88.0,,Firefox,88,Windows,10
91,1,1286,"""",image-button-response,21,255714,0.0-21.0,"""",directionsForTest.JPG,0,1,directionsForTest,break,"""","""","""","""","""","""","""","""","""","""","""",4/22/2021 8:25,93.40.224.54,Mozilla/5.0 (Windows NT 10.0; Win64; x64; rv:88.0) Gecko/20100101 Firefox/88.0,,Firefox,88,Windows,10
91,1,802,"""",image-button-response,22,256523,0.0-22.0,"""",directionsForTest2.JPG,0,1,directionsForTest2,break,"""","""","""","""","""","""","""","""","""","""","""",4/22/2021 8:25,93.40.224.54,Mozilla/5.0 (Windows NT 10.0; Win64; x64; rv:88.0) Gecko/20100101 Firefox/88.0,,Firefox,88,Windows,10
91,1,null,"""",html-keyboard-response,23,257526,0.0-23.0,"""","<div style=""font-size:60px;"">+</div>","""",1,ITI,Practice,null,1000,"""","""","""","""","""","""","""","""","""",4/22/2021 8:25,93.40.224.54,Mozilla/5.0 (Windows NT 10.0; Win64; x64; rv:88.0) Gecko/20100101 Firefox/88.0,,Firefox,88,Windows,10
91,1,null,"""",image-keyboard-response,24,257781,0.0-24.0,"""",jspsych/scrambledDisgustFaces/scrambledAM10DIS.JPG,"""",1,forwardMask,Practice,null,250,"""",d,"""","""","""","""","""","""","""",4/22/2021 8:25,93.40.224.54,Mozilla/5.0 (Windows NT 10.0; Win64; x64; rv:88.0) Gecko/20100101 Firefox/88.0,,Firefox,88,Windows,10
91,1,null,"""",image-keyboard-response,25,257803,0.0-25.0,"""",jspsych/disgustFaces/AM10DIS.JPG,"""",1,Cue,Practice,null,16,"""","""","""","""","""","""","""","""","""",4/22/2021 8:25,93.40.224.54,Mozilla/5.0 (Windows NT 10.0; Win64; x64; rv:88.0) Gecko/20100101 Firefox/88.0,,Firefox,88,Windows,10
91,1,null,"""",image-keyboard-response,26,257914,0.0-26.0,"""",jspsych/neutralFaces/AM29NES.JPG,"""",1,backwardMask,Practice,null,100,"""","""","""","""","""","""","""","""","""",4/22/2021 8:25,93.40.224.54,Mozilla/5.0 (Windows NT 10.0; Win64; x64; rv:88.0) Gecko/20100101 Firefox/88.0,,Firefox,88,Windows,10
91,1,null,"""",html-keyboard-response,27,258928,0.0-27.0,"""","<div style=""font-size:60px;"">+</div>","""",1,fixationBtwnNeutralMaskAndPrompt,Practice,null,1000,"""","""","""","""","""","""","""","""","""",4/22/2021 8:25,93.40.224.54,Mozilla/5.0 (Windows NT 10.0; Win64; x64; rv:88.0) Gecko/20100101 Firefox/88.0,,Firefox,88,Windows,10
91,1,1789,"""",html-button-response,28,260718,0.0-28.0,"""","<img src='jspsych/CFDfaces/CFD-LF-200-058-N.jpg'height=""250px""></br><b>Cassandra</b>",1,1,IntactOrRearranged,Practice,"""","""","""","""",CFD-LF-200-058-N.jpg,Cassandra,1,1,"""","""","""",4/22/2021 8:25,93.40.224.54,Mozilla/5.0 (Windows NT 10.0; Win64; x64; rv:88.0) Gecko/20100101 Firefox/88.0,,Firefox,88,Windows,10
91,1,1177,"""",html-slider-response,29,261901,0.0-29.0,"""","<img src='jspsych/CFDfaces/CFD-LF-200-058-N.jpg'height=""250px""></br><b>Cassandra</b>","""",1,ConfidenceQuery,Practice,"""","""","""","""",CFD-AM-220-134-N.jpg,Mark,1,"""",0,100,"""",4/22/2021 8:25,93.40.224.54,Mozilla/5.0 (Windows NT 10.0; Win64; x64; rv:88.0) Gecko/20100101 Firefox/88.0,,Firefox,88,Windows,10
91,1,976,"""",html-button-response,30,262879,0.0-30.0,"""",You are Correct. You Called A Rearranged Pair Rearranged,0,1,feedback,Practice,"""","""","""","""","""","""","""","""","""","""","""",4/22/2021 8:25,93.40.224.54,Mozilla/5.0 (Windows NT 10.0; Win64; x64; rv:88.0) Gecko/20100101 Firefox/88.0,,Firefox,88,Windows,10
91,1,null,"""",html-keyboard-response,31,263891,0.0-31.0,"""","<div style=""font-size:60px;"">+</div>","""",2,ITI,Practice,null,1000,"""","""","""","""","""","""","""","""","""",4/22/2021 8:25,93.40.224.54,Mozilla/5.0 (Windows NT 10.0; Win64; x64; rv:88.0) Gecko/20100101 Firefox/88.0,,Firefox,88,Windows,10
91,1,null,"""",image-keyboard-response,32,264145,0.0-32.0,"""",jspsych/scrambledNeutralFaces/scrambledBF18NES.JPG,"""",2,forwardMask,Practice,null,250,"""",n,"""","""","""","""","""","""","""",4/22/2021 8:25,93.40.224.54,Mozilla/5.0 (Windows NT 10.0; Win64; x64; rv:88.0) Gecko/20100101 Firefox/88.0,,Firefox,88,Windows,10
91,1,null,"""",image-keyboard-response,33,264174,0.0-33.0,"""",jspsych/neutralFaces/BF18NES.JPG,"""",2,Cue,Practice,null,16,"""","""","""","""","""","""","""","""","""",4/22/2021 8:25,93.40.224.54,Mozilla/5.0 (Windows NT 10.0; Win64; x64; rv:88.0) Gecko/20100101 Firefox/88.0,,Firefox,88,Windows,10
91,1,null,"""",image-keyboard-response,34,264292,0.0-34.0,"""",jspsych/neutralFaces/AF26NES.JPG,"""",2,backwardMask,Practice,null,100,"""","""","""","""","""","""","""","""","""",4/22/2021 8:25,93.40.224.54,Mozilla/5.0 (Windows NT 10.0; Win64; x64; rv:88.0) Gecko/20100101 Firefox/88.0,,Firefox,88,Windows,10
91,1,null,"""",html-keyboard-response,35,265294,0.0-35.0,"""","<div style=""font-size:60px;"">+</div>","""",2,fixationBtwnNeutralMaskAndPrompt,Practice,null,1000,"""","""","""","""","""","""","""","""","""",4/22/2021 8:25,93.40.224.54,Mozilla/5.0 (Windows NT 10.0; Win64; x64; rv:88.0) Gecko/20100101 Firefox/88.0,,Firefox,88,Windows,10
91,1,2701,"""",html-button-response,36,267997,0.0-36.0,"""","<img src='jspsych/CFDfaces/CFD-BM-018-001-N.jpg'height=""250px""></br><b>Carlos</b>",1,2,IntactOrRearranged,Practice,"""","""","""","""",CFD-BM-018-001-N.jpg,Carlos,1,1,"""","""","""",4/22/2021 8:25,93.40.224.54,Mozilla/5.0 (Windows NT 10.0; Win64; x64; rv:88.0) Gecko/20100101 Firefox/88.0,,Firefox,88,Windows,10
91,1,1514,"""",html-slider-response,37,269516,0.0-37.0,"""","<img src='jspsych/CFDfaces/CFD-BM-018-001-N.jpg'height=""250px""></br><b>Carlos</b>","""",2,ConfidenceQuery,Practice,"""","""","""","""",CFD-AM-220-134-N.jpg,Mark,1,"""",0,51,"""",4/22/2021 8:25,93.40.224.54,Mozilla/5.0 (Windows NT 10.0; Win64; x64; rv:88.0) Gecko/20100101 Firefox/88.0,,Firefox,88,Windows,10
91,1,978,"""",html-button-response,38,270495,0.0-38.0,"""",You are Correct. You Called A Rearranged Pair Rearranged,0,2,feedback,Practice,"""","""","""","""","""","""","""","""","""","""","""",4/22/2021 8:25,93.40.224.54,Mozilla/5.0 (Windows NT 10.0; Win64; x64; rv:88.0) Gecko/20100101 Firefox/88.0,,Firefox,88,Windows,10
91,1,null,"""",html-keyboard-response,39,271507,0.0-39.0,"""","<div style=""font-size:60px;"">+</div>","""",3,ITI,Practice,null,1000,"""","""","""","""","""","""","""","""","""",4/22/2021 8:25,93.40.224.54,Mozilla/5.0 (Windows NT 10.0; Win64; x64; rv:88.0) Gecko/20100101 Firefox/88.0,,Firefox,88,Windows,10
91,1,null,"""",image-keyboard-response,40,271762,0.0-40.0,"""",jspsych/scrambledNeutralFaces/scrambledBF30NES.JPG,"""",3,forwardMask,Practice,null,250,"""",n,"""","""","""","""","""","""","""",4/22/2021 8:25,93.40.224.54,Mozilla/5.0 (Windows NT 10.0; Win64; x64; rv:88.0) Gecko/20100101 Firefox/88.0,,Firefox,88,Windows,10
91,1,null,"""",image-keyboard-response,41,271787,0.0-41.0,"""",jspsych/neutralFaces/BF30NES.JPG,"""",3,Cue,Practice,null,16,"""","""","""","""","""","""","""","""","""",4/22/2021 8:25,93.40.224.54,Mozilla/5.0 (Windows NT 10.0; Win64; x64; rv:88.0) Gecko/20100101 Firefox/88.0,,Firefox,88,Windows,10
91,1,null,"""",image-keyboard-response,42,271898,0.0-42.0,"""",jspsych/neutralFaces/BF31NES.JPG,"""",3,backwardMask,Practice,null,100,"""","""","""","""","""","""","""","""","""",4/22/2021 8:25,93.40.224.54,Mozilla/5.0 (Windows NT 10.0; Win64; x64; rv:88.0) Gecko/20100101 Firefox/88.0,,Firefox,88,Windows,10
91,1,null,"""",html-keyboard-response,43,272911,0.0-43.0,"""","<div style=""font-size:60px;"">+</div>","""",3,fixationBtwnNeutralMaskAndPrompt,Practice,null,1000,"""","""","""","""","""","""","""","""","""",4/22/2021 8:25,93.40.224.54,Mozilla/5.0 (Windows NT 10.0; Win64; x64; rv:88.0) Gecko/20100101 Firefox/88.0,,Firefox,88,Windows,10
91,1,1522,"""",html-button-response,44,274434,0.0-44.0,"""","<img src='jspsych/CFDfaces/CFD-WM-009-002-N.jpg'height=""250px""></br><b>Samuel</b>",0,3,IntactOrRearranged,Practice,"""","""","""","""",CFD-WM-009-002-N.jpg,Samuel,0,0,"""","""","""",4/22/2021 8:25,93.40.224.54,Mozilla/5.0 (Windows NT 10.0; Win64; x64; rv:88.0) Gecko/20100101 Firefox/88.0,,Firefox,88,Windows,10
91,1,2291,"""",html-slider-response,45,276728,0.0-45.0,"""","<img src='jspsych/CFDfaces/CFD-WM-009-002-N.jpg'height=""250px""></br><b>Samuel</b>","""",3,ConfidenceQuery,Practice,"""","""","""","""",CFD-AM-220-134-N.jpg,Mark,0,"""",0,100,"""",4/22/2021 8:25,93.40.224.54,Mozilla/5.0 (Windows NT 10.0; Win64; x64; rv:88.0) Gecko/20100101 Firefox/88.0,,Firefox,88,Windows,10
91,1,830,"""",html-button-response,46,277559,0.0-46.0,"""",You are Correct. You called an Intact Pair Intact,0,3,feedback,Practice,"""","""","""","""","""","""","""","""","""","""","""",4/22/2021 8:25,93.40.224.54,Mozilla/5.0 (Windows NT 10.0; Win64; x64; rv:88.0) Gecko/20100101 Firefox/88.0,,Firefox,88,Windows,10
91,1,null,"""",html-keyboard-response,47,278566,0.0-47.0,"""","<div style=""font-size:60px;"">+</div>","""",4,ITI,Practice,null,1000,"""","""","""","""","""","""","""","""","""",4/22/2021 8:25,93.40.224.54,Mozilla/5.0 (Windows NT 10.0; Win64; x64; rv:88.0) Gecko/20100101 Firefox/88.0,,Firefox,88,Windows,10
91,1,null,"""",image-keyboard-response,48,278831,0.0-48.0,"""",jspsych/scrambledNeutralFaces/scrambledBF17NES.JPG,"""",4,forwardMask,Practice,null,250,"""",n,"""","""","""","""","""","""","""",4/22/2021 8:25,93.40.224.54,Mozilla/5.0 (Windows NT 10.0; Win64; x64; rv:88.0) Gecko/20100101 Firefox/88.0,,Firefox,88,Windows,10
91,1,null,"""",image-keyboard-response,49,278860,0.0-49.0,"""",jspsych/neutralFaces/BF17NES.JPG,"""",4,Cue,Practice,null,16,"""","""","""","""","""","""","""","""","""",4/22/2021 8:25,93.40.224.54,Mozilla/5.0 (Windows NT 10.0; Win64; x64; rv:88.0) Gecko/20100101 Firefox/88.0,,Firefox,88,Windows,10
91,1,null,"""",image-keyboard-response,50,278971,0.0-50.0,"""",jspsych/neutralFaces/AF08NES.JPG,"""",4,backwardMask,Practice,null,100,"""","""","""","""","""","""","""","""","""",4/22/2021 8:25,93.40.224.54,Mozilla/5.0 (Windows NT 10.0; Win64; x64; rv:88.0) Gecko/20100101 Firefox/88.0,,Firefox,88,Windows,10
91,1,null,"""",html-keyboard-response,51,279985,0.0-51.0,"""","<div style=""font-size:60px;"">+</div>","""",4,fixationBtwnNeutralMaskAndPrompt,Practice,null,1000,"""","""","""","""","""","""","""","""","""",4/22/2021 8:25,93.40.224.54,Mozilla/5.0 (Windows NT 10.0; Win64; x64; rv:88.0) Gecko/20100101 Firefox/88.0,,Firefox,88,Windows,10
91,1,1655,"""",html-button-response,52,281644,0.0-52.0,"""","<img src='jspsych/CFDfaces/CFD-BF-039-031-N.jpg'height=""250px""></br><b>Tara</b>",0,4,IntactOrRearranged,Practice,"""","""","""","""",CFD-BF-039-031-N.jpg,Tara,0,0,"""","""","""",4/22/2021 8:25,93.40.224.54,Mozilla/5.0 (Windows NT 10.0; Win64; x64; rv:88.0) Gecko/20100101 Firefox/88.0,,Firefox,88,Windows,10
91,1,2306,"""",html-slider-response,53,283951,0.0-53.0,"""","<img src='jspsych/CFDfaces/CFD-BF-039-031-N.jpg'height=""250px""></br><b>Tara</b>","""",4,ConfidenceQuery,Practice,"""","""","""","""",CFD-AM-220-134-N.jpg,Mark,0,"""",0,78,"""",4/22/2021 8:25,93.40.224.54,Mozilla/5.0 (Windows NT 10.0; Win64; x64; rv:88.0) Gecko/20100101 Firefox/88.0,,Firefox,88,Windows,10
91,1,977,"""",html-button-response,54,284930,0.0-54.0,"""",You are Correct. You called an Intact Pair Intact,0,4,feedback,Practice,"""","""","""","""","""","""","""","""","""","""","""",4/22/2021 8:25,93.40.224.54,Mozilla/5.0 (Windows NT 10.0; Win64; x64; rv:88.0) Gecko/20100101 Firefox/88.0,,Firefox,88,Windows,10
91,1,null,"""",html-keyboard-response,55,285932,0.0-55.0,"""","<div style=""font-size:60px;"">+</div>","""",5,ITI,Practice,null,1000,"""","""","""","""","""","""","""","""","""",4/22/2021 8:25,93.40.224.54,Mozilla/5.0 (Windows NT 10.0; Win64; x64; rv:88.0) Gecko/20100101 Firefox/88.0,,Firefox,88,Windows,10
91,1,null,"""",image-keyboard-response,56,286194,0.0-56.0,"""",jspsych/scrambledNeutralFaces/scrambledBM12NES.JPG,"""",5,forwardMask,Practice,null,250,"""",n,"""","""","""","""","""","""","""",4/22/2021 8:25,93.40.224.54,Mozilla/5.0 (Windows NT 10.0; Win64; x64; rv:88.0) Gecko/20100101 Firefox/88.0,,Firefox,88,Windows,10
91,1,null,"""",image-keyboard-response,57,286225,0.0-57.0,"""",jspsych/neutralFaces/BM12NES.JPG,"""",5,Cue,Practice,null,16,"""","""","""","""","""","""","""","""","""",4/22/2021 8:25,93.40.224.54,Mozilla/5.0 (Windows NT 10.0; Win64; x64; rv:88.0) Gecko/20100101 Firefox/88.0,,Firefox,88,Windows,10
91,1,null,"""",image-keyboard-response,58,286343,0.0-58.0,"""",jspsych/neutralFaces/AM35NES.JPG,"""",5,backwardMask,Practice,null,100,"""","""","""","""","""","""","""","""","""",4/22/2021 8:25,93.40.224.54,Mozilla/5.0 (Windows NT 10.0; Win64; x64; rv:88.0) Gecko/20100101 Firefox/88.0,,Firefox,88,Windows,10
91,1,null,"""",html-keyboard-response,59,287350,0.0-59.0,"""","<div style=""font-size:60px;"">+</div>","""",5,fixationBtwnNeutralMaskAndPrompt,Practice,null,1000,"""","""","""","""","""","""","""","""","""",4/22/2021 8:25,93.40.224.54,Mozilla/5.0 (Windows NT 10.0; Win64; x64; rv:88.0) Gecko/20100101 Firefox/88.0,,Firefox,88,Windows,10
91,1,1661,"""",html-button-response,60,289014,0.0-60.0,"""","<img src='jspsych/CFDfaces/CFD-BF-001-025-N.jpg'height=""250px""></br><b>Katelyn</b>",0,5,IntactOrRearranged,Practice,"""","""","""","""",CFD-BF-001-025-N.jpg,Katelyn,1,0,"""","""","""",4/22/2021 8:25,93.40.224.54,Mozilla/5.0 (Windows NT 10.0; Win64; x64; rv:88.0) Gecko/20100101 Firefox/88.0,,Firefox,88,Windows,10
91,1,1627,"""",html-slider-response,61,290643,0.0-61.0,"""","<img src='jspsych/CFDfaces/CFD-BF-001-025-N.jpg'height=""250px""></br><b>Katelyn</b>","""",5,ConfidenceQuery,Practice,"""","""","""","""",CFD-AM-220-134-N.jpg,Mark,1,"""",0,72,"""",4/22/2021 8:25,93.40.224.54,Mozilla/5.0 (Windows NT 10.0; Win64; x64; rv:88.0) Gecko/20100101 Firefox/88.0,,Firefox,88,Windows,10
91,1,1913,"""",html-button-response,62,292557,0.0-62.0,"""",You are Incorrect. You called a Rearranged Pair Intact,0,5,feedback,Practice,"""","""","""","""","""","""","""","""","""","""","""",4/22/2021 8:25,93.40.224.54,Mozilla/5.0 (Windows NT 10.0; Win64; x64; rv:88.0) Gecko/20100101 Firefox/88.0,,Firefox,88,Windows,10
91,1,null,"""",html-keyboard-response,63,293567,0.0-63.0,"""","<div style=""font-size:60px;"">+</div>","""",6,ITI,Practice,null,1000,"""","""","""","""","""","""","""","""","""",4/22/2021 8:25,93.40.224.54,Mozilla/5.0 (Windows NT 10.0; Win64; x64; rv:88.0) Gecko/20100101 Firefox/88.0,,Firefox,88,Windows,10
91,1,null,"""",image-keyboard-response,64,293824,0.0-64.0,"""",jspsych/scrambledDisgustFaces/scrambledAF34DIS.JPG,"""",6,forwardMask,Practice,null,250,"""",d,"""","""","""","""","""","""","""",4/22/2021 8:25,93.40.224.54,Mozilla/5.0 (Windows NT 10.0; Win64; x64; rv:88.0) Gecko/20100101 Firefox/88.0,,Firefox,88,Windows,10
91,1,null,"""",image-keyboard-response,65,293851,0.0-65.0,"""",jspsych/disgustFaces/AF34DIS.JPG,"""",6,Cue,Practice,null,16,"""","""","""","""","""","""","""","""","""",4/22/2021 8:25,93.40.224.54,Mozilla/5.0 (Windows NT 10.0; Win64; x64; rv:88.0) Gecko/20100101 Firefox/88.0,,Firefox,88,Windows,10
91,1,null,"""",image-keyboard-response,66,293962,0.0-66.0,"""",jspsych/neutralFaces/BF09NES.JPG,"""",6,backwardMask,Practice,null,100,"""","""","""","""","""","""","""","""","""",4/22/2021 8:25,93.40.224.54,Mozilla/5.0 (Windows NT 10.0; Win64; x64; rv:88.0) Gecko/20100101 Firefox/88.0,,Firefox,88,Windows,10
91,1,null,"""",html-keyboard-response,67,294970,0.0-67.0,"""","<div style=""font-size:60px;"">+</div>","""",6,fixationBtwnNeutralMaskAndPrompt,Practice,null,1000,"""","""","""","""","""","""","""","""","""",4/22/2021 8:25,93.40.224.54,Mozilla/5.0 (Windows NT 10.0; Win64; x64; rv:88.0) Gecko/20100101 Firefox/88.0,,Firefox,88,Windows,10
91,1,2680,"""",html-button-response,68,297652,0.0-68.0,"""","<img src='jspsych/CFDfaces/CFD-AM-242-176-N.jpg'height=""250px""></br><b>Marcus</b>",1,6,IntactOrRearranged,Practice,"""","""","""","""",CFD-AM-242-176-N.jpg,Marcus,1,1,"""","""","""",4/22/2021 8:25,93.40.224.54,Mozilla/5.0 (Windows NT 10.0; Win64; x64; rv:88.0) Gecko/20100101 Firefox/88.0,,Firefox,88,Windows,10
91,1,1405,"""",html-slider-response,69,299059,0.0-69.0,"""","<img src='jspsych/CFDfaces/CFD-AM-242-176-N.jpg'height=""250px""></br><b>Marcus</b>","""",6,ConfidenceQuery,Practice,"""","""","""","""",CFD-AM-220-134-N.jpg,Mark,1,"""",0,32,"""",4/22/2021 8:25,93.40.224.54,Mozilla/5.0 (Windows NT 10.0; Win64; x64; rv:88.0) Gecko/20100101 Firefox/88.0,,Firefox,88,Windows,10
91,1,730,"""",html-button-response,70,299792,0.0-70.0,"""",You are Correct. You Called A Rearranged Pair Rearranged,0,6,feedback,Practice,"""","""","""","""","""","""","""","""","""","""","""",4/22/2021 8:25,93.40.224.54,Mozilla/5.0 (Windows NT 10.0; Win64; x64; rv:88.0) Gecko/20100101 Firefox/88.0,,Firefox,88,Windows,10
91,1,null,"""",html-keyboard-response,71,300804,0.0-71.0,"""","<div style=""font-size:60px;"">+</div>","""",7,ITI,Practice,null,1000,"""","""","""","""","""","""","""","""","""",4/22/2021 8:25,93.40.224.54,Mozilla/5.0 (Windows NT 10.0; Win64; x64; rv:88.0) Gecko/20100101 Firefox/88.0,,Firefox,88,Windows,10
91,1,null,"""",image-keyboard-response,72,301071,0.0-72.0,"""",jspsych/scrambledDisgustFaces/scrambledAF16DIS.JPG,"""",7,forwardMask,Practice,null,250,"""",d,"""","""","""","""","""","""","""",4/22/2021 8:25,93.40.224.54,Mozilla/5.0 (Windows NT 10.0; Win64; x64; rv:88.0) Gecko/20100101 Firefox/88.0,,Firefox,88,Windows,10
91,1,null,"""",image-keyboard-response,73,301100,0.0-73.0,"""",jspsych/disgustFaces/AF16DIS.JPG,"""",7,Cue,Practice,null,16,"""","""","""","""","""","""","""","""","""",4/22/2021 8:25,93.40.224.54,Mozilla/5.0 (Windows NT 10.0; Win64; x64; rv:88.0) Gecko/20100101 Firefox/88.0,,Firefox,88,Windows,10
91,1,null,"""",image-keyboard-response,74,301217,0.0-74.0,"""",jspsych/neutralFaces/AF02NES.JPG,"""",7,backwardMask,Practice,null,100,"""","""","""","""","""","""","""","""","""",4/22/2021 8:25,93.40.224.54,Mozilla/5.0 (Windows NT 10.0; Win64; x64; rv:88.0) Gecko/20100101 Firefox/88.0,,Firefox,88,Windows,10
91,1,null,"""",html-keyboard-response,75,302229,0.0-75.0,"""","<div style=""font-size:60px;"">+</div>","""",7,fixationBtwnNeutralMaskAndPrompt,Practice,null,1000,"""","""","""","""","""","""","""","""","""",4/22/2021 8:25,93.40.224.54,Mozilla/5.0 (Windows NT 10.0; Win64; x64; rv:88.0) Gecko/20100101 Firefox/88.0,,Firefox,88,Windows,10
91,1,855,"""",html-button-response,76,303086,0.0-76.0,"""","<img src='jspsych/CFDfaces/CFD-LM-246-087-N.jpg'height=""250px""></br><b>Patrick</b>",0,7,IntactOrRearranged,Practice,"""","""","""","""",CFD-LM-246-087-N.jpg,Patrick,0,0,"""","""","""",4/22/2021 8:25,93.40.224.54,Mozilla/5.0 (Windows NT 10.0; Win64; x64; rv:88.0) Gecko/20100101 Firefox/88.0,,Firefox,88,Windows,10
91,1,1000,"""",html-slider-response,77,304087,0.0-77.0,"""","<img src='jspsych/CFDfaces/CFD-LM-246-087-N.jpg'height=""250px""></br><b>Patrick</b>","""",7,ConfidenceQuery,Practice,"""","""","""","""",CFD-AM-220-134-N.jpg,Mark,0,"""",0,100,"""",4/22/2021 8:25,93.40.224.54,Mozilla/5.0 (Windows NT 10.0; Win64; x64; rv:88.0) Gecko/20100101 Firefox/88.0,,Firefox,88,Windows,10
91,1,1146,"""",html-button-response,78,305235,0.0-78.0,"""",You are Correct. You called an Intact Pair Intact,0,7,feedback,Practice,"""","""","""","""","""","""","""","""","""","""","""",4/22/2021 8:25,93.40.224.54,Mozilla/5.0 (Windows NT 10.0; Win64; x64; rv:88.0) Gecko/20100101 Firefox/88.0,,Firefox,88,Windows,10
91,1,null,"""",html-keyboard-response,79,306244,0.0-79.0,"""","<div style=""font-size:60px;"">+</div>","""",8,ITI,Practice,null,1000,"""","""","""","""","""","""","""","""","""",4/22/2021 8:25,93.40.224.54,Mozilla/5.0 (Windows NT 10.0; Win64; x64; rv:88.0) Gecko/20100101 Firefox/88.0,,Firefox,88,Windows,10
91,1,null,"""",image-keyboard-response,80,306511,0.0-80.0,"""",jspsych/scrambledNeutralFaces/scrambledAM22NES.JPG,"""",8,forwardMask,Practice,null,250,"""",n,"""","""","""","""","""","""","""",4/22/2021 8:25,93.40.224.54,Mozilla/5.0 (Windows NT 10.0; Win64; x64; rv:88.0) Gecko/20100101 Firefox/88.0,,Firefox,88,Windows,10
91,1,null,"""",image-keyboard-response,81,306542,0.0-81.0,"""",jspsych/neutralFaces/AM22NES.JPG,"""",8,Cue,Practice,null,16,"""","""","""","""","""","""","""","""","""",4/22/2021 8:25,93.40.224.54,Mozilla/5.0 (Windows NT 10.0; Win64; x64; rv:88.0) Gecko/20100101 Firefox/88.0,,Firefox,88,Windows,10
91,1,null,"""",image-keyboard-response,82,306651,0.0-82.0,"""",jspsych/neutralFaces/AM03NES.JPG,"""",8,backwardMask,Practice,null,100,"""","""","""","""","""","""","""","""","""",4/22/2021 8:25,93.40.224.54,Mozilla/5.0 (Windows NT 10.0; Win64; x64; rv:88.0) Gecko/20100101 Firefox/88.0,,Firefox,88,Windows,10
91,1,null,"""",html-keyboard-response,83,307658,0.0-83.0,"""","<div style=""font-size:60px;"">+</div>","""",8,fixationBtwnNeutralMaskAndPrompt,Practice,null,1000,"""","""","""","""","""","""","""","""","""",4/22/2021 8:25,93.40.224.54,Mozilla/5.0 (Windows NT 10.0; Win64; x64; rv:88.0) Gecko/20100101 Firefox/88.0,,Firefox,88,Windows,10
91,1,1761,"""",html-button-response,84,309420,0.0-84.0,"""","<img src='jspsych/CFDfaces/CFD-AF-220-107-N.jpg'height=""250px""></br><b>Shannon</b>",0,8,IntactOrRearranged,Practice,"""","""","""","""",CFD-AF-220-107-N.jpg,Shannon,0,0,"""","""","""",4/22/2021 8:25,93.40.224.54,Mozilla/5.0 (Windows NT 10.0; Win64; x64; rv:88.0) Gecko/20100101 Firefox/88.0,,Firefox,88,Windows,10
91,1,1213,"""",html-slider-response,85,310635,0.0-85.0,"""","<img src='jspsych/CFDfaces/CFD-AF-220-107-N.jpg'height=""250px""></br><b>Shannon</b>","""",8,ConfidenceQuery,Practice,"""","""","""","""",CFD-AM-220-134-N.jpg,Mark,0,"""",0,44,"""",4/22/2021 8:25,93.40.224.54,Mozilla/5.0 (Windows NT 10.0; Win64; x64; rv:88.0) Gecko/20100101 Firefox/88.0,,Firefox,88,Windows,10
91,1,704,"""",html-button-response,86,311343,0.0-86.0,"""",You are Correct. You called an Intact Pair Intact,0,8,feedback,Practice,"""","""","""","""","""","""","""","""","""","""","""",4/22/2021 8:25,93.40.224.54,Mozilla/5.0 (Windows NT 10.0; Win64; x64; rv:88.0) Gecko/20100101 Firefox/88.0,,Firefox,88,Windows,10
91,1,1131,"""",image-button-response,87,312481,0.0-87.0,"""",directionsMemoryAssociation3.JPG,0,128,DirectionsBeforeActualTEst,Break,"""","""","""","""","""","""","""","""","""","""","""",4/22/2021 8:25,93.40.224.54,Mozilla/5.0 (Windows NT 10.0; Win64; x64; rv:88.0) Gecko/20100101 Firefox/88.0,,Firefox,88,Windows,10
91,1,919,"""",image-button-response,88,313403,0.0-88.0,"""",directionsForTest2.JPG,0,1,directionsForTest2,break,"""","""","""","""","""","""","""","""","""","""","""",4/22/2021 8:25,93.40.224.54,Mozilla/5.0 (Windows NT 10.0; Win64; x64; rv:88.0) Gecko/20100101 Firefox/88.0,,Firefox,88,Windows,10
91,1,7403,"""",html-button-response,89,320805,0.0-89.0,"""","<p>You will be asked to memorize and then recall four sets of face-name pairs. </p> <p> Each set will have 32 pairs. </p> <p>After the fourth set, there will be a brief follow-up experiment (<40 min alltogether)</p>",0,"""","""","""","""","""","""","""","""","""","""","""","""","""","""",4/22/2021 8:25,93.40.224.54,Mozilla/5.0 (Windows NT 10.0; Win64; x64; rv:88.0) Gecko/20100101 Firefox/88.0,,Firefox,88,Windows,10
91,1,1927,"""",html-keyboard-response,90,325811,0.0-90.0,"""","<img src='jspsych/CFDfaces/CFD-LM-252-076-N.jpg' height=""250px""></br><b>Peter</b>","""",256,IntactFace,Memorization,70,5000,f,"""",CFD-AM-220-134-N.jpg,Austin,0,"""","""","""",1,4/22/2021 8:25,93.40.224.54,Mozilla/5.0 (Windows NT 10.0; Win64; x64; rv:88.0) Gecko/20100101 Firefox/88.0,,Firefox,88,Windows,10
91,1,null,"""",html-keyboard-response,91,326326,0.0-91.0,"""","<div style=""font-size:60px;"">+</div>","""",256,fixation,Memorization,null,500,"""","""","""","""","""","""","""","""",1,4/22/2021 8:25,93.40.224.54,Mozilla/5.0 (Windows NT 10.0; Win64; x64; rv:88.0) Gecko/20100101 Firefox/88.0,,Firefox,88,Windows,10
91,1,1607,"""",html-keyboard-response,92,331347,0.0-92.0,"""","<img src='jspsych/CFDfaces/CFD-AM-211-052-N.jpg' height=""250px""></br><b>Juan</b>","""",256,IntactFace,Memorization,70,5000,f,"""",CFD-AF-240-206-N.jpg,Rebecca,0,"""","""","""",1,4/22/2021 8:25,93.40.224.54,Mozilla/5.0 (Windows NT 10.0; Win64; x64; rv:88.0) Gecko/20100101 Firefox/88.0,,Firefox,88,Windows,10
91,1,null,"""",html-keyboard-response,93,331851,0.0-93.0,"""","<div style=""font-size:60px;"">+</div>","""",256,fixation,Memorization,null,500,"""","""","""","""","""","""","""","""",1,4/22/2021 8:25,93.40.224.54,Mozilla/5.0 (Windows NT 10.0; Win64; x64; rv:88.0) Gecko/20100101 Firefox/88.0,,Firefox,88,Windows,10
91,1,2562,"""",html-keyboard-response,94,336866,0.0-94.0,"""","<img src='jspsych/CFDfaces/CFD-WM-215-041-N.jpg' height=""250px""></br><b>Brandon</b>","""",256,IntactFace,Memorization,70,5000,f,"""",CFD-BM-029-024-N.jpg,Travis,0,"""","""","""",1,4/22/2021 8:25,93.40.224.54,Mozilla/5.0 (Windows NT 10.0; Win64; x64; rv:88.0) Gecko/20100101 Firefox/88.0,,Firefox,88,Windows,10
91,1,null,"""",html-keyboard-response,95,337381,0.0-95.0,"""","<div style=""font-size:60px;"">+</div>","""",256,fixation,Memorization,null,500,"""","""","""","""","""","""","""","""",1,4/22/2021 8:25,93.40.224.54,Mozilla/5.0 (Windows NT 10.0; Win64; x64; rv:88.0) Gecko/20100101 Firefox/88.0,,Firefox,88,Windows,10
91,1,3023,"""",html-keyboard-response,96,342401,0.0-96.0,"""","<img src='jspsych/CFDfaces/CFD-WM-216-061-N.jpg' height=""250px""></br><b>Brian</b>","""",256,IntactFace,Memorization,70,5000,f,"""",CFD-AF-243-170-N.jpg,Whitney,0,"""","""","""",1,4/22/2021 8:25,93.40.224.54,Mozilla/5.0 (Windows NT 10.0; Win64; x64; rv:88.0) Gecko/20100101 Firefox/88.0,,Firefox,88,Windows,10
91,1,null,"""",html-keyboard-response,97,342905,0.0-97.0,"""","<div style=""font-size:60px;"">+</div>","""",256,fixation,Memorization,null,500,"""","""","""","""","""","""","""","""",1,4/22/2021 8:25,93.40.224.54,Mozilla/5.0 (Windows NT 10.0; Win64; x64; rv:88.0) Gecko/20100101 Firefox/88.0,,Firefox,88,Windows,10
91,1,3008,"""",html-keyboard-response,98,347922,0.0-98.0,"""","<img src='jspsych/CFDfaces/CFD-BM-208-065-N.jpg' height=""250px""></br><b>Robert</b>","""",256,IntactFace,Memorization,78,5000,n,"""",CFD-LM-220-329-N.jpg,Vincent,0,"""","""","""",1,4/22/2021 8:25,93.40.224.54,Mozilla/5.0 (Windows NT 10.0; Win64; x64; rv:88.0) Gecko/20100101 Firefox/88.0,,Firefox,88,Windows,10
91,1,null,"""",html-keyboard-response,99,348427,0.0-99.0,"""","<div style=""font-size:60px;"">+</div>","""",256,fixation,Memorization,null,500,"""","""","""","""","""","""","""","""",1,4/22/2021 8:25,93.40.224.54,Mozilla/5.0 (Windows NT 10.0; Win64; x64; rv:88.0) Gecko/20100101 Firefox/88.0,,Firefox,88,Windows,10
91,1,1911,"""",html-keyboard-response,100,353440,0.0-100.0,"""","<img src='jspsych/CFDfaces/CFD-WF-202-056-N.jpg' height=""250px""></br><b>Meghan</b>","""",256,IntactFace,Memorization,70,5000,f,"""",CFD-LM-233-171-N.jpg,Sean,0,"""","""","""",1,4/22/2021 8:25,93.40.224.54,Mozilla/5.0 (Windows NT 10.0; Win64; x64; rv:88.0) Gecko/20100101 Firefox/88.0,,Firefox,88,Windows,10
91,1,null,"""",html-keyboard-response,101,353945,0.0-101.0,"""","<div style=""font-size:60px;"">+</div>","""",256,fixation,Memorization,null,500,"""","""","""","""","""","""","""","""",1,4/22/2021 8:25,93.40.224.54,Mozilla/5.0 (Windows NT 10.0; Win64; x64; rv:88.0) Gecko/20100101 Firefox/88.0,,Firefox,88,Windows,10
91,1,1987,"""",html-keyboard-response,102,358965,0.0-102.0,"""","<img src='jspsych/CFDfaces/CFD-LF-230-203-N.jpg' height=""250px""></br><b>Vanessa</b>","""",256,IntactFace,Memorization,70,5000,f,"""",CFD-LF-208-127-N.jpg,Lauren,0,"""","""","""",1,4/22/2021 8:25,93.40.224.54,Mozilla/5.0 (Windows NT 10.0; Win64; x64; rv:88.0) Gecko/20100101 Firefox/88.0,,Firefox,88,Windows,10
91,1,null,"""",html-keyboard-response,103,359474,0.0-103.0,"""","<div style=""font-size:60px;"">+</div>","""",256,fixation,Memorization,null,500,"""","""","""","""","""","""","""","""",1,4/22/2021 8:25,93.40.224.54,Mozilla/5.0 (Windows NT 10.0; Win64; x64; rv:88.0) Gecko/20100101 Firefox/88.0,,Firefox,88,Windows,10
91,1,1789,"""",html-keyboard-response,104,364484,0.0-104.0,"""","<img src='jspsych/CFDfaces/CFD-BM-207-024-N.jpg' height=""250px""></br><b>Jason</b>","""",256,IntactFace,Memorization,70,5000,f,"""",CFD-WM-019-003-N.jpg,Cameron,0,"""","""","""",1,4/22/2021 8:25,93.40.224.54,Mozilla/5.0 (Windows NT 10.0; Win64; x64; rv:88.0) Gecko/20100101 Firefox/88.0,,Firefox,88,Windows,10
91,1,null,"""",html-keyboard-response,105,365001,0.0-105.0,"""","<div style=""font-size:60px;"">+</div>","""",256,fixation,Memorization,null,500,"""","""","""","""","""","""","""","""",1,4/22/2021 8:25,93.40.224.54,Mozilla/5.0 (Windows NT 10.0; Win64; x64; rv:88.0) Gecko/20100101 Firefox/88.0,,Firefox,88,Windows,10
91,1,1725,"""",html-keyboard-response,106,370011,0.0-106.0,"""","<img src='jspsych/CFDfaces/CFD-BF-201-080-N.jpg' height=""250px""></br><b>Kimberly</b>","""",256,IntactFace,Memorization,70,5000,f,"""",CFD-AM-213-056-N.jpg,Timothy,0,"""","""","""",1,4/22/2021 8:25,93.40.224.54,Mozilla/5.0 (Windows NT 10.0; Win64; x64; rv:88.0) Gecko/20100101 Firefox/88.0,,Firefox,88,Windows,10
91,1,null,"""",html-keyboard-response,107,370524,0.0-107.0,"""","<div style=""font-size:60px;"">+</div>","""",256,fixation,Memorization,null,500,"""","""","""","""","""","""","""","""",1,4/22/2021 8:25,93.40.224.54,Mozilla/5.0 (Windows NT 10.0; Win64; x64; rv:88.0) Gecko/20100101 Firefox/88.0,,Firefox,88,Windows,10
91,1,1604,"""",html-keyboard-response,108,375541,0.0-108.0,"""","<img src='jspsych/CFDfaces/CFD-AM-207-108-N.jpg' height=""250px""></br><b>Joshua</b>","""",256,IntactFace,Memorization,70,5000,f,"""",CFD-LF-243-175-N.jpg,Melissa,0,"""","""","""",1,4/22/2021 8:25,93.40.224.54,Mozilla/5.0 (Windows NT 10.0; Win64; x64; rv:88.0) Gecko/20100101 Firefox/88.0,,Firefox,88,Windows,10
91,1,null,"""",html-keyboard-response,109,376052,0.0-109.0,"""","<div style=""font-size:60px;"">+</div>","""",256,fixation,Memorization,null,500,"""","""","""","""","""","""","""","""",1,4/22/2021 8:25,93.40.224.54,Mozilla/5.0 (Windows NT 10.0; Win64; x64; rv:88.0) Gecko/20100101 Firefox/88.0,,Firefox,88,Windows,10
91,1,1780,"""",html-keyboard-response,110,381064,0.0-110.0,"""","<img src='jspsych/CFDfaces/CFD-WM-020-001-N.jpg' height=""250px""></br><b>Daniel</b>","""",256,IntactFace,Memorization,70,5000,f,"""",CFD-AF-214-139-N.jpg,Laura,0,"""","""","""",1,4/22/2021 8:25,93.40.224.54,Mozilla/5.0 (Windows NT 10.0; Win64; x64; rv:88.0) Gecko/20100101 Firefox/88.0,,Firefox,88,Windows,10
91,1,null,"""",html-keyboard-response,111,381572,0.0-111.0,"""","<div style=""font-size:60px;"">+</div>","""",256,fixation,Memorization,null,500,"""","""","""","""","""","""","""","""",1,4/22/2021 8:25,93.40.224.54,Mozilla/5.0 (Windows NT 10.0; Win64; x64; rv:88.0) Gecko/20100101 Firefox/88.0,,Firefox,88,Windows,10
91,1,3582,"""",html-keyboard-response,112,386591,0.0-112.0,"""","<img src='jspsych/CFDfaces/CFD-WF-204-038-N.jpg' height=""250px""></br><b>Amanda</b>","""",256,IntactFace,Memorization,70,5000,f,"""",CFD-WF-024-003-N.jpg,Taylor,0,"""","""","""",1,4/22/2021 8:25,93.40.224.54,Mozilla/5.0 (Windows NT 10.0; Win64; x64; rv:88.0) Gecko/20100101 Firefox/88.0,,Firefox,88,Windows,10
91,1,null,"""",html-keyboard-response,113,387104,0.0-113.0,"""","<div style=""font-size:60px;"">+</div>","""",256,fixation,Memorization,null,500,"""","""","""","""","""","""","""","""",1,4/22/2021 8:25,93.40.224.54,Mozilla/5.0 (Windows NT 10.0; Win64; x64; rv:88.0) Gecko/20100101 Firefox/88.0,,Firefox,88,Windows,10
91,1,2700,"""",html-keyboard-response,114,392125,0.0-114.0,"""","<img src='jspsych/CFDfaces/CFD-LM-234-176-N.jpg' height=""250px""></br><b>Ian</b>","""",256,IntactFace,Memorization,78,5000,n,"""",CFD-BF-047-003-N.jpg,Tiffany,0,"""","""","""",1,4/22/2021 8:25,93.40.224.54,Mozilla/5.0 (Windows NT 10.0; Win64; x64; rv:88.0) Gecko/20100101 Firefox/88.0,,Firefox,88,Windows,10
91,1,null,"""",html-keyboard-response,115,392632,0.0-115.0,"""","<div style=""font-size:60px;"">+</div>","""",256,fixation,Memorization,null,500,"""","""","""","""","""","""","""","""",1,4/22/2021 8:25,93.40.224.54,Mozilla/5.0 (Windows NT 10.0; Win64; x64; rv:88.0) Gecko/20100101 Firefox/88.0,,Firefox,88,Windows,10
91,1,1687,"""",html-keyboard-response,116,397645,0.0-116.0,"""","<img src='jspsych/CFDfaces/CFD-WF-223-133-N.jpg' height=""250px""></br><b>Elizabeth</b>","""",256,IntactFace,Memorization,78,5000,n,"""",CFD-WM-011-002-N.jpg,Jesse,0,"""","""","""",1,4/22/2021 8:25,93.40.224.54,Mozilla/5.0 (Windows NT 10.0; Win64; x64; rv:88.0) Gecko/20100101 Firefox/88.0,,Firefox,88,Windows,10
91,1,null,"""",html-keyboard-response,117,398161,0.0-117.0,"""","<div style=""font-size:60px;"">+</div>","""",256,fixation,Memorization,null,500,"""","""","""","""","""","""","""","""",1,4/22/2021 8:25,93.40.224.54,Mozilla/5.0 (Windows NT 10.0; Win64; x64; rv:88.0) Gecko/20100101 Firefox/88.0,,Firefox,88,Windows,10
91,1,1922,"""",html-keyboard-response,118,403174,0.0-118.0,"""","<img src='jspsych/CFDfaces/CFD-AF-239-171-N.jpg' height=""250px""></br><b>Michelle</b>","""",256,IntactFace,Memorization,70,5000,f,"""",CFD-BM-011-016-N.jpg,Jeremy,0,"""","""","""",1,4/22/2021 8:25,93.40.224.54,Mozilla/5.0 (Windows NT 10.0; Win64; x64; rv:88.0) Gecko/20100101 Firefox/88.0,,Firefox,88,Windows,10
91,1,null,"""",html-keyboard-response,119,403691,0.0-119.0,"""","<div style=""font-size:60px;"">+</div>","""",256,fixation,Memorization,null,500,"""","""","""","""","""","""","""","""",1,4/22/2021 8:25,93.40.224.54,Mozilla/5.0 (Windows NT 10.0; Win64; x64; rv:88.0) Gecko/20100101 Firefox/88.0,,Firefox,88,Windows,10
91,1,3217,"""",html-keyboard-response,120,408704,0.0-120.0,"""","<img src='jspsych/CFDfaces/CFD-BM-017-021-N.jpg' height=""250px""></br><b>Nicholas</b>","""",256,IntactFace,Memorization,70,5000,f,"""",CFD-BM-211-174-N.jpg,Mark,0,"""","""","""",1,4/22/2021 8:25,93.40.224.54,Mozilla/5.0 (Windows NT 10.0; Win64; x64; rv:88.0) Gecko/20100101 Firefox/88.0,,Firefox,88,Windows,10
91,1,null,"""",html-keyboard-response,121,409214,0.0-121.0,"""","<div style=""font-size:60px;"">+</div>","""",256,fixation,Memorization,null,500,"""","""","""","""","""","""","""","""",1,4/22/2021 8:25,93.40.224.54,Mozilla/5.0 (Windows NT 10.0; Win64; x64; rv:88.0) Gecko/20100101 Firefox/88.0,,Firefox,88,Windows,10
91,1,2383,"""",html-keyboard-response,122,414234,0.0-122.0,"""","<img src='jspsych/CFDfaces/CFD-BF-209-172-N.jpg' height=""250px""></br><b>Ashley</b>","""",256,IntactFace,Memorization,78,5000,n,"""",CFD-WF-006-002-N.jpg,Jordan,0,"""","""","""",1,4/22/2021 8:25,93.40.224.54,Mozilla/5.0 (Windows NT 10.0; Win64; x64; rv:88.0) Gecko/20100101 Firefox/88.0,,Firefox,88,Windows,10
91,1,null,"""",html-keyboard-response,123,414741,0.0-123.0,"""","<div style=""font-size:60px;"">+</div>","""",256,fixation,Memorization,null,500,"""","""","""","""","""","""","""","""",1,4/22/2021 8:25,93.40.224.54,Mozilla/5.0 (Windows NT 10.0; Win64; x64; rv:88.0) Gecko/20100101 Firefox/88.0,,Firefox,88,Windows,10
91,1,1656,"""",html-keyboard-response,124,419756,0.0-124.0,"""","<img src='jspsych/CFDfaces/CFD-AM-248-104-N.jpg' height=""250px""></br><b>Eric</b>","""",256,IntactFace,Memorization,70,5000,f,"""",CFD-WM-237-052-N.jpg,Kenneth,0,"""","""","""",1,4/22/2021 8:25,93.40.224.54,Mozilla/5.0 (Windows NT 10.0; Win64; x64; rv:88.0) Gecko/20100101 Firefox/88.0,,Firefox,88,Windows,10
91,1,null,"""",html-keyboard-response,125,420265,0.0-125.0,"""","<div style=""font-size:60px;"">+</div>","""",256,fixation,Memorization,null,500,"""","""","""","""","""","""","""","""",1,4/22/2021 8:25,93.40.224.54,Mozilla/5.0 (Windows NT 10.0; Win64; x64; rv:88.0) Gecko/20100101 Firefox/88.0,,Firefox,88,Windows,10
91,1,1502,"""",html-keyboard-response,126,425284,0.0-126.0,"""","<img src='jspsych/CFDfaces/CFD-LF-204-133-N.jpg' height=""250px""></br><b>Julie</b>","""",256,IntactFace,Memorization,70,5000,f,"""",CFD-BF-021-013-N.jpg,Angela,0,"""","""","""",1,4/22/2021 8:25,93.40.224.54,Mozilla/5.0 (Windows NT 10.0; Win64; x64; rv:88.0) Gecko/20100101 Firefox/88.0,,Firefox,88,Windows,10
91,1,null,"""",html-keyboard-response,127,425796,0.0-127.0,"""","<div style=""font-size:60px;"">+</div>","""",256,fixation,Memorization,null,500,"""","""","""","""","""","""","""","""",1,4/22/2021 8:25,93.40.224.54,Mozilla/5.0 (Windows NT 10.0; Win64; x64; rv:88.0) Gecko/20100101 Firefox/88.0,,Firefox,88,Windows,10
91,1,1028,"""",html-keyboard-response,128,430810,0.0-128.0,"""","<img src='jspsych/CFDfaces/CFD-WF-207-014-N.jpg' height=""250px""></br><b>Victoria</b>","""",256,IntactFace,Memorization,70,5000,f,"""",CFD-WM-222-057-N.jpg,Dustin,0,"""","""","""",1,4/22/2021 8:25,93.40.224.54,Mozilla/5.0 (Windows NT 10.0; Win64; x64; rv:88.0) Gecko/20100101 Firefox/88.0,,Firefox,88,Windows,10
91,1,null,"""",html-keyboard-response,129,431321,0.0-129.0,"""","<div style=""font-size:60px;"">+</div>","""",256,fixation,Memorization,null,500,"""","""","""","""","""","""","""","""",1,4/22/2021 8:25,93.40.224.54,Mozilla/5.0 (Windows NT 10.0; Win64; x64; rv:88.0) Gecko/20100101 Firefox/88.0,,Firefox,88,Windows,10
91,1,2557,"""",html-keyboard-response,130,436341,0.0-130.0,"""","<img src='jspsych/CFDfaces/CFD-WM-034-030-N.jpg' height=""250px""></br><b>James</b>","""",256,IntactFace,Memorization,70,5000,f,"""",CFD-LF-236-221-N.jpg,Amy,0,"""","""","""",1,4/22/2021 8:25,93.40.224.54,Mozilla/5.0 (Windows NT 10.0; Win64; x64; rv:88.0) Gecko/20100101 Firefox/88.0,,Firefox,88,Windows,10
91,1,null,"""",html-keyboard-response,131,436845,0.0-131.0,"""","<div style=""font-size:60px;"">+</div>","""",256,fixation,Memorization,null,500,"""","""","""","""","""","""","""","""",1,4/22/2021 8:25,93.40.224.54,Mozilla/5.0 (Windows NT 10.0; Win64; x64; rv:88.0) Gecko/20100101 Firefox/88.0,,Firefox,88,Windows,10
91,1,1710,"""",html-keyboard-response,132,441854,0.0-132.0,"""","<img src='jspsych/CFDfaces/CFD-LM-221-216-N.jpg' height=""250px""></br><b>Jeffrey</b>","""",256,IntactFace,Memorization,70,5000,f,"""",CFD-AM-205-153-N.jpg,Jacob,0,"""","""","""",1,4/22/2021 8:25,93.40.224.54,Mozilla/5.0 (Windows NT 10.0; Win64; x64; rv:88.0) Gecko/20100101 Firefox/88.0,,Firefox,88,Windows,10
91,1,null,"""",html-keyboard-response,133,442358,0.0-133.0,"""","<div style=""font-size:60px;"">+</div>","""",256,fixation,Memorization,null,500,"""","""","""","""","""","""","""","""",1,4/22/2021 8:25,93.40.224.54,Mozilla/5.0 (Windows NT 10.0; Win64; x64; rv:88.0) Gecko/20100101 Firefox/88.0,,Firefox,88,Windows,10
91,1,2361,"""",html-keyboard-response,134,447374,0.0-134.0,"""","<img src='jspsych/CFDfaces/CFD-LF-220-120-N.jpg' height=""250px""></br><b>Stephanie</b>","""",256,IntactFace,Memorization,70,5000,f,"""",CFD-BF-016-017-N.jpg,Erin,0,"""","""","""",1,4/22/2021 8:25,93.40.224.54,Mozilla/5.0 (Windows NT 10.0; Win64; x64; rv:88.0) Gecko/20100101 Firefox/88.0,,Firefox,88,Windows,10
91,1,null,"""",html-keyboard-response,135,447881,0.0-135.0,"""","<div style=""font-size:60px;"">+</div>","""",256,fixation,Memorization,null,500,"""","""","""","""","""","""","""","""",1,4/22/2021 8:25,93.40.224.54,Mozilla/5.0 (Windows NT 10.0; Win64; x64; rv:88.0) Gecko/20100101 Firefox/88.0,,Firefox,88,Windows,10
91,1,2441,"""",html-keyboard-response,136,452901,0.0-136.0,"""","<img src='jspsych/CFDfaces/CFD-BF-005-001-N.jpg' height=""250px""></br><b>Samantha</b>","""",256,IntactFace,Memorization,78,5000,n,"""",CFD-WM-207-048-N.jpg,Luis,0,"""","""","""",1,4/22/2021 8:25,93.40.224.54,Mozilla/5.0 (Windows NT 10.0; Win64; x64; rv:88.0) Gecko/20100101 Firefox/88.0,,Firefox,88,Windows,10
91,1,null,"""",html-keyboard-response,137,453409,0.0-137.0,"""","<div style=""font-size:60px;"">+</div>","""",256,fixation,Memorization,null,500,"""","""","""","""","""","""","""","""",1,4/22/2021 8:25,93.40.224.54,Mozilla/5.0 (Windows NT 10.0; Win64; x64; rv:88.0) Gecko/20100101 Firefox/88.0,,Firefox,88,Windows,10
91,1,1398,"""",html-keyboard-response,138,458421,0.0-138.0,"""","<img src='jspsych/CFDfaces/CFD-LF-232-199-N.jpg' height=""250px""></br><b>Emily</b>","""",256,IntactFace,Memorization,70,5000,f,"""",CFD-BF-226-119-N.jpg,Jasmine,0,"""","""","""",1,4/22/2021 8:25,93.40.224.54,Mozilla/5.0 (Windows NT 10.0; Win64; x64; rv:88.0) Gecko/20100101 Firefox/88.0,,Firefox,88,Windows,10
91,1,null,"""",html-keyboard-response,139,458935,0.0-139.0,"""","<div style=""font-size:60px;"">+</div>","""",256,fixation,Memorization,null,500,"""","""","""","""","""","""","""","""",1,4/22/2021 8:25,93.40.224.54,Mozilla/5.0 (Windows NT 10.0; Win64; x64; rv:88.0) Gecko/20100101 Firefox/88.0,,Firefox,88,Windows,10
91,1,1430,"""",html-keyboard-response,140,463949,0.0-140.0,"""","<img src='jspsych/CFDfaces/CFD-LF-239-148-N.jpg' height=""250px""></br><b>Brittany</b>","""",256,IntactFace,Memorization,70,5000,f,"""",CFD-AM-214-168-N.jpg,Ryan,0,"""","""","""",1,4/22/2021 8:25,93.40.224.54,Mozilla/5.0 (Windows NT 10.0; Win64; x64; rv:88.0) Gecko/20100101 Firefox/88.0,,Firefox,88,Windows,10
91,1,null,"""",html-keyboard-response,141,464455,0.0-141.0,"""","<div style=""font-size:60px;"">+</div>","""",256,fixation,Memorization,null,500,"""","""","""","""","""","""","""","""",1,4/22/2021 8:25,93.40.224.54,Mozilla/5.0 (Windows NT 10.0; Win64; x64; rv:88.0) Gecko/20100101 Firefox/88.0,,Firefox,88,Windows,10
91,1,892,"""",html-keyboard-response,142,469476,0.0-142.0,"""","<img src='jspsych/CFDfaces/CFD-LF-210-220-N.jpg' height=""250px""></br><b>Christina</b>","""",256,IntactFace,Memorization,70,5000,f,"""",CFD-BF-004-014-N.jpg,Heather,0,"""","""","""",1,4/22/2021 8:25,93.40.224.54,Mozilla/5.0 (Windows NT 10.0; Win64; x64; rv:88.0) Gecko/20100101 Firefox/88.0,,Firefox,88,Windows,10
91,1,null,"""",html-keyboard-response,143,469984,0.0-143.0,"""","<div style=""font-size:60px;"">+</div>","""",256,fixation,Memorization,null,500,"""","""","""","""","""","""","""","""",1,4/22/2021 8:25,93.40.224.54,Mozilla/5.0 (Windows NT 10.0; Win64; x64; rv:88.0) Gecko/20100101 Firefox/88.0,,Firefox,88,Windows,10
91,1,1654,"""",html-keyboard-response,144,474995,0.0-144.0,"""","<img src='jspsych/CFDfaces/CFD-AF-222-134-N.jpg' height=""250px""></br><b>Kayla</b>","""",256,IntactFace,Memorization,70,5000,f,"""",CFD-BF-212-315-N.jpg,Sara,0,"""","""","""",1,4/22/2021 8:25,93.40.224.54,Mozilla/5.0 (Windows NT 10.0; Win64; x64; rv:88.0) Gecko/20100101 Firefox/88.0,,Firefox,88,Windows,10
91,1,null,"""",html-keyboard-response,145,475501,0.0-145.0,"""","<div style=""font-size:60px;"">+</div>","""",256,fixation,Memorization,null,500,"""","""","""","""","""","""","""","""",1,4/22/2021 8:25,93.40.224.54,Mozilla/5.0 (Windows NT 10.0; Win64; x64; rv:88.0) Gecko/20100101 Firefox/88.0,,Firefox,88,Windows,10
91,1,1631,"""",html-keyboard-response,146,480514,0.0-146.0,"""","<img src='jspsych/CFDfaces/CFD-AM-212-050-N.jpg' height=""250px""></br><b>Gregory</b>","""",256,IntactFace,Memorization,70,5000,f,"""",CFD-BM-027-001-N.jpg,Steven,0,"""","""","""",1,4/22/2021 8:25,93.40.224.54,Mozilla/5.0 (Windows NT 10.0; Win64; x64; rv:88.0) Gecko/20100101 Firefox/88.0,,Firefox,88,Windows,10
91,1,null,"""",html-keyboard-response,147,481029,0.0-147.0,"""","<div style=""font-size:60px;"">+</div>","""",256,fixation,Memorization,null,500,"""","""","""","""","""","""","""","""",1,4/22/2021 8:25,93.40.224.54,Mozilla/5.0 (Windows NT 10.0; Win64; x64; rv:88.0) Gecko/20100101 Firefox/88.0,,Firefox,88,Windows,10
91,1,2287,"""",html-keyboard-response,148,486042,0.0-148.0,"""","<img src='jspsych/CFDfaces/CFD-BM-022-022-N.jpg' height=""250px""></br><b>Richard</b>","""",256,IntactFace,Memorization,70,5000,f,"""",CFD-AF-200-228-N.jpg,Lindsey,0,"""","""","""",1,4/22/2021 8:25,93.40.224.54,Mozilla/5.0 (Windows NT 10.0; Win64; x64; rv:88.0) Gecko/20100101 Firefox/88.0,,Firefox,88,Windows,10
91,1,null,"""",html-keyboard-response,149,486554,0.0-149.0,"""","<div style=""font-size:60px;"">+</div>","""",256,fixation,Memorization,null,500,"""","""","""","""","""","""","""","""",1,4/22/2021 8:25,93.40.224.54,Mozilla/5.0 (Windows NT 10.0; Win64; x64; rv:88.0) Gecko/20100101 Firefox/88.0,,Firefox,88,Windows,10
91,1,1928,"""",html-keyboard-response,150,491566,0.0-150.0,"""","<img src='jspsych/CFDfaces/CFD-LM-224-162-N.jpg' height=""250px""></br><b>Christian</b>","""",256,IntactFace,Memorization,70,5000,f,"""",CFD-LF-201-035-N.jpg,Jenna,0,"""","""","""",1,4/22/2021 8:25,93.40.224.54,Mozilla/5.0 (Windows NT 10.0; Win64; x64; rv:88.0) Gecko/20100101 Firefox/88.0,,Firefox,88,Windows,10
91,1,null,"""",html-keyboard-response,151,492077,0.0-151.0,"""","<div style=""font-size:60px;"">+</div>","""",256,fixation,Memorization,null,500,"""","""","""","""","""","""","""","""",1,4/22/2021 8:25,93.40.224.54,Mozilla/5.0 (Windows NT 10.0; Win64; x64; rv:88.0) Gecko/20100101 Firefox/88.0,,Firefox,88,Windows,10
91,1,2481,"""",html-keyboard-response,152,497096,0.0-152.0,"""","<img src='jspsych/CFDfaces/CFD-AF-228-173-N.jpg' height=""250px""></br><b>Andrea</b>","""",256,IntactFace,Memorization,70,5000,f,"""",CFD-AM-231-136-N.jpg,Justin,0,"""","""","""",1,4/22/2021 8:25,93.40.224.54,Mozilla/5.0 (Windows NT 10.0; Win64; x64; rv:88.0) Gecko/20100101 Firefox/88.0,,Firefox,88,Windows,10
91,1,null,"""",html-keyboard-response,153,497604,0.0-153.0,"""","<div style=""font-size:60px;"">+</div>","""",256,fixation,Memorization,null,500,"""","""","""","""","""","""","""","""",1,4/22/2021 8:25,93.40.224.54,Mozilla/5.0 (Windows NT 10.0; Win64; x64; rv:88.0) Gecko/20100101 Firefox/88.0,,Firefox,88,Windows,10
91,1,755,"""",html-keyboard-response,154,498369,0.0-154.0,"""",Press Any Key to Begin Memory Test,"""",1,welcomeScreen,Break,70,"""","""","""","""","""","""","""","""","""",1,4/22/2021 8:25,93.40.224.54,Mozilla/5.0 (Windows NT 10.0; Win64; x64; rv:88.0) Gecko/20100101 Firefox/88.0,,Firefox,88,Windows,10
91,1,null,"""",html-keyboard-response,155,499384,0.0-155.0,"""","<div style=""font-size:60px;"">+</div>","""",256,ITI,Test,null,1000,"""","""","""","""","""","""","""","""",1,4/22/2021 8:25,93.40.224.54,Mozilla/5.0 (Windows NT 10.0; Win64; x64; rv:88.0) Gecko/20100101 Firefox/88.0,,Firefox,88,Windows,10
91,1,null,"""",image-keyboard-response,156,499645,0.0-156.0,"""",jspsych/scrambledDisgustFaces/scrambledAM10DIS.JPG,"""",256,forwardMask,Test,null,250,"""",d,"""","""","""","""","""","""",1,4/22/2021 8:25,93.40.224.54,Mozilla/5.0 (Windows NT 10.0; Win64; x64; rv:88.0) Gecko/20100101 Firefox/88.0,,Firefox,88,Windows,10
91,1,null,"""",image-keyboard-response,157,499672,0.0-157.0,"""",jspsych/disgustFaces/AM10DIS.JPG,"""",256,Cue,Test,null,16,"""","""","""","""","""","""","""","""",1,4/22/2021 8:25,93.40.224.54,Mozilla/5.0 (Windows NT 10.0; Win64; x64; rv:88.0) Gecko/20100101 Firefox/88.0,,Firefox,88,Windows,10
91,1,null,"""",image-keyboard-response,158,499790,0.0-158.0,"""",jspsych/neutralFaces/AM29NES.JPG,"""",256,backwardMask,Test,null,100,"""","""","""","""","""","""","""","""",1,4/22/2021 8:25,93.40.224.54,Mozilla/5.0 (Windows NT 10.0; Win64; x64; rv:88.0) Gecko/20100101 Firefox/88.0,,Firefox,88,Windows,10
91,1,null,"""",html-keyboard-response,159,500795,0.0-159.0,"""","<div style=""font-size:60px;"">+</div>","""",256,fixationBtwnNeutralMaskAndPrompt,Test,null,1000,"""","""","""","""","""","""","""","""",1,4/22/2021 8:25,93.40.224.54,Mozilla/5.0 (Windows NT 10.0; Win64; x64; rv:88.0) Gecko/20100101 Firefox/88.0,,Firefox,88,Windows,10
91,1,1277,"""",html-button-response,160,502073,0.0-160.0,"""","<img src='jspsych/CFDfaces/CFD-AM-248-104-N.jpg' height=""250px"">,</br><b>Gregory</b>",1,256,IntactOrRearranged,Test,"""","""","""","""",CFD-BF-004-014-N.jpg,Heather,1,1,"""","""",1,4/22/2021 8:25,93.40.224.54,Mozilla/5.0 (Windows NT 10.0; Win64; x64; rv:88.0) Gecko/20100101 Firefox/88.0,,Firefox,88,Windows,10
91,1,1247,"""",html-slider-response,161,503320,0.0-161.0,"""","<img src='jspsych/CFDfaces/CFD-AM-248-104-N.jpg' height=""250px"">,</br><b>Gregory</b>","""",256,ConfidenceQuery,Test,"""","""","""","""",CFD-BF-004-014-N.jpg,Heather,1,"""",0,100,1,4/22/2021 8:25,93.40.224.54,Mozilla/5.0 (Windows NT 10.0; Win64; x64; rv:88.0) Gecko/20100101 Firefox/88.0,,Firefox,88,Windows,10
91,1,null,"""",html-keyboard-response,162,504340,0.0-162.0,"""","<div style=""font-size:60px;"">+</div>","""",256,ITI,Test,null,1000,"""","""","""","""","""","""","""","""",1,4/22/2021 8:25,93.40.224.54,Mozilla/5.0 (Windows NT 10.0; Win64; x64; rv:88.0) Gecko/20100101 Firefox/88.0,,Firefox,88,Windows,10
91,1,null,"""",image-keyboard-response,163,504594,0.0-163.0,"""",jspsych/scrambledNeutralFaces/scrambledBF18NES.JPG,"""",256,forwardMask,Test,null,250,"""",n,"""","""","""","""","""","""",1,4/22/2021 8:25,93.40.224.54,Mozilla/5.0 (Windows NT 10.0; Win64; x64; rv:88.0) Gecko/20100101 Firefox/88.0,,Firefox,88,Windows,10
91,1,null,"""",image-keyboard-response,164,504622,0.0-164.0,"""",jspsych/neutralFaces/BF18NES.JPG,"""",256,Cue,Test,null,16,"""","""","""","""","""","""","""","""",1,4/22/2021 8:25,93.40.224.54,Mozilla/5.0 (Windows NT 10.0; Win64; x64; rv:88.0) Gecko/20100101 Firefox/88.0,,Firefox,88,Windows,10
91,1,null,"""",image-keyboard-response,165,504740,0.0-165.0,"""",jspsych/neutralFaces/AF26NES.JPG,"""",256,backwardMask,Test,null,100,"""","""","""","""","""","""","""","""",1,4/22/2021 8:25,93.40.224.54,Mozilla/5.0 (Windows NT 10.0; Win64; x64; rv:88.0) Gecko/20100101 Firefox/88.0,,Firefox,88,Windows,10
91,1,null,"""",html-keyboard-response,166,505750,0.0-166.0,"""","<div style=""font-size:60px;"">+</div>","""",256,fixationBtwnNeutralMaskAndPrompt,Test,null,1000,"""","""","""","""","""","""","""","""",1,4/22/2021 8:25,93.40.224.54,Mozilla/5.0 (Windows NT 10.0; Win64; x64; rv:88.0) Gecko/20100101 Firefox/88.0,,Firefox,88,Windows,10
91,1,2024,"""",html-button-response,167,507775,0.0-167.0,"""","<img src='jspsych/CFDfaces/CFD-WM-034-030-N.jpg' height=""250px"">,</br><b>Jeffrey</b>",0,256,IntactOrRearranged,Test,"""","""","""","""",CFD-AF-200-228-N.jpg,Lindsey,1,0,"""","""",1,4/22/2021 8:25,93.40.224.54,Mozilla/5.0 (Windows NT 10.0; Win64; x64; rv:88.0) Gecko/20100101 Firefox/88.0,,Firefox,88,Windows,10
91,1,1168,"""",html-slider-response,168,508945,0.0-168.0,"""","<img src='jspsych/CFDfaces/CFD-WM-034-030-N.jpg' height=""250px"">,</br><b>Jeffrey</b>","""",256,ConfidenceQuery,Test,"""","""","""","""",CFD-AF-200-228-N.jpg,Lindsey,1,"""",0,38,1,4/22/2021 8:25,93.40.224.54,Mozilla/5.0 (Windows NT 10.0; Win64; x64; rv:88.0) Gecko/20100101 Firefox/88.0,,Firefox,88,Windows,10
91,1,null,"""",html-keyboard-response,169,509961,0.0-169.0,"""","<div style=""font-size:60px;"">+</div>","""",256,ITI,Test,null,1000,"""","""","""","""","""","""","""","""",1,4/22/2021 8:25,93.40.224.54,Mozilla/5.0 (Windows NT 10.0; Win64; x64; rv:88.0) Gecko/20100101 Firefox/88.0,,Firefox,88,Windows,10
91,1,null,"""",image-keyboard-response,170,510215,0.0-170.0,"""",jspsych/scrambledNeutralFaces/scrambledBF30NES.JPG,"""",256,forwardMask,Test,null,250,"""",n,"""","""","""","""","""","""",1,4/22/2021 8:25,93.40.224.54,Mozilla/5.0 (Windows NT 10.0; Win64; x64; rv:88.0) Gecko/20100101 Firefox/88.0,,Firefox,88,Windows,10
91,1,null,"""",image-keyboard-response,171,510240,0.0-171.0,"""",jspsych/neutralFaces/BF30NES.JPG,"""",256,Cue,Test,null,16,"""","""","""","""","""","""","""","""",1,4/22/2021 8:25,93.40.224.54,Mozilla/5.0 (Windows NT 10.0; Win64; x64; rv:88.0) Gecko/20100101 Firefox/88.0,,Firefox,88,Windows,10
91,1,null,"""",image-keyboard-response,172,510361,0.0-172.0,"""",jspsych/neutralFaces/BF31NES.JPG,"""",256,backwardMask,Test,null,100,"""","""","""","""","""","""","""","""",1,4/22/2021 8:25,93.40.224.54,Mozilla/5.0 (Windows NT 10.0; Win64; x64; rv:88.0) Gecko/20100101 Firefox/88.0,,Firefox,88,Windows,10
91,1,null,"""",html-keyboard-response,173,511364,0.0-173.0,"""","<div style=""font-size:60px;"">+</div>","""",256,fixationBtwnNeutralMaskAndPrompt,Test,null,1000,"""","""","""","""","""","""","""","""",1,4/22/2021 8:25,93.40.224.54,Mozilla/5.0 (Windows NT 10.0; Win64; x64; rv:88.0) Gecko/20100101 Firefox/88.0,,Firefox,88,Windows,10
91,1,1202,"""",html-button-response,174,512567,0.0-174.0,"""","<img src='jspsych/CFDfaces/CFD-BF-005-001-N.jpg' height=""250px"">,</br><b>Samantha</b>",0,256,IntactOrRearranged,Test,"""","""","""","""",CFD-WM-207-048-N.jpg,Luis,0,0,"""","""",1,4/22/2021 8:25,93.40.224.54,Mozilla/5.0 (Windows NT 10.0; Win64; x64; rv:88.0) Gecko/20100101 Firefox/88.0,,Firefox,88,Windows,10
91,1,1642,"""",html-slider-response,175,514211,0.0-175.0,"""","<img src='jspsych/CFDfaces/CFD-BF-005-001-N.jpg' height=""250px"">,</br><b>Samantha</b>","""",256,ConfidenceQuery,Test,"""","""","""","""",CFD-WM-207-048-N.jpg,Luis,0,"""",0,100,1,4/22/2021 8:25,93.40.224.54,Mozilla/5.0 (Windows NT 10.0; Win64; x64; rv:88.0) Gecko/20100101 Firefox/88.0,,Firefox,88,Windows,10
91,1,null,"""",html-keyboard-response,176,515224,0.0-176.0,"""","<div style=""font-size:60px;"">+</div>","""",256,ITI,Test,null,1000,"""","""","""","""","""","""","""","""",1,4/22/2021 8:25,93.40.224.54,Mozilla/5.0 (Windows NT 10.0; Win64; x64; rv:88.0) Gecko/20100101 Firefox/88.0,,Firefox,88,Windows,10
91,1,null,"""",image-keyboard-response,177,515491,0.0-177.0,"""",jspsych/scrambledNeutralFaces/scrambledBF17NES.JPG,"""",256,forwardMask,Test,null,250,"""",n,"""","""","""","""","""","""",1,4/22/2021 8:25,93.40.224.54,Mozilla/5.0 (Windows NT 10.0; Win64; x64; rv:88.0) Gecko/20100101 Firefox/88.0,,Firefox,88,Windows,10
91,1,null,"""",image-keyboard-response,178,515523,0.0-178.0,"""",jspsych/neutralFaces/BF17NES.JPG,"""",256,Cue,Test,null,16,"""","""","""","""","""","""","""","""",1,4/22/2021 8:25,93.40.224.54,Mozilla/5.0 (Windows NT 10.0; Win64; x64; rv:88.0) Gecko/20100101 Firefox/88.0,,Firefox,88,Windows,10
91,1,null,"""",image-keyboard-response,179,515628,0.0-179.0,"""",jspsych/neutralFaces/AF08NES.JPG,"""",256,backwardMask,Test,null,100,"""","""","""","""","""","""","""","""",1,4/22/2021 8:25,93.40.224.54,Mozilla/5.0 (Windows NT 10.0; Win64; x64; rv:88.0) Gecko/20100101 Firefox/88.0,,Firefox,88,Windows,10
91,1,null,"""",html-keyboard-response,180,516632,0.0-180.0,"""","<div style=""font-size:60px;"">+</div>","""",256,fixationBtwnNeutralMaskAndPrompt,Test,null,1000,"""","""","""","""","""","""","""","""",1,4/22/2021 8:25,93.40.224.54,Mozilla/5.0 (Windows NT 10.0; Win64; x64; rv:88.0) Gecko/20100101 Firefox/88.0,,Firefox,88,Windows,10
91,1,1098,"""",html-button-response,181,517731,0.0-181.0,"""","<img src='jspsych/CFDfaces/CFD-BM-207-024-N.jpg' height=""250px"">,</br><b>Jason</b>",0,256,IntactOrRearranged,Test,"""","""","""","""",CFD-WF-024-003-N.jpg,Taylor,0,0,"""","""",1,4/22/2021 8:25,93.40.224.54,Mozilla/5.0 (Windows NT 10.0; Win64; x64; rv:88.0) Gecko/20100101 Firefox/88.0,,Firefox,88,Windows,10
91,1,1169,"""",html-slider-response,182,518901,0.0-182.0,"""","<img src='jspsych/CFDfaces/CFD-BM-207-024-N.jpg' height=""250px"">,</br><b>Jason</b>","""",256,ConfidenceQuery,Test,"""","""","""","""",CFD-WF-024-003-N.jpg,Taylor,0,"""",0,100,1,4/22/2021 8:25,93.40.224.54,Mozilla/5.0 (Windows NT 10.0; Win64; x64; rv:88.0) Gecko/20100101 Firefox/88.0,,Firefox,88,Windows,10
91,1,null,"""",html-keyboard-response,183,519914,0.0-183.0,"""","<div style=""font-size:60px;"">+</div>","""",256,ITI,Test,null,1000,"""","""","""","""","""","""","""","""",1,4/22/2021 8:25,93.40.224.54,Mozilla/5.0 (Windows NT 10.0; Win64; x64; rv:88.0) Gecko/20100101 Firefox/88.0,,Firefox,88,Windows,10
91,1,null,"""",image-keyboard-response,184,520178,0.0-184.0,"""",jspsych/scrambledNeutralFaces/scrambledBM12NES.JPG,"""",256,forwardMask,Test,null,250,"""",n,"""","""","""","""","""","""",1,4/22/2021 8:25,93.40.224.54,Mozilla/5.0 (Windows NT 10.0; Win64; x64; rv:88.0) Gecko/20100101 Firefox/88.0,,Firefox,88,Windows,10
91,1,null,"""",image-keyboard-response,185,520206,0.0-185.0,"""",jspsych/neutralFaces/BM12NES.JPG,"""",256,Cue,Test,null,16,"""","""","""","""","""","""","""","""",1,4/22/2021 8:25,93.40.224.54,Mozilla/5.0 (Windows NT 10.0; Win64; x64; rv:88.0) Gecko/20100101 Firefox/88.0,,Firefox,88,Windows,10
91,1,null,"""",image-keyboard-response,186,520320,0.0-186.0,"""",jspsych/neutralFaces/AM35NES.JPG,"""",256,backwardMask,Test,null,100,"""","""","""","""","""","""","""","""",1,4/22/2021 8:25,93.40.224.54,Mozilla/5.0 (Windows NT 10.0; Win64; x64; rv:88.0) Gecko/20100101 Firefox/88.0,,Firefox,88,Windows,10
91,1,null,"""",html-keyboard-response,187,521324,0.0-187.0,"""","<div style=""font-size:60px;"">+</div>","""",256,fixationBtwnNeutralMaskAndPrompt,Test,null,1000,"""","""","""","""","""","""","""","""",1,4/22/2021 8:25,93.40.224.54,Mozilla/5.0 (Windows NT 10.0; Win64; x64; rv:88.0) Gecko/20100101 Firefox/88.0,,Firefox,88,Windows,10
91,1,1296,"""",html-button-response,188,522624,0.0-188.0,"""","<img src='jspsych/CFDfaces/CFD-AF-228-173-N.jpg' height=""250px"">,</br><b>Amanda</b>",1,256,IntactOrRearranged,Test,"""","""","""","""",CFD-LF-208-127-N.jpg,Jordan,1,1,"""","""",1,4/22/2021 8:25,93.40.224.54,Mozilla/5.0 (Windows NT 10.0; Win64; x64; rv:88.0) Gecko/20100101 Firefox/88.0,,Firefox,88,Windows,10
91,1,1306,"""",html-slider-response,189,523930,0.0-189.0,"""","<img src='jspsych/CFDfaces/CFD-AF-228-173-N.jpg' height=""250px"">,</br><b>Amanda</b>","""",256,ConfidenceQuery,Test,"""","""","""","""",CFD-LF-208-127-N.jpg,Jordan,1,"""",0,100,1,4/22/2021 8:25,93.40.224.54,Mozilla/5.0 (Windows NT 10.0; Win64; x64; rv:88.0) Gecko/20100101 Firefox/88.0,,Firefox,88,Windows,10
91,1,null,"""",html-keyboard-response,190,524934,0.0-190.0,"""","<div style=""font-size:60px;"">+</div>","""",256,ITI,Test,null,1000,"""","""","""","""","""","""","""","""",1,4/22/2021 8:25,93.40.224.54,Mozilla/5.0 (Windows NT 10.0; Win64; x64; rv:88.0) Gecko/20100101 Firefox/88.0,,Firefox,88,Windows,10
91,1,null,"""",image-keyboard-response,191,525197,0.0-191.0,"""",jspsych/scrambledDisgustFaces/scrambledAF34DIS.JPG,"""",256,forwardMask,Test,null,250,"""",d,"""","""","""","""","""","""",1,4/22/2021 8:25,93.40.224.54,Mozilla/5.0 (Windows NT 10.0; Win64; x64; rv:88.0) Gecko/20100101 Firefox/88.0,,Firefox,88,Windows,10
91,1,null,"""",image-keyboard-response,192,525225,0.0-192.0,"""",jspsych/disgustFaces/AF34DIS.JPG,"""",256,Cue,Test,null,16,"""","""","""","""","""","""","""","""",1,4/22/2021 8:25,93.40.224.54,Mozilla/5.0 (Windows NT 10.0; Win64; x64; rv:88.0) Gecko/20100101 Firefox/88.0,,Firefox,88,Windows,10
91,1,null,"""",image-keyboard-response,193,525345,0.0-193.0,"""",jspsych/neutralFaces/BF09NES.JPG,"""",256,backwardMask,Test,null,100,"""","""","""","""","""","""","""","""",1,4/22/2021 8:25,93.40.224.54,Mozilla/5.0 (Windows NT 10.0; Win64; x64; rv:88.0) Gecko/20100101 Firefox/88.0,,Firefox,88,Windows,10
91,1,null,"""",html-keyboard-response,194,526350,0.0-194.0,"""","<div style=""font-size:60px;"">+</div>","""",256,fixationBtwnNeutralMaskAndPrompt,Test,null,1000,"""","""","""","""","""","""","""","""",1,4/22/2021 8:25,93.40.224.54,Mozilla/5.0 (Windows NT 10.0; Win64; x64; rv:88.0) Gecko/20100101 Firefox/88.0,,Firefox,88,Windows,10
91,1,1269,"""",html-button-response,195,527620,0.0-195.0,"""","<img src='jspsych/CFDfaces/CFD-WM-020-001-N.jpg' height=""250px"">,</br><b>James</b>",1,256,IntactOrRearranged,Test,"""","""","""","""",CFD-BF-212-315-N.jpg,Lauren,1,1,"""","""",1,4/22/2021 8:25,93.40.224.54,Mozilla/5.0 (Windows NT 10.0; Win64; x64; rv:88.0) Gecko/20100101 Firefox/88.0,,Firefox,88,Windows,10
91,1,1287,"""",html-slider-response,196,528915,0.0-196.0,"""","<img src='jspsych/CFDfaces/CFD-WM-020-001-N.jpg' height=""250px"">,</br><b>James</b>","""",256,ConfidenceQuery,Test,"""","""","""","""",CFD-BF-212-315-N.jpg,Lauren,1,"""",0,74,1,4/22/2021 8:25,93.40.224.54,Mozilla/5.0 (Windows NT 10.0; Win64; x64; rv:88.0) Gecko/20100101 Firefox/88.0,,Firefox,88,Windows,10
91,1,null,"""",html-keyboard-response,197,529916,0.0-197.0,"""","<div style=""font-size:60px;"">+</div>","""",256,ITI,Test,null,1000,"""","""","""","""","""","""","""","""",1,4/22/2021 8:25,93.40.224.54,Mozilla/5.0 (Windows NT 10.0; Win64; x64; rv:88.0) Gecko/20100101 Firefox/88.0,,Firefox,88,Windows,10
91,1,null,"""",image-keyboard-response,198,530181,0.0-198.0,"""",jspsych/scrambledDisgustFaces/scrambledAF16DIS.JPG,"""",256,forwardMask,Test,null,250,"""",d,"""","""","""","""","""","""",1,4/22/2021 8:25,93.40.224.54,Mozilla/5.0 (Windows NT 10.0; Win64; x64; rv:88.0) Gecko/20100101 Firefox/88.0,,Firefox,88,Windows,10
91,1,null,"""",image-keyboard-response,199,530209,0.0-199.0,"""",jspsych/disgustFaces/AF16DIS.JPG,"""",256,Cue,Test,null,16,"""","""","""","""","""","""","""","""",1,4/22/2021 8:25,93.40.224.54,Mozilla/5.0 (Windows NT 10.0; Win64; x64; rv:88.0) Gecko/20100101 Firefox/88.0,,Firefox,88,Windows,10
91,1,null,"""",image-keyboard-response,200,530326,0.0-200.0,"""",jspsych/neutralFaces/AF02NES.JPG,"""",256,backwardMask,Test,null,100,"""","""","""","""","""","""","""","""",1,4/22/2021 8:25,93.40.224.54,Mozilla/5.0 (Windows NT 10.0; Win64; x64; rv:88.0) Gecko/20100101 Firefox/88.0,,Firefox,88,Windows,10
91,1,null,"""",html-keyboard-response,201,531330,0.0-201.0,"""","<div style=""font-size:60px;"">+</div>","""",256,fixationBtwnNeutralMaskAndPrompt,Test,null,1000,"""","""","""","""","""","""","""","""",1,4/22/2021 8:25,93.40.224.54,Mozilla/5.0 (Windows NT 10.0; Win64; x64; rv:88.0) Gecko/20100101 Firefox/88.0,,Firefox,88,Windows,10
91,1,1858,"""",html-button-response,202,533189,0.0-202.0,"""","<img src='jspsych/CFDfaces/CFD-LM-234-176-N.jpg' height=""250px"">,</br><b>Ian</b>",0,256,IntactOrRearranged,Test,"""","""","""","""",CFD-AM-205-153-N.jpg,Jacob,0,0,"""","""",1,4/22/2021 8:25,93.40.224.54,Mozilla/5.0 (Windows NT 10.0; Win64; x64; rv:88.0) Gecko/20100101 Firefox/88.0,,Firefox,88,Windows,10
91,1,1212,"""",html-slider-response,203,534403,0.0-203.0,"""","<img src='jspsych/CFDfaces/CFD-LM-234-176-N.jpg' height=""250px"">,</br><b>Ian</b>","""",256,ConfidenceQuery,Test,"""","""","""","""",CFD-AM-205-153-N.jpg,Jacob,0,"""",0,100,1,4/22/2021 8:25,93.40.224.54,Mozilla/5.0 (Windows NT 10.0; Win64; x64; rv:88.0) Gecko/20100101 Firefox/88.0,,Firefox,88,Windows,10
91,1,null,"""",html-keyboard-response,204,535416,0.0-204.0,"""","<div style=""font-size:60px;"">+</div>","""",256,ITI,Test,null,1000,"""","""","""","""","""","""","""","""",1,4/22/2021 8:25,93.40.224.54,Mozilla/5.0 (Windows NT 10.0; Win64; x64; rv:88.0) Gecko/20100101 Firefox/88.0,,Firefox,88,Windows,10
91,1,null,"""",image-keyboard-response,205,535680,0.0-205.0,"""",jspsych/scrambledNeutralFaces/scrambledAM22NES.JPG,"""",256,forwardMask,Test,null,250,"""",n,"""","""","""","""","""","""",1,4/22/2021 8:25,93.40.224.54,Mozilla/5.0 (Windows NT 10.0; Win64; x64; rv:88.0) Gecko/20100101 Firefox/88.0,,Firefox,88,Windows,10
91,1,null,"""",image-keyboard-response,206,535711,0.0-206.0,"""",jspsych/neutralFaces/AM22NES.JPG,"""",256,Cue,Test,null,16,"""","""","""","""","""","""","""","""",1,4/22/2021 8:25,93.40.224.54,Mozilla/5.0 (Windows NT 10.0; Win64; x64; rv:88.0) Gecko/20100101 Firefox/88.0,,Firefox,88,Windows,10
91,1,null,"""",image-keyboard-response,207,535828,0.0-207.0,"""",jspsych/neutralFaces/AM03NES.JPG,"""",256,backwardMask,Test,null,100,"""","""","""","""","""","""","""","""",1,4/22/2021 8:25,93.40.224.54,Mozilla/5.0 (Windows NT 10.0; Win64; x64; rv:88.0) Gecko/20100101 Firefox/88.0,,Firefox,88,Windows,10
91,1,null,"""",html-keyboard-response,208,536841,0.0-208.0,"""","<div style=""font-size:60px;"">+</div>","""",256,fixationBtwnNeutralMaskAndPrompt,Test,null,1000,"""","""","""","""","""","""","""","""",1,4/22/2021 8:25,93.40.224.54,Mozilla/5.0 (Windows NT 10.0; Win64; x64; rv:88.0) Gecko/20100101 Firefox/88.0,,Firefox,88,Windows,10
91,1,1970,"""",html-button-response,209,538812,0.0-209.0,"""","<img src='jspsych/CFDfaces/CFD-LM-252-076-N.jpg' height=""250px"">,</br><b>Peter</b>",0,256,IntactOrRearranged,Test,"""","""","""","""",CFD-BM-029-024-N.jpg,Travis,0,0,"""","""",1,4/22/2021 8:25,93.40.224.54,Mozilla/5.0 (Windows NT 10.0; Win64; x64; rv:88.0) Gecko/20100101 Firefox/88.0,,Firefox,88,Windows,10
91,1,1268,"""",html-slider-response,210,540084,0.0-210.0,"""","<img src='jspsych/CFDfaces/CFD-LM-252-076-N.jpg' height=""250px"">,</br><b>Peter</b>","""",256,ConfidenceQuery,Test,"""","""","""","""",CFD-BM-029-024-N.jpg,Travis,0,"""",0,100,1,4/22/2021 8:25,93.40.224.54,Mozilla/5.0 (Windows NT 10.0; Win64; x64; rv:88.0) Gecko/20100101 Firefox/88.0,,Firefox,88,Windows,10
91,1,null,"""",html-keyboard-response,211,541101,0.0-211.0,"""","<div style=""font-size:60px;"">+</div>","""",256,ITI,Test,null,1000,"""","""","""","""","""","""","""","""",1,4/22/2021 8:25,93.40.224.54,Mozilla/5.0 (Windows NT 10.0; Win64; x64; rv:88.0) Gecko/20100101 Firefox/88.0,,Firefox,88,Windows,10
91,1,null,"""",image-keyboard-response,212,541365,0.0-212.0,"""",jspsych/scrambledDisgustFaces/scrambledAM20DIS.JPG,"""",256,forwardMask,Test,null,250,"""",d,"""","""","""","""","""","""",1,4/22/2021 8:25,93.40.224.54,Mozilla/5.0 (Windows NT 10.0; Win64; x64; rv:88.0) Gecko/20100101 Firefox/88.0,,Firefox,88,Windows,10
91,1,null,"""",image-keyboard-response,213,541392,0.0-213.0,"""",jspsych/disgustFaces/AM20DIS.JPG,"""",256,Cue,Test,null,16,"""","""","""","""","""","""","""","""",1,4/22/2021 8:25,93.40.224.54,Mozilla/5.0 (Windows NT 10.0; Win64; x64; rv:88.0) Gecko/20100101 Firefox/88.0,,Firefox,88,Windows,10
91,1,null,"""",image-keyboard-response,214,541512,0.0-214.0,"""",jspsych/neutralFaces/AM28NES.JPG,"""",256,backwardMask,Test,null,100,"""","""","""","""","""","""","""","""",1,4/22/2021 8:25,93.40.224.54,Mozilla/5.0 (Windows NT 10.0; Win64; x64; rv:88.0) Gecko/20100101 Firefox/88.0,,Firefox,88,Windows,10
91,1,null,"""",html-keyboard-response,215,542525,0.0-215.0,"""","<div style=""font-size:60px;"">+</div>","""",256,fixationBtwnNeutralMaskAndPrompt,Test,null,1000,"""","""","""","""","""","""","""","""",1,4/22/2021 8:25,93.40.224.54,Mozilla/5.0 (Windows NT 10.0; Win64; x64; rv:88.0) Gecko/20100101 Firefox/88.0,,Firefox,88,Windows,10
91,1,1191,"""",html-button-response,216,543719,0.0-216.0,"""","<img src='jspsych/CFDfaces/CFD-BF-201-080-N.jpg' height=""250px"">,</br><b>Emily</b>",1,256,IntactOrRearranged,Test,"""","""","""","""",CFD-LM-220-329-N.jpg,Vincent,1,1,"""","""",1,4/22/2021 8:25,93.40.224.54,Mozilla/5.0 (Windows NT 10.0; Win64; x64; rv:88.0) Gecko/20100101 Firefox/88.0,,Firefox,88,Windows,10
91,1,900,"""",html-slider-response,217,544620,0.0-217.0,"""","<img src='jspsych/CFDfaces/CFD-BF-201-080-N.jpg' height=""250px"">,</br><b>Emily</b>","""",256,ConfidenceQuery,Test,"""","""","""","""",CFD-LM-220-329-N.jpg,Vincent,1,"""",0,100,1,4/22/2021 8:25,93.40.224.54,Mozilla/5.0 (Windows NT 10.0; Win64; x64; rv:88.0) Gecko/20100101 Firefox/88.0,,Firefox,88,Windows,10
91,1,null,"""",html-keyboard-response,218,545631,0.0-218.0,"""","<div style=""font-size:60px;"">+</div>","""",256,ITI,Test,null,1000,"""","""","""","""","""","""","""","""",1,4/22/2021 8:25,93.40.224.54,Mozilla/5.0 (Windows NT 10.0; Win64; x64; rv:88.0) Gecko/20100101 Firefox/88.0,,Firefox,88,Windows,10
91,1,null,"""",image-keyboard-response,219,545890,0.0-219.0,"""",jspsych/scrambledNeutralFaces/scrambledBF15NES.JPG,"""",256,forwardMask,Test,null,250,"""",n,"""","""","""","""","""","""",1,4/22/2021 8:25,93.40.224.54,Mozilla/5.0 (Windows NT 10.0; Win64; x64; rv:88.0) Gecko/20100101 Firefox/88.0,,Firefox,88,Windows,10
91,1,null,"""",image-keyboard-response,220,545921,0.0-220.0,"""",jspsych/neutralFaces/BF15NES.JPG,"""",256,Cue,Test,null,16,"""","""","""","""","""","""","""","""",1,4/22/2021 8:25,93.40.224.54,Mozilla/5.0 (Windows NT 10.0; Win64; x64; rv:88.0) Gecko/20100101 Firefox/88.0,,Firefox,88,Windows,10
91,1,null,"""",image-keyboard-response,221,546034,0.0-221.0,"""",jspsych/neutralFaces/AF26NES.JPG,"""",256,backwardMask,Test,null,100,"""","""","""","""","""","""","""","""",1,4/22/2021 8:25,93.40.224.54,Mozilla/5.0 (Windows NT 10.0; Win64; x64; rv:88.0) Gecko/20100101 Firefox/88.0,,Firefox,88,Windows,10
91,1,null,"""",html-keyboard-response,222,547046,0.0-222.0,"""","<div style=""font-size:60px;"">+</div>","""",256,fixationBtwnNeutralMaskAndPrompt,Test,null,1000,"""","""","""","""","""","""","""","""",1,4/22/2021 8:25,93.40.224.54,Mozilla/5.0 (Windows NT 10.0; Win64; x64; rv:88.0) Gecko/20100101 Firefox/88.0,,Firefox,88,Windows,10
91,1,2701,"""",html-button-response,223,549748,0.0-223.0,"""","<img src='jspsych/CFDfaces/CFD-WF-204-038-N.jpg' height=""250px"">,</br><b>Christina</b>",0,256,IntactOrRearranged,Test,"""","""","""","""",CFD-LF-243-175-N.jpg,Melissa,1,0,"""","""",1,4/22/2021 8:25,93.40.224.54,Mozilla/5.0 (Windows NT 10.0; Win64; x64; rv:88.0) Gecko/20100101 Firefox/88.0,,Firefox,88,Windows,10
91,1,1202,"""",html-slider-response,224,550953,0.0-224.0,"""","<img src='jspsych/CFDfaces/CFD-WF-204-038-N.jpg' height=""250px"">,</br><b>Christina</b>","""",256,ConfidenceQuery,Test,"""","""","""","""",CFD-LF-243-175-N.jpg,Melissa,1,"""",0,29,1,4/22/2021 8:25,93.40.224.54,Mozilla/5.0 (Windows NT 10.0; Win64; x64; rv:88.0) Gecko/20100101 Firefox/88.0,,Firefox,88,Windows,10
91,1,null,"""",html-keyboard-response,225,551966,0.0-225.0,"""","<div style=""font-size:60px;"">+</div>","""",256,ITI,Test,null,1000,"""","""","""","""","""","""","""","""",1,4/22/2021 8:25,93.40.224.54,Mozilla/5.0 (Windows NT 10.0; Win64; x64; rv:88.0) Gecko/20100101 Firefox/88.0,,Firefox,88,Windows,10
91,1,null,"""",image-keyboard-response,226,552231,0.0-226.0,"""",jspsych/scrambledDisgustFaces/scrambledBF27DIS.JPG,"""",256,forwardMask,Test,null,250,"""",d,"""","""","""","""","""","""",1,4/22/2021 8:25,93.40.224.54,Mozilla/5.0 (Windows NT 10.0; Win64; x64; rv:88.0) Gecko/20100101 Firefox/88.0,,Firefox,88,Windows,10
91,1,null,"""",image-keyboard-response,227,552258,0.0-227.0,"""",jspsych/disgustFaces/BF27DIS.JPG,"""",256,Cue,Test,null,16,"""","""","""","""","""","""","""","""",1,4/22/2021 8:25,93.40.224.54,Mozilla/5.0 (Windows NT 10.0; Win64; x64; rv:88.0) Gecko/20100101 Firefox/88.0,,Firefox,88,Windows,10
91,1,null,"""",image-keyboard-response,228,552362,0.0-228.0,"""",jspsych/neutralFaces/BF15NES.JPG,"""",256,backwardMask,Test,null,100,"""","""","""","""","""","""","""","""",1,4/22/2021 8:25,93.40.224.54,Mozilla/5.0 (Windows NT 10.0; Win64; x64; rv:88.0) Gecko/20100101 Firefox/88.0,,Firefox,88,Windows,10
91,1,null,"""",html-keyboard-response,229,553364,0.0-229.0,"""","<div style=""font-size:60px;"">+</div>","""",256,fixationBtwnNeutralMaskAndPrompt,Test,null,1000,"""","""","""","""","""","""","""","""",1,4/22/2021 8:25,93.40.224.54,Mozilla/5.0 (Windows NT 10.0; Win64; x64; rv:88.0) Gecko/20100101 Firefox/88.0,,Firefox,88,Windows,10
91,1,1289,"""",html-button-response,230,554654,0.0-230.0,"""","<img src='jspsych/CFDfaces/CFD-WF-202-056-N.jpg' height=""250px"">,</br><b>Meghan</b>",0,256,IntactOrRearranged,Test,"""","""","""","""",CFD-LF-201-035-N.jpg,Jasmine,0,0,"""","""",1,4/22/2021 8:25,93.40.224.54,Mozilla/5.0 (Windows NT 10.0; Win64; x64; rv:88.0) Gecko/20100101 Firefox/88.0,,Firefox,88,Windows,10
91,1,1057,"""",html-slider-response,231,555712,0.0-231.0,"""","<img src='jspsych/CFDfaces/CFD-WF-202-056-N.jpg' height=""250px"">,</br><b>Meghan</b>","""",256,ConfidenceQuery,Test,"""","""","""","""",CFD-LF-201-035-N.jpg,Jasmine,0,"""",0,100,1,4/22/2021 8:25,93.40.224.54,Mozilla/5.0 (Windows NT 10.0; Win64; x64; rv:88.0) Gecko/20100101 Firefox/88.0,,Firefox,88,Windows,10
91,1,null,"""",html-keyboard-response,232,556714,0.0-232.0,"""","<div style=""font-size:60px;"">+</div>","""",256,ITI,Test,null,1000,"""","""","""","""","""","""","""","""",1,4/22/2021 8:25,93.40.224.54,Mozilla/5.0 (Windows NT 10.0; Win64; x64; rv:88.0) Gecko/20100101 Firefox/88.0,,Firefox,88,Windows,10
91,1,null,"""",image-keyboard-response,233,556986,0.0-233.0,"""",jspsych/scrambledDisgustFaces/scrambledBM21DIS.JPG,"""",256,forwardMask,Test,null,250,"""",d,"""","""","""","""","""","""",1,4/22/2021 8:25,93.40.224.54,Mozilla/5.0 (Windows NT 10.0; Win64; x64; rv:88.0) Gecko/20100101 Firefox/88.0,,Firefox,88,Windows,10
91,1,null,"""",image-keyboard-response,234,557013,0.0-234.0,"""",jspsych/disgustFaces/BM22DIS.JPG,"""",256,Cue,Test,null,16,"""","""","""","""","""","""","""","""",1,4/22/2021 8:25,93.40.224.54,Mozilla/5.0 (Windows NT 10.0; Win64; x64; rv:88.0) Gecko/20100101 Firefox/88.0,,Firefox,88,Windows,10
91,1,null,"""",image-keyboard-response,235,557123,0.0-235.0,"""",jspsych/neutralFaces/BM16NES.JPG,"""",256,backwardMask,Test,null,100,"""","""","""","""","""","""","""","""",1,4/22/2021 8:25,93.40.224.54,Mozilla/5.0 (Windows NT 10.0; Win64; x64; rv:88.0) Gecko/20100101 Firefox/88.0,,Firefox,88,Windows,10
91,1,null,"""",html-keyboard-response,236,558126,0.0-236.0,"""","<div style=""font-size:60px;"">+</div>","""",256,fixationBtwnNeutralMaskAndPrompt,Test,null,1000,"""","""","""","""","""","""","""","""",1,4/22/2021 8:25,93.40.224.54,Mozilla/5.0 (Windows NT 10.0; Win64; x64; rv:88.0) Gecko/20100101 Firefox/88.0,,Firefox,88,Windows,10
91,1,1622,"""",html-button-response,237,559749,0.0-237.0,"""","<img src='jspsych/CFDfaces/CFD-LM-224-162-N.jpg' height=""250px"">,</br><b>Joshua</b>",0,256,IntactOrRearranged,Test,"""","""","""","""",CFD-BM-027-001-N.jpg,Steven,1,0,"""","""",1,4/22/2021 8:25,93.40.224.54,Mozilla/5.0 (Windows NT 10.0; Win64; x64; rv:88.0) Gecko/20100101 Firefox/88.0,,Firefox,88,Windows,10
91,1,989,"""",html-slider-response,238,560741,0.0-238.0,"""","<img src='jspsych/CFDfaces/CFD-LM-224-162-N.jpg' height=""250px"">,</br><b>Joshua</b>","""",256,ConfidenceQuery,Test,"""","""","""","""",CFD-BM-027-001-N.jpg,Steven,1,"""",0,45,1,4/22/2021 8:25,93.40.224.54,Mozilla/5.0 (Windows NT 10.0; Win64; x64; rv:88.0) Gecko/20100101 Firefox/88.0,,Firefox,88,Windows,10
91,1,null,"""",html-keyboard-response,239,561754,0.0-239.0,"""","<div style=""font-size:60px;"">+</div>","""",256,ITI,Test,null,1000,"""","""","""","""","""","""","""","""",1,4/22/2021 8:25,93.40.224.54,Mozilla/5.0 (Windows NT 10.0; Win64; x64; rv:88.0) Gecko/20100101 Firefox/88.0,,Firefox,88,Windows,10
91,1,null,"""",image-keyboard-response,240,562010,0.0-240.0,"""",jspsych/scrambledDisgustFaces/scrambledAM05DIS.JPG,"""",256,forwardMask,Test,null,250,"""",d,"""","""","""","""","""","""",1,4/22/2021 8:25,93.40.224.54,Mozilla/5.0 (Windows NT 10.0; Win64; x64; rv:88.0) Gecko/20100101 Firefox/88.0,,Firefox,88,Windows,10
91,1,null,"""",image-keyboard-response,241,562036,0.0-241.0,"""",jspsych/disgustFaces/AM05DIS.JPG,"""",256,Cue,Test,null,16,"""","""","""","""","""","""","""","""",1,4/22/2021 8:25,93.40.224.54,Mozilla/5.0 (Windows NT 10.0; Win64; x64; rv:88.0) Gecko/20100101 Firefox/88.0,,Firefox,88,Windows,10
91,1,null,"""",image-keyboard-response,242,562148,0.0-242.0,"""",jspsych/neutralFaces/BM31NES.JPG,"""",256,backwardMask,Test,null,100,"""","""","""","""","""","""","""","""",1,4/22/2021 8:25,93.40.224.54,Mozilla/5.0 (Windows NT 10.0; Win64; x64; rv:88.0) Gecko/20100101 Firefox/88.0,,Firefox,88,Windows,10
91,1,null,"""",html-keyboard-response,243,563154,0.0-243.0,"""","<div style=""font-size:60px;"">+</div>","""",256,fixationBtwnNeutralMaskAndPrompt,Test,null,1000,"""","""","""","""","""","""","""","""",1,4/22/2021 8:25,93.40.224.54,Mozilla/5.0 (Windows NT 10.0; Win64; x64; rv:88.0) Gecko/20100101 Firefox/88.0,,Firefox,88,Windows,10
91,1,1995,"""",html-button-response,244,565162,0.0-244.0,"""","<img src='jspsych/CFDfaces/CFD-WF-223-133-N.jpg' height=""250px"">,</br><b>Kimberly</b>",1,256,IntactOrRearranged,Test,"""","""","""","""",CFD-AM-231-136-N.jpg,Justin,1,1,"""","""",1,4/22/2021 8:25,93.40.224.54,Mozilla/5.0 (Windows NT 10.0; Win64; x64; rv:88.0) Gecko/20100101 Firefox/88.0,,Firefox,88,Windows,10
91,1,1629,"""",html-slider-response,245,566792,0.0-245.0,"""","<img src='jspsych/CFDfaces/CFD-WF-223-133-N.jpg' height=""250px"">,</br><b>Kimberly</b>","""",256,ConfidenceQuery,Test,"""","""","""","""",CFD-AM-231-136-N.jpg,Justin,1,"""",0,78,1,4/22/2021 8:25,93.40.224.54,Mozilla/5.0 (Windows NT 10.0; Win64; x64; rv:88.0) Gecko/20100101 Firefox/88.0,,Firefox,88,Windows,10
91,1,null,"""",html-keyboard-response,246,567799,0.0-246.0,"""","<div style=""font-size:60px;"">+</div>","""",256,ITI,Test,null,1000,"""","""","""","""","""","""","""","""",1,4/22/2021 8:25,93.40.224.54,Mozilla/5.0 (Windows NT 10.0; Win64; x64; rv:88.0) Gecko/20100101 Firefox/88.0,,Firefox,88,Windows,10
91,1,null,"""",image-keyboard-response,247,568060,0.0-247.0,"""",jspsych/scrambledNeutralFaces/scrambledBF25NES.JPG,"""",256,forwardMask,Test,null,250,"""",n,"""","""","""","""","""","""",1,4/22/2021 8:25,93.40.224.54,Mozilla/5.0 (Windows NT 10.0; Win64; x64; rv:88.0) Gecko/20100101 Firefox/88.0,,Firefox,88,Windows,10
91,1,null,"""",image-keyboard-response,248,568090,0.0-248.0,"""",jspsych/neutralFaces/BF25NES.JPG,"""",256,Cue,Test,null,16,"""","""","""","""","""","""","""","""",1,4/22/2021 8:25,93.40.224.54,Mozilla/5.0 (Windows NT 10.0; Win64; x64; rv:88.0) Gecko/20100101 Firefox/88.0,,Firefox,88,Windows,10
91,1,null,"""",image-keyboard-response,249,568200,0.0-249.0,"""",jspsych/neutralFaces/BF05NES.JPG,"""",256,backwardMask,Test,null,100,"""","""","""","""","""","""","""","""",1,4/22/2021 8:25,93.40.224.54,Mozilla/5.0 (Windows NT 10.0; Win64; x64; rv:88.0) Gecko/20100101 Firefox/88.0,,Firefox,88,Windows,10
91,1,null,"""",html-keyboard-response,250,569205,0.0-250.0,"""","<div style=""font-size:60px;"">+</div>","""",256,fixationBtwnNeutralMaskAndPrompt,Test,null,1000,"""","""","""","""","""","""","""","""",1,4/22/2021 8:25,93.40.224.54,Mozilla/5.0 (Windows NT 10.0; Win64; x64; rv:88.0) Gecko/20100101 Firefox/88.0,,Firefox,88,Windows,10
91,1,1569,"""",html-button-response,251,570787,0.0-251.0,"""","<img src='jspsych/CFDfaces/CFD-LF-239-148-N.jpg' height=""250px"">,</br><b>Brittany</b>",0,256,IntactOrRearranged,Test,"""","""","""","""",CFD-BM-011-016-N.jpg,Ryan,0,0,"""","""",1,4/22/2021 8:25,93.40.224.54,Mozilla/5.0 (Windows NT 10.0; Win64; x64; rv:88.0) Gecko/20100101 Firefox/88.0,,Firefox,88,Windows,10
91,1,1291,"""",html-slider-response,252,572079,0.0-252.0,"""","<img src='jspsych/CFDfaces/CFD-LF-239-148-N.jpg' height=""250px"">,</br><b>Brittany</b>","""",256,ConfidenceQuery,Test,"""","""","""","""",CFD-BM-011-016-N.jpg,Ryan,0,"""",0,37,1,4/22/2021 8:25,93.40.224.54,Mozilla/5.0 (Windows NT 10.0; Win64; x64; rv:88.0) Gecko/20100101 Firefox/88.0,,Firefox,88,Windows,10
91,1,null,"""",html-keyboard-response,253,573084,0.0-253.0,"""","<div style=""font-size:60px;"">+</div>","""",256,ITI,Test,null,1000,"""","""","""","""","""","""","""","""",1,4/22/2021 8:25,93.40.224.54,Mozilla/5.0 (Windows NT 10.0; Win64; x64; rv:88.0) Gecko/20100101 Firefox/88.0,,Firefox,88,Windows,10
91,1,null,"""",image-keyboard-response,254,573340,0.0-254.0,"""",jspsych/scrambledNeutralFaces/scrambledBF26NES.JPG,"""",256,forwardMask,Test,null,250,"""",n,"""","""","""","""","""","""",1,4/22/2021 8:25,93.40.224.54,Mozilla/5.0 (Windows NT 10.0; Win64; x64; rv:88.0) Gecko/20100101 Firefox/88.0,,Firefox,88,Windows,10
91,1,null,"""",image-keyboard-response,255,573372,0.0-255.0,"""",jspsych/neutralFaces/BF26NES.JPG,"""",256,Cue,Test,null,16,"""","""","""","""","""","""","""","""",1,4/22/2021 8:25,93.40.224.54,Mozilla/5.0 (Windows NT 10.0; Win64; x64; rv:88.0) Gecko/20100101 Firefox/88.0,,Firefox,88,Windows,10
91,1,null,"""",image-keyboard-response,256,573480,0.0-256.0,"""",jspsych/neutralFaces/BF04NES.JPG,"""",256,backwardMask,Test,null,100,"""","""","""","""","""","""","""","""",1,4/22/2021 8:25,93.40.224.54,Mozilla/5.0 (Windows NT 10.0; Win64; x64; rv:88.0) Gecko/20100101 Firefox/88.0,,Firefox,88,Windows,10
91,1,null,"""",html-keyboard-response,257,574490,0.0-257.0,"""","<div style=""font-size:60px;"">+</div>","""",256,fixationBtwnNeutralMaskAndPrompt,Test,null,1000,"""","""","""","""","""","""","""","""",1,4/22/2021 8:25,93.40.224.54,Mozilla/5.0 (Windows NT 10.0; Win64; x64; rv:88.0) Gecko/20100101 Firefox/88.0,,Firefox,88,Windows,10
91,1,1571,"""",html-button-response,258,576063,0.0-258.0,"""","<img src='jspsych/CFDfaces/CFD-WM-215-041-N.jpg' height=""250px"">,</br><b>Brandon</b>",0,256,IntactOrRearranged,Test,"""","""","""","""",CFD-BM-211-174-N.jpg,Jesse,0,0,"""","""",1,4/22/2021 8:25,93.40.224.54,Mozilla/5.0 (Windows NT 10.0; Win64; x64; rv:88.0) Gecko/20100101 Firefox/88.0,,Firefox,88,Windows,10
91,1,1355,"""",html-slider-response,259,577424,0.0-259.0,"""","<img src='jspsych/CFDfaces/CFD-WM-215-041-N.jpg' height=""250px"">,</br><b>Brandon</b>","""",256,ConfidenceQuery,Test,"""","""","""","""",CFD-BM-211-174-N.jpg,Jesse,0,"""",0,36,1,4/22/2021 8:25,93.40.224.54,Mozilla/5.0 (Windows NT 10.0; Win64; x64; rv:88.0) Gecko/20100101 Firefox/88.0,,Firefox,88,Windows,10
91,1,null,"""",html-keyboard-response,260,578436,0.0-260.0,"""","<div style=""font-size:60px;"">+</div>","""",256,ITI,Test,null,1000,"""","""","""","""","""","""","""","""",1,4/22/2021 8:25,93.40.224.54,Mozilla/5.0 (Windows NT 10.0; Win64; x64; rv:88.0) Gecko/20100101 Firefox/88.0,,Firefox,88,Windows,10
91,1,null,"""",image-keyboard-response,261,578692,0.0-261.0,"""",jspsych/scrambledDisgustFaces/scrambledAF19DIS.JPG,"""",256,forwardMask,Test,null,250,"""",d,"""","""","""","""","""","""",1,4/22/2021 8:25,93.40.224.54,Mozilla/5.0 (Windows NT 10.0; Win64; x64; rv:88.0) Gecko/20100101 Firefox/88.0,,Firefox,88,Windows,10
91,1,null,"""",image-keyboard-response,262,578726,0.0-262.0,"""",jspsych/disgustFaces/AF19DIS.JPG,"""",256,Cue,Test,null,16,"""","""","""","""","""","""","""","""",1,4/22/2021 8:25,93.40.224.54,Mozilla/5.0 (Windows NT 10.0; Win64; x64; rv:88.0) Gecko/20100101 Firefox/88.0,,Firefox,88,Windows,10
91,1,null,"""",image-keyboard-response,263,578838,0.0-263.0,"""",jspsych/neutralFaces/AF15NES.JPG,"""",256,backwardMask,Test,null,100,"""","""","""","""","""","""","""","""",1,4/22/2021 8:25,93.40.224.54,Mozilla/5.0 (Windows NT 10.0; Win64; x64; rv:88.0) Gecko/20100101 Firefox/88.0,,Firefox,88,Windows,10
91,1,null,"""",html-keyboard-response,264,579844,0.0-264.0,"""","<div style=""font-size:60px;"">+</div>","""",256,fixationBtwnNeutralMaskAndPrompt,Test,null,1000,"""","""","""","""","""","""","""","""",1,4/22/2021 8:25,93.40.224.54,Mozilla/5.0 (Windows NT 10.0; Win64; x64; rv:88.0) Gecko/20100101 Firefox/88.0,,Firefox,88,Windows,10
91,1,986,"""",html-button-response,265,580833,0.0-265.0,"""","<img src='jspsych/CFDfaces/CFD-LF-220-120-N.jpg' height=""250px"">,</br><b>Stephanie</b>",0,256,IntactOrRearranged,Test,"""","""","""","""",CFD-LM-233-171-N.jpg,Sean,0,0,"""","""",1,4/22/2021 8:25,93.40.224.54,Mozilla/5.0 (Windows NT 10.0; Win64; x64; rv:88.0) Gecko/20100101 Firefox/88.0,,Firefox,88,Windows,10
91,1,1494,"""",html-slider-response,266,582330,0.0-266.0,"""","<img src='jspsych/CFDfaces/CFD-LF-220-120-N.jpg' height=""250px"">,</br><b>Stephanie</b>","""",256,ConfidenceQuery,Test,"""","""","""","""",CFD-LM-233-171-N.jpg,Sean,0,"""",0,100,1,4/22/2021 8:25,93.40.224.54,Mozilla/5.0 (Windows NT 10.0; Win64; x64; rv:88.0) Gecko/20100101 Firefox/88.0,,Firefox,88,Windows,10
91,1,null,"""",html-keyboard-response,267,583337,0.0-267.0,"""","<div style=""font-size:60px;"">+</div>","""",256,ITI,Test,null,1000,"""","""","""","""","""","""","""","""",1,4/22/2021 8:25,93.40.224.54,Mozilla/5.0 (Windows NT 10.0; Win64; x64; rv:88.0) Gecko/20100101 Firefox/88.0,,Firefox,88,Windows,10
91,1,null,"""",image-keyboard-response,268,583591,0.0-268.0,"""",jspsych/scrambledDisgustFaces/scrambledBF26DIS.JPG,"""",256,forwardMask,Test,null,250,"""",d,"""","""","""","""","""","""",1,4/22/2021 8:25,93.40.224.54,Mozilla/5.0 (Windows NT 10.0; Win64; x64; rv:88.0) Gecko/20100101 Firefox/88.0,,Firefox,88,Windows,10
91,1,null,"""",image-keyboard-response,269,583619,0.0-269.0,"""",jspsych/disgustFaces/BF26DIS.JPG,"""",256,Cue,Test,null,16,"""","""","""","""","""","""","""","""",1,4/22/2021 8:25,93.40.224.54,Mozilla/5.0 (Windows NT 10.0; Win64; x64; rv:88.0) Gecko/20100101 Firefox/88.0,,Firefox,88,Windows,10
91,1,null,"""",image-keyboard-response,270,583736,0.0-270.0,"""",jspsych/neutralFaces/BF29NES.JPG,"""",256,backwardMask,Test,null,100,"""","""","""","""","""","""","""","""",1,4/22/2021 8:25,93.40.224.54,Mozilla/5.0 (Windows NT 10.0; Win64; x64; rv:88.0) Gecko/20100101 Firefox/88.0,,Firefox,88,Windows,10
91,1,null,"""",html-keyboard-response,271,584740,0.0-271.0,"""","<div style=""font-size:60px;"">+</div>","""",256,fixationBtwnNeutralMaskAndPrompt,Test,null,1000,"""","""","""","""","""","""","""","""",1,4/22/2021 8:25,93.40.224.54,Mozilla/5.0 (Windows NT 10.0; Win64; x64; rv:88.0) Gecko/20100101 Firefox/88.0,,Firefox,88,Windows,10
91,1,2694,"""",html-button-response,272,587436,0.0-272.0,"""","<img src='jspsych/CFDfaces/CFD-AM-207-108-N.jpg' height=""250px"">,</br><b>Eric</b>",0,256,IntactOrRearranged,Test,"""","""","""","""",CFD-WM-237-052-N.jpg,Jeremy,1,0,"""","""",1,4/22/2021 8:25,93.40.224.54,Mozilla/5.0 (Windows NT 10.0; Win64; x64; rv:88.0) Gecko/20100101 Firefox/88.0,,Firefox,88,Windows,10
91,1,1124,"""",html-slider-response,273,588561,0.0-273.0,"""","<img src='jspsych/CFDfaces/CFD-AM-207-108-N.jpg' height=""250px"">,</br><b>Eric</b>","""",256,ConfidenceQuery,Test,"""","""","""","""",CFD-WM-237-052-N.jpg,Jeremy,1,"""",0,25,1,4/22/2021 8:25,93.40.224.54,Mozilla/5.0 (Windows NT 10.0; Win64; x64; rv:88.0) Gecko/20100101 Firefox/88.0,,Firefox,88,Windows,10
91,1,null,"""",html-keyboard-response,274,589576,0.0-274.0,"""","<div style=""font-size:60px;"">+</div>","""",256,ITI,Test,null,1000,"""","""","""","""","""","""","""","""",1,4/22/2021 8:25,93.40.224.54,Mozilla/5.0 (Windows NT 10.0; Win64; x64; rv:88.0) Gecko/20100101 Firefox/88.0,,Firefox,88,Windows,10
91,1,null,"""",image-keyboard-response,275,589841,0.0-275.0,"""",jspsych/scrambledNeutralFaces/scrambledBF06NES.JPG,"""",256,forwardMask,Test,null,250,"""",n,"""","""","""","""","""","""",1,4/22/2021 8:25,93.40.224.54,Mozilla/5.0 (Windows NT 10.0; Win64; x64; rv:88.0) Gecko/20100101 Firefox/88.0,,Firefox,88,Windows,10
91,1,null,"""",image-keyboard-response,276,589863,0.0-276.0,"""",jspsych/neutralFaces/BF06NES.JPG,"""",256,Cue,Test,null,16,"""","""","""","""","""","""","""","""",1,4/22/2021 8:25,93.40.224.54,Mozilla/5.0 (Windows NT 10.0; Win64; x64; rv:88.0) Gecko/20100101 Firefox/88.0,,Firefox,88,Windows,10
91,1,null,"""",image-keyboard-response,277,589971,0.0-277.0,"""",jspsych/neutralFaces/BF35NES.JPG,"""",256,backwardMask,Test,null,100,"""","""","""","""","""","""","""","""",1,4/22/2021 8:25,93.40.224.54,Mozilla/5.0 (Windows NT 10.0; Win64; x64; rv:88.0) Gecko/20100101 Firefox/88.0,,Firefox,88,Windows,10
91,1,null,"""",html-keyboard-response,278,590973,0.0-278.0,"""","<div style=""font-size:60px;"">+</div>","""",256,fixationBtwnNeutralMaskAndPrompt,Test,null,1000,"""","""","""","""","""","""","""","""",1,4/22/2021 8:25,93.40.224.54,Mozilla/5.0 (Windows NT 10.0; Win64; x64; rv:88.0) Gecko/20100101 Firefox/88.0,,Firefox,88,Windows,10
91,1,1421,"""",html-button-response,279,592397,0.0-279.0,"""","<img src='jspsych/CFDfaces/CFD-BM-022-022-N.jpg' height=""250px"">,</br><b>Christian</b>",1,256,IntactOrRearranged,Test,"""","""","""","""",CFD-BF-047-003-N.jpg,Tiffany,1,1,"""","""",1,4/22/2021 8:25,93.40.224.54,Mozilla/5.0 (Windows NT 10.0; Win64; x64; rv:88.0) Gecko/20100101 Firefox/88.0,,Firefox,88,Windows,10
91,1,1394,"""",html-slider-response,280,593792,0.0-280.0,"""","<img src='jspsych/CFDfaces/CFD-BM-022-022-N.jpg' height=""250px"">,</br><b>Christian</b>","""",256,ConfidenceQuery,Test,"""","""","""","""",CFD-BF-047-003-N.jpg,Tiffany,1,"""",0,60,1,4/22/2021 8:25,93.40.224.54,Mozilla/5.0 (Windows NT 10.0; Win64; x64; rv:88.0) Gecko/20100101 Firefox/88.0,,Firefox,88,Windows,10
91,1,null,"""",html-keyboard-response,281,594805,0.0-281.0,"""","<div style=""font-size:60px;"">+</div>","""",256,ITI,Test,null,1000,"""","""","""","""","""","""","""","""",1,4/22/2021 8:25,93.40.224.54,Mozilla/5.0 (Windows NT 10.0; Win64; x64; rv:88.0) Gecko/20100101 Firefox/88.0,,Firefox,88,Windows,10
91,1,null,"""",image-keyboard-response,282,595080,0.0-282.0,"""",jspsych/scrambledDisgustFaces/scrambledAF11DIS.JPG,"""",256,forwardMask,Test,null,250,"""",d,"""","""","""","""","""","""",1,4/22/2021 8:25,93.40.224.54,Mozilla/5.0 (Windows NT 10.0; Win64; x64; rv:88.0) Gecko/20100101 Firefox/88.0,,Firefox,88,Windows,10
91,1,null,"""",image-keyboard-response,283,595106,0.0-283.0,"""",jspsych/disgustFaces/AF11DIS.JPG,"""",256,Cue,Test,null,16,"""","""","""","""","""","""","""","""",1,4/22/2021 8:25,93.40.224.54,Mozilla/5.0 (Windows NT 10.0; Win64; x64; rv:88.0) Gecko/20100101 Firefox/88.0,,Firefox,88,Windows,10
91,1,null,"""",image-keyboard-response,284,595224,0.0-284.0,"""",jspsych/neutralFaces/AF30NES.JPG,"""",256,backwardMask,Test,null,100,"""","""","""","""","""","""","""","""",1,4/22/2021 8:25,93.40.224.54,Mozilla/5.0 (Windows NT 10.0; Win64; x64; rv:88.0) Gecko/20100101 Firefox/88.0,,Firefox,88,Windows,10
91,1,null,"""",html-keyboard-response,285,596241,0.0-285.0,"""","<div style=""font-size:60px;"">+</div>","""",256,fixationBtwnNeutralMaskAndPrompt,Test,null,1000,"""","""","""","""","""","""","""","""",1,4/22/2021 8:25,93.40.224.54,Mozilla/5.0 (Windows NT 10.0; Win64; x64; rv:88.0) Gecko/20100101 Firefox/88.0,,Firefox,88,Windows,10
91,1,1377,"""",html-button-response,286,597619,0.0-286.0,"""","<img src='jspsych/CFDfaces/CFD-LF-210-220-N.jpg' height=""250px"">,</br><b>Victoria</b>",1,256,IntactOrRearranged,Test,"""","""","""","""",CFD-LF-236-221-N.jpg,Amy,1,1,"""","""",1,4/22/2021 8:25,93.40.224.54,Mozilla/5.0 (Windows NT 10.0; Win64; x64; rv:88.0) Gecko/20100101 Firefox/88.0,,Firefox,88,Windows,10
91,1,1178,"""",html-slider-response,287,598798,0.0-287.0,"""","<img src='jspsych/CFDfaces/CFD-LF-210-220-N.jpg' height=""250px"">,</br><b>Victoria</b>","""",256,ConfidenceQuery,Test,"""","""","""","""",CFD-LF-236-221-N.jpg,Amy,1,"""",0,63,1,4/22/2021 8:25,93.40.224.54,Mozilla/5.0 (Windows NT 10.0; Win64; x64; rv:88.0) Gecko/20100101 Firefox/88.0,,Firefox,88,Windows,10
91,1,null,"""",html-keyboard-response,288,599806,0.0-288.0,"""","<div style=""font-size:60px;"">+</div>","""",256,ITI,Test,null,1000,"""","""","""","""","""","""","""","""",1,4/22/2021 8:25,93.40.224.54,Mozilla/5.0 (Windows NT 10.0; Win64; x64; rv:88.0) Gecko/20100101 Firefox/88.0,,Firefox,88,Windows,10
91,1,null,"""",image-keyboard-response,289,600070,0.0-289.0,"""",jspsych/scrambledNeutralFaces/scrambledAM14NES.JPG,"""",256,forwardMask,Test,null,250,"""",n,"""","""","""","""","""","""",1,4/22/2021 8:25,93.40.224.54,Mozilla/5.0 (Windows NT 10.0; Win64; x64; rv:88.0) Gecko/20100101 Firefox/88.0,,Firefox,88,Windows,10
91,1,null,"""",image-keyboard-response,290,600098,0.0-290.0,"""",jspsych/neutralFaces/AM14NES.JPG,"""",256,Cue,Test,null,16,"""","""","""","""","""","""","""","""",1,4/22/2021 8:25,93.40.224.54,Mozilla/5.0 (Windows NT 10.0; Win64; x64; rv:88.0) Gecko/20100101 Firefox/88.0,,Firefox,88,Windows,10
91,1,null,"""",image-keyboard-response,291,600209,0.0-291.0,"""",jspsych/neutralFaces/AM07NES.JPG,"""",256,backwardMask,Test,null,100,"""","""","""","""","""","""","""","""",1,4/22/2021 8:25,93.40.224.54,Mozilla/5.0 (Windows NT 10.0; Win64; x64; rv:88.0) Gecko/20100101 Firefox/88.0,,Firefox,88,Windows,10
91,1,null,"""",html-keyboard-response,292,601216,0.0-292.0,"""","<div style=""font-size:60px;"">+</div>","""",256,fixationBtwnNeutralMaskAndPrompt,Test,null,1000,"""","""","""","""","""","""","""","""",1,4/22/2021 8:25,93.40.224.54,Mozilla/5.0 (Windows NT 10.0; Win64; x64; rv:88.0) Gecko/20100101 Firefox/88.0,,Firefox,88,Windows,10
91,1,1375,"""",html-button-response,293,602624,0.0-293.0,"""","<img src='jspsych/CFDfaces/CFD-WM-216-061-N.jpg' height=""250px"">,</br><b>Brian</b>",0,256,IntactOrRearranged,Test,"""","""","""","""",CFD-WF-006-002-N.jpg,Jenna,0,0,"""","""",1,4/22/2021 8:25,93.40.224.54,Mozilla/5.0 (Windows NT 10.0; Win64; x64; rv:88.0) Gecko/20100101 Firefox/88.0,,Firefox,88,Windows,10
91,1,1032,"""",html-slider-response,294,603658,0.0-294.0,"""","<img src='jspsych/CFDfaces/CFD-WM-216-061-N.jpg' height=""250px"">,</br><b>Brian</b>","""",256,ConfidenceQuery,Test,"""","""","""","""",CFD-WF-006-002-N.jpg,Jenna,0,"""",0,100,1,4/22/2021 8:25,93.40.224.54,Mozilla/5.0 (Windows NT 10.0; Win64; x64; rv:88.0) Gecko/20100101 Firefox/88.0,,Firefox,88,Windows,10
91,1,null,"""",html-keyboard-response,295,604664,0.0-295.0,"""","<div style=""font-size:60px;"">+</div>","""",256,ITI,Test,null,1000,"""","""","""","""","""","""","""","""",1,4/22/2021 8:25,93.40.224.54,Mozilla/5.0 (Windows NT 10.0; Win64; x64; rv:88.0) Gecko/20100101 Firefox/88.0,,Firefox,88,Windows,10
91,1,null,"""",image-keyboard-response,296,604919,0.0-296.0,"""",jspsych/scrambledDisgustFaces/scrambledBF12DIS.JPG,"""",256,forwardMask,Test,null,250,"""",d,"""","""","""","""","""","""",1,4/22/2021 8:25,93.40.224.54,Mozilla/5.0 (Windows NT 10.0; Win64; x64; rv:88.0) Gecko/20100101 Firefox/88.0,,Firefox,88,Windows,10
91,1,null,"""",image-keyboard-response,297,604944,0.0-297.0,"""",jspsych/disgustFaces/BF12DIS.JPG,"""",256,Cue,Test,null,16,"""","""","""","""","""","""","""","""",1,4/22/2021 8:25,93.40.224.54,Mozilla/5.0 (Windows NT 10.0; Win64; x64; rv:88.0) Gecko/20100101 Firefox/88.0,,Firefox,88,Windows,10
91,1,null,"""",image-keyboard-response,298,605048,0.0-298.0,"""",jspsych/neutralFaces/BF17NES.JPG,"""",256,backwardMask,Test,null,100,"""","""","""","""","""","""","""","""",1,4/22/2021 8:25,93.40.224.54,Mozilla/5.0 (Windows NT 10.0; Win64; x64; rv:88.0) Gecko/20100101 Firefox/88.0,,Firefox,88,Windows,10
