run_id,condition,rt,responses,trial_type,trial_index,time_elapsed,internal_node_id,question_order,stimulus,button_pressed,iTrial,Phase,ExperimentPhase,key_press,StimulusDurationSetting,CharacterResponse,correctResponse,Face,Name,rearranged,didSubjectEnterRearranged,slider_start,response,Block,recorded_at,ip,user_agent,device,browser,browser_version,platform,platform_version
188,1,19349,"{""Q0"":""AZBUDUYIII5I0""}",survey-text,0,19352,0.0-0.0,"""","""","""","""","""","""","""","""","""","""","""","""","""","""","""","""","""",4/28/2021 17:43,72.13.157.188,Mozilla/5.0 (Windows NT 10.0; Win64; x64; rv:88.0) Gecko/20100101 Firefox/88.0,,Firefox,88,Windows,10
188,1,2082,"{""Q0"":""27""}",survey-text,1,21443,0.0-1.0,"""","""","""","""","""","""","""","""","""","""","""","""","""","""","""","""","""",4/28/2021 17:43,72.13.157.188,Mozilla/5.0 (Windows NT 10.0; Win64; x64; rv:88.0) Gecko/20100101 Firefox/88.0,,Firefox,88,Windows,10
188,1,4355,"{""Q0"":""male"",""Q1"":""Hispanic/Latino"",""Q2"":""White or Caucasian""}",survey-multi-choice,2,25801,0.0-2.0,"[0,1,2]","""","""","""","""","""","""","""","""","""","""","""","""","""","""","""","""",4/28/2021 17:43,72.13.157.188,Mozilla/5.0 (Windows NT 10.0; Win64; x64; rv:88.0) Gecko/20100101 Firefox/88.0,,Firefox,88,Windows,10
188,1,5053,"""",image-button-response,3,30878,0.0-3.0,"""",directionsMemoryAssociation1.JPG,0,1,IntroDirections1,break,"""","""","""","""","""","""","""","""","""","""","""",4/28/2021 17:43,72.13.157.188,Mozilla/5.0 (Windows NT 10.0; Win64; x64; rv:88.0) Gecko/20100101 Firefox/88.0,,Firefox,88,Windows,10
188,1,383496,"""",image-button-response,4,414378,0.0-4.0,"""",directionsMemoryAssociation2.JPG,0,1,IntroDirections2,break,"""","""","""","""","""","""","""","""","""","""","""",4/28/2021 17:43,72.13.157.188,Mozilla/5.0 (Windows NT 10.0; Win64; x64; rv:88.0) Gecko/20100101 Firefox/88.0,,Firefox,88,Windows,10
188,1,2628,"""",html-keyboard-response,5,419387,0.0-5.0,"""","<img src='jspsych/CFDfaces/CFD-LF-213-079-N.jpg' height=""250px"">,</br><b>Cassandra</b>","""",1,IntactFace,Practice,78,5000,n,"""","""","""","""","""","""","""","""",4/28/2021 17:43,72.13.157.188,Mozilla/5.0 (Windows NT 10.0; Win64; x64; rv:88.0) Gecko/20100101 Firefox/88.0,,Firefox,88,Windows,10
188,1,null,"""",html-keyboard-response,6,419888,0.0-6.0,"""","<div style=""font-size:60px;"">+</div>","""",1,ITI,Practice,null,1000,"""","""","""","""","""","""","""","""","""",4/28/2021 17:43,72.13.157.188,Mozilla/5.0 (Windows NT 10.0; Win64; x64; rv:88.0) Gecko/20100101 Firefox/88.0,,Firefox,88,Windows,10
188,1,1246,"""",html-keyboard-response,7,424889,0.0-7.0,"""","<img src='jspsych/CFDfaces/CFD-AM-234-355-N.jpg' height=""250px"">,</br><b>Patrick</b>","""",2,IntactFace,Practice,70,5000,f,"""","""","""","""","""","""","""","""",4/28/2021 17:43,72.13.157.188,Mozilla/5.0 (Windows NT 10.0; Win64; x64; rv:88.0) Gecko/20100101 Firefox/88.0,,Firefox,88,Windows,10
188,1,null,"""",html-keyboard-response,8,425391,0.0-8.0,"""","<div style=""font-size:60px;"">+</div>","""",2,ITI,Practice,null,1000,"""","""","""","""","""","""","""","""","""",4/28/2021 17:43,72.13.157.188,Mozilla/5.0 (Windows NT 10.0; Win64; x64; rv:88.0) Gecko/20100101 Firefox/88.0,,Firefox,88,Windows,10
188,1,1216,"""",html-keyboard-response,9,430393,0.0-9.0,"""","<img src='jspsych/CFDfaces/CFD-LF-206-078-N.jpg' height=""250px"">,</br><b>Shannon</b>","""",3,IntactFace,Practice,70,5000,f,"""","""","""","""","""","""","""","""",4/28/2021 17:43,72.13.157.188,Mozilla/5.0 (Windows NT 10.0; Win64; x64; rv:88.0) Gecko/20100101 Firefox/88.0,,Firefox,88,Windows,10
188,1,null,"""",html-keyboard-response,10,430896,0.0-10.0,"""","<div style=""font-size:60px;"">+</div>","""",3,ITI,Practice,null,1000,"""","""","""","""","""","""","""","""","""",4/28/2021 17:43,72.13.157.188,Mozilla/5.0 (Windows NT 10.0; Win64; x64; rv:88.0) Gecko/20100101 Firefox/88.0,,Firefox,88,Windows,10
188,1,1373,"""",html-keyboard-response,11,435901,0.0-11.0,"""","<img src='jspsych/CFDfaces/CFD-LF-210-220-N.jpg' height=""250px"">,</br><b>Tara</b>","""",4,IntactFace,Practice,70,5000,f,"""","""","""","""","""","""","""","""",4/28/2021 17:43,72.13.157.188,Mozilla/5.0 (Windows NT 10.0; Win64; x64; rv:88.0) Gecko/20100101 Firefox/88.0,,Firefox,88,Windows,10
188,1,null,"""",html-keyboard-response,12,436404,0.0-12.0,"""","<div style=""font-size:60px;"">+</div>","""",4,ITI,Practice,null,1000,"""","""","""","""","""","""","""","""","""",4/28/2021 17:43,72.13.157.188,Mozilla/5.0 (Windows NT 10.0; Win64; x64; rv:88.0) Gecko/20100101 Firefox/88.0,,Firefox,88,Windows,10
188,1,2719,"""",html-keyboard-response,13,441406,0.0-13.0,"""","<img src='jspsych/CFDfaces/CFD-BM-039-029-N.jpg' height=""250px"">,</br><b>Carlos</b>","""",5,IntactFace,Practice,70,5000,f,"""","""","""","""","""","""","""","""",4/28/2021 17:43,72.13.157.188,Mozilla/5.0 (Windows NT 10.0; Win64; x64; rv:88.0) Gecko/20100101 Firefox/88.0,,Firefox,88,Windows,10
188,1,null,"""",html-keyboard-response,14,441910,0.0-14.0,"""","<div style=""font-size:60px;"">+</div>","""",5,ITI,Practice,null,1000,"""","""","""","""","""","""","""","""","""",4/28/2021 17:43,72.13.157.188,Mozilla/5.0 (Windows NT 10.0; Win64; x64; rv:88.0) Gecko/20100101 Firefox/88.0,,Firefox,88,Windows,10
188,1,865,"""",html-keyboard-response,15,446913,0.0-15.0,"""","<img src='jspsych/CFDfaces/CFD-WM-009-002-N.jpg' height=""250px"">,</br><b>Samuel</b>","""",6,IntactFace,Practice,70,5000,f,"""","""","""","""","""","""","""","""",4/28/2021 17:43,72.13.157.188,Mozilla/5.0 (Windows NT 10.0; Win64; x64; rv:88.0) Gecko/20100101 Firefox/88.0,,Firefox,88,Windows,10
188,1,null,"""",html-keyboard-response,16,447416,0.0-16.0,"""","<div style=""font-size:60px;"">+</div>","""",6,ITI,Practice,null,1000,"""","""","""","""","""","""","""","""","""",4/28/2021 17:43,72.13.157.188,Mozilla/5.0 (Windows NT 10.0; Win64; x64; rv:88.0) Gecko/20100101 Firefox/88.0,,Firefox,88,Windows,10
188,1,1242,"""",html-keyboard-response,17,452417,0.0-17.0,"""","<img src='jspsych/CFDfaces/CFD-BF-221-223-N.jpg' height=""250px"">,</br><b>Katelyn</b>","""",7,IntactFace,Practice,70,5000,f,"""","""","""","""","""","""","""","""",4/28/2021 17:43,72.13.157.188,Mozilla/5.0 (Windows NT 10.0; Win64; x64; rv:88.0) Gecko/20100101 Firefox/88.0,,Firefox,88,Windows,10
188,1,null,"""",html-keyboard-response,18,452922,0.0-18.0,"""","<div style=""font-size:60px;"">+</div>","""",7,ITI,Practice,null,1000,"""","""","""","""","""","""","""","""","""",4/28/2021 17:43,72.13.157.188,Mozilla/5.0 (Windows NT 10.0; Win64; x64; rv:88.0) Gecko/20100101 Firefox/88.0,,Firefox,88,Windows,10
188,1,4205,"""",html-keyboard-response,19,457924,0.0-19.0,"""","<img src='jspsych/CFDfaces/CFD-BM-041-035-N.jpg' height=""250px"">,</br><b>Marcus</b>","""",8,IntactFace,Practice,70,5000,f,"""","""","""","""","""","""","""","""",4/28/2021 17:43,72.13.157.188,Mozilla/5.0 (Windows NT 10.0; Win64; x64; rv:88.0) Gecko/20100101 Firefox/88.0,,Firefox,88,Windows,10
188,1,null,"""",html-keyboard-response,20,458427,0.0-20.0,"""","<div style=""font-size:60px;"">+</div>","""",8,ITI,Practice,null,1000,"""","""","""","""","""","""","""","""","""",4/28/2021 17:43,72.13.157.188,Mozilla/5.0 (Windows NT 10.0; Win64; x64; rv:88.0) Gecko/20100101 Firefox/88.0,,Firefox,88,Windows,10
188,1,106524,"""",image-button-response,21,564957,0.0-21.0,"""",directionsForTest.JPG,0,1,directionsForTest,break,"""","""","""","""","""","""","""","""","""","""","""",4/28/2021 17:43,72.13.157.188,Mozilla/5.0 (Windows NT 10.0; Win64; x64; rv:88.0) Gecko/20100101 Firefox/88.0,,Firefox,88,Windows,10
188,1,3191,"""",image-button-response,22,568153,0.0-22.0,"""",directionsForTest2.JPG,0,1,directionsForTest2,break,"""","""","""","""","""","""","""","""","""","""","""",4/28/2021 17:43,72.13.157.188,Mozilla/5.0 (Windows NT 10.0; Win64; x64; rv:88.0) Gecko/20100101 Firefox/88.0,,Firefox,88,Windows,10
188,1,null,"""",html-keyboard-response,23,569153,0.0-23.0,"""","<div style=""font-size:60px;"">+</div>","""",1,ITI,Practice,null,1000,"""","""","""","""","""","""","""","""","""",4/28/2021 17:43,72.13.157.188,Mozilla/5.0 (Windows NT 10.0; Win64; x64; rv:88.0) Gecko/20100101 Firefox/88.0,,Firefox,88,Windows,10
188,1,null,"""",image-keyboard-response,24,569407,0.0-24.0,"""",jspsych/scrambledDisgustFaces/scrambledAM31DIS.JPG,"""",1,forwardMask,Practice,null,250,"""",d,"""","""","""","""","""","""","""",4/28/2021 17:43,72.13.157.188,Mozilla/5.0 (Windows NT 10.0; Win64; x64; rv:88.0) Gecko/20100101 Firefox/88.0,,Firefox,88,Windows,10
188,1,null,"""",image-keyboard-response,25,569427,0.0-25.0,"""",jspsych/disgustFaces/AM31DIS.JPG,"""",1,Cue,Practice,null,16,"""","""","""","""","""","""","""","""","""",4/28/2021 17:43,72.13.157.188,Mozilla/5.0 (Windows NT 10.0; Win64; x64; rv:88.0) Gecko/20100101 Firefox/88.0,,Firefox,88,Windows,10
188,1,null,"""",image-keyboard-response,26,569529,0.0-26.0,"""",jspsych/neutralFaces/AM18NES.JPG,"""",1,backwardMask,Practice,null,100,"""","""","""","""","""","""","""","""","""",4/28/2021 17:43,72.13.157.188,Mozilla/5.0 (Windows NT 10.0; Win64; x64; rv:88.0) Gecko/20100101 Firefox/88.0,,Firefox,88,Windows,10
188,1,null,"""",html-keyboard-response,27,570533,0.0-27.0,"""","<div style=""font-size:60px;"">+</div>","""",1,fixationBtwnNeutralMaskAndPrompt,Practice,null,1000,"""","""","""","""","""","""","""","""","""",4/28/2021 17:43,72.13.157.188,Mozilla/5.0 (Windows NT 10.0; Win64; x64; rv:88.0) Gecko/20100101 Firefox/88.0,,Firefox,88,Windows,10
188,1,2383,"""",html-button-response,28,572918,0.0-28.0,"""","<img src='jspsych/CFDfaces/CFD-AM-234-355-N.jpg'height=""250px""></br><b>Patrick</b>",0,1,IntactOrRearranged,Practice,"""","""","""","""",CFD-AM-234-355-N.jpg,Patrick,0,0,"""","""","""",4/28/2021 17:43,72.13.157.188,Mozilla/5.0 (Windows NT 10.0; Win64; x64; rv:88.0) Gecko/20100101 Firefox/88.0,,Firefox,88,Windows,10
188,1,1594,"""",html-slider-response,29,574533,0.0-29.0,"""","<img src='jspsych/CFDfaces/CFD-AM-234-355-N.jpg'height=""250px""></br><b>Patrick</b>","""",1,ConfidenceQuery,Practice,"""","""","""","""",CFD-WF-023-003-N.jpg,Jenna,0,"""",0,84,"""",4/28/2021 17:43,72.13.157.188,Mozilla/5.0 (Windows NT 10.0; Win64; x64; rv:88.0) Gecko/20100101 Firefox/88.0,,Firefox,88,Windows,10
188,1,1479,"""",html-button-response,30,576013,0.0-30.0,"""",You are Correct. You called an Intact Pair Intact,0,1,feedback,Practice,"""","""","""","""","""","""","""","""","""","""","""",4/28/2021 17:43,72.13.157.188,Mozilla/5.0 (Windows NT 10.0; Win64; x64; rv:88.0) Gecko/20100101 Firefox/88.0,,Firefox,88,Windows,10
188,1,null,"""",html-keyboard-response,31,577016,0.0-31.0,"""","<div style=""font-size:60px;"">+</div>","""",2,ITI,Practice,null,1000,"""","""","""","""","""","""","""","""","""",4/28/2021 17:43,72.13.157.188,Mozilla/5.0 (Windows NT 10.0; Win64; x64; rv:88.0) Gecko/20100101 Firefox/88.0,,Firefox,88,Windows,10
188,1,null,"""",image-keyboard-response,32,577271,0.0-32.0,"""",jspsych/scrambledDisgustFaces/scrambledBM34DIS.JPG,"""",2,forwardMask,Practice,null,250,"""",d,"""","""","""","""","""","""","""",4/28/2021 17:43,72.13.157.188,Mozilla/5.0 (Windows NT 10.0; Win64; x64; rv:88.0) Gecko/20100101 Firefox/88.0,,Firefox,88,Windows,10
188,1,null,"""",image-keyboard-response,33,577290,0.0-33.0,"""",jspsych/disgustFaces/BM35DIS.JPG,"""",2,Cue,Practice,null,16,"""","""","""","""","""","""","""","""","""",4/28/2021 17:43,72.13.157.188,Mozilla/5.0 (Windows NT 10.0; Win64; x64; rv:88.0) Gecko/20100101 Firefox/88.0,,Firefox,88,Windows,10
188,1,null,"""",image-keyboard-response,34,577392,0.0-34.0,"""",jspsych/neutralFaces/AM11NES.JPG,"""",2,backwardMask,Practice,null,100,"""","""","""","""","""","""","""","""","""",4/28/2021 17:43,72.13.157.188,Mozilla/5.0 (Windows NT 10.0; Win64; x64; rv:88.0) Gecko/20100101 Firefox/88.0,,Firefox,88,Windows,10
188,1,null,"""",html-keyboard-response,35,578393,0.0-35.0,"""","<div style=""font-size:60px;"">+</div>","""",2,fixationBtwnNeutralMaskAndPrompt,Practice,null,1000,"""","""","""","""","""","""","""","""","""",4/28/2021 17:43,72.13.157.188,Mozilla/5.0 (Windows NT 10.0; Win64; x64; rv:88.0) Gecko/20100101 Firefox/88.0,,Firefox,88,Windows,10
188,1,3218,"""",html-button-response,36,581611,0.0-36.0,"""","<img src='jspsych/CFDfaces/CFD-BF-221-223-N.jpg'height=""250px""></br><b>Cassandra</b>",0,2,IntactOrRearranged,Practice,"""","""","""","""",CFD-BF-221-223-N.jpg,Cassandra,1,0,"""","""","""",4/28/2021 17:43,72.13.157.188,Mozilla/5.0 (Windows NT 10.0; Win64; x64; rv:88.0) Gecko/20100101 Firefox/88.0,,Firefox,88,Windows,10
188,1,1729,"""",html-slider-response,37,583343,0.0-37.0,"""","<img src='jspsych/CFDfaces/CFD-BF-221-223-N.jpg'height=""250px""></br><b>Cassandra</b>","""",2,ConfidenceQuery,Practice,"""","""","""","""",CFD-WF-023-003-N.jpg,Jenna,1,"""",0,31,"""",4/28/2021 17:43,72.13.157.188,Mozilla/5.0 (Windows NT 10.0; Win64; x64; rv:88.0) Gecko/20100101 Firefox/88.0,,Firefox,88,Windows,10
188,1,1056,"""",html-button-response,38,584399,0.0-38.0,"""",You are Incorrect. You called a Rearranged Pair Intact,0,2,feedback,Practice,"""","""","""","""","""","""","""","""","""","""","""",4/28/2021 17:43,72.13.157.188,Mozilla/5.0 (Windows NT 10.0; Win64; x64; rv:88.0) Gecko/20100101 Firefox/88.0,,Firefox,88,Windows,10
188,1,null,"""",html-keyboard-response,39,585400,0.0-39.0,"""","<div style=""font-size:60px;"">+</div>","""",3,ITI,Practice,null,1000,"""","""","""","""","""","""","""","""","""",4/28/2021 17:43,72.13.157.188,Mozilla/5.0 (Windows NT 10.0; Win64; x64; rv:88.0) Gecko/20100101 Firefox/88.0,,Firefox,88,Windows,10
188,1,null,"""",image-keyboard-response,40,585654,0.0-40.0,"""",jspsych/scrambledDisgustFaces/scrambledAM09DIS.JPG,"""",3,forwardMask,Practice,null,250,"""",d,"""","""","""","""","""","""","""",4/28/2021 17:43,72.13.157.188,Mozilla/5.0 (Windows NT 10.0; Win64; x64; rv:88.0) Gecko/20100101 Firefox/88.0,,Firefox,88,Windows,10
188,1,null,"""",image-keyboard-response,41,585672,0.0-41.0,"""",jspsych/disgustFaces/AM09DIS.JPG,"""",3,Cue,Practice,null,16,"""","""","""","""","""","""","""","""","""",4/28/2021 17:43,72.13.157.188,Mozilla/5.0 (Windows NT 10.0; Win64; x64; rv:88.0) Gecko/20100101 Firefox/88.0,,Firefox,88,Windows,10
188,1,null,"""",image-keyboard-response,42,585776,0.0-42.0,"""",jspsych/neutralFaces/BM25NES.JPG,"""",3,backwardMask,Practice,null,100,"""","""","""","""","""","""","""","""","""",4/28/2021 17:43,72.13.157.188,Mozilla/5.0 (Windows NT 10.0; Win64; x64; rv:88.0) Gecko/20100101 Firefox/88.0,,Firefox,88,Windows,10
188,1,null,"""",html-keyboard-response,43,586777,0.0-43.0,"""","<div style=""font-size:60px;"">+</div>","""",3,fixationBtwnNeutralMaskAndPrompt,Practice,null,1000,"""","""","""","""","""","""","""","""","""",4/28/2021 17:43,72.13.157.188,Mozilla/5.0 (Windows NT 10.0; Win64; x64; rv:88.0) Gecko/20100101 Firefox/88.0,,Firefox,88,Windows,10
188,1,2889,"""",html-button-response,44,589667,0.0-44.0,"""","<img src='jspsych/CFDfaces/CFD-BM-039-029-N.jpg'height=""250px""></br><b>Marcus</b>",0,3,IntactOrRearranged,Practice,"""","""","""","""",CFD-BM-039-029-N.jpg,Marcus,1,0,"""","""","""",4/28/2021 17:43,72.13.157.188,Mozilla/5.0 (Windows NT 10.0; Win64; x64; rv:88.0) Gecko/20100101 Firefox/88.0,,Firefox,88,Windows,10
188,1,1768,"""",html-slider-response,45,591439,0.0-45.0,"""","<img src='jspsych/CFDfaces/CFD-BM-039-029-N.jpg'height=""250px""></br><b>Marcus</b>","""",3,ConfidenceQuery,Practice,"""","""","""","""",CFD-WF-023-003-N.jpg,Jenna,1,"""",0,32,"""",4/28/2021 17:43,72.13.157.188,Mozilla/5.0 (Windows NT 10.0; Win64; x64; rv:88.0) Gecko/20100101 Firefox/88.0,,Firefox,88,Windows,10
188,1,38827,"""",html-button-response,46,630267,0.0-46.0,"""",You are Incorrect. You called a Rearranged Pair Intact,0,3,feedback,Practice,"""","""","""","""","""","""","""","""","""","""","""",4/28/2021 17:43,72.13.157.188,Mozilla/5.0 (Windows NT 10.0; Win64; x64; rv:88.0) Gecko/20100101 Firefox/88.0,,Firefox,88,Windows,10
188,1,null,"""",html-keyboard-response,47,631270,0.0-47.0,"""","<div style=""font-size:60px;"">+</div>","""",4,ITI,Practice,null,1000,"""","""","""","""","""","""","""","""","""",4/28/2021 17:43,72.13.157.188,Mozilla/5.0 (Windows NT 10.0; Win64; x64; rv:88.0) Gecko/20100101 Firefox/88.0,,Firefox,88,Windows,10
188,1,null,"""",image-keyboard-response,48,631523,0.0-48.0,"""",jspsych/scrambledDisgustFaces/scrambledBF09DIS.JPG,"""",4,forwardMask,Practice,null,250,"""",d,"""","""","""","""","""","""","""",4/28/2021 17:43,72.13.157.188,Mozilla/5.0 (Windows NT 10.0; Win64; x64; rv:88.0) Gecko/20100101 Firefox/88.0,,Firefox,88,Windows,10
188,1,null,"""",image-keyboard-response,49,631542,0.0-49.0,"""",jspsych/disgustFaces/BF09DIS.JPG,"""",4,Cue,Practice,null,16,"""","""","""","""","""","""","""","""","""",4/28/2021 17:43,72.13.157.188,Mozilla/5.0 (Windows NT 10.0; Win64; x64; rv:88.0) Gecko/20100101 Firefox/88.0,,Firefox,88,Windows,10
188,1,null,"""",image-keyboard-response,50,631645,0.0-50.0,"""",jspsych/neutralFaces/BF13NES.JPG,"""",4,backwardMask,Practice,null,100,"""","""","""","""","""","""","""","""","""",4/28/2021 17:43,72.13.157.188,Mozilla/5.0 (Windows NT 10.0; Win64; x64; rv:88.0) Gecko/20100101 Firefox/88.0,,Firefox,88,Windows,10
188,1,null,"""",html-keyboard-response,51,632647,0.0-51.0,"""","<div style=""font-size:60px;"">+</div>","""",4,fixationBtwnNeutralMaskAndPrompt,Practice,null,1000,"""","""","""","""","""","""","""","""","""",4/28/2021 17:43,72.13.157.188,Mozilla/5.0 (Windows NT 10.0; Win64; x64; rv:88.0) Gecko/20100101 Firefox/88.0,,Firefox,88,Windows,10
188,1,1164,"""",html-button-response,52,633811,0.0-52.0,"""","<img src='jspsych/CFDfaces/CFD-BM-041-035-N.jpg'height=""250px""></br><b>Carlos</b>",0,4,IntactOrRearranged,Practice,"""","""","""","""",CFD-BM-041-035-N.jpg,Carlos,1,0,"""","""","""",4/28/2021 17:43,72.13.157.188,Mozilla/5.0 (Windows NT 10.0; Win64; x64; rv:88.0) Gecko/20100101 Firefox/88.0,,Firefox,88,Windows,10
188,1,1267,"""",html-slider-response,53,635079,0.0-53.0,"""","<img src='jspsych/CFDfaces/CFD-BM-041-035-N.jpg'height=""250px""></br><b>Carlos</b>","""",4,ConfidenceQuery,Practice,"""","""","""","""",CFD-WF-023-003-N.jpg,Jenna,1,"""",0,32,"""",4/28/2021 17:43,72.13.157.188,Mozilla/5.0 (Windows NT 10.0; Win64; x64; rv:88.0) Gecko/20100101 Firefox/88.0,,Firefox,88,Windows,10
188,1,1069,"""",html-button-response,54,636150,0.0-54.0,"""",You are Incorrect. You called a Rearranged Pair Intact,0,4,feedback,Practice,"""","""","""","""","""","""","""","""","""","""","""",4/28/2021 17:43,72.13.157.188,Mozilla/5.0 (Windows NT 10.0; Win64; x64; rv:88.0) Gecko/20100101 Firefox/88.0,,Firefox,88,Windows,10
188,1,null,"""",html-keyboard-response,55,637152,0.0-55.0,"""","<div style=""font-size:60px;"">+</div>","""",5,ITI,Practice,null,1000,"""","""","""","""","""","""","""","""","""",4/28/2021 17:43,72.13.157.188,Mozilla/5.0 (Windows NT 10.0; Win64; x64; rv:88.0) Gecko/20100101 Firefox/88.0,,Firefox,88,Windows,10
188,1,null,"""",image-keyboard-response,56,637406,0.0-56.0,"""",jspsych/scrambledNeutralFaces/scrambledBM14NES.JPG,"""",5,forwardMask,Practice,null,250,"""",n,"""","""","""","""","""","""","""",4/28/2021 17:43,72.13.157.188,Mozilla/5.0 (Windows NT 10.0; Win64; x64; rv:88.0) Gecko/20100101 Firefox/88.0,,Firefox,88,Windows,10
188,1,null,"""",image-keyboard-response,57,637423,0.0-57.0,"""",jspsych/neutralFaces/BM14NES.JPG,"""",5,Cue,Practice,null,16,"""","""","""","""","""","""","""","""","""",4/28/2021 17:43,72.13.157.188,Mozilla/5.0 (Windows NT 10.0; Win64; x64; rv:88.0) Gecko/20100101 Firefox/88.0,,Firefox,88,Windows,10
188,1,null,"""",image-keyboard-response,58,637526,0.0-58.0,"""",jspsych/neutralFaces/AM06NES.JPG,"""",5,backwardMask,Practice,null,100,"""","""","""","""","""","""","""","""","""",4/28/2021 17:43,72.13.157.188,Mozilla/5.0 (Windows NT 10.0; Win64; x64; rv:88.0) Gecko/20100101 Firefox/88.0,,Firefox,88,Windows,10
188,1,null,"""",html-keyboard-response,59,638529,0.0-59.0,"""","<div style=""font-size:60px;"">+</div>","""",5,fixationBtwnNeutralMaskAndPrompt,Practice,null,1000,"""","""","""","""","""","""","""","""","""",4/28/2021 17:43,72.13.157.188,Mozilla/5.0 (Windows NT 10.0; Win64; x64; rv:88.0) Gecko/20100101 Firefox/88.0,,Firefox,88,Windows,10
188,1,null,"""",html-button-response,60,643531,0.0-60.0,"""","<img src='jspsych/CFDfaces/CFD-LF-210-220-N.jpg'height=""250px""></br><b>Tara</b>",null,5,IntactOrRearranged,Practice,"""","""","""","""",CFD-LF-210-220-N.jpg,Tara,0,"""","""","""","""",4/28/2021 17:43,72.13.157.188,Mozilla/5.0 (Windows NT 10.0; Win64; x64; rv:88.0) Gecko/20100101 Firefox/88.0,,Firefox,88,Windows,10
188,1,null,"""",html-slider-response,61,648535,0.0-61.0,"""","<img src='jspsych/CFDfaces/CFD-LF-210-220-N.jpg'height=""250px""></br><b>Tara</b>","""",5,ConfidenceQuery,Practice,"""","""","""","""",CFD-WF-023-003-N.jpg,Jenna,0,"""",0,null,"""",4/28/2021 17:43,72.13.157.188,Mozilla/5.0 (Windows NT 10.0; Win64; x64; rv:88.0) Gecko/20100101 Firefox/88.0,,Firefox,88,Windows,10
188,1,57836,"""",html-button-response,62,706372,0.0-62.0,"""",<p>Please click either button: REARRANGED or INTACT before the 5-second time limit.</p>,0,5,feedback,Practice,"""","""","""","""","""","""","""","""","""","""","""",4/28/2021 17:43,72.13.157.188,Mozilla/5.0 (Windows NT 10.0; Win64; x64; rv:88.0) Gecko/20100101 Firefox/88.0,,Firefox,88,Windows,10
188,1,null,"""",html-keyboard-response,63,707381,0.0-63.0,"""","<div style=""font-size:60px;"">+</div>","""",6,ITI,Practice,null,1000,"""","""","""","""","""","""","""","""","""",4/28/2021 17:43,72.13.157.188,Mozilla/5.0 (Windows NT 10.0; Win64; x64; rv:88.0) Gecko/20100101 Firefox/88.0,,Firefox,88,Windows,10
188,1,null,"""",image-keyboard-response,64,707634,0.0-64.0,"""",jspsych/scrambledNeutralFaces/scrambledBF33NES.JPG,"""",6,forwardMask,Practice,null,250,"""",n,"""","""","""","""","""","""","""",4/28/2021 17:43,72.13.157.188,Mozilla/5.0 (Windows NT 10.0; Win64; x64; rv:88.0) Gecko/20100101 Firefox/88.0,,Firefox,88,Windows,10
188,1,null,"""",image-keyboard-response,65,707655,0.0-65.0,"""",jspsych/neutralFaces/BF33NES.JPG,"""",6,Cue,Practice,null,16,"""","""","""","""","""","""","""","""","""",4/28/2021 17:43,72.13.157.188,Mozilla/5.0 (Windows NT 10.0; Win64; x64; rv:88.0) Gecko/20100101 Firefox/88.0,,Firefox,88,Windows,10
188,1,null,"""",image-keyboard-response,66,707758,0.0-66.0,"""",jspsych/neutralFaces/BF30NES.JPG,"""",6,backwardMask,Practice,null,100,"""","""","""","""","""","""","""","""","""",4/28/2021 17:43,72.13.157.188,Mozilla/5.0 (Windows NT 10.0; Win64; x64; rv:88.0) Gecko/20100101 Firefox/88.0,,Firefox,88,Windows,10
188,1,null,"""",html-keyboard-response,67,708759,0.0-67.0,"""","<div style=""font-size:60px;"">+</div>","""",6,fixationBtwnNeutralMaskAndPrompt,Practice,null,1000,"""","""","""","""","""","""","""","""","""",4/28/2021 17:43,72.13.157.188,Mozilla/5.0 (Windows NT 10.0; Win64; x64; rv:88.0) Gecko/20100101 Firefox/88.0,,Firefox,88,Windows,10
188,1,1916,"""",html-button-response,68,710677,0.0-68.0,"""","<img src='jspsych/CFDfaces/CFD-WM-009-002-N.jpg'height=""250px""></br><b>Samuel</b>",0,6,IntactOrRearranged,Practice,"""","""","""","""",CFD-WM-009-002-N.jpg,Samuel,0,0,"""","""","""",4/28/2021 17:43,72.13.157.188,Mozilla/5.0 (Windows NT 10.0; Win64; x64; rv:88.0) Gecko/20100101 Firefox/88.0,,Firefox,88,Windows,10
188,1,2305,"""",html-slider-response,69,712986,0.0-69.0,"""","<img src='jspsych/CFDfaces/CFD-WM-009-002-N.jpg'height=""250px""></br><b>Samuel</b>","""",6,ConfidenceQuery,Practice,"""","""","""","""",CFD-WF-023-003-N.jpg,Jenna,0,"""",0,61,"""",4/28/2021 17:43,72.13.157.188,Mozilla/5.0 (Windows NT 10.0; Win64; x64; rv:88.0) Gecko/20100101 Firefox/88.0,,Firefox,88,Windows,10
188,1,1193,"""",html-button-response,70,714181,0.0-70.0,"""",You are Correct. You called an Intact Pair Intact,0,6,feedback,Practice,"""","""","""","""","""","""","""","""","""","""","""",4/28/2021 17:43,72.13.157.188,Mozilla/5.0 (Windows NT 10.0; Win64; x64; rv:88.0) Gecko/20100101 Firefox/88.0,,Firefox,88,Windows,10
188,1,null,"""",html-keyboard-response,71,715182,0.0-71.0,"""","<div style=""font-size:60px;"">+</div>","""",7,ITI,Practice,null,1000,"""","""","""","""","""","""","""","""","""",4/28/2021 17:43,72.13.157.188,Mozilla/5.0 (Windows NT 10.0; Win64; x64; rv:88.0) Gecko/20100101 Firefox/88.0,,Firefox,88,Windows,10
188,1,null,"""",image-keyboard-response,72,715435,0.0-72.0,"""",jspsych/scrambledDisgustFaces/scrambledAF10DIS.JPG,"""",7,forwardMask,Practice,null,250,"""",d,"""","""","""","""","""","""","""",4/28/2021 17:43,72.13.157.188,Mozilla/5.0 (Windows NT 10.0; Win64; x64; rv:88.0) Gecko/20100101 Firefox/88.0,,Firefox,88,Windows,10
188,1,null,"""",image-keyboard-response,73,715453,0.0-73.0,"""",jspsych/disgustFaces/AF10DIS.JPG,"""",7,Cue,Practice,null,16,"""","""","""","""","""","""","""","""","""",4/28/2021 17:43,72.13.157.188,Mozilla/5.0 (Windows NT 10.0; Win64; x64; rv:88.0) Gecko/20100101 Firefox/88.0,,Firefox,88,Windows,10
188,1,null,"""",image-keyboard-response,74,715557,0.0-74.0,"""",jspsych/neutralFaces/AF17NES.JPG,"""",7,backwardMask,Practice,null,100,"""","""","""","""","""","""","""","""","""",4/28/2021 17:43,72.13.157.188,Mozilla/5.0 (Windows NT 10.0; Win64; x64; rv:88.0) Gecko/20100101 Firefox/88.0,,Firefox,88,Windows,10
188,1,null,"""",html-keyboard-response,75,716558,0.0-75.0,"""","<div style=""font-size:60px;"">+</div>","""",7,fixationBtwnNeutralMaskAndPrompt,Practice,null,1000,"""","""","""","""","""","""","""","""","""",4/28/2021 17:43,72.13.157.188,Mozilla/5.0 (Windows NT 10.0; Win64; x64; rv:88.0) Gecko/20100101 Firefox/88.0,,Firefox,88,Windows,10
188,1,1501,"""",html-button-response,76,718060,0.0-76.0,"""","<img src='jspsych/CFDfaces/CFD-LF-206-078-N.jpg'height=""250px""></br><b>Shannon</b>",0,7,IntactOrRearranged,Practice,"""","""","""","""",CFD-LF-206-078-N.jpg,Shannon,0,0,"""","""","""",4/28/2021 17:43,72.13.157.188,Mozilla/5.0 (Windows NT 10.0; Win64; x64; rv:88.0) Gecko/20100101 Firefox/88.0,,Firefox,88,Windows,10
188,1,1558,"""",html-slider-response,77,719621,0.0-77.0,"""","<img src='jspsych/CFDfaces/CFD-LF-206-078-N.jpg'height=""250px""></br><b>Shannon</b>","""",7,ConfidenceQuery,Practice,"""","""","""","""",CFD-WF-023-003-N.jpg,Jenna,0,"""",0,96,"""",4/28/2021 17:43,72.13.157.188,Mozilla/5.0 (Windows NT 10.0; Win64; x64; rv:88.0) Gecko/20100101 Firefox/88.0,,Firefox,88,Windows,10
188,1,1240,"""",html-button-response,78,720865,0.0-78.0,"""",You are Correct. You called an Intact Pair Intact,0,7,feedback,Practice,"""","""","""","""","""","""","""","""","""","""","""",4/28/2021 17:43,72.13.157.188,Mozilla/5.0 (Windows NT 10.0; Win64; x64; rv:88.0) Gecko/20100101 Firefox/88.0,,Firefox,88,Windows,10
188,1,null,"""",html-keyboard-response,79,721868,0.0-79.0,"""","<div style=""font-size:60px;"">+</div>","""",8,ITI,Practice,null,1000,"""","""","""","""","""","""","""","""","""",4/28/2021 17:43,72.13.157.188,Mozilla/5.0 (Windows NT 10.0; Win64; x64; rv:88.0) Gecko/20100101 Firefox/88.0,,Firefox,88,Windows,10
188,1,null,"""",image-keyboard-response,80,722121,0.0-80.0,"""",jspsych/scrambledDisgustFaces/scrambledBM31DIS.JPG,"""",8,forwardMask,Practice,null,250,"""",d,"""","""","""","""","""","""","""",4/28/2021 17:43,72.13.157.188,Mozilla/5.0 (Windows NT 10.0; Win64; x64; rv:88.0) Gecko/20100101 Firefox/88.0,,Firefox,88,Windows,10
188,1,null,"""",image-keyboard-response,81,722139,0.0-81.0,"""",jspsych/disgustFaces/BM32DIS.JPG,"""",8,Cue,Practice,null,16,"""","""","""","""","""","""","""","""","""",4/28/2021 17:43,72.13.157.188,Mozilla/5.0 (Windows NT 10.0; Win64; x64; rv:88.0) Gecko/20100101 Firefox/88.0,,Firefox,88,Windows,10
188,1,null,"""",image-keyboard-response,82,722246,0.0-82.0,"""",jspsych/neutralFaces/BM28NES.JPG,"""",8,backwardMask,Practice,null,100,"""","""","""","""","""","""","""","""","""",4/28/2021 17:43,72.13.157.188,Mozilla/5.0 (Windows NT 10.0; Win64; x64; rv:88.0) Gecko/20100101 Firefox/88.0,,Firefox,88,Windows,10
188,1,null,"""",html-keyboard-response,83,723248,0.0-83.0,"""","<div style=""font-size:60px;"">+</div>","""",8,fixationBtwnNeutralMaskAndPrompt,Practice,null,1000,"""","""","""","""","""","""","""","""","""",4/28/2021 17:43,72.13.157.188,Mozilla/5.0 (Windows NT 10.0; Win64; x64; rv:88.0) Gecko/20100101 Firefox/88.0,,Firefox,88,Windows,10
188,1,2442,"""",html-button-response,84,725691,0.0-84.0,"""","<img src='jspsych/CFDfaces/CFD-LF-213-079-N.jpg'height=""250px""></br><b>Katelyn</b>",1,8,IntactOrRearranged,Practice,"""","""","""","""",CFD-LF-213-079-N.jpg,Katelyn,1,1,"""","""","""",4/28/2021 17:43,72.13.157.188,Mozilla/5.0 (Windows NT 10.0; Win64; x64; rv:88.0) Gecko/20100101 Firefox/88.0,,Firefox,88,Windows,10
188,1,1272,"""",html-slider-response,85,726967,0.0-85.0,"""","<img src='jspsych/CFDfaces/CFD-LF-213-079-N.jpg'height=""250px""></br><b>Katelyn</b>","""",8,ConfidenceQuery,Practice,"""","""","""","""",CFD-WF-023-003-N.jpg,Jenna,1,"""",0,27,"""",4/28/2021 17:43,72.13.157.188,Mozilla/5.0 (Windows NT 10.0; Win64; x64; rv:88.0) Gecko/20100101 Firefox/88.0,,Firefox,88,Windows,10
188,1,1187,"""",html-button-response,86,728155,0.0-86.0,"""",You are Correct. You Called A Rearranged Pair Rearranged,0,8,feedback,Practice,"""","""","""","""","""","""","""","""","""","""","""",4/28/2021 17:43,72.13.157.188,Mozilla/5.0 (Windows NT 10.0; Win64; x64; rv:88.0) Gecko/20100101 Firefox/88.0,,Firefox,88,Windows,10
188,1,16520,"""",image-button-response,87,744681,0.0-87.0,"""",directionsMemoryAssociation3.JPG,0,128,DirectionsBeforeActualTEst,Break,"""","""","""","""","""","""","""","""","""","""","""",4/28/2021 17:43,72.13.157.188,Mozilla/5.0 (Windows NT 10.0; Win64; x64; rv:88.0) Gecko/20100101 Firefox/88.0,,Firefox,88,Windows,10
188,1,45506,"""",image-button-response,88,790195,0.0-88.0,"""",directionsForTest2.JPG,0,1,directionsForTest2,break,"""","""","""","""","""","""","""","""","""","""","""",4/28/2021 17:43,72.13.157.188,Mozilla/5.0 (Windows NT 10.0; Win64; x64; rv:88.0) Gecko/20100101 Firefox/88.0,,Firefox,88,Windows,10
188,1,10860,"""",html-button-response,89,801067,0.0-89.0,"""","<p>You will be asked to memorize and then recall four sets of face-name pairs. </p> <p> Each set will have 32 pairs. </p> <p>After the fourth set, there will be a brief follow-up experiment (<40 min alltogether)</p>",0,"""","""","""","""","""","""","""","""","""","""","""","""","""","""",4/28/2021 17:43,72.13.157.188,Mozilla/5.0 (Windows NT 10.0; Win64; x64; rv:88.0) Gecko/20100101 Firefox/88.0,,Firefox,88,Windows,10
188,1,2040,"""",html-keyboard-response,90,806071,0.0-90.0,"""","<img src='jspsych/CFDfaces/CFD-AM-205-153-N.jpg' height=""250px""></br><b>Peter</b>","""",256,IntactFace,Memorization,70,5000,f,"""",CFD-WF-215-145-N.jpg,Rebecca,0,"""","""","""",1,4/28/2021 17:43,72.13.157.188,Mozilla/5.0 (Windows NT 10.0; Win64; x64; rv:88.0) Gecko/20100101 Firefox/88.0,,Firefox,88,Windows,10
188,1,null,"""",html-keyboard-response,91,806572,0.0-91.0,"""","<div style=""font-size:60px;"">+</div>","""",256,fixation,Memorization,null,500,"""","""","""","""","""","""","""","""",1,4/28/2021 17:43,72.13.157.188,Mozilla/5.0 (Windows NT 10.0; Win64; x64; rv:88.0) Gecko/20100101 Firefox/88.0,,Firefox,88,Windows,10
188,1,1207,"""",html-keyboard-response,92,811577,0.0-92.0,"""","<img src='jspsych/CFDfaces/CFD-WF-017-003-N.jpg' height=""250px""></br><b>Julie</b>","""",256,IntactFace,Memorization,70,5000,f,"""",CFD-LF-239-148-N.jpg,Whitney,0,"""","""","""",1,4/28/2021 17:43,72.13.157.188,Mozilla/5.0 (Windows NT 10.0; Win64; x64; rv:88.0) Gecko/20100101 Firefox/88.0,,Firefox,88,Windows,10
188,1,null,"""",html-keyboard-response,93,812078,0.0-93.0,"""","<div style=""font-size:60px;"">+</div>","""",256,fixation,Memorization,null,500,"""","""","""","""","""","""","""","""",1,4/28/2021 17:43,72.13.157.188,Mozilla/5.0 (Windows NT 10.0; Win64; x64; rv:88.0) Gecko/20100101 Firefox/88.0,,Firefox,88,Windows,10
188,1,1007,"""",html-keyboard-response,94,817080,0.0-94.0,"""","<img src='jspsych/CFDfaces/CFD-WM-015-002-N.jpg' height=""250px""></br><b>James</b>","""",256,IntactFace,Memorization,70,5000,f,"""",CFD-WM-216-061-N.jpg,Jeremy,0,"""","""","""",1,4/28/2021 17:43,72.13.157.188,Mozilla/5.0 (Windows NT 10.0; Win64; x64; rv:88.0) Gecko/20100101 Firefox/88.0,,Firefox,88,Windows,10
188,1,null,"""",html-keyboard-response,95,817581,0.0-95.0,"""","<div style=""font-size:60px;"">+</div>","""",256,fixation,Memorization,null,500,"""","""","""","""","""","""","""","""",1,4/28/2021 17:43,72.13.157.188,Mozilla/5.0 (Windows NT 10.0; Win64; x64; rv:88.0) Gecko/20100101 Firefox/88.0,,Firefox,88,Windows,10
188,1,2750,"""",html-keyboard-response,96,822585,0.0-96.0,"""","<img src='jspsych/CFDfaces/CFD-LF-220-120-N.jpg' height=""250px""></br><b>Samantha</b>","""",256,IntactFace,Memorization,70,5000,f,"""",CFD-WM-022-001-N.jpg,Ryan,0,"""","""","""",1,4/28/2021 17:43,72.13.157.188,Mozilla/5.0 (Windows NT 10.0; Win64; x64; rv:88.0) Gecko/20100101 Firefox/88.0,,Firefox,88,Windows,10
188,1,null,"""",html-keyboard-response,97,823086,0.0-97.0,"""","<div style=""font-size:60px;"">+</div>","""",256,fixation,Memorization,null,500,"""","""","""","""","""","""","""","""",1,4/28/2021 17:43,72.13.157.188,Mozilla/5.0 (Windows NT 10.0; Win64; x64; rv:88.0) Gecko/20100101 Firefox/88.0,,Firefox,88,Windows,10
188,1,1027,"""",html-keyboard-response,98,828091,0.0-98.0,"""","<img src='jspsych/CFDfaces/CFD-BF-009-002-N.jpg' height=""250px""></br><b>Meghan</b>","""",256,IntactFace,Memorization,70,5000,f,"""",CFD-AF-214-139-N.jpg,Jasmine,0,"""","""","""",1,4/28/2021 17:43,72.13.157.188,Mozilla/5.0 (Windows NT 10.0; Win64; x64; rv:88.0) Gecko/20100101 Firefox/88.0,,Firefox,88,Windows,10
188,1,null,"""",html-keyboard-response,99,828591,0.0-99.0,"""","<div style=""font-size:60px;"">+</div>","""",256,fixation,Memorization,null,500,"""","""","""","""","""","""","""","""",1,4/28/2021 17:43,72.13.157.188,Mozilla/5.0 (Windows NT 10.0; Win64; x64; rv:88.0) Gecko/20100101 Firefox/88.0,,Firefox,88,Windows,10
188,1,1072,"""",html-keyboard-response,100,833594,0.0-100.0,"""","<img src='jspsych/CFDfaces/CFD-AM-246-184-N.jpg' height=""250px""></br><b>Jason</b>","""",256,IntactFace,Memorization,70,5000,f,"""",CFD-WF-023-003-N.jpg,Jordan,0,"""","""","""",1,4/28/2021 17:43,72.13.157.188,Mozilla/5.0 (Windows NT 10.0; Win64; x64; rv:88.0) Gecko/20100101 Firefox/88.0,,Firefox,88,Windows,10
188,1,null,"""",html-keyboard-response,101,834095,0.0-101.0,"""","<div style=""font-size:60px;"">+</div>","""",256,fixation,Memorization,null,500,"""","""","""","""","""","""","""","""",1,4/28/2021 17:43,72.13.157.188,Mozilla/5.0 (Windows NT 10.0; Win64; x64; rv:88.0) Gecko/20100101 Firefox/88.0,,Firefox,88,Windows,10
188,1,1903,"""",html-keyboard-response,102,839097,0.0-102.0,"""","<img src='jspsych/CFDfaces/CFD-BF-047-003-N.jpg' height=""250px""></br><b>Michelle</b>","""",256,IntactFace,Memorization,70,5000,f,"""",CFD-BF-201-080-N.jpg,Angela,0,"""","""","""",1,4/28/2021 17:43,72.13.157.188,Mozilla/5.0 (Windows NT 10.0; Win64; x64; rv:88.0) Gecko/20100101 Firefox/88.0,,Firefox,88,Windows,10
188,1,null,"""",html-keyboard-response,103,839600,0.0-103.0,"""","<div style=""font-size:60px;"">+</div>","""",256,fixation,Memorization,null,500,"""","""","""","""","""","""","""","""",1,4/28/2021 17:43,72.13.157.188,Mozilla/5.0 (Windows NT 10.0; Win64; x64; rv:88.0) Gecko/20100101 Firefox/88.0,,Firefox,88,Windows,10
188,1,null,"""",html-keyboard-response,104,844605,0.0-104.0,"""","<img src='jspsych/CFDfaces/CFD-BF-001-025-N.jpg' height=""250px""></br><b>Elizabeth</b>","""",256,IntactFace,Memorization,null,5000,"""","""",CFD-AM-207-108-N.jpg,Travis,0,"""","""","""",1,4/28/2021 17:43,72.13.157.188,Mozilla/5.0 (Windows NT 10.0; Win64; x64; rv:88.0) Gecko/20100101 Firefox/88.0,,Firefox,88,Windows,10
188,1,null,"""",html-keyboard-response,105,845107,0.0-105.0,"""","<div style=""font-size:60px;"">+</div>","""",256,fixation,Memorization,null,500,"""","""","""","""","""","""","""","""",1,4/28/2021 17:43,72.13.157.188,Mozilla/5.0 (Windows NT 10.0; Win64; x64; rv:88.0) Gecko/20100101 Firefox/88.0,,Firefox,88,Windows,10
188,1,null,"""",html-keyboard-response,106,850110,0.0-106.0,"""","<img src='jspsych/CFDfaces/CFD-AF-237-223-N.jpg' height=""250px""></br><b>Emily</b>","""",256,IntactFace,Memorization,null,5000,"""","""",CFD-LM-246-087-N.jpg,Cameron,0,"""","""","""",1,4/28/2021 17:43,72.13.157.188,Mozilla/5.0 (Windows NT 10.0; Win64; x64; rv:88.0) Gecko/20100101 Firefox/88.0,,Firefox,88,Windows,10
188,1,null,"""",html-keyboard-response,107,850612,0.0-107.0,"""","<div style=""font-size:60px;"">+</div>","""",256,fixation,Memorization,null,500,"""","""","""","""","""","""","""","""",1,4/28/2021 17:43,72.13.157.188,Mozilla/5.0 (Windows NT 10.0; Win64; x64; rv:88.0) Gecko/20100101 Firefox/88.0,,Firefox,88,Windows,10
188,1,1902,"""",html-keyboard-response,108,855615,0.0-108.0,"""","<img src='jspsych/CFDfaces/CFD-LF-215-157-N.jpg' height=""250px""></br><b>Stephanie</b>","""",256,IntactFace,Memorization,70,5000,f,"""",CFD-LF-232-199-N.jpg,Sara,0,"""","""","""",1,4/28/2021 17:43,72.13.157.188,Mozilla/5.0 (Windows NT 10.0; Win64; x64; rv:88.0) Gecko/20100101 Firefox/88.0,,Firefox,88,Windows,10
188,1,null,"""",html-keyboard-response,109,856118,0.0-109.0,"""","<div style=""font-size:60px;"">+</div>","""",256,fixation,Memorization,null,500,"""","""","""","""","""","""","""","""",1,4/28/2021 17:43,72.13.157.188,Mozilla/5.0 (Windows NT 10.0; Win64; x64; rv:88.0) Gecko/20100101 Firefox/88.0,,Firefox,88,Windows,10
188,1,1421,"""",html-keyboard-response,110,861121,0.0-110.0,"""","<img src='jspsych/CFDfaces/CFD-LM-201-057-N.jpg' height=""250px""></br><b>Eric</b>","""",256,IntactFace,Memorization,70,5000,f,"""",CFD-AM-220-134-N.jpg,Steven,0,"""","""","""",1,4/28/2021 17:43,72.13.157.188,Mozilla/5.0 (Windows NT 10.0; Win64; x64; rv:88.0) Gecko/20100101 Firefox/88.0,,Firefox,88,Windows,10
188,1,null,"""",html-keyboard-response,111,861623,0.0-111.0,"""","<div style=""font-size:60px;"">+</div>","""",256,fixation,Memorization,null,500,"""","""","""","""","""","""","""","""",1,4/28/2021 17:43,72.13.157.188,Mozilla/5.0 (Windows NT 10.0; Win64; x64; rv:88.0) Gecko/20100101 Firefox/88.0,,Firefox,88,Windows,10
188,1,1093,"""",html-keyboard-response,112,866627,0.0-112.0,"""","<img src='jspsych/CFDfaces/CFD-BM-001-014-N.jpg' height=""250px""></br><b>Daniel</b>","""",256,IntactFace,Memorization,70,5000,f,"""",CFD-LF-236-221-N.jpg,Lauren,0,"""","""","""",1,4/28/2021 17:43,72.13.157.188,Mozilla/5.0 (Windows NT 10.0; Win64; x64; rv:88.0) Gecko/20100101 Firefox/88.0,,Firefox,88,Windows,10
188,1,null,"""",html-keyboard-response,113,867128,0.0-113.0,"""","<div style=""font-size:60px;"">+</div>","""",256,fixation,Memorization,null,500,"""","""","""","""","""","""","""","""",1,4/28/2021 17:43,72.13.157.188,Mozilla/5.0 (Windows NT 10.0; Win64; x64; rv:88.0) Gecko/20100101 Firefox/88.0,,Firefox,88,Windows,10
188,1,945,"""",html-keyboard-response,114,872134,0.0-114.0,"""","<img src='jspsych/CFDfaces/CFD-AM-248-104-N.jpg' height=""250px""></br><b>Juan</b>","""",256,IntactFace,Memorization,70,5000,f,"""",CFD-AF-233-190-N.jpg,Taylor,0,"""","""","""",1,4/28/2021 17:43,72.13.157.188,Mozilla/5.0 (Windows NT 10.0; Win64; x64; rv:88.0) Gecko/20100101 Firefox/88.0,,Firefox,88,Windows,10
188,1,null,"""",html-keyboard-response,115,872635,0.0-115.0,"""","<div style=""font-size:60px;"">+</div>","""",256,fixation,Memorization,null,500,"""","""","""","""","""","""","""","""",1,4/28/2021 17:43,72.13.157.188,Mozilla/5.0 (Windows NT 10.0; Win64; x64; rv:88.0) Gecko/20100101 Firefox/88.0,,Firefox,88,Windows,10
188,1,1092,"""",html-keyboard-response,116,877639,0.0-116.0,"""","<img src='jspsych/CFDfaces/CFD-WM-215-041-N.jpg' height=""250px""></br><b>Ian</b>","""",256,IntactFace,Memorization,70,5000,f,"""",CFD-WF-018-017-N.jpg,Amy,0,"""","""","""",1,4/28/2021 17:43,72.13.157.188,Mozilla/5.0 (Windows NT 10.0; Win64; x64; rv:88.0) Gecko/20100101 Firefox/88.0,,Firefox,88,Windows,10
188,1,null,"""",html-keyboard-response,117,878141,0.0-117.0,"""","<div style=""font-size:60px;"">+</div>","""",256,fixation,Memorization,null,500,"""","""","""","""","""","""","""","""",1,4/28/2021 17:43,72.13.157.188,Mozilla/5.0 (Windows NT 10.0; Win64; x64; rv:88.0) Gecko/20100101 Firefox/88.0,,Firefox,88,Windows,10
188,1,927,"""",html-keyboard-response,118,883143,0.0-118.0,"""","<img src='jspsych/CFDfaces/CFD-WM-019-003-N.jpg' height=""250px""></br><b>Robert</b>","""",256,IntactFace,Memorization,70,5000,f,"""",CFD-LM-225-130-N.jpg,Jesse,0,"""","""","""",1,4/28/2021 17:43,72.13.157.188,Mozilla/5.0 (Windows NT 10.0; Win64; x64; rv:88.0) Gecko/20100101 Firefox/88.0,,Firefox,88,Windows,10
188,1,null,"""",html-keyboard-response,119,883645,0.0-119.0,"""","<div style=""font-size:60px;"">+</div>","""",256,fixation,Memorization,null,500,"""","""","""","""","""","""","""","""",1,4/28/2021 17:43,72.13.157.188,Mozilla/5.0 (Windows NT 10.0; Win64; x64; rv:88.0) Gecko/20100101 Firefox/88.0,,Firefox,88,Windows,10
188,1,1125,"""",html-keyboard-response,120,888648,0.0-120.0,"""","<img src='jspsych/CFDfaces/CFD-AF-203-077-N.jpg' height=""250px""></br><b>Christina</b>","""",256,IntactFace,Memorization,70,5000,f,"""",CFD-BF-008-001-N.jpg,Tiffany,0,"""","""","""",1,4/28/2021 17:43,72.13.157.188,Mozilla/5.0 (Windows NT 10.0; Win64; x64; rv:88.0) Gecko/20100101 Firefox/88.0,,Firefox,88,Windows,10
188,1,null,"""",html-keyboard-response,121,889149,0.0-121.0,"""","<div style=""font-size:60px;"">+</div>","""",256,fixation,Memorization,null,500,"""","""","""","""","""","""","""","""",1,4/28/2021 17:43,72.13.157.188,Mozilla/5.0 (Windows NT 10.0; Win64; x64; rv:88.0) Gecko/20100101 Firefox/88.0,,Firefox,88,Windows,10
188,1,1060,"""",html-keyboard-response,122,894154,0.0-122.0,"""","<img src='jspsych/CFDfaces/CFD-WM-003-002-N.jpg' height=""250px""></br><b>Christian</b>","""",256,IntactFace,Memorization,70,5000,f,"""",CFD-LM-209-111-N.jpg,Timothy,0,"""","""","""",1,4/28/2021 17:43,72.13.157.188,Mozilla/5.0 (Windows NT 10.0; Win64; x64; rv:88.0) Gecko/20100101 Firefox/88.0,,Firefox,88,Windows,10
188,1,null,"""",html-keyboard-response,123,894656,0.0-123.0,"""","<div style=""font-size:60px;"">+</div>","""",256,fixation,Memorization,null,500,"""","""","""","""","""","""","""","""",1,4/28/2021 17:43,72.13.157.188,Mozilla/5.0 (Windows NT 10.0; Win64; x64; rv:88.0) Gecko/20100101 Firefox/88.0,,Firefox,88,Windows,10
188,1,2103,"""",html-keyboard-response,124,899661,0.0-124.0,"""","<img src='jspsych/CFDfaces/CFD-BF-226-119-N.jpg' height=""250px""></br><b>Amanda</b>","""",256,IntactFace,Memorization,70,5000,f,"""",CFD-AF-240-206-N.jpg,Lindsey,0,"""","""","""",1,4/28/2021 17:43,72.13.157.188,Mozilla/5.0 (Windows NT 10.0; Win64; x64; rv:88.0) Gecko/20100101 Firefox/88.0,,Firefox,88,Windows,10
188,1,null,"""",html-keyboard-response,125,900163,0.0-125.0,"""","<div style=""font-size:60px;"">+</div>","""",256,fixation,Memorization,null,500,"""","""","""","""","""","""","""","""",1,4/28/2021 17:43,72.13.157.188,Mozilla/5.0 (Windows NT 10.0; Win64; x64; rv:88.0) Gecko/20100101 Firefox/88.0,,Firefox,88,Windows,10
188,1,3391,"""",html-keyboard-response,126,905168,0.0-126.0,"""","<img src='jspsych/CFDfaces/CFD-AM-238-269-N.jpg' height=""250px""></br><b>Brian</b>","""",256,IntactFace,Memorization,70,5000,f,"""",CFD-AM-243-212-N.jpg,Justin,0,"""","""","""",1,4/28/2021 17:43,72.13.157.188,Mozilla/5.0 (Windows NT 10.0; Win64; x64; rv:88.0) Gecko/20100101 Firefox/88.0,,Firefox,88,Windows,10
188,1,null,"""",html-keyboard-response,127,905667,0.0-127.0,"""","<div style=""font-size:60px;"">+</div>","""",256,fixation,Memorization,null,500,"""","""","""","""","""","""","""","""",1,4/28/2021 17:43,72.13.157.188,Mozilla/5.0 (Windows NT 10.0; Win64; x64; rv:88.0) Gecko/20100101 Firefox/88.0,,Firefox,88,Windows,10
188,1,1481,"""",html-keyboard-response,128,910673,0.0-128.0,"""","<img src='jspsych/CFDfaces/CFD-AF-241-141-N.jpg' height=""250px""></br><b>Victoria</b>","""",256,IntactFace,Memorization,70,5000,f,"""",CFD-WM-232-070-N.jpg,Mark,0,"""","""","""",1,4/28/2021 17:43,72.13.157.188,Mozilla/5.0 (Windows NT 10.0; Win64; x64; rv:88.0) Gecko/20100101 Firefox/88.0,,Firefox,88,Windows,10
188,1,null,"""",html-keyboard-response,129,911175,0.0-129.0,"""","<div style=""font-size:60px;"">+</div>","""",256,fixation,Memorization,null,500,"""","""","""","""","""","""","""","""",1,4/28/2021 17:43,72.13.157.188,Mozilla/5.0 (Windows NT 10.0; Win64; x64; rv:88.0) Gecko/20100101 Firefox/88.0,,Firefox,88,Windows,10
188,1,919,"""",html-keyboard-response,130,916181,0.0-130.0,"""","<img src='jspsych/CFDfaces/CFD-BM-210-148-N.jpg' height=""250px""></br><b>Jeffrey</b>","""",256,IntactFace,Memorization,70,5000,f,"""",CFD-AM-237-154-N.jpg,Kenneth,0,"""","""","""",1,4/28/2021 17:43,72.13.157.188,Mozilla/5.0 (Windows NT 10.0; Win64; x64; rv:88.0) Gecko/20100101 Firefox/88.0,,Firefox,88,Windows,10
188,1,null,"""",html-keyboard-response,131,916683,0.0-131.0,"""","<div style=""font-size:60px;"">+</div>","""",256,fixation,Memorization,null,500,"""","""","""","""","""","""","""","""",1,4/28/2021 17:43,72.13.157.188,Mozilla/5.0 (Windows NT 10.0; Win64; x64; rv:88.0) Gecko/20100101 Firefox/88.0,,Firefox,88,Windows,10
188,1,1066,"""",html-keyboard-response,132,921689,0.0-132.0,"""","<img src='jspsych/CFDfaces/CFD-LF-244-096-N.jpg' height=""250px""></br><b>Andrea</b>","""",256,IntactFace,Memorization,70,5000,f,"""",CFD-LF-218-072-N.jpg,Heather,0,"""","""","""",1,4/28/2021 17:43,72.13.157.188,Mozilla/5.0 (Windows NT 10.0; Win64; x64; rv:88.0) Gecko/20100101 Firefox/88.0,,Firefox,88,Windows,10
188,1,null,"""",html-keyboard-response,133,922190,0.0-133.0,"""","<div style=""font-size:60px;"">+</div>","""",256,fixation,Memorization,null,500,"""","""","""","""","""","""","""","""",1,4/28/2021 17:43,72.13.157.188,Mozilla/5.0 (Windows NT 10.0; Win64; x64; rv:88.0) Gecko/20100101 Firefox/88.0,,Firefox,88,Windows,10
188,1,1114,"""",html-keyboard-response,134,927194,0.0-134.0,"""","<img src='jspsych/CFDfaces/CFD-AM-213-056-N.jpg' height=""250px""></br><b>Nicholas</b>","""",256,IntactFace,Memorization,70,5000,f,"""",CFD-BF-218-207-N.jpg,Laura,0,"""","""","""",1,4/28/2021 17:43,72.13.157.188,Mozilla/5.0 (Windows NT 10.0; Win64; x64; rv:88.0) Gecko/20100101 Firefox/88.0,,Firefox,88,Windows,10
188,1,null,"""",html-keyboard-response,135,927696,0.0-135.0,"""","<div style=""font-size:60px;"">+</div>","""",256,fixation,Memorization,null,500,"""","""","""","""","""","""","""","""",1,4/28/2021 17:43,72.13.157.188,Mozilla/5.0 (Windows NT 10.0; Win64; x64; rv:88.0) Gecko/20100101 Firefox/88.0,,Firefox,88,Windows,10
188,1,1029,"""",html-keyboard-response,136,932702,0.0-136.0,"""","<img src='jspsych/CFDfaces/CFD-AF-243-170-N.jpg' height=""250px""></br><b>Ashley</b>","""",256,IntactFace,Memorization,70,5000,f,"""",CFD-WF-038-021-N.jpg,Erin,0,"""","""","""",1,4/28/2021 17:43,72.13.157.188,Mozilla/5.0 (Windows NT 10.0; Win64; x64; rv:88.0) Gecko/20100101 Firefox/88.0,,Firefox,88,Windows,10
188,1,null,"""",html-keyboard-response,137,933202,0.0-137.0,"""","<div style=""font-size:60px;"">+</div>","""",256,fixation,Memorization,null,500,"""","""","""","""","""","""","""","""",1,4/28/2021 17:43,72.13.157.188,Mozilla/5.0 (Windows NT 10.0; Win64; x64; rv:88.0) Gecko/20100101 Firefox/88.0,,Firefox,88,Windows,10
188,1,1265,"""",html-keyboard-response,138,938206,0.0-138.0,"""","<img src='jspsych/CFDfaces/CFD-WF-217-085-N.jpg' height=""250px""></br><b>Brittany</b>","""",256,IntactFace,Memorization,70,5000,f,"""",CFD-WM-213-076-N.jpg,Dustin,0,"""","""","""",1,4/28/2021 17:43,72.13.157.188,Mozilla/5.0 (Windows NT 10.0; Win64; x64; rv:88.0) Gecko/20100101 Firefox/88.0,,Firefox,88,Windows,10
188,1,null,"""",html-keyboard-response,139,938707,0.0-139.0,"""","<div style=""font-size:60px;"">+</div>","""",256,fixation,Memorization,null,500,"""","""","""","""","""","""","""","""",1,4/28/2021 17:43,72.13.157.188,Mozilla/5.0 (Windows NT 10.0; Win64; x64; rv:88.0) Gecko/20100101 Firefox/88.0,,Firefox,88,Windows,10
188,1,1692,"""",html-keyboard-response,140,943711,0.0-140.0,"""","<img src='jspsych/CFDfaces/CFD-LM-224-162-N.jpg' height=""250px""></br><b>Gregory</b>","""",256,IntactFace,Memorization,70,5000,f,"""",CFD-WF-200-099-N.jpg,Jenna,0,"""","""","""",1,4/28/2021 17:43,72.13.157.188,Mozilla/5.0 (Windows NT 10.0; Win64; x64; rv:88.0) Gecko/20100101 Firefox/88.0,,Firefox,88,Windows,10
188,1,null,"""",html-keyboard-response,141,944213,0.0-141.0,"""","<div style=""font-size:60px;"">+</div>","""",256,fixation,Memorization,null,500,"""","""","""","""","""","""","""","""",1,4/28/2021 17:43,72.13.157.188,Mozilla/5.0 (Windows NT 10.0; Win64; x64; rv:88.0) Gecko/20100101 Firefox/88.0,,Firefox,88,Windows,10
188,1,1387,"""",html-keyboard-response,142,949217,0.0-142.0,"""","<img src='jspsych/CFDfaces/CFD-WF-006-002-N.jpg' height=""250px""></br><b>Kimberly</b>","""",256,IntactFace,Memorization,70,5000,f,"""",CFD-LM-221-216-N.jpg,Austin,0,"""","""","""",1,4/28/2021 17:43,72.13.157.188,Mozilla/5.0 (Windows NT 10.0; Win64; x64; rv:88.0) Gecko/20100101 Firefox/88.0,,Firefox,88,Windows,10
188,1,null,"""",html-keyboard-response,143,949720,0.0-143.0,"""","<div style=""font-size:60px;"">+</div>","""",256,fixation,Memorization,null,500,"""","""","""","""","""","""","""","""",1,4/28/2021 17:43,72.13.157.188,Mozilla/5.0 (Windows NT 10.0; Win64; x64; rv:88.0) Gecko/20100101 Firefox/88.0,,Firefox,88,Windows,10
188,1,1662,"""",html-keyboard-response,144,954725,0.0-144.0,"""","<img src='jspsych/CFDfaces/CFD-BM-205-001-N.jpg' height=""250px""></br><b>Joshua</b>","""",256,IntactFace,Memorization,70,5000,f,"""",CFD-LF-201-035-N.jpg,Melissa,0,"""","""","""",1,4/28/2021 17:43,72.13.157.188,Mozilla/5.0 (Windows NT 10.0; Win64; x64; rv:88.0) Gecko/20100101 Firefox/88.0,,Firefox,88,Windows,10
188,1,null,"""",html-keyboard-response,145,955228,0.0-145.0,"""","<div style=""font-size:60px;"">+</div>","""",256,fixation,Memorization,null,500,"""","""","""","""","""","""","""","""",1,4/28/2021 17:43,72.13.157.188,Mozilla/5.0 (Windows NT 10.0; Win64; x64; rv:88.0) Gecko/20100101 Firefox/88.0,,Firefox,88,Windows,10
188,1,2443,"""",html-keyboard-response,146,960233,0.0-146.0,"""","<img src='jspsych/CFDfaces/CFD-BF-039-031-N.jpg' height=""250px""></br><b>Vanessa</b>","""",256,IntactFace,Memorization,70,5000,f,"""",CFD-BM-011-016-N.jpg,Sean,0,"""","""","""",1,4/28/2021 17:43,72.13.157.188,Mozilla/5.0 (Windows NT 10.0; Win64; x64; rv:88.0) Gecko/20100101 Firefox/88.0,,Firefox,88,Windows,10
188,1,null,"""",html-keyboard-response,147,960735,0.0-147.0,"""","<div style=""font-size:60px;"">+</div>","""",256,fixation,Memorization,null,500,"""","""","""","""","""","""","""","""",1,4/28/2021 17:43,72.13.157.188,Mozilla/5.0 (Windows NT 10.0; Win64; x64; rv:88.0) Gecko/20100101 Firefox/88.0,,Firefox,88,Windows,10
188,1,2959,"""",html-keyboard-response,148,965738,0.0-148.0,"""","<img src='jspsych/CFDfaces/CFD-BF-010-001-N.jpg' height=""250px""></br><b>Kayla</b>","""",256,IntactFace,Memorization,70,5000,f,"""",CFD-WM-041-021-N.jpg,Luis,0,"""","""","""",1,4/28/2021 17:43,72.13.157.188,Mozilla/5.0 (Windows NT 10.0; Win64; x64; rv:88.0) Gecko/20100101 Firefox/88.0,,Firefox,88,Windows,10
188,1,null,"""",html-keyboard-response,149,966241,0.0-149.0,"""","<div style=""font-size:60px;"">+</div>","""",256,fixation,Memorization,null,500,"""","""","""","""","""","""","""","""",1,4/28/2021 17:43,72.13.157.188,Mozilla/5.0 (Windows NT 10.0; Win64; x64; rv:88.0) Gecko/20100101 Firefox/88.0,,Firefox,88,Windows,10
188,1,2477,"""",html-keyboard-response,150,971246,0.0-150.0,"""","<img src='jspsych/CFDfaces/CFD-LM-223-175-N.jpg' height=""250px""></br><b>Brandon</b>","""",256,IntactFace,Memorization,70,5000,f,"""",CFD-AM-214-168-N.jpg,Vincent,0,"""","""","""",1,4/28/2021 17:43,72.13.157.188,Mozilla/5.0 (Windows NT 10.0; Win64; x64; rv:88.0) Gecko/20100101 Firefox/88.0,,Firefox,88,Windows,10
188,1,null,"""",html-keyboard-response,151,971748,0.0-151.0,"""","<div style=""font-size:60px;"">+</div>","""",256,fixation,Memorization,null,500,"""","""","""","""","""","""","""","""",1,4/28/2021 17:43,72.13.157.188,Mozilla/5.0 (Windows NT 10.0; Win64; x64; rv:88.0) Gecko/20100101 Firefox/88.0,,Firefox,88,Windows,10
188,1,1452,"""",html-keyboard-response,152,976751,0.0-152.0,"""","<img src='jspsych/CFDfaces/CFD-AM-212-050-N.jpg' height=""250px""></br><b>Richard</b>","""",256,IntactFace,Memorization,70,5000,f,"""",CFD-AM-202-079-N.jpg,Jacob,0,"""","""","""",1,4/28/2021 17:43,72.13.157.188,Mozilla/5.0 (Windows NT 10.0; Win64; x64; rv:88.0) Gecko/20100101 Firefox/88.0,,Firefox,88,Windows,10
188,1,null,"""",html-keyboard-response,153,977251,0.0-153.0,"""","<div style=""font-size:60px;"">+</div>","""",256,fixation,Memorization,null,500,"""","""","""","""","""","""","""","""",1,4/28/2021 17:43,72.13.157.188,Mozilla/5.0 (Windows NT 10.0; Win64; x64; rv:88.0) Gecko/20100101 Firefox/88.0,,Firefox,88,Windows,10
188,1,1709,"""",html-keyboard-response,154,978961,0.0-154.0,"""",Press Any Key to Begin Memory Test,"""",1,welcomeScreen,Break,32,"""","""","""","""","""","""","""","""","""",1,4/28/2021 17:43,72.13.157.188,Mozilla/5.0 (Windows NT 10.0; Win64; x64; rv:88.0) Gecko/20100101 Firefox/88.0,,Firefox,88,Windows,10
188,1,null,"""",html-keyboard-response,155,979966,0.0-155.0,"""","<div style=""font-size:60px;"">+</div>","""",256,ITI,Test,null,1000,"""","""","""","""","""","""","""","""",1,4/28/2021 17:43,72.13.157.188,Mozilla/5.0 (Windows NT 10.0; Win64; x64; rv:88.0) Gecko/20100101 Firefox/88.0,,Firefox,88,Windows,10
188,1,null,"""",image-keyboard-response,156,980221,0.0-156.0,"""",jspsych/scrambledDisgustFaces/scrambledAM31DIS.JPG,"""",256,forwardMask,Test,null,250,"""",d,"""","""","""","""","""","""",1,4/28/2021 17:43,72.13.157.188,Mozilla/5.0 (Windows NT 10.0; Win64; x64; rv:88.0) Gecko/20100101 Firefox/88.0,,Firefox,88,Windows,10
188,1,null,"""",image-keyboard-response,157,980239,0.0-157.0,"""",jspsych/disgustFaces/AM31DIS.JPG,"""",256,Cue,Test,null,16,"""","""","""","""","""","""","""","""",1,4/28/2021 17:43,72.13.157.188,Mozilla/5.0 (Windows NT 10.0; Win64; x64; rv:88.0) Gecko/20100101 Firefox/88.0,,Firefox,88,Windows,10
188,1,null,"""",image-keyboard-response,158,980343,0.0-158.0,"""",jspsych/neutralFaces/AM18NES.JPG,"""",256,backwardMask,Test,null,100,"""","""","""","""","""","""","""","""",1,4/28/2021 17:43,72.13.157.188,Mozilla/5.0 (Windows NT 10.0; Win64; x64; rv:88.0) Gecko/20100101 Firefox/88.0,,Firefox,88,Windows,10
188,1,null,"""",html-keyboard-response,159,981344,0.0-159.0,"""","<div style=""font-size:60px;"">+</div>","""",256,fixationBtwnNeutralMaskAndPrompt,Test,null,1000,"""","""","""","""","""","""","""","""",1,4/28/2021 17:43,72.13.157.188,Mozilla/5.0 (Windows NT 10.0; Win64; x64; rv:88.0) Gecko/20100101 Firefox/88.0,,Firefox,88,Windows,10
188,1,2177,"""",html-button-response,160,983522,0.0-160.0,"""","<img src='jspsych/CFDfaces/CFD-BM-210-148-N.jpg' height=""250px"">,</br><b>Richard</b>",0,256,IntactOrRearranged,Test,"""","""","""","""",CFD-WM-041-021-N.jpg,Luis,1,0,"""","""",1,4/28/2021 17:43,72.13.157.188,Mozilla/5.0 (Windows NT 10.0; Win64; x64; rv:88.0) Gecko/20100101 Firefox/88.0,,Firefox,88,Windows,10
188,1,1934,"""",html-slider-response,161,985457,0.0-161.0,"""","<img src='jspsych/CFDfaces/CFD-BM-210-148-N.jpg' height=""250px"">,</br><b>Richard</b>","""",256,ConfidenceQuery,Test,"""","""","""","""",CFD-WM-041-021-N.jpg,Luis,1,"""",0,22,1,4/28/2021 17:43,72.13.157.188,Mozilla/5.0 (Windows NT 10.0; Win64; x64; rv:88.0) Gecko/20100101 Firefox/88.0,,Firefox,88,Windows,10
188,1,null,"""",html-keyboard-response,162,986463,0.0-162.0,"""","<div style=""font-size:60px;"">+</div>","""",256,ITI,Test,null,1000,"""","""","""","""","""","""","""","""",1,4/28/2021 17:43,72.13.157.188,Mozilla/5.0 (Windows NT 10.0; Win64; x64; rv:88.0) Gecko/20100101 Firefox/88.0,,Firefox,88,Windows,10
188,1,null,"""",image-keyboard-response,163,986719,0.0-163.0,"""",jspsych/scrambledDisgustFaces/scrambledBM34DIS.JPG,"""",256,forwardMask,Test,null,250,"""",d,"""","""","""","""","""","""",1,4/28/2021 17:43,72.13.157.188,Mozilla/5.0 (Windows NT 10.0; Win64; x64; rv:88.0) Gecko/20100101 Firefox/88.0,,Firefox,88,Windows,10
188,1,null,"""",image-keyboard-response,164,986738,0.0-164.0,"""",jspsych/disgustFaces/BM35DIS.JPG,"""",256,Cue,Test,null,16,"""","""","""","""","""","""","""","""",1,4/28/2021 17:43,72.13.157.188,Mozilla/5.0 (Windows NT 10.0; Win64; x64; rv:88.0) Gecko/20100101 Firefox/88.0,,Firefox,88,Windows,10
188,1,null,"""",image-keyboard-response,165,986840,0.0-165.0,"""",jspsych/neutralFaces/AM11NES.JPG,"""",256,backwardMask,Test,null,100,"""","""","""","""","""","""","""","""",1,4/28/2021 17:43,72.13.157.188,Mozilla/5.0 (Windows NT 10.0; Win64; x64; rv:88.0) Gecko/20100101 Firefox/88.0,,Firefox,88,Windows,10
188,1,null,"""",html-keyboard-response,166,987842,0.0-166.0,"""","<div style=""font-size:60px;"">+</div>","""",256,fixationBtwnNeutralMaskAndPrompt,Test,null,1000,"""","""","""","""","""","""","""","""",1,4/28/2021 17:43,72.13.157.188,Mozilla/5.0 (Windows NT 10.0; Win64; x64; rv:88.0) Gecko/20100101 Firefox/88.0,,Firefox,88,Windows,10
188,1,1236,"""",html-button-response,167,989079,0.0-167.0,"""","<img src='jspsych/CFDfaces/CFD-BF-039-031-N.jpg' height=""250px"">,</br><b>Vanessa</b>",0,256,IntactOrRearranged,Test,"""","""","""","""",CFD-LM-221-216-N.jpg,Mark,0,0,"""","""",1,4/28/2021 17:43,72.13.157.188,Mozilla/5.0 (Windows NT 10.0; Win64; x64; rv:88.0) Gecko/20100101 Firefox/88.0,,Firefox,88,Windows,10
188,1,1375,"""",html-slider-response,168,990455,0.0-168.0,"""","<img src='jspsych/CFDfaces/CFD-BF-039-031-N.jpg' height=""250px"">,</br><b>Vanessa</b>","""",256,ConfidenceQuery,Test,"""","""","""","""",CFD-LM-221-216-N.jpg,Mark,0,"""",0,56,1,4/28/2021 17:43,72.13.157.188,Mozilla/5.0 (Windows NT 10.0; Win64; x64; rv:88.0) Gecko/20100101 Firefox/88.0,,Firefox,88,Windows,10
188,1,null,"""",html-keyboard-response,169,991457,0.0-169.0,"""","<div style=""font-size:60px;"">+</div>","""",256,ITI,Test,null,1000,"""","""","""","""","""","""","""","""",1,4/28/2021 17:43,72.13.157.188,Mozilla/5.0 (Windows NT 10.0; Win64; x64; rv:88.0) Gecko/20100101 Firefox/88.0,,Firefox,88,Windows,10
188,1,null,"""",image-keyboard-response,170,991714,0.0-170.0,"""",jspsych/scrambledDisgustFaces/scrambledAM09DIS.JPG,"""",256,forwardMask,Test,null,250,"""",d,"""","""","""","""","""","""",1,4/28/2021 17:43,72.13.157.188,Mozilla/5.0 (Windows NT 10.0; Win64; x64; rv:88.0) Gecko/20100101 Firefox/88.0,,Firefox,88,Windows,10
188,1,null,"""",image-keyboard-response,171,991734,0.0-171.0,"""",jspsych/disgustFaces/AM09DIS.JPG,"""",256,Cue,Test,null,16,"""","""","""","""","""","""","""","""",1,4/28/2021 17:43,72.13.157.188,Mozilla/5.0 (Windows NT 10.0; Win64; x64; rv:88.0) Gecko/20100101 Firefox/88.0,,Firefox,88,Windows,10
188,1,null,"""",image-keyboard-response,172,991835,0.0-172.0,"""",jspsych/neutralFaces/BM25NES.JPG,"""",256,backwardMask,Test,null,100,"""","""","""","""","""","""","""","""",1,4/28/2021 17:43,72.13.157.188,Mozilla/5.0 (Windows NT 10.0; Win64; x64; rv:88.0) Gecko/20100101 Firefox/88.0,,Firefox,88,Windows,10
188,1,null,"""",html-keyboard-response,173,992837,0.0-173.0,"""","<div style=""font-size:60px;"">+</div>","""",256,fixationBtwnNeutralMaskAndPrompt,Test,null,1000,"""","""","""","""","""","""","""","""",1,4/28/2021 17:43,72.13.157.188,Mozilla/5.0 (Windows NT 10.0; Win64; x64; rv:88.0) Gecko/20100101 Firefox/88.0,,Firefox,88,Windows,10
188,1,2996,"""",html-button-response,174,995834,0.0-174.0,"""","<img src='jspsych/CFDfaces/CFD-AM-212-050-N.jpg' height=""250px"">,</br><b>Christian</b>",0,256,IntactOrRearranged,Test,"""","""","""","""",CFD-WF-038-021-N.jpg,Laura,1,0,"""","""",1,4/28/2021 17:43,72.13.157.188,Mozilla/5.0 (Windows NT 10.0; Win64; x64; rv:88.0) Gecko/20100101 Firefox/88.0,,Firefox,88,Windows,10
188,1,1171,"""",html-slider-response,175,997005,0.0-175.0,"""","<img src='jspsych/CFDfaces/CFD-AM-212-050-N.jpg' height=""250px"">,</br><b>Christian</b>","""",256,ConfidenceQuery,Test,"""","""","""","""",CFD-WF-038-021-N.jpg,Laura,1,"""",0,18,1,4/28/2021 17:43,72.13.157.188,Mozilla/5.0 (Windows NT 10.0; Win64; x64; rv:88.0) Gecko/20100101 Firefox/88.0,,Firefox,88,Windows,10
188,1,null,"""",html-keyboard-response,176,998009,0.0-176.0,"""","<div style=""font-size:60px;"">+</div>","""",256,ITI,Test,null,1000,"""","""","""","""","""","""","""","""",1,4/28/2021 17:43,72.13.157.188,Mozilla/5.0 (Windows NT 10.0; Win64; x64; rv:88.0) Gecko/20100101 Firefox/88.0,,Firefox,88,Windows,10
188,1,null,"""",image-keyboard-response,177,998263,0.0-177.0,"""",jspsych/scrambledDisgustFaces/scrambledBF09DIS.JPG,"""",256,forwardMask,Test,null,250,"""",d,"""","""","""","""","""","""",1,4/28/2021 17:43,72.13.157.188,Mozilla/5.0 (Windows NT 10.0; Win64; x64; rv:88.0) Gecko/20100101 Firefox/88.0,,Firefox,88,Windows,10
188,1,null,"""",image-keyboard-response,178,998282,0.0-178.0,"""",jspsych/disgustFaces/BF09DIS.JPG,"""",256,Cue,Test,null,16,"""","""","""","""","""","""","""","""",1,4/28/2021 17:43,72.13.157.188,Mozilla/5.0 (Windows NT 10.0; Win64; x64; rv:88.0) Gecko/20100101 Firefox/88.0,,Firefox,88,Windows,10
188,1,null,"""",image-keyboard-response,179,998385,0.0-179.0,"""",jspsych/neutralFaces/BF13NES.JPG,"""",256,backwardMask,Test,null,100,"""","""","""","""","""","""","""","""",1,4/28/2021 17:43,72.13.157.188,Mozilla/5.0 (Windows NT 10.0; Win64; x64; rv:88.0) Gecko/20100101 Firefox/88.0,,Firefox,88,Windows,10
188,1,null,"""",html-keyboard-response,180,999386,0.0-180.0,"""","<div style=""font-size:60px;"">+</div>","""",256,fixationBtwnNeutralMaskAndPrompt,Test,null,1000,"""","""","""","""","""","""","""","""",1,4/28/2021 17:43,72.13.157.188,Mozilla/5.0 (Windows NT 10.0; Win64; x64; rv:88.0) Gecko/20100101 Firefox/88.0,,Firefox,88,Windows,10
188,1,1805,"""",html-button-response,181,1001192,0.0-181.0,"""","<img src='jspsych/CFDfaces/CFD-BF-226-119-N.jpg' height=""250px"">,</br><b>Christina</b>",0,256,IntactOrRearranged,Test,"""","""","""","""",CFD-LM-225-130-N.jpg,Kenneth,1,0,"""","""",1,4/28/2021 17:43,72.13.157.188,Mozilla/5.0 (Windows NT 10.0; Win64; x64; rv:88.0) Gecko/20100101 Firefox/88.0,,Firefox,88,Windows,10
188,1,1329,"""",html-slider-response,182,1002522,0.0-182.0,"""","<img src='jspsych/CFDfaces/CFD-BF-226-119-N.jpg' height=""250px"">,</br><b>Christina</b>","""",256,ConfidenceQuery,Test,"""","""","""","""",CFD-LM-225-130-N.jpg,Kenneth,1,"""",0,14,1,4/28/2021 17:43,72.13.157.188,Mozilla/5.0 (Windows NT 10.0; Win64; x64; rv:88.0) Gecko/20100101 Firefox/88.0,,Firefox,88,Windows,10
188,1,null,"""",html-keyboard-response,183,1003527,0.0-183.0,"""","<div style=""font-size:60px;"">+</div>","""",256,ITI,Test,null,1000,"""","""","""","""","""","""","""","""",1,4/28/2021 17:43,72.13.157.188,Mozilla/5.0 (Windows NT 10.0; Win64; x64; rv:88.0) Gecko/20100101 Firefox/88.0,,Firefox,88,Windows,10
188,1,null,"""",image-keyboard-response,184,1003779,0.0-184.0,"""",jspsych/scrambledNeutralFaces/scrambledBM14NES.JPG,"""",256,forwardMask,Test,null,250,"""",n,"""","""","""","""","""","""",1,4/28/2021 17:43,72.13.157.188,Mozilla/5.0 (Windows NT 10.0; Win64; x64; rv:88.0) Gecko/20100101 Firefox/88.0,,Firefox,88,Windows,10
188,1,null,"""",image-keyboard-response,185,1003798,0.0-185.0,"""",jspsych/neutralFaces/BM14NES.JPG,"""",256,Cue,Test,null,16,"""","""","""","""","""","""","""","""",1,4/28/2021 17:43,72.13.157.188,Mozilla/5.0 (Windows NT 10.0; Win64; x64; rv:88.0) Gecko/20100101 Firefox/88.0,,Firefox,88,Windows,10
188,1,null,"""",image-keyboard-response,186,1003900,0.0-186.0,"""",jspsych/neutralFaces/AM06NES.JPG,"""",256,backwardMask,Test,null,100,"""","""","""","""","""","""","""","""",1,4/28/2021 17:43,72.13.157.188,Mozilla/5.0 (Windows NT 10.0; Win64; x64; rv:88.0) Gecko/20100101 Firefox/88.0,,Firefox,88,Windows,10
188,1,null,"""",html-keyboard-response,187,1004903,0.0-187.0,"""","<div style=""font-size:60px;"">+</div>","""",256,fixationBtwnNeutralMaskAndPrompt,Test,null,1000,"""","""","""","""","""","""","""","""",1,4/28/2021 17:43,72.13.157.188,Mozilla/5.0 (Windows NT 10.0; Win64; x64; rv:88.0) Gecko/20100101 Firefox/88.0,,Firefox,88,Windows,10
188,1,1033,"""",html-button-response,188,1005937,0.0-188.0,"""","<img src='jspsych/CFDfaces/CFD-AM-248-104-N.jpg' height=""250px"">,</br><b>Juan</b>",0,256,IntactOrRearranged,Test,"""","""","""","""",CFD-BF-201-080-N.jpg,Erin,0,0,"""","""",1,4/28/2021 17:43,72.13.157.188,Mozilla/5.0 (Windows NT 10.0; Win64; x64; rv:88.0) Gecko/20100101 Firefox/88.0,,Firefox,88,Windows,10
188,1,1059,"""",html-slider-response,189,1006999,0.0-189.0,"""","<img src='jspsych/CFDfaces/CFD-AM-248-104-N.jpg' height=""250px"">,</br><b>Juan</b>","""",256,ConfidenceQuery,Test,"""","""","""","""",CFD-BF-201-080-N.jpg,Erin,0,"""",0,78,1,4/28/2021 17:43,72.13.157.188,Mozilla/5.0 (Windows NT 10.0; Win64; x64; rv:88.0) Gecko/20100101 Firefox/88.0,,Firefox,88,Windows,10
188,1,null,"""",html-keyboard-response,190,1008002,0.0-190.0,"""","<div style=""font-size:60px;"">+</div>","""",256,ITI,Test,null,1000,"""","""","""","""","""","""","""","""",1,4/28/2021 17:43,72.13.157.188,Mozilla/5.0 (Windows NT 10.0; Win64; x64; rv:88.0) Gecko/20100101 Firefox/88.0,,Firefox,88,Windows,10
188,1,null,"""",image-keyboard-response,191,1008260,0.0-191.0,"""",jspsych/scrambledNeutralFaces/scrambledBF33NES.JPG,"""",256,forwardMask,Test,null,250,"""",n,"""","""","""","""","""","""",1,4/28/2021 17:43,72.13.157.188,Mozilla/5.0 (Windows NT 10.0; Win64; x64; rv:88.0) Gecko/20100101 Firefox/88.0,,Firefox,88,Windows,10
188,1,null,"""",image-keyboard-response,192,1008279,0.0-192.0,"""",jspsych/neutralFaces/BF33NES.JPG,"""",256,Cue,Test,null,16,"""","""","""","""","""","""","""","""",1,4/28/2021 17:43,72.13.157.188,Mozilla/5.0 (Windows NT 10.0; Win64; x64; rv:88.0) Gecko/20100101 Firefox/88.0,,Firefox,88,Windows,10
188,1,null,"""",image-keyboard-response,193,1008382,0.0-193.0,"""",jspsych/neutralFaces/BF30NES.JPG,"""",256,backwardMask,Test,null,100,"""","""","""","""","""","""","""","""",1,4/28/2021 17:43,72.13.157.188,Mozilla/5.0 (Windows NT 10.0; Win64; x64; rv:88.0) Gecko/20100101 Firefox/88.0,,Firefox,88,Windows,10
188,1,null,"""",html-keyboard-response,194,1009383,0.0-194.0,"""","<div style=""font-size:60px;"">+</div>","""",256,fixationBtwnNeutralMaskAndPrompt,Test,null,1000,"""","""","""","""","""","""","""","""",1,4/28/2021 17:43,72.13.157.188,Mozilla/5.0 (Windows NT 10.0; Win64; x64; rv:88.0) Gecko/20100101 Firefox/88.0,,Firefox,88,Windows,10
188,1,1795,"""",html-button-response,195,1011180,0.0-195.0,"""","<img src='jspsych/CFDfaces/CFD-AF-203-077-N.jpg' height=""250px"">,</br><b>Victoria</b>",1,256,IntactOrRearranged,Test,"""","""","""","""",CFD-LF-232-199-N.jpg,Lauren,1,1,"""","""",1,4/28/2021 17:43,72.13.157.188,Mozilla/5.0 (Windows NT 10.0; Win64; x64; rv:88.0) Gecko/20100101 Firefox/88.0,,Firefox,88,Windows,10
188,1,2037,"""",html-slider-response,196,1013218,0.0-196.0,"""","<img src='jspsych/CFDfaces/CFD-AF-203-077-N.jpg' height=""250px"">,</br><b>Victoria</b>","""",256,ConfidenceQuery,Test,"""","""","""","""",CFD-LF-232-199-N.jpg,Lauren,1,"""",0,28,1,4/28/2021 17:43,72.13.157.188,Mozilla/5.0 (Windows NT 10.0; Win64; x64; rv:88.0) Gecko/20100101 Firefox/88.0,,Firefox,88,Windows,10
188,1,null,"""",html-keyboard-response,197,1014220,0.0-197.0,"""","<div style=""font-size:60px;"">+</div>","""",256,ITI,Test,null,1000,"""","""","""","""","""","""","""","""",1,4/28/2021 17:43,72.13.157.188,Mozilla/5.0 (Windows NT 10.0; Win64; x64; rv:88.0) Gecko/20100101 Firefox/88.0,,Firefox,88,Windows,10
188,1,null,"""",image-keyboard-response,198,1014480,0.0-198.0,"""",jspsych/scrambledDisgustFaces/scrambledAF10DIS.JPG,"""",256,forwardMask,Test,null,250,"""",d,"""","""","""","""","""","""",1,4/28/2021 17:43,72.13.157.188,Mozilla/5.0 (Windows NT 10.0; Win64; x64; rv:88.0) Gecko/20100101 Firefox/88.0,,Firefox,88,Windows,10
188,1,null,"""",image-keyboard-response,199,1014499,0.0-199.0,"""",jspsych/disgustFaces/AF10DIS.JPG,"""",256,Cue,Test,null,16,"""","""","""","""","""","""","""","""",1,4/28/2021 17:43,72.13.157.188,Mozilla/5.0 (Windows NT 10.0; Win64; x64; rv:88.0) Gecko/20100101 Firefox/88.0,,Firefox,88,Windows,10
188,1,null,"""",image-keyboard-response,200,1014601,0.0-200.0,"""",jspsych/neutralFaces/AF17NES.JPG,"""",256,backwardMask,Test,null,100,"""","""","""","""","""","""","""","""",1,4/28/2021 17:43,72.13.157.188,Mozilla/5.0 (Windows NT 10.0; Win64; x64; rv:88.0) Gecko/20100101 Firefox/88.0,,Firefox,88,Windows,10
188,1,null,"""",html-keyboard-response,201,1015601,0.0-201.0,"""","<div style=""font-size:60px;"">+</div>","""",256,fixationBtwnNeutralMaskAndPrompt,Test,null,1000,"""","""","""","""","""","""","""","""",1,4/28/2021 17:43,72.13.157.188,Mozilla/5.0 (Windows NT 10.0; Win64; x64; rv:88.0) Gecko/20100101 Firefox/88.0,,Firefox,88,Windows,10
188,1,1244,"""",html-button-response,202,1016845,0.0-202.0,"""","<img src='jspsych/CFDfaces/CFD-LF-220-120-N.jpg' height=""250px"">,</br><b>Samantha</b>",0,256,IntactOrRearranged,Test,"""","""","""","""",CFD-WF-018-017-N.jpg,Amy,0,0,"""","""",1,4/28/2021 17:43,72.13.157.188,Mozilla/5.0 (Windows NT 10.0; Win64; x64; rv:88.0) Gecko/20100101 Firefox/88.0,,Firefox,88,Windows,10
188,1,1353,"""",html-slider-response,203,1018199,0.0-203.0,"""","<img src='jspsych/CFDfaces/CFD-LF-220-120-N.jpg' height=""250px"">,</br><b>Samantha</b>","""",256,ConfidenceQuery,Test,"""","""","""","""",CFD-WF-018-017-N.jpg,Amy,0,"""",0,94,1,4/28/2021 17:43,72.13.157.188,Mozilla/5.0 (Windows NT 10.0; Win64; x64; rv:88.0) Gecko/20100101 Firefox/88.0,,Firefox,88,Windows,10
188,1,null,"""",html-keyboard-response,204,1019202,0.0-204.0,"""","<div style=""font-size:60px;"">+</div>","""",256,ITI,Test,null,1000,"""","""","""","""","""","""","""","""",1,4/28/2021 17:43,72.13.157.188,Mozilla/5.0 (Windows NT 10.0; Win64; x64; rv:88.0) Gecko/20100101 Firefox/88.0,,Firefox,88,Windows,10
188,1,null,"""",image-keyboard-response,205,1019452,0.0-205.0,"""",jspsych/scrambledDisgustFaces/scrambledBM31DIS.JPG,"""",256,forwardMask,Test,null,250,"""",d,"""","""","""","""","""","""",1,4/28/2021 17:43,72.13.157.188,Mozilla/5.0 (Windows NT 10.0; Win64; x64; rv:88.0) Gecko/20100101 Firefox/88.0,,Firefox,88,Windows,10
188,1,null,"""",image-keyboard-response,206,1019471,0.0-206.0,"""",jspsych/disgustFaces/BM32DIS.JPG,"""",256,Cue,Test,null,16,"""","""","""","""","""","""","""","""",1,4/28/2021 17:43,72.13.157.188,Mozilla/5.0 (Windows NT 10.0; Win64; x64; rv:88.0) Gecko/20100101 Firefox/88.0,,Firefox,88,Windows,10
188,1,null,"""",image-keyboard-response,207,1019574,0.0-207.0,"""",jspsych/neutralFaces/BM28NES.JPG,"""",256,backwardMask,Test,null,100,"""","""","""","""","""","""","""","""",1,4/28/2021 17:43,72.13.157.188,Mozilla/5.0 (Windows NT 10.0; Win64; x64; rv:88.0) Gecko/20100101 Firefox/88.0,,Firefox,88,Windows,10
188,1,null,"""",html-keyboard-response,208,1020575,0.0-208.0,"""","<div style=""font-size:60px;"">+</div>","""",256,fixationBtwnNeutralMaskAndPrompt,Test,null,1000,"""","""","""","""","""","""","""","""",1,4/28/2021 17:43,72.13.157.188,Mozilla/5.0 (Windows NT 10.0; Win64; x64; rv:88.0) Gecko/20100101 Firefox/88.0,,Firefox,88,Windows,10
188,1,1122,"""",html-button-response,209,1021701,0.0-209.0,"""","<img src='jspsych/CFDfaces/CFD-WF-217-085-N.jpg' height=""250px"">,</br><b>Brittany</b>",0,256,IntactOrRearranged,Test,"""","""","""","""",CFD-WF-215-145-N.jpg,Rebecca,0,0,"""","""",1,4/28/2021 17:43,72.13.157.188,Mozilla/5.0 (Windows NT 10.0; Win64; x64; rv:88.0) Gecko/20100101 Firefox/88.0,,Firefox,88,Windows,10
188,1,982,"""",html-slider-response,210,1022685,0.0-210.0,"""","<img src='jspsych/CFDfaces/CFD-WF-217-085-N.jpg' height=""250px"">,</br><b>Brittany</b>","""",256,ConfidenceQuery,Test,"""","""","""","""",CFD-WF-215-145-N.jpg,Rebecca,0,"""",0,24,1,4/28/2021 17:43,72.13.157.188,Mozilla/5.0 (Windows NT 10.0; Win64; x64; rv:88.0) Gecko/20100101 Firefox/88.0,,Firefox,88,Windows,10
188,1,null,"""",html-keyboard-response,211,1023688,0.0-211.0,"""","<div style=""font-size:60px;"">+</div>","""",256,ITI,Test,null,1000,"""","""","""","""","""","""","""","""",1,4/28/2021 17:43,72.13.157.188,Mozilla/5.0 (Windows NT 10.0; Win64; x64; rv:88.0) Gecko/20100101 Firefox/88.0,,Firefox,88,Windows,10
188,1,null,"""",image-keyboard-response,212,1023940,0.0-212.0,"""",jspsych/scrambledDisgustFaces/scrambledAM08DIS.JPG,"""",256,forwardMask,Test,null,250,"""",d,"""","""","""","""","""","""",1,4/28/2021 17:43,72.13.157.188,Mozilla/5.0 (Windows NT 10.0; Win64; x64; rv:88.0) Gecko/20100101 Firefox/88.0,,Firefox,88,Windows,10
188,1,null,"""",image-keyboard-response,213,1023960,0.0-213.0,"""",jspsych/disgustFaces/AM08DIS.JPG,"""",256,Cue,Test,null,16,"""","""","""","""","""","""","""","""",1,4/28/2021 17:43,72.13.157.188,Mozilla/5.0 (Windows NT 10.0; Win64; x64; rv:88.0) Gecko/20100101 Firefox/88.0,,Firefox,88,Windows,10
188,1,null,"""",image-keyboard-response,214,1024062,0.0-214.0,"""",jspsych/neutralFaces/BM31NES.JPG,"""",256,backwardMask,Test,null,100,"""","""","""","""","""","""","""","""",1,4/28/2021 17:43,72.13.157.188,Mozilla/5.0 (Windows NT 10.0; Win64; x64; rv:88.0) Gecko/20100101 Firefox/88.0,,Firefox,88,Windows,10
188,1,null,"""",html-keyboard-response,215,1025065,0.0-215.0,"""","<div style=""font-size:60px;"">+</div>","""",256,fixationBtwnNeutralMaskAndPrompt,Test,null,1000,"""","""","""","""","""","""","""","""",1,4/28/2021 17:43,72.13.157.188,Mozilla/5.0 (Windows NT 10.0; Win64; x64; rv:88.0) Gecko/20100101 Firefox/88.0,,Firefox,88,Windows,10
188,1,2114,"""",html-button-response,216,1027179,0.0-216.0,"""","<img src='jspsych/CFDfaces/CFD-LM-201-057-N.jpg' height=""250px"">,</br><b>Gregory</b>",0,256,IntactOrRearranged,Test,"""","""","""","""",CFD-LF-239-148-N.jpg,Whitney,1,0,"""","""",1,4/28/2021 17:43,72.13.157.188,Mozilla/5.0 (Windows NT 10.0; Win64; x64; rv:88.0) Gecko/20100101 Firefox/88.0,,Firefox,88,Windows,10
188,1,1868,"""",html-slider-response,217,1029052,0.0-217.0,"""","<img src='jspsych/CFDfaces/CFD-LM-201-057-N.jpg' height=""250px"">,</br><b>Gregory</b>","""",256,ConfidenceQuery,Test,"""","""","""","""",CFD-LF-239-148-N.jpg,Whitney,1,"""",0,22,1,4/28/2021 17:43,72.13.157.188,Mozilla/5.0 (Windows NT 10.0; Win64; x64; rv:88.0) Gecko/20100101 Firefox/88.0,,Firefox,88,Windows,10
188,1,null,"""",html-keyboard-response,218,1030053,0.0-218.0,"""","<div style=""font-size:60px;"">+</div>","""",256,ITI,Test,null,1000,"""","""","""","""","""","""","""","""",1,4/28/2021 17:43,72.13.157.188,Mozilla/5.0 (Windows NT 10.0; Win64; x64; rv:88.0) Gecko/20100101 Firefox/88.0,,Firefox,88,Windows,10
188,1,null,"""",image-keyboard-response,219,1030306,0.0-219.0,"""",jspsych/scrambledNeutralFaces/scrambledBM34NES.JPG,"""",256,forwardMask,Test,null,250,"""",n,"""","""","""","""","""","""",1,4/28/2021 17:43,72.13.157.188,Mozilla/5.0 (Windows NT 10.0; Win64; x64; rv:88.0) Gecko/20100101 Firefox/88.0,,Firefox,88,Windows,10
188,1,null,"""",image-keyboard-response,220,1030325,0.0-220.0,"""",jspsych/neutralFaces/BM34NES.JPG,"""",256,Cue,Test,null,16,"""","""","""","""","""","""","""","""",1,4/28/2021 17:43,72.13.157.188,Mozilla/5.0 (Windows NT 10.0; Win64; x64; rv:88.0) Gecko/20100101 Firefox/88.0,,Firefox,88,Windows,10
188,1,null,"""",image-keyboard-response,221,1030429,0.0-221.0,"""",jspsych/neutralFaces/AM05NES.JPG,"""",256,backwardMask,Test,null,100,"""","""","""","""","""","""","""","""",1,4/28/2021 17:43,72.13.157.188,Mozilla/5.0 (Windows NT 10.0; Win64; x64; rv:88.0) Gecko/20100101 Firefox/88.0,,Firefox,88,Windows,10
188,1,null,"""",html-keyboard-response,222,1031431,0.0-222.0,"""","<div style=""font-size:60px;"">+</div>","""",256,fixationBtwnNeutralMaskAndPrompt,Test,null,1000,"""","""","""","""","""","""","""","""",1,4/28/2021 17:43,72.13.157.188,Mozilla/5.0 (Windows NT 10.0; Win64; x64; rv:88.0) Gecko/20100101 Firefox/88.0,,Firefox,88,Windows,10
188,1,1287,"""",html-button-response,223,1032719,0.0-223.0,"""","<img src='jspsych/CFDfaces/CFD-LF-244-096-N.jpg' height=""250px"">,</br><b>Amanda</b>",0,256,IntactOrRearranged,Test,"""","""","""","""",CFD-WM-232-070-N.jpg,Jesse,1,0,"""","""",1,4/28/2021 17:43,72.13.157.188,Mozilla/5.0 (Windows NT 10.0; Win64; x64; rv:88.0) Gecko/20100101 Firefox/88.0,,Firefox,88,Windows,10
188,1,2024,"""",html-slider-response,224,1034749,0.0-224.0,"""","<img src='jspsych/CFDfaces/CFD-LF-244-096-N.jpg' height=""250px"">,</br><b>Amanda</b>","""",256,ConfidenceQuery,Test,"""","""","""","""",CFD-WM-232-070-N.jpg,Jesse,1,"""",0,68,1,4/28/2021 17:43,72.13.157.188,Mozilla/5.0 (Windows NT 10.0; Win64; x64; rv:88.0) Gecko/20100101 Firefox/88.0,,Firefox,88,Windows,10
188,1,null,"""",html-keyboard-response,225,1035750,0.0-225.0,"""","<div style=""font-size:60px;"">+</div>","""",256,ITI,Test,null,1000,"""","""","""","""","""","""","""","""",1,4/28/2021 17:43,72.13.157.188,Mozilla/5.0 (Windows NT 10.0; Win64; x64; rv:88.0) Gecko/20100101 Firefox/88.0,,Firefox,88,Windows,10
188,1,null,"""",image-keyboard-response,226,1036002,0.0-226.0,"""",jspsych/scrambledDisgustFaces/scrambledBM33DIS.JPG,"""",256,forwardMask,Test,null,250,"""",d,"""","""","""","""","""","""",1,4/28/2021 17:43,72.13.157.188,Mozilla/5.0 (Windows NT 10.0; Win64; x64; rv:88.0) Gecko/20100101 Firefox/88.0,,Firefox,88,Windows,10
188,1,null,"""",image-keyboard-response,227,1036020,0.0-227.0,"""",jspsych/disgustFaces/BM34DIS.JPG,"""",256,Cue,Test,null,16,"""","""","""","""","""","""","""","""",1,4/28/2021 17:43,72.13.157.188,Mozilla/5.0 (Windows NT 10.0; Win64; x64; rv:88.0) Gecko/20100101 Firefox/88.0,,Firefox,88,Windows,10
188,1,null,"""",image-keyboard-response,228,1036124,0.0-228.0,"""",jspsych/neutralFaces/AM04NES.JPG,"""",256,backwardMask,Test,null,100,"""","""","""","""","""","""","""","""",1,4/28/2021 17:43,72.13.157.188,Mozilla/5.0 (Windows NT 10.0; Win64; x64; rv:88.0) Gecko/20100101 Firefox/88.0,,Firefox,88,Windows,10
188,1,null,"""",html-keyboard-response,229,1037124,0.0-229.0,"""","<div style=""font-size:60px;"">+</div>","""",256,fixationBtwnNeutralMaskAndPrompt,Test,null,1000,"""","""","""","""","""","""","""","""",1,4/28/2021 17:43,72.13.157.188,Mozilla/5.0 (Windows NT 10.0; Win64; x64; rv:88.0) Gecko/20100101 Firefox/88.0,,Firefox,88,Windows,10
188,1,1520,"""",html-button-response,230,1038645,0.0-230.0,"""","<img src='jspsych/CFDfaces/CFD-AF-241-141-N.jpg' height=""250px"">,</br><b>Ashley</b>",1,256,IntactOrRearranged,Test,"""","""","""","""",CFD-BF-218-207-N.jpg,Sara,1,1,"""","""",1,4/28/2021 17:43,72.13.157.188,Mozilla/5.0 (Windows NT 10.0; Win64; x64; rv:88.0) Gecko/20100101 Firefox/88.0,,Firefox,88,Windows,10
188,1,1845,"""",html-slider-response,231,1040495,0.0-231.0,"""","<img src='jspsych/CFDfaces/CFD-AF-241-141-N.jpg' height=""250px"">,</br><b>Ashley</b>","""",256,ConfidenceQuery,Test,"""","""","""","""",CFD-BF-218-207-N.jpg,Sara,1,"""",0,55,1,4/28/2021 17:43,72.13.157.188,Mozilla/5.0 (Windows NT 10.0; Win64; x64; rv:88.0) Gecko/20100101 Firefox/88.0,,Firefox,88,Windows,10
188,1,null,"""",html-keyboard-response,232,1041496,0.0-232.0,"""","<div style=""font-size:60px;"">+</div>","""",256,ITI,Test,null,1000,"""","""","""","""","""","""","""","""",1,4/28/2021 17:43,72.13.157.188,Mozilla/5.0 (Windows NT 10.0; Win64; x64; rv:88.0) Gecko/20100101 Firefox/88.0,,Firefox,88,Windows,10
188,1,null,"""",image-keyboard-response,233,1041750,0.0-233.0,"""",jspsych/scrambledDisgustFaces/scrambledAF11DIS.JPG,"""",256,forwardMask,Test,null,250,"""",d,"""","""","""","""","""","""",1,4/28/2021 17:43,72.13.157.188,Mozilla/5.0 (Windows NT 10.0; Win64; x64; rv:88.0) Gecko/20100101 Firefox/88.0,,Firefox,88,Windows,10
188,1,null,"""",image-keyboard-response,234,1041768,0.0-234.0,"""",jspsych/disgustFaces/AF11DIS.JPG,"""",256,Cue,Test,null,16,"""","""","""","""","""","""","""","""",1,4/28/2021 17:43,72.13.157.188,Mozilla/5.0 (Windows NT 10.0; Win64; x64; rv:88.0) Gecko/20100101 Firefox/88.0,,Firefox,88,Windows,10
188,1,null,"""",image-keyboard-response,235,1041870,0.0-235.0,"""",jspsych/neutralFaces/BF06NES.JPG,"""",256,backwardMask,Test,null,100,"""","""","""","""","""","""","""","""",1,4/28/2021 17:43,72.13.157.188,Mozilla/5.0 (Windows NT 10.0; Win64; x64; rv:88.0) Gecko/20100101 Firefox/88.0,,Firefox,88,Windows,10
188,1,null,"""",html-keyboard-response,236,1042872,0.0-236.0,"""","<div style=""font-size:60px;"">+</div>","""",256,fixationBtwnNeutralMaskAndPrompt,Test,null,1000,"""","""","""","""","""","""","""","""",1,4/28/2021 17:43,72.13.157.188,Mozilla/5.0 (Windows NT 10.0; Win64; x64; rv:88.0) Gecko/20100101 Firefox/88.0,,Firefox,88,Windows,10
188,1,1219,"""",html-button-response,237,1044092,0.0-237.0,"""","<img src='jspsych/CFDfaces/CFD-AF-243-170-N.jpg' height=""250px"">,</br><b>Elizabeth</b>",0,256,IntactOrRearranged,Test,"""","""","""","""",CFD-LF-236-221-N.jpg,Jordan,1,0,"""","""",1,4/28/2021 17:43,72.13.157.188,Mozilla/5.0 (Windows NT 10.0; Win64; x64; rv:88.0) Gecko/20100101 Firefox/88.0,,Firefox,88,Windows,10
188,1,1216,"""",html-slider-response,238,1045312,0.0-238.0,"""","<img src='jspsych/CFDfaces/CFD-AF-243-170-N.jpg' height=""250px"">,</br><b>Elizabeth</b>","""",256,ConfidenceQuery,Test,"""","""","""","""",CFD-LF-236-221-N.jpg,Jordan,1,"""",0,36,1,4/28/2021 17:43,72.13.157.188,Mozilla/5.0 (Windows NT 10.0; Win64; x64; rv:88.0) Gecko/20100101 Firefox/88.0,,Firefox,88,Windows,10
188,1,null,"""",html-keyboard-response,239,1046313,0.0-239.0,"""","<div style=""font-size:60px;"">+</div>","""",256,ITI,Test,null,1000,"""","""","""","""","""","""","""","""",1,4/28/2021 17:43,72.13.157.188,Mozilla/5.0 (Windows NT 10.0; Win64; x64; rv:88.0) Gecko/20100101 Firefox/88.0,,Firefox,88,Windows,10
188,1,null,"""",image-keyboard-response,240,1046564,0.0-240.0,"""",jspsych/scrambledNeutralFaces/scrambledBF33NES.JPG,"""",256,forwardMask,Test,null,250,"""",n,"""","""","""","""","""","""",1,4/28/2021 17:43,72.13.157.188,Mozilla/5.0 (Windows NT 10.0; Win64; x64; rv:88.0) Gecko/20100101 Firefox/88.0,,Firefox,88,Windows,10
188,1,null,"""",image-keyboard-response,241,1046583,0.0-241.0,"""",jspsych/neutralFaces/BF33NES.JPG,"""",256,Cue,Test,null,16,"""","""","""","""","""","""","""","""",1,4/28/2021 17:43,72.13.157.188,Mozilla/5.0 (Windows NT 10.0; Win64; x64; rv:88.0) Gecko/20100101 Firefox/88.0,,Firefox,88,Windows,10
188,1,null,"""",image-keyboard-response,242,1046687,0.0-242.0,"""",jspsych/neutralFaces/AF05NES.JPG,"""",256,backwardMask,Test,null,100,"""","""","""","""","""","""","""","""",1,4/28/2021 17:43,72.13.157.188,Mozilla/5.0 (Windows NT 10.0; Win64; x64; rv:88.0) Gecko/20100101 Firefox/88.0,,Firefox,88,Windows,10
188,1,null,"""",html-keyboard-response,243,1047688,0.0-243.0,"""","<div style=""font-size:60px;"">+</div>","""",256,fixationBtwnNeutralMaskAndPrompt,Test,null,1000,"""","""","""","""","""","""","""","""",1,4/28/2021 17:43,72.13.157.188,Mozilla/5.0 (Windows NT 10.0; Win64; x64; rv:88.0) Gecko/20100101 Firefox/88.0,,Firefox,88,Windows,10
188,1,2117,"""",html-button-response,244,1049805,0.0-244.0,"""","<img src='jspsych/CFDfaces/CFD-BF-047-003-N.jpg' height=""250px"">,</br><b>Michelle</b>",0,256,IntactOrRearranged,Test,"""","""","""","""",CFD-WM-216-061-N.jpg,Ryan,0,0,"""","""",1,4/28/2021 17:43,72.13.157.188,Mozilla/5.0 (Windows NT 10.0; Win64; x64; rv:88.0) Gecko/20100101 Firefox/88.0,,Firefox,88,Windows,10
188,1,1152,"""",html-slider-response,245,1050962,0.0-245.0,"""","<img src='jspsych/CFDfaces/CFD-BF-047-003-N.jpg' height=""250px"">,</br><b>Michelle</b>","""",256,ConfidenceQuery,Test,"""","""","""","""",CFD-WM-216-061-N.jpg,Ryan,0,"""",0,97,1,4/28/2021 17:43,72.13.157.188,Mozilla/5.0 (Windows NT 10.0; Win64; x64; rv:88.0) Gecko/20100101 Firefox/88.0,,Firefox,88,Windows,10
188,1,null,"""",html-keyboard-response,246,1051963,0.0-246.0,"""","<div style=""font-size:60px;"">+</div>","""",256,ITI,Test,null,1000,"""","""","""","""","""","""","""","""",1,4/28/2021 17:43,72.13.157.188,Mozilla/5.0 (Windows NT 10.0; Win64; x64; rv:88.0) Gecko/20100101 Firefox/88.0,,Firefox,88,Windows,10
188,1,null,"""",image-keyboard-response,247,1052216,0.0-247.0,"""",jspsych/scrambledDisgustFaces/scrambledAF09DIS.JPG,"""",256,forwardMask,Test,null,250,"""",d,"""","""","""","""","""","""",1,4/28/2021 17:43,72.13.157.188,Mozilla/5.0 (Windows NT 10.0; Win64; x64; rv:88.0) Gecko/20100101 Firefox/88.0,,Firefox,88,Windows,10
188,1,null,"""",image-keyboard-response,248,1052238,0.0-248.0,"""",jspsych/disgustFaces/AF09DIS.JPG,"""",256,Cue,Test,null,16,"""","""","""","""","""","""","""","""",1,4/28/2021 17:43,72.13.157.188,Mozilla/5.0 (Windows NT 10.0; Win64; x64; rv:88.0) Gecko/20100101 Firefox/88.0,,Firefox,88,Windows,10
188,1,null,"""",image-keyboard-response,249,1052343,0.0-249.0,"""",jspsych/neutralFaces/BF14NES.JPG,"""",256,backwardMask,Test,null,100,"""","""","""","""","""","""","""","""",1,4/28/2021 17:43,72.13.157.188,Mozilla/5.0 (Windows NT 10.0; Win64; x64; rv:88.0) Gecko/20100101 Firefox/88.0,,Firefox,88,Windows,10
188,1,null,"""",html-keyboard-response,250,1053344,0.0-250.0,"""","<div style=""font-size:60px;"">+</div>","""",256,fixationBtwnNeutralMaskAndPrompt,Test,null,1000,"""","""","""","""","""","""","""","""",1,4/28/2021 17:43,72.13.157.188,Mozilla/5.0 (Windows NT 10.0; Win64; x64; rv:88.0) Gecko/20100101 Firefox/88.0,,Firefox,88,Windows,10
188,1,1694,"""",html-button-response,251,1055039,0.0-251.0,"""","<img src='jspsych/CFDfaces/CFD-AM-238-269-N.jpg' height=""250px"">,</br><b>Brian</b>",0,256,IntactOrRearranged,Test,"""","""","""","""",CFD-AF-233-190-N.jpg,Taylor,0,0,"""","""",1,4/28/2021 17:43,72.13.157.188,Mozilla/5.0 (Windows NT 10.0; Win64; x64; rv:88.0) Gecko/20100101 Firefox/88.0,,Firefox,88,Windows,10
188,1,1202,"""",html-slider-response,252,1056243,0.0-252.0,"""","<img src='jspsych/CFDfaces/CFD-AM-238-269-N.jpg' height=""250px"">,</br><b>Brian</b>","""",256,ConfidenceQuery,Test,"""","""","""","""",CFD-AF-233-190-N.jpg,Taylor,0,"""",0,76,1,4/28/2021 17:43,72.13.157.188,Mozilla/5.0 (Windows NT 10.0; Win64; x64; rv:88.0) Gecko/20100101 Firefox/88.0,,Firefox,88,Windows,10
188,1,null,"""",html-keyboard-response,253,1057248,0.0-253.0,"""","<div style=""font-size:60px;"">+</div>","""",256,ITI,Test,null,1000,"""","""","""","""","""","""","""","""",1,4/28/2021 17:43,72.13.157.188,Mozilla/5.0 (Windows NT 10.0; Win64; x64; rv:88.0) Gecko/20100101 Firefox/88.0,,Firefox,88,Windows,10
188,1,null,"""",image-keyboard-response,254,1057499,0.0-254.0,"""",jspsych/scrambledNeutralFaces/scrambledAM04NES.JPG,"""",256,forwardMask,Test,null,250,"""",n,"""","""","""","""","""","""",1,4/28/2021 17:43,72.13.157.188,Mozilla/5.0 (Windows NT 10.0; Win64; x64; rv:88.0) Gecko/20100101 Firefox/88.0,,Firefox,88,Windows,10
188,1,null,"""",image-keyboard-response,255,1057521,0.0-255.0,"""",jspsych/neutralFaces/AM04NES.JPG,"""",256,Cue,Test,null,16,"""","""","""","""","""","""","""","""",1,4/28/2021 17:43,72.13.157.188,Mozilla/5.0 (Windows NT 10.0; Win64; x64; rv:88.0) Gecko/20100101 Firefox/88.0,,Firefox,88,Windows,10
188,1,null,"""",image-keyboard-response,256,1057624,0.0-256.0,"""",jspsych/neutralFaces/BM22NES.JPG,"""",256,backwardMask,Test,null,100,"""","""","""","""","""","""","""","""",1,4/28/2021 17:43,72.13.157.188,Mozilla/5.0 (Windows NT 10.0; Win64; x64; rv:88.0) Gecko/20100101 Firefox/88.0,,Firefox,88,Windows,10
188,1,null,"""",html-keyboard-response,257,1058627,0.0-257.0,"""","<div style=""font-size:60px;"">+</div>","""",256,fixationBtwnNeutralMaskAndPrompt,Test,null,1000,"""","""","""","""","""","""","""","""",1,4/28/2021 17:43,72.13.157.188,Mozilla/5.0 (Windows NT 10.0; Win64; x64; rv:88.0) Gecko/20100101 Firefox/88.0,,Firefox,88,Windows,10
188,1,1859,"""",html-button-response,258,1060488,0.0-258.0,"""","<img src='jspsych/CFDfaces/CFD-AM-246-184-N.jpg' height=""250px"">,</br><b>Jason</b>",0,256,IntactOrRearranged,Test,"""","""","""","""",CFD-AM-202-079-N.jpg,Jacob,0,0,"""","""",1,4/28/2021 17:43,72.13.157.188,Mozilla/5.0 (Windows NT 10.0; Win64; x64; rv:88.0) Gecko/20100101 Firefox/88.0,,Firefox,88,Windows,10
188,1,1251,"""",html-slider-response,259,1061740,0.0-259.0,"""","<img src='jspsych/CFDfaces/CFD-AM-246-184-N.jpg' height=""250px"">,</br><b>Jason</b>","""",256,ConfidenceQuery,Test,"""","""","""","""",CFD-AM-202-079-N.jpg,Jacob,0,"""",0,98,1,4/28/2021 17:43,72.13.157.188,Mozilla/5.0 (Windows NT 10.0; Win64; x64; rv:88.0) Gecko/20100101 Firefox/88.0,,Firefox,88,Windows,10
188,1,null,"""",html-keyboard-response,260,1062748,0.0-260.0,"""","<div style=""font-size:60px;"">+</div>","""",256,ITI,Test,null,1000,"""","""","""","""","""","""","""","""",1,4/28/2021 17:43,72.13.157.188,Mozilla/5.0 (Windows NT 10.0; Win64; x64; rv:88.0) Gecko/20100101 Firefox/88.0,,Firefox,88,Windows,10
188,1,null,"""",image-keyboard-response,261,1063002,0.0-261.0,"""",jspsych/scrambledNeutralFaces/scrambledBF09NES.JPG,"""",256,forwardMask,Test,null,250,"""",n,"""","""","""","""","""","""",1,4/28/2021 17:43,72.13.157.188,Mozilla/5.0 (Windows NT 10.0; Win64; x64; rv:88.0) Gecko/20100101 Firefox/88.0,,Firefox,88,Windows,10
188,1,null,"""",image-keyboard-response,262,1063028,0.0-262.0,"""",jspsych/neutralFaces/BF09NES.JPG,"""",256,Cue,Test,null,16,"""","""","""","""","""","""","""","""",1,4/28/2021 17:43,72.13.157.188,Mozilla/5.0 (Windows NT 10.0; Win64; x64; rv:88.0) Gecko/20100101 Firefox/88.0,,Firefox,88,Windows,10
188,1,null,"""",image-keyboard-response,263,1063133,0.0-263.0,"""",jspsych/neutralFaces/BF31NES.JPG,"""",256,backwardMask,Test,null,100,"""","""","""","""","""","""","""","""",1,4/28/2021 17:43,72.13.157.188,Mozilla/5.0 (Windows NT 10.0; Win64; x64; rv:88.0) Gecko/20100101 Firefox/88.0,,Firefox,88,Windows,10
188,1,null,"""",html-keyboard-response,264,1064135,0.0-264.0,"""","<div style=""font-size:60px;"">+</div>","""",256,fixationBtwnNeutralMaskAndPrompt,Test,null,1000,"""","""","""","""","""","""","""","""",1,4/28/2021 17:43,72.13.157.188,Mozilla/5.0 (Windows NT 10.0; Win64; x64; rv:88.0) Gecko/20100101 Firefox/88.0,,Firefox,88,Windows,10
188,1,1500,"""",html-button-response,265,1065636,0.0-265.0,"""","<img src='jspsych/CFDfaces/CFD-BF-001-025-N.jpg' height=""250px"">,</br><b>Kimberly</b>",0,256,IntactOrRearranged,Test,"""","""","""","""",CFD-LF-201-035-N.jpg,Melissa,1,0,"""","""",1,4/28/2021 17:43,72.13.157.188,Mozilla/5.0 (Windows NT 10.0; Win64; x64; rv:88.0) Gecko/20100101 Firefox/88.0,,Firefox,88,Windows,10
188,1,1185,"""",html-slider-response,266,1066823,0.0-266.0,"""","<img src='jspsych/CFDfaces/CFD-BF-001-025-N.jpg' height=""250px"">,</br><b>Kimberly</b>","""",256,ConfidenceQuery,Test,"""","""","""","""",CFD-LF-201-035-N.jpg,Melissa,1,"""",0,20,1,4/28/2021 17:43,72.13.157.188,Mozilla/5.0 (Windows NT 10.0; Win64; x64; rv:88.0) Gecko/20100101 Firefox/88.0,,Firefox,88,Windows,10
188,1,null,"""",html-keyboard-response,267,1067827,0.0-267.0,"""","<div style=""font-size:60px;"">+</div>","""",256,ITI,Test,null,1000,"""","""","""","""","""","""","""","""",1,4/28/2021 17:43,72.13.157.188,Mozilla/5.0 (Windows NT 10.0; Win64; x64; rv:88.0) Gecko/20100101 Firefox/88.0,,Firefox,88,Windows,10
188,1,null,"""",image-keyboard-response,268,1068082,0.0-268.0,"""",jspsych/scrambledDisgustFaces/scrambledBF03DIS.JPG,"""",256,forwardMask,Test,null,250,"""",d,"""","""","""","""","""","""",1,4/28/2021 17:43,72.13.157.188,Mozilla/5.0 (Windows NT 10.0; Win64; x64; rv:88.0) Gecko/20100101 Firefox/88.0,,Firefox,88,Windows,10
188,1,null,"""",image-keyboard-response,269,1068101,0.0-269.0,"""",jspsych/disgustFaces/BF03DIS.JPG,"""",256,Cue,Test,null,16,"""","""","""","""","""","""","""","""",1,4/28/2021 17:43,72.13.157.188,Mozilla/5.0 (Windows NT 10.0; Win64; x64; rv:88.0) Gecko/20100101 Firefox/88.0,,Firefox,88,Windows,10
188,1,null,"""",image-keyboard-response,270,1068203,0.0-270.0,"""",jspsych/neutralFaces/AF09NES.JPG,"""",256,backwardMask,Test,null,100,"""","""","""","""","""","""","""","""",1,4/28/2021 17:43,72.13.157.188,Mozilla/5.0 (Windows NT 10.0; Win64; x64; rv:88.0) Gecko/20100101 Firefox/88.0,,Firefox,88,Windows,10
188,1,null,"""",html-keyboard-response,271,1069206,0.0-271.0,"""","<div style=""font-size:60px;"">+</div>","""",256,fixationBtwnNeutralMaskAndPrompt,Test,null,1000,"""","""","""","""","""","""","""","""",1,4/28/2021 17:43,72.13.157.188,Mozilla/5.0 (Windows NT 10.0; Win64; x64; rv:88.0) Gecko/20100101 Firefox/88.0,,Firefox,88,Windows,10
188,1,1182,"""",html-button-response,272,1070389,0.0-272.0,"""","<img src='jspsych/CFDfaces/CFD-WF-017-003-N.jpg' height=""250px"">,</br><b>Julie</b>",0,256,IntactOrRearranged,Test,"""","""","""","""",CFD-AF-240-206-N.jpg,Lindsey,0,0,"""","""",1,4/28/2021 17:43,72.13.157.188,Mozilla/5.0 (Windows NT 10.0; Win64; x64; rv:88.0) Gecko/20100101 Firefox/88.0,,Firefox,88,Windows,10
188,1,2303,"""",html-slider-response,273,1072695,0.0-273.0,"""","<img src='jspsych/CFDfaces/CFD-WF-017-003-N.jpg' height=""250px"">,</br><b>Julie</b>","""",256,ConfidenceQuery,Test,"""","""","""","""",CFD-AF-240-206-N.jpg,Lindsey,0,"""",0,34,1,4/28/2021 17:43,72.13.157.188,Mozilla/5.0 (Windows NT 10.0; Win64; x64; rv:88.0) Gecko/20100101 Firefox/88.0,,Firefox,88,Windows,10
188,1,null,"""",html-keyboard-response,274,1073697,0.0-274.0,"""","<div style=""font-size:60px;"">+</div>","""",256,ITI,Test,null,1000,"""","""","""","""","""","""","""","""",1,4/28/2021 17:43,72.13.157.188,Mozilla/5.0 (Windows NT 10.0; Win64; x64; rv:88.0) Gecko/20100101 Firefox/88.0,,Firefox,88,Windows,10
188,1,null,"""",image-keyboard-response,275,1073952,0.0-275.0,"""",jspsych/scrambledNeutralFaces/scrambledAF11NES.JPG,"""",256,forwardMask,Test,null,250,"""",n,"""","""","""","""","""","""",1,4/28/2021 17:43,72.13.157.188,Mozilla/5.0 (Windows NT 10.0; Win64; x64; rv:88.0) Gecko/20100101 Firefox/88.0,,Firefox,88,Windows,10
188,1,null,"""",image-keyboard-response,276,1073970,0.0-276.0,"""",jspsych/neutralFaces/AF11NES.JPG,"""",256,Cue,Test,null,16,"""","""","""","""","""","""","""","""",1,4/28/2021 17:43,72.13.157.188,Mozilla/5.0 (Windows NT 10.0; Win64; x64; rv:88.0) Gecko/20100101 Firefox/88.0,,Firefox,88,Windows,10
188,1,null,"""",image-keyboard-response,277,1074072,0.0-277.0,"""",jspsych/neutralFaces/BF13NES.JPG,"""",256,backwardMask,Test,null,100,"""","""","""","""","""","""","""","""",1,4/28/2021 17:43,72.13.157.188,Mozilla/5.0 (Windows NT 10.0; Win64; x64; rv:88.0) Gecko/20100101 Firefox/88.0,,Firefox,88,Windows,10
188,1,null,"""",html-keyboard-response,278,1075074,0.0-278.0,"""","<div style=""font-size:60px;"">+</div>","""",256,fixationBtwnNeutralMaskAndPrompt,Test,null,1000,"""","""","""","""","""","""","""","""",1,4/28/2021 17:43,72.13.157.188,Mozilla/5.0 (Windows NT 10.0; Win64; x64; rv:88.0) Gecko/20100101 Firefox/88.0,,Firefox,88,Windows,10
188,1,1460,"""",html-button-response,279,1076535,0.0-279.0,"""","<img src='jspsych/CFDfaces/CFD-BM-001-014-N.jpg' height=""250px"">,</br><b>James</b>",1,256,IntactOrRearranged,Test,"""","""","""","""",CFD-WM-022-001-N.jpg,Cameron,1,1,"""","""",1,4/28/2021 17:43,72.13.157.188,Mozilla/5.0 (Windows NT 10.0; Win64; x64; rv:88.0) Gecko/20100101 Firefox/88.0,,Firefox,88,Windows,10
188,1,2336,"""",html-slider-response,280,1078873,0.0-280.0,"""","<img src='jspsych/CFDfaces/CFD-BM-001-014-N.jpg' height=""250px"">,</br><b>James</b>","""",256,ConfidenceQuery,Test,"""","""","""","""",CFD-WM-022-001-N.jpg,Cameron,1,"""",0,37,1,4/28/2021 17:43,72.13.157.188,Mozilla/5.0 (Windows NT 10.0; Win64; x64; rv:88.0) Gecko/20100101 Firefox/88.0,,Firefox,88,Windows,10
188,1,null,"""",html-keyboard-response,281,1079874,0.0-281.0,"""","<div style=""font-size:60px;"">+</div>","""",256,ITI,Test,null,1000,"""","""","""","""","""","""","""","""",1,4/28/2021 17:43,72.13.157.188,Mozilla/5.0 (Windows NT 10.0; Win64; x64; rv:88.0) Gecko/20100101 Firefox/88.0,,Firefox,88,Windows,10
188,1,null,"""",image-keyboard-response,282,1080133,0.0-282.0,"""",jspsych/scrambledDisgustFaces/scrambledAM14DIS.JPG,"""",256,forwardMask,Test,null,250,"""",d,"""","""","""","""","""","""",1,4/28/2021 17:43,72.13.157.188,Mozilla/5.0 (Windows NT 10.0; Win64; x64; rv:88.0) Gecko/20100101 Firefox/88.0,,Firefox,88,Windows,10
188,1,null,"""",image-keyboard-response,283,1080153,0.0-283.0,"""",jspsych/disgustFaces/AM14DIS.JPG,"""",256,Cue,Test,null,16,"""","""","""","""","""","""","""","""",1,4/28/2021 17:43,72.13.157.188,Mozilla/5.0 (Windows NT 10.0; Win64; x64; rv:88.0) Gecko/20100101 Firefox/88.0,,Firefox,88,Windows,10
188,1,null,"""",image-keyboard-response,284,1080255,0.0-284.0,"""",jspsych/neutralFaces/AM29NES.JPG,"""",256,backwardMask,Test,null,100,"""","""","""","""","""","""","""","""",1,4/28/2021 17:43,72.13.157.188,Mozilla/5.0 (Windows NT 10.0; Win64; x64; rv:88.0) Gecko/20100101 Firefox/88.0,,Firefox,88,Windows,10
188,1,null,"""",html-keyboard-response,285,1081257,0.0-285.0,"""","<div style=""font-size:60px;"">+</div>","""",256,fixationBtwnNeutralMaskAndPrompt,Test,null,1000,"""","""","""","""","""","""","""","""",1,4/28/2021 17:43,72.13.157.188,Mozilla/5.0 (Windows NT 10.0; Win64; x64; rv:88.0) Gecko/20100101 Firefox/88.0,,Firefox,88,Windows,10
188,1,1750,"""",html-button-response,286,1083007,0.0-286.0,"""","<img src='jspsych/CFDfaces/CFD-WM-003-002-N.jpg' height=""250px"">,</br><b>Joshua</b>",1,256,IntactOrRearranged,Test,"""","""","""","""",CFD-AM-207-108-N.jpg,Travis,1,1,"""","""",1,4/28/2021 17:43,72.13.157.188,Mozilla/5.0 (Windows NT 10.0; Win64; x64; rv:88.0) Gecko/20100101 Firefox/88.0,,Firefox,88,Windows,10
188,1,1124,"""",html-slider-response,287,1084133,0.0-287.0,"""","<img src='jspsych/CFDfaces/CFD-WM-003-002-N.jpg' height=""250px"">,</br><b>Joshua</b>","""",256,ConfidenceQuery,Test,"""","""","""","""",CFD-AM-207-108-N.jpg,Travis,1,"""",0,93,1,4/28/2021 17:43,72.13.157.188,Mozilla/5.0 (Windows NT 10.0; Win64; x64; rv:88.0) Gecko/20100101 Firefox/88.0,,Firefox,88,Windows,10
188,1,null,"""",html-keyboard-response,288,1085137,0.0-288.0,"""","<div style=""font-size:60px;"">+</div>","""",256,ITI,Test,null,1000,"""","""","""","""","""","""","""","""",1,4/28/2021 17:43,72.13.157.188,Mozilla/5.0 (Windows NT 10.0; Win64; x64; rv:88.0) Gecko/20100101 Firefox/88.0,,Firefox,88,Windows,10
188,1,null,"""",image-keyboard-response,289,1085394,0.0-289.0,"""",jspsych/scrambledDisgustFaces/scrambledBM20DIS.JPG,"""",256,forwardMask,Test,null,250,"""",d,"""","""","""","""","""","""",1,4/28/2021 17:43,72.13.157.188,Mozilla/5.0 (Windows NT 10.0; Win64; x64; rv:88.0) Gecko/20100101 Firefox/88.0,,Firefox,88,Windows,10
188,1,null,"""",image-keyboard-response,290,1085417,0.0-290.0,"""",jspsych/disgustFaces/BM21DIS.JPG,"""",256,Cue,Test,null,16,"""","""","""","""","""","""","""","""",1,4/28/2021 17:43,72.13.157.188,Mozilla/5.0 (Windows NT 10.0; Win64; x64; rv:88.0) Gecko/20100101 Firefox/88.0,,Firefox,88,Windows,10
188,1,null,"""",image-keyboard-response,291,1085525,0.0-291.0,"""",jspsych/neutralFaces/AM10NES.JPG,"""",256,backwardMask,Test,null,100,"""","""","""","""","""","""","""","""",1,4/28/2021 17:43,72.13.157.188,Mozilla/5.0 (Windows NT 10.0; Win64; x64; rv:88.0) Gecko/20100101 Firefox/88.0,,Firefox,88,Windows,10
188,1,null,"""",html-keyboard-response,292,1086537,0.0-292.0,"""","<div style=""font-size:60px;"">+</div>","""",256,fixationBtwnNeutralMaskAndPrompt,Test,null,1000,"""","""","""","""","""","""","""","""",1,4/28/2021 17:43,72.13.157.188,Mozilla/5.0 (Windows NT 10.0; Win64; x64; rv:88.0) Gecko/20100101 Firefox/88.0,,Firefox,88,Windows,10
188,1,1237,"""",html-button-response,293,1087775,0.0-293.0,"""","<img src='jspsych/CFDfaces/CFD-AM-205-153-N.jpg' height=""250px"">,</br><b>Peter</b>",0,256,IntactOrRearranged,Test,"""","""","""","""",CFD-LF-218-072-N.jpg,Heather,0,0,"""","""",1,4/28/2021 17:43,72.13.157.188,Mozilla/5.0 (Windows NT 10.0; Win64; x64; rv:88.0) Gecko/20100101 Firefox/88.0,,Firefox,88,Windows,10
188,1,1582,"""",html-slider-response,294,1089360,0.0-294.0,"""","<img src='jspsych/CFDfaces/CFD-AM-205-153-N.jpg' height=""250px"">,</br><b>Peter</b>","""",256,ConfidenceQuery,Test,"""","""","""","""",CFD-LF-218-072-N.jpg,Heather,0,"""",0,97,1,4/28/2021 17:43,72.13.157.188,Mozilla/5.0 (Windows NT 10.0; Win64; x64; rv:88.0) Gecko/20100101 Firefox/88.0,,Firefox,88,Windows,10
