run_id,condition,rt,responses,trial_type,trial_index,time_elapsed,internal_node_id,question_order,stimulus,button_pressed,iTrial,Phase,ExperimentPhase,key_press,StimulusDurationSetting,CharacterResponse,correctResponse,Face,Name,rearranged,didSubjectEnterRearranged,slider_start,response,Block,recorded_at,ip,user_agent,device,browser,browser_version,platform,platform_version
157,1,6207,"{""Q0"":""A166Z57GO1NPFW""}",survey-text,0,6210,0.0-0.0,"""","""","""","""","""","""","""","""","""","""","""","""","""","""","""","""","""",4/26/2021 13:22,76.196.205.226,Mozilla/5.0 (Macintosh; Intel Mac OS X 10.15; rv:88.0) Gecko/20100101 Firefox/88.0,Macintosh,Firefox,88,OS X,10.15
157,1,2527,"{""Q0"":""25""}",survey-text,1,8745,0.0-1.0,"""","""","""","""","""","""","""","""","""","""","""","""","""","""","""","""","""",4/26/2021 13:22,76.196.205.226,Mozilla/5.0 (Macintosh; Intel Mac OS X 10.15; rv:88.0) Gecko/20100101 Firefox/88.0,Macintosh,Firefox,88,OS X,10.15
157,1,3759,"{""Q0"":""female"",""Q1"":""Not Hispanic/Latino"",""Q2"":""White or Caucasian""}",survey-multi-choice,2,12507,0.0-2.0,"[0,1,2]","""","""","""","""","""","""","""","""","""","""","""","""","""","""","""","""",4/26/2021 13:22,76.196.205.226,Mozilla/5.0 (Macintosh; Intel Mac OS X 10.15; rv:88.0) Gecko/20100101 Firefox/88.0,Macintosh,Firefox,88,OS X,10.15
157,1,1210,"""",image-button-response,3,13733,0.0-3.0,"""",directionsMemoryAssociation1.JPG,0,1,IntroDirections1,break,"""","""","""","""","""","""","""","""","""","""","""",4/26/2021 13:22,76.196.205.226,Mozilla/5.0 (Macintosh; Intel Mac OS X 10.15; rv:88.0) Gecko/20100101 Firefox/88.0,Macintosh,Firefox,88,OS X,10.15
157,1,10702,"""",image-button-response,4,24448,0.0-4.0,"""",directionsMemoryAssociation2.JPG,0,1,IntroDirections2,break,"""","""","""","""","""","""","""","""","""","""","""",4/26/2021 13:22,76.196.205.226,Mozilla/5.0 (Macintosh; Intel Mac OS X 10.15; rv:88.0) Gecko/20100101 Firefox/88.0,Macintosh,Firefox,88,OS X,10.15
157,1,2233,"""",html-keyboard-response,5,29460,0.0-5.0,"""","<img src='jspsych/CFDfaces/CFD-AM-205-153-N.jpg' height=""250px"">,</br><b>Marcus</b>","""",1,IntactFace,Practice,70,5000,f,"""","""","""","""","""","""","""","""",4/26/2021 13:22,76.196.205.226,Mozilla/5.0 (Macintosh; Intel Mac OS X 10.15; rv:88.0) Gecko/20100101 Firefox/88.0,Macintosh,Firefox,88,OS X,10.15
157,1,null,"""",html-keyboard-response,6,29969,0.0-6.0,"""","<div style=""font-size:60px;"">+</div>","""",1,ITI,Practice,null,1000,"""","""","""","""","""","""","""","""","""",4/26/2021 13:22,76.196.205.226,Mozilla/5.0 (Macintosh; Intel Mac OS X 10.15; rv:88.0) Gecko/20100101 Firefox/88.0,Macintosh,Firefox,88,OS X,10.15
157,1,1449,"""",html-keyboard-response,7,34981,0.0-7.0,"""","<img src='jspsych/CFDfaces/CFD-LM-233-171-N.jpg' height=""250px"">,</br><b>Patrick</b>","""",2,IntactFace,Practice,78,5000,n,"""","""","""","""","""","""","""","""",4/26/2021 13:22,76.196.205.226,Mozilla/5.0 (Macintosh; Intel Mac OS X 10.15; rv:88.0) Gecko/20100101 Firefox/88.0,Macintosh,Firefox,88,OS X,10.15
157,1,null,"""",html-keyboard-response,8,35487,0.0-8.0,"""","<div style=""font-size:60px;"">+</div>","""",2,ITI,Practice,null,1000,"""","""","""","""","""","""","""","""","""",4/26/2021 13:22,76.196.205.226,Mozilla/5.0 (Macintosh; Intel Mac OS X 10.15; rv:88.0) Gecko/20100101 Firefox/88.0,Macintosh,Firefox,88,OS X,10.15
157,1,2787,"""",html-keyboard-response,9,40496,0.0-9.0,"""","<img src='jspsych/CFDfaces/CFD-BF-021-013-N.jpg' height=""250px"">,</br><b>Katelyn</b>","""",3,IntactFace,Practice,78,5000,n,"""","""","""","""","""","""","""","""",4/26/2021 13:22,76.196.205.226,Mozilla/5.0 (Macintosh; Intel Mac OS X 10.15; rv:88.0) Gecko/20100101 Firefox/88.0,Macintosh,Firefox,88,OS X,10.15
157,1,null,"""",html-keyboard-response,10,41005,0.0-10.0,"""","<div style=""font-size:60px;"">+</div>","""",3,ITI,Practice,null,1000,"""","""","""","""","""","""","""","""","""",4/26/2021 13:22,76.196.205.226,Mozilla/5.0 (Macintosh; Intel Mac OS X 10.15; rv:88.0) Gecko/20100101 Firefox/88.0,Macintosh,Firefox,88,OS X,10.15
157,1,2103,"""",html-keyboard-response,11,46016,0.0-11.0,"""","<img src='jspsych/CFDfaces/CFD-AM-237-154-N.jpg' height=""250px"">,</br><b>Samuel</b>","""",4,IntactFace,Practice,70,5000,f,"""","""","""","""","""","""","""","""",4/26/2021 13:22,76.196.205.226,Mozilla/5.0 (Macintosh; Intel Mac OS X 10.15; rv:88.0) Gecko/20100101 Firefox/88.0,Macintosh,Firefox,88,OS X,10.15
157,1,null,"""",html-keyboard-response,12,46524,0.0-12.0,"""","<div style=""font-size:60px;"">+</div>","""",4,ITI,Practice,null,1000,"""","""","""","""","""","""","""","""","""",4/26/2021 13:22,76.196.205.226,Mozilla/5.0 (Macintosh; Intel Mac OS X 10.15; rv:88.0) Gecko/20100101 Firefox/88.0,Macintosh,Firefox,88,OS X,10.15
157,1,2739,"""",html-keyboard-response,13,51534,0.0-13.0,"""","<img src='jspsych/CFDfaces/CFD-BF-023-010-N.jpg' height=""250px"">,</br><b>Tara</b>","""",5,IntactFace,Practice,78,5000,n,"""","""","""","""","""","""","""","""",4/26/2021 13:22,76.196.205.226,Mozilla/5.0 (Macintosh; Intel Mac OS X 10.15; rv:88.0) Gecko/20100101 Firefox/88.0,Macintosh,Firefox,88,OS X,10.15
157,1,null,"""",html-keyboard-response,14,52042,0.0-14.0,"""","<div style=""font-size:60px;"">+</div>","""",5,ITI,Practice,null,1000,"""","""","""","""","""","""","""","""","""",4/26/2021 13:22,76.196.205.226,Mozilla/5.0 (Macintosh; Intel Mac OS X 10.15; rv:88.0) Gecko/20100101 Firefox/88.0,Macintosh,Firefox,88,OS X,10.15
157,1,2618,"""",html-keyboard-response,15,57054,0.0-15.0,"""","<img src='jspsych/CFDfaces/CFD-LF-236-221-N.jpg' height=""250px"">,</br><b>Shannon</b>","""",6,IntactFace,Practice,70,5000,f,"""","""","""","""","""","""","""","""",4/26/2021 13:22,76.196.205.226,Mozilla/5.0 (Macintosh; Intel Mac OS X 10.15; rv:88.0) Gecko/20100101 Firefox/88.0,Macintosh,Firefox,88,OS X,10.15
157,1,null,"""",html-keyboard-response,16,57558,0.0-16.0,"""","<div style=""font-size:60px;"">+</div>","""",6,ITI,Practice,null,1000,"""","""","""","""","""","""","""","""","""",4/26/2021 13:22,76.196.205.226,Mozilla/5.0 (Macintosh; Intel Mac OS X 10.15; rv:88.0) Gecko/20100101 Firefox/88.0,Macintosh,Firefox,88,OS X,10.15
157,1,2408,"""",html-keyboard-response,17,62571,0.0-17.0,"""","<img src='jspsych/CFDfaces/CFD-BF-019-001-N.jpg' height=""250px"">,</br><b>Cassandra</b>","""",7,IntactFace,Practice,70,5000,f,"""","""","""","""","""","""","""","""",4/26/2021 13:22,76.196.205.226,Mozilla/5.0 (Macintosh; Intel Mac OS X 10.15; rv:88.0) Gecko/20100101 Firefox/88.0,Macintosh,Firefox,88,OS X,10.15
157,1,null,"""",html-keyboard-response,18,63082,0.0-18.0,"""","<div style=""font-size:60px;"">+</div>","""",7,ITI,Practice,null,1000,"""","""","""","""","""","""","""","""","""",4/26/2021 13:22,76.196.205.226,Mozilla/5.0 (Macintosh; Intel Mac OS X 10.15; rv:88.0) Gecko/20100101 Firefox/88.0,Macintosh,Firefox,88,OS X,10.15
157,1,1394,"""",html-keyboard-response,19,68098,0.0-19.0,"""","<img src='jspsych/CFDfaces/CFD-AM-228-214-N.jpg' height=""250px"">,</br><b>Carlos</b>","""",8,IntactFace,Practice,78,5000,n,"""","""","""","""","""","""","""","""",4/26/2021 13:22,76.196.205.226,Mozilla/5.0 (Macintosh; Intel Mac OS X 10.15; rv:88.0) Gecko/20100101 Firefox/88.0,Macintosh,Firefox,88,OS X,10.15
157,1,null,"""",html-keyboard-response,20,68606,0.0-20.0,"""","<div style=""font-size:60px;"">+</div>","""",8,ITI,Practice,null,1000,"""","""","""","""","""","""","""","""","""",4/26/2021 13:22,76.196.205.226,Mozilla/5.0 (Macintosh; Intel Mac OS X 10.15; rv:88.0) Gecko/20100101 Firefox/88.0,Macintosh,Firefox,88,OS X,10.15
157,1,4351,"""",image-button-response,21,72973,0.0-21.0,"""",directionsForTest.JPG,0,1,directionsForTest,break,"""","""","""","""","""","""","""","""","""","""","""",4/26/2021 13:22,76.196.205.226,Mozilla/5.0 (Macintosh; Intel Mac OS X 10.15; rv:88.0) Gecko/20100101 Firefox/88.0,Macintosh,Firefox,88,OS X,10.15
157,1,4063,"""",image-button-response,22,77048,0.0-22.0,"""",directionsForTest2.JPG,0,1,directionsForTest2,break,"""","""","""","""","""","""","""","""","""","""","""",4/26/2021 13:22,76.196.205.226,Mozilla/5.0 (Macintosh; Intel Mac OS X 10.15; rv:88.0) Gecko/20100101 Firefox/88.0,Macintosh,Firefox,88,OS X,10.15
157,1,null,"""",html-keyboard-response,23,78057,0.0-23.0,"""","<div style=""font-size:60px;"">+</div>","""",1,ITI,Practice,null,1000,"""","""","""","""","""","""","""","""","""",4/26/2021 13:22,76.196.205.226,Mozilla/5.0 (Macintosh; Intel Mac OS X 10.15; rv:88.0) Gecko/20100101 Firefox/88.0,Macintosh,Firefox,88,OS X,10.15
157,1,null,"""",image-keyboard-response,24,78320,0.0-24.0,"""",jspsych/scrambledNeutralFaces/scrambledBF26NES.JPG,"""",1,forwardMask,Practice,null,250,"""",n,"""","""","""","""","""","""","""",4/26/2021 13:22,76.196.205.226,Mozilla/5.0 (Macintosh; Intel Mac OS X 10.15; rv:88.0) Gecko/20100101 Firefox/88.0,Macintosh,Firefox,88,OS X,10.15
157,1,null,"""",image-keyboard-response,25,78343,0.0-25.0,"""",jspsych/neutralFaces/BF26NES.JPG,"""",1,Cue,Practice,null,16,"""","""","""","""","""","""","""","""","""",4/26/2021 13:22,76.196.205.226,Mozilla/5.0 (Macintosh; Intel Mac OS X 10.15; rv:88.0) Gecko/20100101 Firefox/88.0,Macintosh,Firefox,88,OS X,10.15
157,1,null,"""",image-keyboard-response,26,78453,0.0-26.0,"""",jspsych/neutralFaces/AF19NES.JPG,"""",1,backwardMask,Practice,null,100,"""","""","""","""","""","""","""","""","""",4/26/2021 13:22,76.196.205.226,Mozilla/5.0 (Macintosh; Intel Mac OS X 10.15; rv:88.0) Gecko/20100101 Firefox/88.0,Macintosh,Firefox,88,OS X,10.15
157,1,null,"""",html-keyboard-response,27,79462,0.0-27.0,"""","<div style=""font-size:60px;"">+</div>","""",1,fixationBtwnNeutralMaskAndPrompt,Practice,null,1000,"""","""","""","""","""","""","""","""","""",4/26/2021 13:22,76.196.205.226,Mozilla/5.0 (Macintosh; Intel Mac OS X 10.15; rv:88.0) Gecko/20100101 Firefox/88.0,Macintosh,Firefox,88,OS X,10.15
157,1,2390,"""",html-button-response,28,81856,0.0-28.0,"""","<img src='jspsych/CFDfaces/CFD-AM-228-214-N.jpg'height=""250px""></br><b>Marcus</b>",0,1,IntactOrRearranged,Practice,"""","""","""","""",CFD-AM-228-214-N.jpg,Marcus,1,0,"""","""","""",4/26/2021 13:22,76.196.205.226,Mozilla/5.0 (Macintosh; Intel Mac OS X 10.15; rv:88.0) Gecko/20100101 Firefox/88.0,Macintosh,Firefox,88,OS X,10.15
157,1,2343,"""",html-slider-response,29,84205,0.0-29.0,"""","<img src='jspsych/CFDfaces/CFD-AM-228-214-N.jpg'height=""250px""></br><b>Marcus</b>","""",1,ConfidenceQuery,Practice,"""","""","""","""",CFD-LF-206-078-N.jpg,Heather,1,"""",0,28,"""",4/26/2021 13:22,76.196.205.226,Mozilla/5.0 (Macintosh; Intel Mac OS X 10.15; rv:88.0) Gecko/20100101 Firefox/88.0,Macintosh,Firefox,88,OS X,10.15
157,1,1085,"""",html-button-response,30,85298,0.0-30.0,"""",You are Incorrect. You called a Rearranged Pair Intact,0,1,feedback,Practice,"""","""","""","""","""","""","""","""","""","""","""",4/26/2021 13:22,76.196.205.226,Mozilla/5.0 (Macintosh; Intel Mac OS X 10.15; rv:88.0) Gecko/20100101 Firefox/88.0,Macintosh,Firefox,88,OS X,10.15
157,1,null,"""",html-keyboard-response,31,86304,0.0-31.0,"""","<div style=""font-size:60px;"">+</div>","""",2,ITI,Practice,null,1000,"""","""","""","""","""","""","""","""","""",4/26/2021 13:22,76.196.205.226,Mozilla/5.0 (Macintosh; Intel Mac OS X 10.15; rv:88.0) Gecko/20100101 Firefox/88.0,Macintosh,Firefox,88,OS X,10.15
157,1,null,"""",image-keyboard-response,32,86564,0.0-32.0,"""",jspsych/scrambledNeutralFaces/scrambledBM30NES.JPG,"""",2,forwardMask,Practice,null,250,"""",n,"""","""","""","""","""","""","""",4/26/2021 13:22,76.196.205.226,Mozilla/5.0 (Macintosh; Intel Mac OS X 10.15; rv:88.0) Gecko/20100101 Firefox/88.0,Macintosh,Firefox,88,OS X,10.15
157,1,null,"""",image-keyboard-response,33,86588,0.0-33.0,"""",jspsych/neutralFaces/BM30NES.JPG,"""",2,Cue,Practice,null,16,"""","""","""","""","""","""","""","""","""",4/26/2021 13:22,76.196.205.226,Mozilla/5.0 (Macintosh; Intel Mac OS X 10.15; rv:88.0) Gecko/20100101 Firefox/88.0,Macintosh,Firefox,88,OS X,10.15
157,1,null,"""",image-keyboard-response,34,86693,0.0-34.0,"""",jspsych/neutralFaces/AM32NES.JPG,"""",2,backwardMask,Practice,null,100,"""","""","""","""","""","""","""","""","""",4/26/2021 13:22,76.196.205.226,Mozilla/5.0 (Macintosh; Intel Mac OS X 10.15; rv:88.0) Gecko/20100101 Firefox/88.0,Macintosh,Firefox,88,OS X,10.15
157,1,null,"""",html-keyboard-response,35,87701,0.0-35.0,"""","<div style=""font-size:60px;"">+</div>","""",2,fixationBtwnNeutralMaskAndPrompt,Practice,null,1000,"""","""","""","""","""","""","""","""","""",4/26/2021 13:22,76.196.205.226,Mozilla/5.0 (Macintosh; Intel Mac OS X 10.15; rv:88.0) Gecko/20100101 Firefox/88.0,Macintosh,Firefox,88,OS X,10.15
157,1,2823,"""",html-button-response,36,90529,0.0-36.0,"""","<img src='jspsych/CFDfaces/CFD-LF-236-221-N.jpg'height=""250px""></br><b>Shannon</b>",0,2,IntactOrRearranged,Practice,"""","""","""","""",CFD-LF-236-221-N.jpg,Shannon,0,0,"""","""","""",4/26/2021 13:22,76.196.205.226,Mozilla/5.0 (Macintosh; Intel Mac OS X 10.15; rv:88.0) Gecko/20100101 Firefox/88.0,Macintosh,Firefox,88,OS X,10.15
157,1,2651,"""",html-slider-response,37,93186,0.0-37.0,"""","<img src='jspsych/CFDfaces/CFD-LF-236-221-N.jpg'height=""250px""></br><b>Shannon</b>","""",2,ConfidenceQuery,Practice,"""","""","""","""",CFD-LF-206-078-N.jpg,Heather,0,"""",0,39,"""",4/26/2021 13:22,76.196.205.226,Mozilla/5.0 (Macintosh; Intel Mac OS X 10.15; rv:88.0) Gecko/20100101 Firefox/88.0,Macintosh,Firefox,88,OS X,10.15
157,1,1064,"""",html-button-response,38,94254,0.0-38.0,"""",You are Correct. You called an Intact Pair Intact,0,2,feedback,Practice,"""","""","""","""","""","""","""","""","""","""","""",4/26/2021 13:22,76.196.205.226,Mozilla/5.0 (Macintosh; Intel Mac OS X 10.15; rv:88.0) Gecko/20100101 Firefox/88.0,Macintosh,Firefox,88,OS X,10.15
157,1,null,"""",html-keyboard-response,39,95262,0.0-39.0,"""","<div style=""font-size:60px;"">+</div>","""",3,ITI,Practice,null,1000,"""","""","""","""","""","""","""","""","""",4/26/2021 13:22,76.196.205.226,Mozilla/5.0 (Macintosh; Intel Mac OS X 10.15; rv:88.0) Gecko/20100101 Firefox/88.0,Macintosh,Firefox,88,OS X,10.15
157,1,null,"""",image-keyboard-response,40,95523,0.0-40.0,"""",jspsych/scrambledDisgustFaces/scrambledAM27DIS.JPG,"""",3,forwardMask,Practice,null,250,"""",d,"""","""","""","""","""","""","""",4/26/2021 13:22,76.196.205.226,Mozilla/5.0 (Macintosh; Intel Mac OS X 10.15; rv:88.0) Gecko/20100101 Firefox/88.0,Macintosh,Firefox,88,OS X,10.15
157,1,null,"""",image-keyboard-response,41,95547,0.0-41.0,"""",jspsych/disgustFaces/AM27DIS.JPG,"""",3,Cue,Practice,null,16,"""","""","""","""","""","""","""","""","""",4/26/2021 13:22,76.196.205.226,Mozilla/5.0 (Macintosh; Intel Mac OS X 10.15; rv:88.0) Gecko/20100101 Firefox/88.0,Macintosh,Firefox,88,OS X,10.15
157,1,null,"""",image-keyboard-response,42,95656,0.0-42.0,"""",jspsych/neutralFaces/AM14NES.JPG,"""",3,backwardMask,Practice,null,100,"""","""","""","""","""","""","""","""","""",4/26/2021 13:22,76.196.205.226,Mozilla/5.0 (Macintosh; Intel Mac OS X 10.15; rv:88.0) Gecko/20100101 Firefox/88.0,Macintosh,Firefox,88,OS X,10.15
157,1,null,"""",html-keyboard-response,43,96664,0.0-43.0,"""","<div style=""font-size:60px;"">+</div>","""",3,fixationBtwnNeutralMaskAndPrompt,Practice,null,1000,"""","""","""","""","""","""","""","""","""",4/26/2021 13:22,76.196.205.226,Mozilla/5.0 (Macintosh; Intel Mac OS X 10.15; rv:88.0) Gecko/20100101 Firefox/88.0,Macintosh,Firefox,88,OS X,10.15
157,1,4083,"""",html-button-response,44,100753,0.0-44.0,"""","<img src='jspsych/CFDfaces/CFD-AM-237-154-N.jpg'height=""250px""></br><b>Samuel</b>",1,3,IntactOrRearranged,Practice,"""","""","""","""",CFD-AM-237-154-N.jpg,Samuel,0,1,"""","""","""",4/26/2021 13:22,76.196.205.226,Mozilla/5.0 (Macintosh; Intel Mac OS X 10.15; rv:88.0) Gecko/20100101 Firefox/88.0,Macintosh,Firefox,88,OS X,10.15
157,1,1993,"""",html-slider-response,45,102751,0.0-45.0,"""","<img src='jspsych/CFDfaces/CFD-AM-237-154-N.jpg'height=""250px""></br><b>Samuel</b>","""",3,ConfidenceQuery,Practice,"""","""","""","""",CFD-LF-206-078-N.jpg,Heather,0,"""",0,19,"""",4/26/2021 13:22,76.196.205.226,Mozilla/5.0 (Macintosh; Intel Mac OS X 10.15; rv:88.0) Gecko/20100101 Firefox/88.0,Macintosh,Firefox,88,OS X,10.15
157,1,1128,"""",html-button-response,46,103883,0.0-46.0,"""",You are Incorrect. You Called an Intact Pair Rearranged,0,3,feedback,Practice,"""","""","""","""","""","""","""","""","""","""","""",4/26/2021 13:22,76.196.205.226,Mozilla/5.0 (Macintosh; Intel Mac OS X 10.15; rv:88.0) Gecko/20100101 Firefox/88.0,Macintosh,Firefox,88,OS X,10.15
157,1,null,"""",html-keyboard-response,47,104892,0.0-47.0,"""","<div style=""font-size:60px;"">+</div>","""",4,ITI,Practice,null,1000,"""","""","""","""","""","""","""","""","""",4/26/2021 13:22,76.196.205.226,Mozilla/5.0 (Macintosh; Intel Mac OS X 10.15; rv:88.0) Gecko/20100101 Firefox/88.0,Macintosh,Firefox,88,OS X,10.15
157,1,null,"""",image-keyboard-response,48,105153,0.0-48.0,"""",jspsych/scrambledNeutralFaces/scrambledAF05NES.JPG,"""",4,forwardMask,Practice,null,250,"""",n,"""","""","""","""","""","""","""",4/26/2021 13:22,76.196.205.226,Mozilla/5.0 (Macintosh; Intel Mac OS X 10.15; rv:88.0) Gecko/20100101 Firefox/88.0,Macintosh,Firefox,88,OS X,10.15
157,1,null,"""",image-keyboard-response,49,105176,0.0-49.0,"""",jspsych/neutralFaces/AF05NES.JPG,"""",4,Cue,Practice,null,16,"""","""","""","""","""","""","""","""","""",4/26/2021 13:22,76.196.205.226,Mozilla/5.0 (Macintosh; Intel Mac OS X 10.15; rv:88.0) Gecko/20100101 Firefox/88.0,Macintosh,Firefox,88,OS X,10.15
157,1,null,"""",image-keyboard-response,50,105283,0.0-50.0,"""",jspsych/neutralFaces/AF32NES.JPG,"""",4,backwardMask,Practice,null,100,"""","""","""","""","""","""","""","""","""",4/26/2021 13:22,76.196.205.226,Mozilla/5.0 (Macintosh; Intel Mac OS X 10.15; rv:88.0) Gecko/20100101 Firefox/88.0,Macintosh,Firefox,88,OS X,10.15
157,1,null,"""",html-keyboard-response,51,106291,0.0-51.0,"""","<div style=""font-size:60px;"">+</div>","""",4,fixationBtwnNeutralMaskAndPrompt,Practice,null,1000,"""","""","""","""","""","""","""","""","""",4/26/2021 13:22,76.196.205.226,Mozilla/5.0 (Macintosh; Intel Mac OS X 10.15; rv:88.0) Gecko/20100101 Firefox/88.0,Macintosh,Firefox,88,OS X,10.15
157,1,1552,"""",html-button-response,52,107846,0.0-52.0,"""","<img src='jspsych/CFDfaces/CFD-LM-233-171-N.jpg'height=""250px""></br><b>Patrick</b>",0,4,IntactOrRearranged,Practice,"""","""","""","""",CFD-LM-233-171-N.jpg,Patrick,0,0,"""","""","""",4/26/2021 13:22,76.196.205.226,Mozilla/5.0 (Macintosh; Intel Mac OS X 10.15; rv:88.0) Gecko/20100101 Firefox/88.0,Macintosh,Firefox,88,OS X,10.15
157,1,2998,"""",html-slider-response,53,110849,0.0-53.0,"""","<img src='jspsych/CFDfaces/CFD-LM-233-171-N.jpg'height=""250px""></br><b>Patrick</b>","""",4,ConfidenceQuery,Practice,"""","""","""","""",CFD-LF-206-078-N.jpg,Heather,0,"""",0,58,"""",4/26/2021 13:22,76.196.205.226,Mozilla/5.0 (Macintosh; Intel Mac OS X 10.15; rv:88.0) Gecko/20100101 Firefox/88.0,Macintosh,Firefox,88,OS X,10.15
157,1,1013,"""",html-button-response,54,111867,0.0-54.0,"""",You are Correct. You called an Intact Pair Intact,0,4,feedback,Practice,"""","""","""","""","""","""","""","""","""","""","""",4/26/2021 13:22,76.196.205.226,Mozilla/5.0 (Macintosh; Intel Mac OS X 10.15; rv:88.0) Gecko/20100101 Firefox/88.0,Macintosh,Firefox,88,OS X,10.15
157,1,null,"""",html-keyboard-response,55,112873,0.0-55.0,"""","<div style=""font-size:60px;"">+</div>","""",5,ITI,Practice,null,1000,"""","""","""","""","""","""","""","""","""",4/26/2021 13:22,76.196.205.226,Mozilla/5.0 (Macintosh; Intel Mac OS X 10.15; rv:88.0) Gecko/20100101 Firefox/88.0,Macintosh,Firefox,88,OS X,10.15
157,1,null,"""",image-keyboard-response,56,113131,0.0-56.0,"""",jspsych/scrambledDisgustFaces/scrambledAF19DIS.JPG,"""",5,forwardMask,Practice,null,250,"""",d,"""","""","""","""","""","""","""",4/26/2021 13:22,76.196.205.226,Mozilla/5.0 (Macintosh; Intel Mac OS X 10.15; rv:88.0) Gecko/20100101 Firefox/88.0,Macintosh,Firefox,88,OS X,10.15
157,1,null,"""",image-keyboard-response,57,113155,0.0-57.0,"""",jspsych/disgustFaces/AF19DIS.JPG,"""",5,Cue,Practice,null,16,"""","""","""","""","""","""","""","""","""",4/26/2021 13:22,76.196.205.226,Mozilla/5.0 (Macintosh; Intel Mac OS X 10.15; rv:88.0) Gecko/20100101 Firefox/88.0,Macintosh,Firefox,88,OS X,10.15
157,1,null,"""",image-keyboard-response,58,113265,0.0-58.0,"""",jspsych/neutralFaces/BF20NES.JPG,"""",5,backwardMask,Practice,null,100,"""","""","""","""","""","""","""","""","""",4/26/2021 13:22,76.196.205.226,Mozilla/5.0 (Macintosh; Intel Mac OS X 10.15; rv:88.0) Gecko/20100101 Firefox/88.0,Macintosh,Firefox,88,OS X,10.15
157,1,null,"""",html-keyboard-response,59,114270,0.0-59.0,"""","<div style=""font-size:60px;"">+</div>","""",5,fixationBtwnNeutralMaskAndPrompt,Practice,null,1000,"""","""","""","""","""","""","""","""","""",4/26/2021 13:22,76.196.205.226,Mozilla/5.0 (Macintosh; Intel Mac OS X 10.15; rv:88.0) Gecko/20100101 Firefox/88.0,Macintosh,Firefox,88,OS X,10.15
157,1,3184,"""",html-button-response,60,117455,0.0-60.0,"""","<img src='jspsych/CFDfaces/CFD-BF-019-001-N.jpg'height=""250px""></br><b>Katelyn</b>",1,5,IntactOrRearranged,Practice,"""","""","""","""",CFD-BF-019-001-N.jpg,Katelyn,1,1,"""","""","""",4/26/2021 13:22,76.196.205.226,Mozilla/5.0 (Macintosh; Intel Mac OS X 10.15; rv:88.0) Gecko/20100101 Firefox/88.0,Macintosh,Firefox,88,OS X,10.15
157,1,2607,"""",html-slider-response,61,120069,0.0-61.0,"""","<img src='jspsych/CFDfaces/CFD-BF-019-001-N.jpg'height=""250px""></br><b>Katelyn</b>","""",5,ConfidenceQuery,Practice,"""","""","""","""",CFD-LF-206-078-N.jpg,Heather,1,"""",0,63,"""",4/26/2021 13:22,76.196.205.226,Mozilla/5.0 (Macintosh; Intel Mac OS X 10.15; rv:88.0) Gecko/20100101 Firefox/88.0,Macintosh,Firefox,88,OS X,10.15
157,1,1039,"""",html-button-response,62,121112,0.0-62.0,"""",You are Correct. You Called A Rearranged Pair Rearranged,0,5,feedback,Practice,"""","""","""","""","""","""","""","""","""","""","""",4/26/2021 13:22,76.196.205.226,Mozilla/5.0 (Macintosh; Intel Mac OS X 10.15; rv:88.0) Gecko/20100101 Firefox/88.0,Macintosh,Firefox,88,OS X,10.15
157,1,null,"""",html-keyboard-response,63,122120,0.0-63.0,"""","<div style=""font-size:60px;"">+</div>","""",6,ITI,Practice,null,1000,"""","""","""","""","""","""","""","""","""",4/26/2021 13:22,76.196.205.226,Mozilla/5.0 (Macintosh; Intel Mac OS X 10.15; rv:88.0) Gecko/20100101 Firefox/88.0,Macintosh,Firefox,88,OS X,10.15
157,1,null,"""",image-keyboard-response,64,122381,0.0-64.0,"""",jspsych/scrambledDisgustFaces/scrambledAM32DIS.JPG,"""",6,forwardMask,Practice,null,250,"""",d,"""","""","""","""","""","""","""",4/26/2021 13:22,76.196.205.226,Mozilla/5.0 (Macintosh; Intel Mac OS X 10.15; rv:88.0) Gecko/20100101 Firefox/88.0,Macintosh,Firefox,88,OS X,10.15
157,1,null,"""",image-keyboard-response,65,122405,0.0-65.0,"""",jspsych/disgustFaces/AM32DIS.JPG,"""",6,Cue,Practice,null,16,"""","""","""","""","""","""","""","""","""",4/26/2021 13:22,76.196.205.226,Mozilla/5.0 (Macintosh; Intel Mac OS X 10.15; rv:88.0) Gecko/20100101 Firefox/88.0,Macintosh,Firefox,88,OS X,10.15
157,1,null,"""",image-keyboard-response,66,122515,0.0-66.0,"""",jspsych/neutralFaces/AM14NES.JPG,"""",6,backwardMask,Practice,null,100,"""","""","""","""","""","""","""","""","""",4/26/2021 13:22,76.196.205.226,Mozilla/5.0 (Macintosh; Intel Mac OS X 10.15; rv:88.0) Gecko/20100101 Firefox/88.0,Macintosh,Firefox,88,OS X,10.15
157,1,null,"""",html-keyboard-response,67,123522,0.0-67.0,"""","<div style=""font-size:60px;"">+</div>","""",6,fixationBtwnNeutralMaskAndPrompt,Practice,null,1000,"""","""","""","""","""","""","""","""","""",4/26/2021 13:22,76.196.205.226,Mozilla/5.0 (Macintosh; Intel Mac OS X 10.15; rv:88.0) Gecko/20100101 Firefox/88.0,Macintosh,Firefox,88,OS X,10.15
157,1,null,"""",html-button-response,68,128532,0.0-68.0,"""","<img src='jspsych/CFDfaces/CFD-BF-021-013-N.jpg'height=""250px""></br><b>Cassandra</b>",null,6,IntactOrRearranged,Practice,"""","""","""","""",CFD-BF-021-013-N.jpg,Cassandra,1,"""","""","""","""",4/26/2021 13:22,76.196.205.226,Mozilla/5.0 (Macintosh; Intel Mac OS X 10.15; rv:88.0) Gecko/20100101 Firefox/88.0,Macintosh,Firefox,88,OS X,10.15
157,1,2817,"""",html-slider-response,69,131353,0.0-69.0,"""","<img src='jspsych/CFDfaces/CFD-BF-021-013-N.jpg'height=""250px""></br><b>Cassandra</b>","""",6,ConfidenceQuery,Practice,"""","""","""","""",CFD-LF-206-078-N.jpg,Heather,1,"""",0,25,"""",4/26/2021 13:22,76.196.205.226,Mozilla/5.0 (Macintosh; Intel Mac OS X 10.15; rv:88.0) Gecko/20100101 Firefox/88.0,Macintosh,Firefox,88,OS X,10.15
157,1,1288,"""",html-button-response,70,132647,0.0-70.0,"""",<p>Please click either button: REARRANGED or INTACT before the 5-second time limit.</p>,0,6,feedback,Practice,"""","""","""","""","""","""","""","""","""","""","""",4/26/2021 13:22,76.196.205.226,Mozilla/5.0 (Macintosh; Intel Mac OS X 10.15; rv:88.0) Gecko/20100101 Firefox/88.0,Macintosh,Firefox,88,OS X,10.15
157,1,null,"""",html-keyboard-response,71,133653,0.0-71.0,"""","<div style=""font-size:60px;"">+</div>","""",7,ITI,Practice,null,1000,"""","""","""","""","""","""","""","""","""",4/26/2021 13:22,76.196.205.226,Mozilla/5.0 (Macintosh; Intel Mac OS X 10.15; rv:88.0) Gecko/20100101 Firefox/88.0,Macintosh,Firefox,88,OS X,10.15
157,1,null,"""",image-keyboard-response,72,133914,0.0-72.0,"""",jspsych/scrambledNeutralFaces/scrambledAF35NES.JPG,"""",7,forwardMask,Practice,null,250,"""",n,"""","""","""","""","""","""","""",4/26/2021 13:22,76.196.205.226,Mozilla/5.0 (Macintosh; Intel Mac OS X 10.15; rv:88.0) Gecko/20100101 Firefox/88.0,Macintosh,Firefox,88,OS X,10.15
157,1,null,"""",image-keyboard-response,73,133939,0.0-73.0,"""",jspsych/neutralFaces/AF35NES.JPG,"""",7,Cue,Practice,null,16,"""","""","""","""","""","""","""","""","""",4/26/2021 13:22,76.196.205.226,Mozilla/5.0 (Macintosh; Intel Mac OS X 10.15; rv:88.0) Gecko/20100101 Firefox/88.0,Macintosh,Firefox,88,OS X,10.15
157,1,null,"""",image-keyboard-response,74,134045,0.0-74.0,"""",jspsych/neutralFaces/AF27NES.JPG,"""",7,backwardMask,Practice,null,100,"""","""","""","""","""","""","""","""","""",4/26/2021 13:22,76.196.205.226,Mozilla/5.0 (Macintosh; Intel Mac OS X 10.15; rv:88.0) Gecko/20100101 Firefox/88.0,Macintosh,Firefox,88,OS X,10.15
157,1,null,"""",html-keyboard-response,75,135049,0.0-75.0,"""","<div style=""font-size:60px;"">+</div>","""",7,fixationBtwnNeutralMaskAndPrompt,Practice,null,1000,"""","""","""","""","""","""","""","""","""",4/26/2021 13:22,76.196.205.226,Mozilla/5.0 (Macintosh; Intel Mac OS X 10.15; rv:88.0) Gecko/20100101 Firefox/88.0,Macintosh,Firefox,88,OS X,10.15
157,1,1768,"""",html-button-response,76,136821,0.0-76.0,"""","<img src='jspsych/CFDfaces/CFD-BF-023-010-N.jpg'height=""250px""></br><b>Tara</b>",0,7,IntactOrRearranged,Practice,"""","""","""","""",CFD-BF-023-010-N.jpg,Tara,0,0,"""","""","""",4/26/2021 13:22,76.196.205.226,Mozilla/5.0 (Macintosh; Intel Mac OS X 10.15; rv:88.0) Gecko/20100101 Firefox/88.0,Macintosh,Firefox,88,OS X,10.15
157,1,2150,"""",html-slider-response,77,138978,0.0-77.0,"""","<img src='jspsych/CFDfaces/CFD-BF-023-010-N.jpg'height=""250px""></br><b>Tara</b>","""",7,ConfidenceQuery,Practice,"""","""","""","""",CFD-LF-206-078-N.jpg,Heather,0,"""",0,21,"""",4/26/2021 13:22,76.196.205.226,Mozilla/5.0 (Macintosh; Intel Mac OS X 10.15; rv:88.0) Gecko/20100101 Firefox/88.0,Macintosh,Firefox,88,OS X,10.15
157,1,816,"""",html-button-response,78,139797,0.0-78.0,"""",You are Correct. You called an Intact Pair Intact,0,7,feedback,Practice,"""","""","""","""","""","""","""","""","""","""","""",4/26/2021 13:22,76.196.205.226,Mozilla/5.0 (Macintosh; Intel Mac OS X 10.15; rv:88.0) Gecko/20100101 Firefox/88.0,Macintosh,Firefox,88,OS X,10.15
157,1,null,"""",html-keyboard-response,79,140805,0.0-79.0,"""","<div style=""font-size:60px;"">+</div>","""",8,ITI,Practice,null,1000,"""","""","""","""","""","""","""","""","""",4/26/2021 13:22,76.196.205.226,Mozilla/5.0 (Macintosh; Intel Mac OS X 10.15; rv:88.0) Gecko/20100101 Firefox/88.0,Macintosh,Firefox,88,OS X,10.15
157,1,null,"""",image-keyboard-response,80,141065,0.0-80.0,"""",jspsych/scrambledDisgustFaces/scrambledBM06DIS.JPG,"""",8,forwardMask,Practice,null,250,"""",d,"""","""","""","""","""","""","""",4/26/2021 13:22,76.196.205.226,Mozilla/5.0 (Macintosh; Intel Mac OS X 10.15; rv:88.0) Gecko/20100101 Firefox/88.0,Macintosh,Firefox,88,OS X,10.15
157,1,null,"""",image-keyboard-response,81,141089,0.0-81.0,"""",jspsych/disgustFaces/BM07DIS.JPG,"""",8,Cue,Practice,null,16,"""","""","""","""","""","""","""","""","""",4/26/2021 13:22,76.196.205.226,Mozilla/5.0 (Macintosh; Intel Mac OS X 10.15; rv:88.0) Gecko/20100101 Firefox/88.0,Macintosh,Firefox,88,OS X,10.15
157,1,null,"""",image-keyboard-response,82,141198,0.0-82.0,"""",jspsych/neutralFaces/BM22NES.JPG,"""",8,backwardMask,Practice,null,100,"""","""","""","""","""","""","""","""","""",4/26/2021 13:22,76.196.205.226,Mozilla/5.0 (Macintosh; Intel Mac OS X 10.15; rv:88.0) Gecko/20100101 Firefox/88.0,Macintosh,Firefox,88,OS X,10.15
157,1,null,"""",html-keyboard-response,83,142206,0.0-83.0,"""","<div style=""font-size:60px;"">+</div>","""",8,fixationBtwnNeutralMaskAndPrompt,Practice,null,1000,"""","""","""","""","""","""","""","""","""",4/26/2021 13:22,76.196.205.226,Mozilla/5.0 (Macintosh; Intel Mac OS X 10.15; rv:88.0) Gecko/20100101 Firefox/88.0,Macintosh,Firefox,88,OS X,10.15
157,1,2878,"""",html-button-response,84,145088,0.0-84.0,"""","<img src='jspsych/CFDfaces/CFD-AM-205-153-N.jpg'height=""250px""></br><b>Carlos</b>",1,8,IntactOrRearranged,Practice,"""","""","""","""",CFD-AM-205-153-N.jpg,Carlos,1,1,"""","""","""",4/26/2021 13:22,76.196.205.226,Mozilla/5.0 (Macintosh; Intel Mac OS X 10.15; rv:88.0) Gecko/20100101 Firefox/88.0,Macintosh,Firefox,88,OS X,10.15
157,1,2440,"""",html-slider-response,85,147528,0.0-85.0,"""","<img src='jspsych/CFDfaces/CFD-AM-205-153-N.jpg'height=""250px""></br><b>Carlos</b>","""",8,ConfidenceQuery,Practice,"""","""","""","""",CFD-LF-206-078-N.jpg,Heather,1,"""",0,25,"""",4/26/2021 13:22,76.196.205.226,Mozilla/5.0 (Macintosh; Intel Mac OS X 10.15; rv:88.0) Gecko/20100101 Firefox/88.0,Macintosh,Firefox,88,OS X,10.15
157,1,946,"""",html-button-response,86,148479,0.0-86.0,"""",You are Correct. You Called A Rearranged Pair Rearranged,0,8,feedback,Practice,"""","""","""","""","""","""","""","""","""","""","""",4/26/2021 13:22,76.196.205.226,Mozilla/5.0 (Macintosh; Intel Mac OS X 10.15; rv:88.0) Gecko/20100101 Firefox/88.0,Macintosh,Firefox,88,OS X,10.15
157,1,1235,"""",image-button-response,87,149728,0.0-87.0,"""",directionsMemoryAssociation3.JPG,0,128,DirectionsBeforeActualTEst,Break,"""","""","""","""","""","""","""","""","""","""","""",4/26/2021 13:22,76.196.205.226,Mozilla/5.0 (Macintosh; Intel Mac OS X 10.15; rv:88.0) Gecko/20100101 Firefox/88.0,Macintosh,Firefox,88,OS X,10.15
157,1,4004,"""",image-button-response,88,153736,0.0-88.0,"""",directionsForTest2.JPG,0,1,directionsForTest2,break,"""","""","""","""","""","""","""","""","""","""","""",4/26/2021 13:22,76.196.205.226,Mozilla/5.0 (Macintosh; Intel Mac OS X 10.15; rv:88.0) Gecko/20100101 Firefox/88.0,Macintosh,Firefox,88,OS X,10.15
157,1,2859,"""",html-button-response,89,156601,0.0-89.0,"""","<p>You will be asked to memorize and then recall four sets of face-name pairs. </p> <p> Each set will have 32 pairs. </p> <p>After the fourth set, there will be a brief follow-up experiment (<40 min alltogether)</p>",0,"""","""","""","""","""","""","""","""","""","""","""","""","""","""",4/26/2021 13:22,76.196.205.226,Mozilla/5.0 (Macintosh; Intel Mac OS X 10.15; rv:88.0) Gecko/20100101 Firefox/88.0,Macintosh,Firefox,88,OS X,10.15
157,1,1461,"""",html-keyboard-response,90,161610,0.0-90.0,"""","<img src='jspsych/CFDfaces/CFD-WM-032-001-N.jpg' height=""250px""></br><b>Richard</b>","""",256,IntactFace,Memorization,70,5000,f,"""",CFD-BF-008-001-N.jpg,Tiffany,0,"""","""","""",1,4/26/2021 13:22,76.196.205.226,Mozilla/5.0 (Macintosh; Intel Mac OS X 10.15; rv:88.0) Gecko/20100101 Firefox/88.0,Macintosh,Firefox,88,OS X,10.15
157,1,null,"""",html-keyboard-response,91,162120,0.0-91.0,"""","<div style=""font-size:60px;"">+</div>","""",256,fixation,Memorization,null,500,"""","""","""","""","""","""","""","""",1,4/26/2021 13:22,76.196.205.226,Mozilla/5.0 (Macintosh; Intel Mac OS X 10.15; rv:88.0) Gecko/20100101 Firefox/88.0,Macintosh,Firefox,88,OS X,10.15
157,1,1616,"""",html-keyboard-response,92,167129,0.0-92.0,"""","<img src='jspsych/CFDfaces/CFD-LM-223-175-N.jpg' height=""250px""></br><b>Eric</b>","""",256,IntactFace,Memorization,70,5000,f,"""",CFD-LF-208-127-N.jpg,Angela,0,"""","""","""",1,4/26/2021 13:22,76.196.205.226,Mozilla/5.0 (Macintosh; Intel Mac OS X 10.15; rv:88.0) Gecko/20100101 Firefox/88.0,Macintosh,Firefox,88,OS X,10.15
157,1,null,"""",html-keyboard-response,93,167641,0.0-93.0,"""","<div style=""font-size:60px;"">+</div>","""",256,fixation,Memorization,null,500,"""","""","""","""","""","""","""","""",1,4/26/2021 13:22,76.196.205.226,Mozilla/5.0 (Macintosh; Intel Mac OS X 10.15; rv:88.0) Gecko/20100101 Firefox/88.0,Macintosh,Firefox,88,OS X,10.15
157,1,1962,"""",html-keyboard-response,94,172648,0.0-94.0,"""","<img src='jspsych/CFDfaces/CFD-WF-023-003-N.jpg' height=""250px""></br><b>Vanessa</b>","""",256,IntactFace,Memorization,70,5000,f,"""",CFD-LF-243-175-N.jpg,Jasmine,0,"""","""","""",1,4/26/2021 13:22,76.196.205.226,Mozilla/5.0 (Macintosh; Intel Mac OS X 10.15; rv:88.0) Gecko/20100101 Firefox/88.0,Macintosh,Firefox,88,OS X,10.15
157,1,null,"""",html-keyboard-response,95,173161,0.0-95.0,"""","<div style=""font-size:60px;"">+</div>","""",256,fixation,Memorization,null,500,"""","""","""","""","""","""","""","""",1,4/26/2021 13:22,76.196.205.226,Mozilla/5.0 (Macintosh; Intel Mac OS X 10.15; rv:88.0) Gecko/20100101 Firefox/88.0,Macintosh,Firefox,88,OS X,10.15
157,1,1714,"""",html-keyboard-response,96,178168,0.0-96.0,"""","<img src='jspsych/CFDfaces/CFD-WF-202-056-N.jpg' height=""250px""></br><b>Emily</b>","""",256,IntactFace,Memorization,70,5000,f,"""",CFD-AM-207-108-N.jpg,Ryan,0,"""","""","""",1,4/26/2021 13:22,76.196.205.226,Mozilla/5.0 (Macintosh; Intel Mac OS X 10.15; rv:88.0) Gecko/20100101 Firefox/88.0,Macintosh,Firefox,88,OS X,10.15
157,1,null,"""",html-keyboard-response,97,178682,0.0-97.0,"""","<div style=""font-size:60px;"">+</div>","""",256,fixation,Memorization,null,500,"""","""","""","""","""","""","""","""",1,4/26/2021 13:22,76.196.205.226,Mozilla/5.0 (Macintosh; Intel Mac OS X 10.15; rv:88.0) Gecko/20100101 Firefox/88.0,Macintosh,Firefox,88,OS X,10.15
157,1,1543,"""",html-keyboard-response,98,183687,0.0-98.0,"""","<img src='jspsych/CFDfaces/CFD-LF-220-120-N.jpg' height=""250px""></br><b>Meghan</b>","""",256,IntactFace,Memorization,78,5000,n,"""",CFD-WM-232-070-N.jpg,Jacob,0,"""","""","""",1,4/26/2021 13:22,76.196.205.226,Mozilla/5.0 (Macintosh; Intel Mac OS X 10.15; rv:88.0) Gecko/20100101 Firefox/88.0,Macintosh,Firefox,88,OS X,10.15
157,1,null,"""",html-keyboard-response,99,184200,0.0-99.0,"""","<div style=""font-size:60px;"">+</div>","""",256,fixation,Memorization,null,500,"""","""","""","""","""","""","""","""",1,4/26/2021 13:22,76.196.205.226,Mozilla/5.0 (Macintosh; Intel Mac OS X 10.15; rv:88.0) Gecko/20100101 Firefox/88.0,Macintosh,Firefox,88,OS X,10.15
157,1,1465,"""",html-keyboard-response,100,189206,0.0-100.0,"""","<img src='jspsych/CFDfaces/CFD-WM-006-002-N.jpg' height=""250px""></br><b>Daniel</b>","""",256,IntactFace,Memorization,70,5000,f,"""",CFD-BM-205-001-N.jpg,Steven,0,"""","""","""",1,4/26/2021 13:22,76.196.205.226,Mozilla/5.0 (Macintosh; Intel Mac OS X 10.15; rv:88.0) Gecko/20100101 Firefox/88.0,Macintosh,Firefox,88,OS X,10.15
157,1,null,"""",html-keyboard-response,101,189720,0.0-101.0,"""","<div style=""font-size:60px;"">+</div>","""",256,fixation,Memorization,null,500,"""","""","""","""","""","""","""","""",1,4/26/2021 13:22,76.196.205.226,Mozilla/5.0 (Macintosh; Intel Mac OS X 10.15; rv:88.0) Gecko/20100101 Firefox/88.0,Macintosh,Firefox,88,OS X,10.15
157,1,1761,"""",html-keyboard-response,102,194729,0.0-102.0,"""","<img src='jspsych/CFDfaces/CFD-BM-207-024-N.jpg' height=""250px""></br><b>Ian</b>","""",256,IntactFace,Memorization,78,5000,n,"""",CFD-AM-234-355-N.jpg,Jesse,0,"""","""","""",1,4/26/2021 13:22,76.196.205.226,Mozilla/5.0 (Macintosh; Intel Mac OS X 10.15; rv:88.0) Gecko/20100101 Firefox/88.0,Macintosh,Firefox,88,OS X,10.15
157,1,null,"""",html-keyboard-response,103,195240,0.0-103.0,"""","<div style=""font-size:60px;"">+</div>","""",256,fixation,Memorization,null,500,"""","""","""","""","""","""","""","""",1,4/26/2021 13:22,76.196.205.226,Mozilla/5.0 (Macintosh; Intel Mac OS X 10.15; rv:88.0) Gecko/20100101 Firefox/88.0,Macintosh,Firefox,88,OS X,10.15
157,1,1369,"""",html-keyboard-response,104,200249,0.0-104.0,"""","<img src='jspsych/CFDfaces/CFD-AM-202-079-N.jpg' height=""250px""></br><b>Jeffrey</b>","""",256,IntactFace,Memorization,70,5000,f,"""",CFD-AF-240-206-N.jpg,Jenna,0,"""","""","""",1,4/26/2021 13:22,76.196.205.226,Mozilla/5.0 (Macintosh; Intel Mac OS X 10.15; rv:88.0) Gecko/20100101 Firefox/88.0,Macintosh,Firefox,88,OS X,10.15
157,1,null,"""",html-keyboard-response,105,200761,0.0-105.0,"""","<div style=""font-size:60px;"">+</div>","""",256,fixation,Memorization,null,500,"""","""","""","""","""","""","""","""",1,4/26/2021 13:22,76.196.205.226,Mozilla/5.0 (Macintosh; Intel Mac OS X 10.15; rv:88.0) Gecko/20100101 Firefox/88.0,Macintosh,Firefox,88,OS X,10.15
157,1,1690,"""",html-keyboard-response,106,205770,0.0-106.0,"""","<img src='jspsych/CFDfaces/CFD-LM-220-329-N.jpg' height=""250px""></br><b>Brandon</b>","""",256,IntactFace,Memorization,78,5000,n,"""",CFD-WM-017-002-N.jpg,Cameron,0,"""","""","""",1,4/26/2021 13:22,76.196.205.226,Mozilla/5.0 (Macintosh; Intel Mac OS X 10.15; rv:88.0) Gecko/20100101 Firefox/88.0,Macintosh,Firefox,88,OS X,10.15
157,1,null,"""",html-keyboard-response,107,206280,0.0-107.0,"""","<div style=""font-size:60px;"">+</div>","""",256,fixation,Memorization,null,500,"""","""","""","""","""","""","""","""",1,4/26/2021 13:22,76.196.205.226,Mozilla/5.0 (Macintosh; Intel Mac OS X 10.15; rv:88.0) Gecko/20100101 Firefox/88.0,Macintosh,Firefox,88,OS X,10.15
157,1,1486,"""",html-keyboard-response,108,211289,0.0-108.0,"""","<img src='jspsych/CFDfaces/CFD-WF-006-002-N.jpg' height=""250px""></br><b>Christina</b>","""",256,IntactFace,Memorization,70,5000,f,"""",CFD-WM-019-003-N.jpg,Timothy,0,"""","""","""",1,4/26/2021 13:22,76.196.205.226,Mozilla/5.0 (Macintosh; Intel Mac OS X 10.15; rv:88.0) Gecko/20100101 Firefox/88.0,Macintosh,Firefox,88,OS X,10.15
157,1,null,"""",html-keyboard-response,109,211802,0.0-109.0,"""","<div style=""font-size:60px;"">+</div>","""",256,fixation,Memorization,null,500,"""","""","""","""","""","""","""","""",1,4/26/2021 13:22,76.196.205.226,Mozilla/5.0 (Macintosh; Intel Mac OS X 10.15; rv:88.0) Gecko/20100101 Firefox/88.0,Macintosh,Firefox,88,OS X,10.15
157,1,1834,"""",html-keyboard-response,110,216809,0.0-110.0,"""","<img src='jspsych/CFDfaces/CFD-AM-212-050-N.jpg' height=""250px""></br><b>Juan</b>","""",256,IntactFace,Memorization,70,5000,f,"""",CFD-WM-009-002-N.jpg,Dustin,0,"""","""","""",1,4/26/2021 13:22,76.196.205.226,Mozilla/5.0 (Macintosh; Intel Mac OS X 10.15; rv:88.0) Gecko/20100101 Firefox/88.0,Macintosh,Firefox,88,OS X,10.15
157,1,null,"""",html-keyboard-response,111,217320,0.0-111.0,"""","<div style=""font-size:60px;"">+</div>","""",256,fixation,Memorization,null,500,"""","""","""","""","""","""","""","""",1,4/26/2021 13:22,76.196.205.226,Mozilla/5.0 (Macintosh; Intel Mac OS X 10.15; rv:88.0) Gecko/20100101 Firefox/88.0,Macintosh,Firefox,88,OS X,10.15
157,1,1414,"""",html-keyboard-response,112,222328,0.0-112.0,"""","<img src='jspsych/CFDfaces/CFD-BF-226-119-N.jpg' height=""250px""></br><b>Brittany</b>","""",256,IntactFace,Memorization,70,5000,f,"""",CFD-LF-239-148-N.jpg,Lauren,0,"""","""","""",1,4/26/2021 13:22,76.196.205.226,Mozilla/5.0 (Macintosh; Intel Mac OS X 10.15; rv:88.0) Gecko/20100101 Firefox/88.0,Macintosh,Firefox,88,OS X,10.15
157,1,null,"""",html-keyboard-response,113,222840,0.0-113.0,"""","<div style=""font-size:60px;"">+</div>","""",256,fixation,Memorization,null,500,"""","""","""","""","""","""","""","""",1,4/26/2021 13:22,76.196.205.226,Mozilla/5.0 (Macintosh; Intel Mac OS X 10.15; rv:88.0) Gecko/20100101 Firefox/88.0,Macintosh,Firefox,88,OS X,10.15
157,1,1470,"""",html-keyboard-response,114,227845,0.0-114.0,"""","<img src='jspsych/CFDfaces/CFD-LF-201-035-N.jpg' height=""250px""></br><b>Kayla</b>","""",256,IntactFace,Memorization,78,5000,n,"""",CFD-LF-213-079-N.jpg,Sara,0,"""","""","""",1,4/26/2021 13:22,76.196.205.226,Mozilla/5.0 (Macintosh; Intel Mac OS X 10.15; rv:88.0) Gecko/20100101 Firefox/88.0,Macintosh,Firefox,88,OS X,10.15
157,1,null,"""",html-keyboard-response,115,228356,0.0-115.0,"""","<div style=""font-size:60px;"">+</div>","""",256,fixation,Memorization,null,500,"""","""","""","""","""","""","""","""",1,4/26/2021 13:22,76.196.205.226,Mozilla/5.0 (Macintosh; Intel Mac OS X 10.15; rv:88.0) Gecko/20100101 Firefox/88.0,Macintosh,Firefox,88,OS X,10.15
157,1,1803,"""",html-keyboard-response,116,233363,0.0-116.0,"""","<img src='jspsych/CFDfaces/CFD-BM-210-148-N.jpg' height=""250px""></br><b>Brian</b>","""",256,IntactFace,Memorization,70,5000,f,"""",CFD-LF-206-078-N.jpg,Heather,0,"""","""","""",1,4/26/2021 13:22,76.196.205.226,Mozilla/5.0 (Macintosh; Intel Mac OS X 10.15; rv:88.0) Gecko/20100101 Firefox/88.0,Macintosh,Firefox,88,OS X,10.15
157,1,null,"""",html-keyboard-response,117,233875,0.0-117.0,"""","<div style=""font-size:60px;"">+</div>","""",256,fixation,Memorization,null,500,"""","""","""","""","""","""","""","""",1,4/26/2021 13:22,76.196.205.226,Mozilla/5.0 (Macintosh; Intel Mac OS X 10.15; rv:88.0) Gecko/20100101 Firefox/88.0,Macintosh,Firefox,88,OS X,10.15
157,1,1787,"""",html-keyboard-response,118,238878,0.0-118.0,"""","<img src='jspsych/CFDfaces/CFD-AF-237-223-N.jpg' height=""250px""></br><b>Victoria</b>","""",256,IntactFace,Memorization,70,5000,f,"""",CFD-LF-204-133-N.jpg,Laura,0,"""","""","""",1,4/26/2021 13:22,76.196.205.226,Mozilla/5.0 (Macintosh; Intel Mac OS X 10.15; rv:88.0) Gecko/20100101 Firefox/88.0,Macintosh,Firefox,88,OS X,10.15
157,1,null,"""",html-keyboard-response,119,239389,0.0-119.0,"""","<div style=""font-size:60px;"">+</div>","""",256,fixation,Memorization,null,500,"""","""","""","""","""","""","""","""",1,4/26/2021 13:22,76.196.205.226,Mozilla/5.0 (Macintosh; Intel Mac OS X 10.15; rv:88.0) Gecko/20100101 Firefox/88.0,Macintosh,Firefox,88,OS X,10.15
157,1,1778,"""",html-keyboard-response,120,244397,0.0-120.0,"""","<img src='jspsych/CFDfaces/CFD-AF-241-141-N.jpg' height=""250px""></br><b>Samantha</b>","""",256,IntactFace,Memorization,78,5000,n,"""",CFD-BM-039-029-N.jpg,Justin,0,"""","""","""",1,4/26/2021 13:22,76.196.205.226,Mozilla/5.0 (Macintosh; Intel Mac OS X 10.15; rv:88.0) Gecko/20100101 Firefox/88.0,Macintosh,Firefox,88,OS X,10.15
157,1,null,"""",html-keyboard-response,121,244911,0.0-121.0,"""","<div style=""font-size:60px;"">+</div>","""",256,fixation,Memorization,null,500,"""","""","""","""","""","""","""","""",1,4/26/2021 13:22,76.196.205.226,Mozilla/5.0 (Macintosh; Intel Mac OS X 10.15; rv:88.0) Gecko/20100101 Firefox/88.0,Macintosh,Firefox,88,OS X,10.15
157,1,1697,"""",html-keyboard-response,122,249919,0.0-122.0,"""","<img src='jspsych/CFDfaces/CFD-WF-003-003-N.jpg' height=""250px""></br><b>Julie</b>","""",256,IntactFace,Memorization,70,5000,f,"""",CFD-BM-022-022-N.jpg,Luis,0,"""","""","""",1,4/26/2021 13:22,76.196.205.226,Mozilla/5.0 (Macintosh; Intel Mac OS X 10.15; rv:88.0) Gecko/20100101 Firefox/88.0,Macintosh,Firefox,88,OS X,10.15
157,1,null,"""",html-keyboard-response,123,250429,0.0-123.0,"""","<div style=""font-size:60px;"">+</div>","""",256,fixation,Memorization,null,500,"""","""","""","""","""","""","""","""",1,4/26/2021 13:22,76.196.205.226,Mozilla/5.0 (Macintosh; Intel Mac OS X 10.15; rv:88.0) Gecko/20100101 Firefox/88.0,Macintosh,Firefox,88,OS X,10.15
157,1,1688,"""",html-keyboard-response,124,255436,0.0-124.0,"""","<img src='jspsych/CFDfaces/CFD-LM-217-162-N.jpg' height=""250px""></br><b>Christian</b>","""",256,IntactFace,Memorization,70,5000,f,"""",CFD-WM-003-002-N.jpg,Vincent,0,"""","""","""",1,4/26/2021 13:22,76.196.205.226,Mozilla/5.0 (Macintosh; Intel Mac OS X 10.15; rv:88.0) Gecko/20100101 Firefox/88.0,Macintosh,Firefox,88,OS X,10.15
157,1,null,"""",html-keyboard-response,125,255949,0.0-125.0,"""","<div style=""font-size:60px;"">+</div>","""",256,fixation,Memorization,null,500,"""","""","""","""","""","""","""","""",1,4/26/2021 13:22,76.196.205.226,Mozilla/5.0 (Macintosh; Intel Mac OS X 10.15; rv:88.0) Gecko/20100101 Firefox/88.0,Macintosh,Firefox,88,OS X,10.15
157,1,1755,"""",html-keyboard-response,126,260958,0.0-126.0,"""","<img src='jspsych/CFDfaces/CFD-WF-217-085-N.jpg' height=""250px""></br><b>Ashley</b>","""",256,IntactFace,Memorization,70,5000,f,"""",CFD-AF-215-70-N.jpg,Lindsey,0,"""","""","""",1,4/26/2021 13:22,76.196.205.226,Mozilla/5.0 (Macintosh; Intel Mac OS X 10.15; rv:88.0) Gecko/20100101 Firefox/88.0,Macintosh,Firefox,88,OS X,10.15
157,1,null,"""",html-keyboard-response,127,261470,0.0-127.0,"""","<div style=""font-size:60px;"">+</div>","""",256,fixation,Memorization,null,500,"""","""","""","""","""","""","""","""",1,4/26/2021 13:22,76.196.205.226,Mozilla/5.0 (Macintosh; Intel Mac OS X 10.15; rv:88.0) Gecko/20100101 Firefox/88.0,Macintosh,Firefox,88,OS X,10.15
157,1,1786,"""",html-keyboard-response,128,266479,0.0-128.0,"""","<img src='jspsych/CFDfaces/CFD-BM-026-002-N.jpg' height=""250px""></br><b>Gregory</b>","""",256,IntactFace,Memorization,70,5000,f,"""",CFD-AF-228-173-N.jpg,Erin,0,"""","""","""",1,4/26/2021 13:22,76.196.205.226,Mozilla/5.0 (Macintosh; Intel Mac OS X 10.15; rv:88.0) Gecko/20100101 Firefox/88.0,Macintosh,Firefox,88,OS X,10.15
157,1,null,"""",html-keyboard-response,129,266992,0.0-129.0,"""","<div style=""font-size:60px;"">+</div>","""",256,fixation,Memorization,null,500,"""","""","""","""","""","""","""","""",1,4/26/2021 13:22,76.196.205.226,Mozilla/5.0 (Macintosh; Intel Mac OS X 10.15; rv:88.0) Gecko/20100101 Firefox/88.0,Macintosh,Firefox,88,OS X,10.15
157,1,1931,"""",html-keyboard-response,130,272001,0.0-130.0,"""","<img src='jspsych/CFDfaces/CFD-AM-231-136-N.jpg' height=""250px""></br><b>Nicholas</b>","""",256,IntactFace,Memorization,70,5000,f,"""",CFD-AM-229-224-N.jpg,Mark,0,"""","""","""",1,4/26/2021 13:22,76.196.205.226,Mozilla/5.0 (Macintosh; Intel Mac OS X 10.15; rv:88.0) Gecko/20100101 Firefox/88.0,Macintosh,Firefox,88,OS X,10.15
157,1,null,"""",html-keyboard-response,131,272509,0.0-131.0,"""","<div style=""font-size:60px;"">+</div>","""",256,fixation,Memorization,null,500,"""","""","""","""","""","""","""","""",1,4/26/2021 13:22,76.196.205.226,Mozilla/5.0 (Macintosh; Intel Mac OS X 10.15; rv:88.0) Gecko/20100101 Firefox/88.0,Macintosh,Firefox,88,OS X,10.15
157,1,1408,"""",html-keyboard-response,132,277517,0.0-132.0,"""","<img src='jspsych/CFDfaces/CFD-AF-214-139-N.jpg' height=""250px""></br><b>Andrea</b>","""",256,IntactFace,Memorization,70,5000,f,"""",CFD-WM-041-021-N.jpg,Sean,0,"""","""","""",1,4/26/2021 13:22,76.196.205.226,Mozilla/5.0 (Macintosh; Intel Mac OS X 10.15; rv:88.0) Gecko/20100101 Firefox/88.0,Macintosh,Firefox,88,OS X,10.15
157,1,null,"""",html-keyboard-response,133,278030,0.0-133.0,"""","<div style=""font-size:60px;"">+</div>","""",256,fixation,Memorization,null,500,"""","""","""","""","""","""","""","""",1,4/26/2021 13:22,76.196.205.226,Mozilla/5.0 (Macintosh; Intel Mac OS X 10.15; rv:88.0) Gecko/20100101 Firefox/88.0,Macintosh,Firefox,88,OS X,10.15
157,1,1921,"""",html-keyboard-response,134,283034,0.0-134.0,"""","<img src='jspsych/CFDfaces/CFD-WM-015-002-N.jpg' height=""250px""></br><b>Robert</b>","""",256,IntactFace,Memorization,70,5000,f,"""",CFD-AM-248-104-N.jpg,Travis,0,"""","""","""",1,4/26/2021 13:22,76.196.205.226,Mozilla/5.0 (Macintosh; Intel Mac OS X 10.15; rv:88.0) Gecko/20100101 Firefox/88.0,Macintosh,Firefox,88,OS X,10.15
157,1,null,"""",html-keyboard-response,135,283548,0.0-135.0,"""","<div style=""font-size:60px;"">+</div>","""",256,fixation,Memorization,null,500,"""","""","""","""","""","""","""","""",1,4/26/2021 13:22,76.196.205.226,Mozilla/5.0 (Macintosh; Intel Mac OS X 10.15; rv:88.0) Gecko/20100101 Firefox/88.0,Macintosh,Firefox,88,OS X,10.15
157,1,1530,"""",html-keyboard-response,136,288557,0.0-136.0,"""","<img src='jspsych/CFDfaces/CFD-AF-230-193-N.jpg' height=""250px""></br><b>Amanda</b>","""",256,IntactFace,Memorization,78,5000,n,"""",CFD-AF-233-190-N.jpg,Rebecca,0,"""","""","""",1,4/26/2021 13:22,76.196.205.226,Mozilla/5.0 (Macintosh; Intel Mac OS X 10.15; rv:88.0) Gecko/20100101 Firefox/88.0,Macintosh,Firefox,88,OS X,10.15
157,1,null,"""",html-keyboard-response,137,289070,0.0-137.0,"""","<div style=""font-size:60px;"">+</div>","""",256,fixation,Memorization,null,500,"""","""","""","""","""","""","""","""",1,4/26/2021 13:22,76.196.205.226,Mozilla/5.0 (Macintosh; Intel Mac OS X 10.15; rv:88.0) Gecko/20100101 Firefox/88.0,Macintosh,Firefox,88,OS X,10.15
157,1,1711,"""",html-keyboard-response,138,294079,0.0-138.0,"""","<img src='jspsych/CFDfaces/CFD-WM-020-001-N.jpg' height=""250px""></br><b>Joshua</b>","""",256,IntactFace,Memorization,70,5000,f,"""",CFD-AM-230-150-N.jpg,Kenneth,0,"""","""","""",1,4/26/2021 13:22,76.196.205.226,Mozilla/5.0 (Macintosh; Intel Mac OS X 10.15; rv:88.0) Gecko/20100101 Firefox/88.0,Macintosh,Firefox,88,OS X,10.15
157,1,null,"""",html-keyboard-response,139,294592,0.0-139.0,"""","<div style=""font-size:60px;"">+</div>","""",256,fixation,Memorization,null,500,"""","""","""","""","""","""","""","""",1,4/26/2021 13:22,76.196.205.226,Mozilla/5.0 (Macintosh; Intel Mac OS X 10.15; rv:88.0) Gecko/20100101 Firefox/88.0,Macintosh,Firefox,88,OS X,10.15
157,1,1725,"""",html-keyboard-response,140,299598,0.0-140.0,"""","<img src='jspsych/CFDfaces/CFD-LM-209-111-N.jpg' height=""250px""></br><b>Peter</b>","""",256,IntactFace,Memorization,78,5000,n,"""",CFD-AF-242-158-N.jpg,Jordan,0,"""","""","""",1,4/26/2021 13:22,76.196.205.226,Mozilla/5.0 (Macintosh; Intel Mac OS X 10.15; rv:88.0) Gecko/20100101 Firefox/88.0,Macintosh,Firefox,88,OS X,10.15
157,1,null,"""",html-keyboard-response,141,300106,0.0-141.0,"""","<div style=""font-size:60px;"">+</div>","""",256,fixation,Memorization,null,500,"""","""","""","""","""","""","""","""",1,4/26/2021 13:22,76.196.205.226,Mozilla/5.0 (Macintosh; Intel Mac OS X 10.15; rv:88.0) Gecko/20100101 Firefox/88.0,Macintosh,Firefox,88,OS X,10.15
157,1,2112,"""",html-keyboard-response,142,305116,0.0-142.0,"""","<img src='jspsych/CFDfaces/CFD-BF-039-031-N.jpg' height=""250px""></br><b>Elizabeth</b>","""",256,IntactFace,Memorization,78,5000,n,"""",CFD-AM-220-134-N.jpg,Jeremy,0,"""","""","""",1,4/26/2021 13:22,76.196.205.226,Mozilla/5.0 (Macintosh; Intel Mac OS X 10.15; rv:88.0) Gecko/20100101 Firefox/88.0,Macintosh,Firefox,88,OS X,10.15
157,1,null,"""",html-keyboard-response,143,305629,0.0-143.0,"""","<div style=""font-size:60px;"">+</div>","""",256,fixation,Memorization,null,500,"""","""","""","""","""","""","""","""",1,4/26/2021 13:22,76.196.205.226,Mozilla/5.0 (Macintosh; Intel Mac OS X 10.15; rv:88.0) Gecko/20100101 Firefox/88.0,Macintosh,Firefox,88,OS X,10.15
157,1,1282,"""",html-keyboard-response,144,310637,0.0-144.0,"""","<img src='jspsych/CFDfaces/CFD-BF-221-223-N.jpg' height=""250px""></br><b>Michelle</b>","""",256,IntactFace,Memorization,70,5000,f,"""",CFD-AF-203-077-N.jpg,Amy,0,"""","""","""",1,4/26/2021 13:22,76.196.205.226,Mozilla/5.0 (Macintosh; Intel Mac OS X 10.15; rv:88.0) Gecko/20100101 Firefox/88.0,Macintosh,Firefox,88,OS X,10.15
157,1,null,"""",html-keyboard-response,145,311150,0.0-145.0,"""","<div style=""font-size:60px;"">+</div>","""",256,fixation,Memorization,null,500,"""","""","""","""","""","""","""","""",1,4/26/2021 13:22,76.196.205.226,Mozilla/5.0 (Macintosh; Intel Mac OS X 10.15; rv:88.0) Gecko/20100101 Firefox/88.0,Macintosh,Firefox,88,OS X,10.15
157,1,1620,"""",html-keyboard-response,146,316157,0.0-146.0,"""","<img src='jspsych/CFDfaces/CFD-BF-004-014-N.jpg' height=""250px""></br><b>Stephanie</b>","""",256,IntactFace,Memorization,70,5000,f,"""",CFD-LM-201-057-N.jpg,Austin,0,"""","""","""",1,4/26/2021 13:22,76.196.205.226,Mozilla/5.0 (Macintosh; Intel Mac OS X 10.15; rv:88.0) Gecko/20100101 Firefox/88.0,Macintosh,Firefox,88,OS X,10.15
157,1,null,"""",html-keyboard-response,147,316671,0.0-147.0,"""","<div style=""font-size:60px;"">+</div>","""",256,fixation,Memorization,null,500,"""","""","""","""","""","""","""","""",1,4/26/2021 13:22,76.196.205.226,Mozilla/5.0 (Macintosh; Intel Mac OS X 10.15; rv:88.0) Gecko/20100101 Firefox/88.0,Macintosh,Firefox,88,OS X,10.15
157,1,1686,"""",html-keyboard-response,148,321680,0.0-148.0,"""","<img src='jspsych/CFDfaces/CFD-BM-208-065-N.jpg' height=""250px""></br><b>James</b>","""",256,IntactFace,Memorization,70,5000,f,"""",CFD-AF-201-060-N.jpg,Melissa,0,"""","""","""",1,4/26/2021 13:22,76.196.205.226,Mozilla/5.0 (Macintosh; Intel Mac OS X 10.15; rv:88.0) Gecko/20100101 Firefox/88.0,Macintosh,Firefox,88,OS X,10.15
157,1,null,"""",html-keyboard-response,149,322194,0.0-149.0,"""","<div style=""font-size:60px;"">+</div>","""",256,fixation,Memorization,null,500,"""","""","""","""","""","""","""","""",1,4/26/2021 13:22,76.196.205.226,Mozilla/5.0 (Macintosh; Intel Mac OS X 10.15; rv:88.0) Gecko/20100101 Firefox/88.0,Macintosh,Firefox,88,OS X,10.15
157,1,2003,"""",html-keyboard-response,150,327202,0.0-150.0,"""","<img src='jspsych/CFDfaces/CFD-WF-038-021-N.jpg' height=""250px""></br><b>Kimberly</b>","""",256,IntactFace,Memorization,70,5000,f,"""",CFD-AF-235-170-N.jpg,Whitney,0,"""","""","""",1,4/26/2021 13:22,76.196.205.226,Mozilla/5.0 (Macintosh; Intel Mac OS X 10.15; rv:88.0) Gecko/20100101 Firefox/88.0,Macintosh,Firefox,88,OS X,10.15
157,1,null,"""",html-keyboard-response,151,327715,0.0-151.0,"""","<div style=""font-size:60px;"">+</div>","""",256,fixation,Memorization,null,500,"""","""","""","""","""","""","""","""",1,4/26/2021 13:22,76.196.205.226,Mozilla/5.0 (Macintosh; Intel Mac OS X 10.15; rv:88.0) Gecko/20100101 Firefox/88.0,Macintosh,Firefox,88,OS X,10.15
157,1,1627,"""",html-keyboard-response,152,332724,0.0-152.0,"""","<img src='jspsych/CFDfaces/CFD-AM-214-168-N.jpg' height=""250px""></br><b>Jason</b>","""",256,IntactFace,Memorization,78,5000,n,"""",CFD-WF-200-099-N.jpg,Taylor,0,"""","""","""",1,4/26/2021 13:22,76.196.205.226,Mozilla/5.0 (Macintosh; Intel Mac OS X 10.15; rv:88.0) Gecko/20100101 Firefox/88.0,Macintosh,Firefox,88,OS X,10.15
157,1,null,"""",html-keyboard-response,153,333238,0.0-153.0,"""","<div style=""font-size:60px;"">+</div>","""",256,fixation,Memorization,null,500,"""","""","""","""","""","""","""","""",1,4/26/2021 13:22,76.196.205.226,Mozilla/5.0 (Macintosh; Intel Mac OS X 10.15; rv:88.0) Gecko/20100101 Firefox/88.0,Macintosh,Firefox,88,OS X,10.15
157,1,1939,"""",html-keyboard-response,154,335176,0.0-154.0,"""",Press Any Key to Begin Memory Test,"""",1,welcomeScreen,Break,78,"""","""","""","""","""","""","""","""","""",1,4/26/2021 13:22,76.196.205.226,Mozilla/5.0 (Macintosh; Intel Mac OS X 10.15; rv:88.0) Gecko/20100101 Firefox/88.0,Macintosh,Firefox,88,OS X,10.15
157,1,null,"""",html-keyboard-response,155,336184,0.0-155.0,"""","<div style=""font-size:60px;"">+</div>","""",256,ITI,Test,null,1000,"""","""","""","""","""","""","""","""",1,4/26/2021 13:22,76.196.205.226,Mozilla/5.0 (Macintosh; Intel Mac OS X 10.15; rv:88.0) Gecko/20100101 Firefox/88.0,Macintosh,Firefox,88,OS X,10.15
157,1,null,"""",image-keyboard-response,156,336445,0.0-156.0,"""",jspsych/scrambledNeutralFaces/scrambledBF26NES.JPG,"""",256,forwardMask,Test,null,250,"""",n,"""","""","""","""","""","""",1,4/26/2021 13:22,76.196.205.226,Mozilla/5.0 (Macintosh; Intel Mac OS X 10.15; rv:88.0) Gecko/20100101 Firefox/88.0,Macintosh,Firefox,88,OS X,10.15
157,1,null,"""",image-keyboard-response,157,336473,0.0-157.0,"""",jspsych/neutralFaces/BF26NES.JPG,"""",256,Cue,Test,null,16,"""","""","""","""","""","""","""","""",1,4/26/2021 13:22,76.196.205.226,Mozilla/5.0 (Macintosh; Intel Mac OS X 10.15; rv:88.0) Gecko/20100101 Firefox/88.0,Macintosh,Firefox,88,OS X,10.15
157,1,null,"""",image-keyboard-response,158,336584,0.0-158.0,"""",jspsych/neutralFaces/AF19NES.JPG,"""",256,backwardMask,Test,null,100,"""","""","""","""","""","""","""","""",1,4/26/2021 13:22,76.196.205.226,Mozilla/5.0 (Macintosh; Intel Mac OS X 10.15; rv:88.0) Gecko/20100101 Firefox/88.0,Macintosh,Firefox,88,OS X,10.15
157,1,null,"""",html-keyboard-response,159,337592,0.0-159.0,"""","<div style=""font-size:60px;"">+</div>","""",256,fixationBtwnNeutralMaskAndPrompt,Test,null,1000,"""","""","""","""","""","""","""","""",1,4/26/2021 13:22,76.196.205.226,Mozilla/5.0 (Macintosh; Intel Mac OS X 10.15; rv:88.0) Gecko/20100101 Firefox/88.0,Macintosh,Firefox,88,OS X,10.15
157,1,2321,"""",html-button-response,160,339916,0.0-160.0,"""","<img src='jspsych/CFDfaces/CFD-WM-032-001-N.jpg' height=""250px"">,</br><b>Christian</b>",1,256,IntactOrRearranged,Test,"""","""","""","""",CFD-AM-207-108-N.jpg,Cameron,1,1,"""","""",1,4/26/2021 13:22,76.196.205.226,Mozilla/5.0 (Macintosh; Intel Mac OS X 10.15; rv:88.0) Gecko/20100101 Firefox/88.0,Macintosh,Firefox,88,OS X,10.15
157,1,4125,"""",html-slider-response,161,344051,0.0-161.0,"""","<img src='jspsych/CFDfaces/CFD-WM-032-001-N.jpg' height=""250px"">,</br><b>Christian</b>","""",256,ConfidenceQuery,Test,"""","""","""","""",CFD-AM-207-108-N.jpg,Cameron,1,"""",0,28,1,4/26/2021 13:22,76.196.205.226,Mozilla/5.0 (Macintosh; Intel Mac OS X 10.15; rv:88.0) Gecko/20100101 Firefox/88.0,Macintosh,Firefox,88,OS X,10.15
157,1,null,"""",html-keyboard-response,162,345060,0.0-162.0,"""","<div style=""font-size:60px;"">+</div>","""",256,ITI,Test,null,1000,"""","""","""","""","""","""","""","""",1,4/26/2021 13:22,76.196.205.226,Mozilla/5.0 (Macintosh; Intel Mac OS X 10.15; rv:88.0) Gecko/20100101 Firefox/88.0,Macintosh,Firefox,88,OS X,10.15
157,1,null,"""",image-keyboard-response,163,345321,0.0-163.0,"""",jspsych/scrambledNeutralFaces/scrambledBM30NES.JPG,"""",256,forwardMask,Test,null,250,"""",n,"""","""","""","""","""","""",1,4/26/2021 13:22,76.196.205.226,Mozilla/5.0 (Macintosh; Intel Mac OS X 10.15; rv:88.0) Gecko/20100101 Firefox/88.0,Macintosh,Firefox,88,OS X,10.15
157,1,null,"""",image-keyboard-response,164,345349,0.0-164.0,"""",jspsych/neutralFaces/BM30NES.JPG,"""",256,Cue,Test,null,16,"""","""","""","""","""","""","""","""",1,4/26/2021 13:22,76.196.205.226,Mozilla/5.0 (Macintosh; Intel Mac OS X 10.15; rv:88.0) Gecko/20100101 Firefox/88.0,Macintosh,Firefox,88,OS X,10.15
157,1,null,"""",image-keyboard-response,165,345459,0.0-165.0,"""",jspsych/neutralFaces/AM32NES.JPG,"""",256,backwardMask,Test,null,100,"""","""","""","""","""","""","""","""",1,4/26/2021 13:22,76.196.205.226,Mozilla/5.0 (Macintosh; Intel Mac OS X 10.15; rv:88.0) Gecko/20100101 Firefox/88.0,Macintosh,Firefox,88,OS X,10.15
157,1,null,"""",html-keyboard-response,166,346467,0.0-166.0,"""","<div style=""font-size:60px;"">+</div>","""",256,fixationBtwnNeutralMaskAndPrompt,Test,null,1000,"""","""","""","""","""","""","""","""",1,4/26/2021 13:22,76.196.205.226,Mozilla/5.0 (Macintosh; Intel Mac OS X 10.15; rv:88.0) Gecko/20100101 Firefox/88.0,Macintosh,Firefox,88,OS X,10.15
157,1,3294,"""",html-button-response,167,349764,0.0-167.0,"""","<img src='jspsych/CFDfaces/CFD-LM-217-162-N.jpg' height=""250px"">,</br><b>Joshua</b>",0,256,IntactOrRearranged,Test,"""","""","""","""",CFD-AM-230-150-N.jpg,Jeremy,1,0,"""","""",1,4/26/2021 13:22,76.196.205.226,Mozilla/5.0 (Macintosh; Intel Mac OS X 10.15; rv:88.0) Gecko/20100101 Firefox/88.0,Macintosh,Firefox,88,OS X,10.15
157,1,3543,"""",html-slider-response,168,353311,0.0-168.0,"""","<img src='jspsych/CFDfaces/CFD-LM-217-162-N.jpg' height=""250px"">,</br><b>Joshua</b>","""",256,ConfidenceQuery,Test,"""","""","""","""",CFD-AM-230-150-N.jpg,Jeremy,1,"""",0,36,1,4/26/2021 13:22,76.196.205.226,Mozilla/5.0 (Macintosh; Intel Mac OS X 10.15; rv:88.0) Gecko/20100101 Firefox/88.0,Macintosh,Firefox,88,OS X,10.15
157,1,null,"""",html-keyboard-response,169,354325,0.0-169.0,"""","<div style=""font-size:60px;"">+</div>","""",256,ITI,Test,null,1000,"""","""","""","""","""","""","""","""",1,4/26/2021 13:22,76.196.205.226,Mozilla/5.0 (Macintosh; Intel Mac OS X 10.15; rv:88.0) Gecko/20100101 Firefox/88.0,Macintosh,Firefox,88,OS X,10.15
157,1,null,"""",image-keyboard-response,170,354587,0.0-170.0,"""",jspsych/scrambledDisgustFaces/scrambledAM27DIS.JPG,"""",256,forwardMask,Test,null,250,"""",d,"""","""","""","""","""","""",1,4/26/2021 13:22,76.196.205.226,Mozilla/5.0 (Macintosh; Intel Mac OS X 10.15; rv:88.0) Gecko/20100101 Firefox/88.0,Macintosh,Firefox,88,OS X,10.15
157,1,null,"""",image-keyboard-response,171,354610,0.0-171.0,"""",jspsych/disgustFaces/AM27DIS.JPG,"""",256,Cue,Test,null,16,"""","""","""","""","""","""","""","""",1,4/26/2021 13:22,76.196.205.226,Mozilla/5.0 (Macintosh; Intel Mac OS X 10.15; rv:88.0) Gecko/20100101 Firefox/88.0,Macintosh,Firefox,88,OS X,10.15
157,1,null,"""",image-keyboard-response,172,354720,0.0-172.0,"""",jspsych/neutralFaces/AM14NES.JPG,"""",256,backwardMask,Test,null,100,"""","""","""","""","""","""","""","""",1,4/26/2021 13:22,76.196.205.226,Mozilla/5.0 (Macintosh; Intel Mac OS X 10.15; rv:88.0) Gecko/20100101 Firefox/88.0,Macintosh,Firefox,88,OS X,10.15
157,1,null,"""",html-keyboard-response,173,355726,0.0-173.0,"""","<div style=""font-size:60px;"">+</div>","""",256,fixationBtwnNeutralMaskAndPrompt,Test,null,1000,"""","""","""","""","""","""","""","""",1,4/26/2021 13:22,76.196.205.226,Mozilla/5.0 (Macintosh; Intel Mac OS X 10.15; rv:88.0) Gecko/20100101 Firefox/88.0,Macintosh,Firefox,88,OS X,10.15
157,1,3365,"""",html-button-response,174,359095,0.0-174.0,"""","<img src='jspsych/CFDfaces/CFD-WF-023-003-N.jpg' height=""250px"">,</br><b>Vanessa</b>",0,256,IntactOrRearranged,Test,"""","""","""","""",CFD-WM-017-002-N.jpg,Timothy,0,0,"""","""",1,4/26/2021 13:22,76.196.205.226,Mozilla/5.0 (Macintosh; Intel Mac OS X 10.15; rv:88.0) Gecko/20100101 Firefox/88.0,Macintosh,Firefox,88,OS X,10.15
157,1,2415,"""",html-slider-response,175,361520,0.0-175.0,"""","<img src='jspsych/CFDfaces/CFD-WF-023-003-N.jpg' height=""250px"">,</br><b>Vanessa</b>","""",256,ConfidenceQuery,Test,"""","""","""","""",CFD-WM-017-002-N.jpg,Timothy,0,"""",0,21,1,4/26/2021 13:22,76.196.205.226,Mozilla/5.0 (Macintosh; Intel Mac OS X 10.15; rv:88.0) Gecko/20100101 Firefox/88.0,Macintosh,Firefox,88,OS X,10.15
157,1,null,"""",html-keyboard-response,176,362524,0.0-176.0,"""","<div style=""font-size:60px;"">+</div>","""",256,ITI,Test,null,1000,"""","""","""","""","""","""","""","""",1,4/26/2021 13:22,76.196.205.226,Mozilla/5.0 (Macintosh; Intel Mac OS X 10.15; rv:88.0) Gecko/20100101 Firefox/88.0,Macintosh,Firefox,88,OS X,10.15
157,1,null,"""",image-keyboard-response,177,362785,0.0-177.0,"""",jspsych/scrambledNeutralFaces/scrambledAF05NES.JPG,"""",256,forwardMask,Test,null,250,"""",n,"""","""","""","""","""","""",1,4/26/2021 13:22,76.196.205.226,Mozilla/5.0 (Macintosh; Intel Mac OS X 10.15; rv:88.0) Gecko/20100101 Firefox/88.0,Macintosh,Firefox,88,OS X,10.15
157,1,null,"""",image-keyboard-response,178,362811,0.0-178.0,"""",jspsych/neutralFaces/AF05NES.JPG,"""",256,Cue,Test,null,16,"""","""","""","""","""","""","""","""",1,4/26/2021 13:22,76.196.205.226,Mozilla/5.0 (Macintosh; Intel Mac OS X 10.15; rv:88.0) Gecko/20100101 Firefox/88.0,Macintosh,Firefox,88,OS X,10.15
157,1,null,"""",image-keyboard-response,179,362922,0.0-179.0,"""",jspsych/neutralFaces/AF32NES.JPG,"""",256,backwardMask,Test,null,100,"""","""","""","""","""","""","""","""",1,4/26/2021 13:22,76.196.205.226,Mozilla/5.0 (Macintosh; Intel Mac OS X 10.15; rv:88.0) Gecko/20100101 Firefox/88.0,Macintosh,Firefox,88,OS X,10.15
157,1,null,"""",html-keyboard-response,180,363926,0.0-180.0,"""","<div style=""font-size:60px;"">+</div>","""",256,fixationBtwnNeutralMaskAndPrompt,Test,null,1000,"""","""","""","""","""","""","""","""",1,4/26/2021 13:22,76.196.205.226,Mozilla/5.0 (Macintosh; Intel Mac OS X 10.15; rv:88.0) Gecko/20100101 Firefox/88.0,Macintosh,Firefox,88,OS X,10.15
157,1,1914,"""",html-button-response,181,365844,0.0-181.0,"""","<img src='jspsych/CFDfaces/CFD-AM-212-050-N.jpg' height=""250px"">,</br><b>Juan</b>",0,256,IntactOrRearranged,Test,"""","""","""","""",CFD-LM-201-057-N.jpg,Mark,0,0,"""","""",1,4/26/2021 13:22,76.196.205.226,Mozilla/5.0 (Macintosh; Intel Mac OS X 10.15; rv:88.0) Gecko/20100101 Firefox/88.0,Macintosh,Firefox,88,OS X,10.15
157,1,2768,"""",html-slider-response,182,368619,0.0-182.0,"""","<img src='jspsych/CFDfaces/CFD-AM-212-050-N.jpg' height=""250px"">,</br><b>Juan</b>","""",256,ConfidenceQuery,Test,"""","""","""","""",CFD-LM-201-057-N.jpg,Mark,0,"""",0,60,1,4/26/2021 13:22,76.196.205.226,Mozilla/5.0 (Macintosh; Intel Mac OS X 10.15; rv:88.0) Gecko/20100101 Firefox/88.0,Macintosh,Firefox,88,OS X,10.15
157,1,null,"""",html-keyboard-response,183,369622,0.0-183.0,"""","<div style=""font-size:60px;"">+</div>","""",256,ITI,Test,null,1000,"""","""","""","""","""","""","""","""",1,4/26/2021 13:22,76.196.205.226,Mozilla/5.0 (Macintosh; Intel Mac OS X 10.15; rv:88.0) Gecko/20100101 Firefox/88.0,Macintosh,Firefox,88,OS X,10.15
157,1,null,"""",image-keyboard-response,184,369884,0.0-184.0,"""",jspsych/scrambledDisgustFaces/scrambledAF19DIS.JPG,"""",256,forwardMask,Test,null,250,"""",d,"""","""","""","""","""","""",1,4/26/2021 13:22,76.196.205.226,Mozilla/5.0 (Macintosh; Intel Mac OS X 10.15; rv:88.0) Gecko/20100101 Firefox/88.0,Macintosh,Firefox,88,OS X,10.15
157,1,null,"""",image-keyboard-response,185,369907,0.0-185.0,"""",jspsych/disgustFaces/AF19DIS.JPG,"""",256,Cue,Test,null,16,"""","""","""","""","""","""","""","""",1,4/26/2021 13:22,76.196.205.226,Mozilla/5.0 (Macintosh; Intel Mac OS X 10.15; rv:88.0) Gecko/20100101 Firefox/88.0,Macintosh,Firefox,88,OS X,10.15
157,1,null,"""",image-keyboard-response,186,370018,0.0-186.0,"""",jspsych/neutralFaces/BF20NES.JPG,"""",256,backwardMask,Test,null,100,"""","""","""","""","""","""","""","""",1,4/26/2021 13:22,76.196.205.226,Mozilla/5.0 (Macintosh; Intel Mac OS X 10.15; rv:88.0) Gecko/20100101 Firefox/88.0,Macintosh,Firefox,88,OS X,10.15
157,1,null,"""",html-keyboard-response,187,371021,0.0-187.0,"""","<div style=""font-size:60px;"">+</div>","""",256,fixationBtwnNeutralMaskAndPrompt,Test,null,1000,"""","""","""","""","""","""","""","""",1,4/26/2021 13:22,76.196.205.226,Mozilla/5.0 (Macintosh; Intel Mac OS X 10.15; rv:88.0) Gecko/20100101 Firefox/88.0,Macintosh,Firefox,88,OS X,10.15
157,1,1833,"""",html-button-response,188,372856,0.0-188.0,"""","<img src='jspsych/CFDfaces/CFD-BF-039-031-N.jpg' height=""250px"">,</br><b>Kimberly</b>",1,256,IntactOrRearranged,Test,"""","""","""","""",CFD-WM-041-021-N.jpg,Sean,1,1,"""","""",1,4/26/2021 13:22,76.196.205.226,Mozilla/5.0 (Macintosh; Intel Mac OS X 10.15; rv:88.0) Gecko/20100101 Firefox/88.0,Macintosh,Firefox,88,OS X,10.15
157,1,2936,"""",html-slider-response,189,375803,0.0-189.0,"""","<img src='jspsych/CFDfaces/CFD-BF-039-031-N.jpg' height=""250px"">,</br><b>Kimberly</b>","""",256,ConfidenceQuery,Test,"""","""","""","""",CFD-WM-041-021-N.jpg,Sean,1,"""",0,78,1,4/26/2021 13:22,76.196.205.226,Mozilla/5.0 (Macintosh; Intel Mac OS X 10.15; rv:88.0) Gecko/20100101 Firefox/88.0,Macintosh,Firefox,88,OS X,10.15
157,1,null,"""",html-keyboard-response,190,376811,0.0-190.0,"""","<div style=""font-size:60px;"">+</div>","""",256,ITI,Test,null,1000,"""","""","""","""","""","""","""","""",1,4/26/2021 13:22,76.196.205.226,Mozilla/5.0 (Macintosh; Intel Mac OS X 10.15; rv:88.0) Gecko/20100101 Firefox/88.0,Macintosh,Firefox,88,OS X,10.15
157,1,null,"""",image-keyboard-response,191,377072,0.0-191.0,"""",jspsych/scrambledDisgustFaces/scrambledAM32DIS.JPG,"""",256,forwardMask,Test,null,250,"""",d,"""","""","""","""","""","""",1,4/26/2021 13:22,76.196.205.226,Mozilla/5.0 (Macintosh; Intel Mac OS X 10.15; rv:88.0) Gecko/20100101 Firefox/88.0,Macintosh,Firefox,88,OS X,10.15
157,1,null,"""",image-keyboard-response,192,377095,0.0-192.0,"""",jspsych/disgustFaces/AM32DIS.JPG,"""",256,Cue,Test,null,16,"""","""","""","""","""","""","""","""",1,4/26/2021 13:22,76.196.205.226,Mozilla/5.0 (Macintosh; Intel Mac OS X 10.15; rv:88.0) Gecko/20100101 Firefox/88.0,Macintosh,Firefox,88,OS X,10.15
157,1,null,"""",image-keyboard-response,193,377204,0.0-193.0,"""",jspsych/neutralFaces/AM14NES.JPG,"""",256,backwardMask,Test,null,100,"""","""","""","""","""","""","""","""",1,4/26/2021 13:22,76.196.205.226,Mozilla/5.0 (Macintosh; Intel Mac OS X 10.15; rv:88.0) Gecko/20100101 Firefox/88.0,Macintosh,Firefox,88,OS X,10.15
157,1,null,"""",html-keyboard-response,194,378212,0.0-194.0,"""","<div style=""font-size:60px;"">+</div>","""",256,fixationBtwnNeutralMaskAndPrompt,Test,null,1000,"""","""","""","""","""","""","""","""",1,4/26/2021 13:22,76.196.205.226,Mozilla/5.0 (Macintosh; Intel Mac OS X 10.15; rv:88.0) Gecko/20100101 Firefox/88.0,Macintosh,Firefox,88,OS X,10.15
157,1,2954,"""",html-button-response,195,381176,0.0-195.0,"""","<img src='jspsych/CFDfaces/CFD-BM-208-065-N.jpg' height=""250px"">,</br><b>Jeffrey</b>",0,256,IntactOrRearranged,Test,"""","""","""","""",CFD-WF-200-099-N.jpg,Taylor,1,0,"""","""",1,4/26/2021 13:22,76.196.205.226,Mozilla/5.0 (Macintosh; Intel Mac OS X 10.15; rv:88.0) Gecko/20100101 Firefox/88.0,Macintosh,Firefox,88,OS X,10.15
157,1,3295,"""",html-slider-response,196,384475,0.0-196.0,"""","<img src='jspsych/CFDfaces/CFD-BM-208-065-N.jpg' height=""250px"">,</br><b>Jeffrey</b>","""",256,ConfidenceQuery,Test,"""","""","""","""",CFD-WF-200-099-N.jpg,Taylor,1,"""",0,26,1,4/26/2021 13:22,76.196.205.226,Mozilla/5.0 (Macintosh; Intel Mac OS X 10.15; rv:88.0) Gecko/20100101 Firefox/88.0,Macintosh,Firefox,88,OS X,10.15
157,1,null,"""",html-keyboard-response,197,385490,0.0-197.0,"""","<div style=""font-size:60px;"">+</div>","""",256,ITI,Test,null,1000,"""","""","""","""","""","""","""","""",1,4/26/2021 13:22,76.196.205.226,Mozilla/5.0 (Macintosh; Intel Mac OS X 10.15; rv:88.0) Gecko/20100101 Firefox/88.0,Macintosh,Firefox,88,OS X,10.15
157,1,null,"""",image-keyboard-response,198,385751,0.0-198.0,"""",jspsych/scrambledNeutralFaces/scrambledAF35NES.JPG,"""",256,forwardMask,Test,null,250,"""",n,"""","""","""","""","""","""",1,4/26/2021 13:22,76.196.205.226,Mozilla/5.0 (Macintosh; Intel Mac OS X 10.15; rv:88.0) Gecko/20100101 Firefox/88.0,Macintosh,Firefox,88,OS X,10.15
157,1,null,"""",image-keyboard-response,199,385775,0.0-199.0,"""",jspsych/neutralFaces/AF35NES.JPG,"""",256,Cue,Test,null,16,"""","""","""","""","""","""","""","""",1,4/26/2021 13:22,76.196.205.226,Mozilla/5.0 (Macintosh; Intel Mac OS X 10.15; rv:88.0) Gecko/20100101 Firefox/88.0,Macintosh,Firefox,88,OS X,10.15
157,1,null,"""",image-keyboard-response,200,385884,0.0-200.0,"""",jspsych/neutralFaces/AF27NES.JPG,"""",256,backwardMask,Test,null,100,"""","""","""","""","""","""","""","""",1,4/26/2021 13:22,76.196.205.226,Mozilla/5.0 (Macintosh; Intel Mac OS X 10.15; rv:88.0) Gecko/20100101 Firefox/88.0,Macintosh,Firefox,88,OS X,10.15
157,1,null,"""",html-keyboard-response,201,386892,0.0-201.0,"""","<div style=""font-size:60px;"">+</div>","""",256,fixationBtwnNeutralMaskAndPrompt,Test,null,1000,"""","""","""","""","""","""","""","""",1,4/26/2021 13:22,76.196.205.226,Mozilla/5.0 (Macintosh; Intel Mac OS X 10.15; rv:88.0) Gecko/20100101 Firefox/88.0,Macintosh,Firefox,88,OS X,10.15
157,1,2457,"""",html-button-response,202,389352,0.0-202.0,"""","<img src='jspsych/CFDfaces/CFD-WM-020-001-N.jpg' height=""250px"">,</br><b>Eric</b>",1,256,IntactOrRearranged,Test,"""","""","""","""",CFD-WM-009-002-N.jpg,Dustin,1,1,"""","""",1,4/26/2021 13:22,76.196.205.226,Mozilla/5.0 (Macintosh; Intel Mac OS X 10.15; rv:88.0) Gecko/20100101 Firefox/88.0,Macintosh,Firefox,88,OS X,10.15
157,1,2685,"""",html-slider-response,203,392041,0.0-203.0,"""","<img src='jspsych/CFDfaces/CFD-WM-020-001-N.jpg' height=""250px"">,</br><b>Eric</b>","""",256,ConfidenceQuery,Test,"""","""","""","""",CFD-WM-009-002-N.jpg,Dustin,1,"""",0,37,1,4/26/2021 13:22,76.196.205.226,Mozilla/5.0 (Macintosh; Intel Mac OS X 10.15; rv:88.0) Gecko/20100101 Firefox/88.0,Macintosh,Firefox,88,OS X,10.15
157,1,null,"""",html-keyboard-response,204,393056,0.0-204.0,"""","<div style=""font-size:60px;"">+</div>","""",256,ITI,Test,null,1000,"""","""","""","""","""","""","""","""",1,4/26/2021 13:22,76.196.205.226,Mozilla/5.0 (Macintosh; Intel Mac OS X 10.15; rv:88.0) Gecko/20100101 Firefox/88.0,Macintosh,Firefox,88,OS X,10.15
157,1,null,"""",image-keyboard-response,205,393317,0.0-205.0,"""",jspsych/scrambledDisgustFaces/scrambledBM06DIS.JPG,"""",256,forwardMask,Test,null,250,"""",d,"""","""","""","""","""","""",1,4/26/2021 13:22,76.196.205.226,Mozilla/5.0 (Macintosh; Intel Mac OS X 10.15; rv:88.0) Gecko/20100101 Firefox/88.0,Macintosh,Firefox,88,OS X,10.15
157,1,null,"""",image-keyboard-response,206,393339,0.0-206.0,"""",jspsych/disgustFaces/BM07DIS.JPG,"""",256,Cue,Test,null,16,"""","""","""","""","""","""","""","""",1,4/26/2021 13:22,76.196.205.226,Mozilla/5.0 (Macintosh; Intel Mac OS X 10.15; rv:88.0) Gecko/20100101 Firefox/88.0,Macintosh,Firefox,88,OS X,10.15
157,1,null,"""",image-keyboard-response,207,393449,0.0-207.0,"""",jspsych/neutralFaces/BM22NES.JPG,"""",256,backwardMask,Test,null,100,"""","""","""","""","""","""","""","""",1,4/26/2021 13:22,76.196.205.226,Mozilla/5.0 (Macintosh; Intel Mac OS X 10.15; rv:88.0) Gecko/20100101 Firefox/88.0,Macintosh,Firefox,88,OS X,10.15
157,1,null,"""",html-keyboard-response,208,394454,0.0-208.0,"""","<div style=""font-size:60px;"">+</div>","""",256,fixationBtwnNeutralMaskAndPrompt,Test,null,1000,"""","""","""","""","""","""","""","""",1,4/26/2021 13:22,76.196.205.226,Mozilla/5.0 (Macintosh; Intel Mac OS X 10.15; rv:88.0) Gecko/20100101 Firefox/88.0,Macintosh,Firefox,88,OS X,10.15
157,1,3033,"""",html-button-response,209,397491,0.0-209.0,"""","<img src='jspsych/CFDfaces/CFD-AF-230-193-N.jpg' height=""250px"">,</br><b>Christina</b>",1,256,IntactOrRearranged,Test,"""","""","""","""",CFD-AM-248-104-N.jpg,Travis,1,1,"""","""",1,4/26/2021 13:22,76.196.205.226,Mozilla/5.0 (Macintosh; Intel Mac OS X 10.15; rv:88.0) Gecko/20100101 Firefox/88.0,Macintosh,Firefox,88,OS X,10.15
157,1,2611,"""",html-slider-response,210,400106,0.0-210.0,"""","<img src='jspsych/CFDfaces/CFD-AF-230-193-N.jpg' height=""250px"">,</br><b>Christina</b>","""",256,ConfidenceQuery,Test,"""","""","""","""",CFD-AM-248-104-N.jpg,Travis,1,"""",0,80,1,4/26/2021 13:22,76.196.205.226,Mozilla/5.0 (Macintosh; Intel Mac OS X 10.15; rv:88.0) Gecko/20100101 Firefox/88.0,Macintosh,Firefox,88,OS X,10.15
157,1,null,"""",html-keyboard-response,211,401118,0.0-211.0,"""","<div style=""font-size:60px;"">+</div>","""",256,ITI,Test,null,1000,"""","""","""","""","""","""","""","""",1,4/26/2021 13:22,76.196.205.226,Mozilla/5.0 (Macintosh; Intel Mac OS X 10.15; rv:88.0) Gecko/20100101 Firefox/88.0,Macintosh,Firefox,88,OS X,10.15
157,1,null,"""",image-keyboard-response,212,401380,0.0-212.0,"""",jspsych/scrambledDisgustFaces/scrambledAM12DIS.JPG,"""",256,forwardMask,Test,null,250,"""",d,"""","""","""","""","""","""",1,4/26/2021 13:22,76.196.205.226,Mozilla/5.0 (Macintosh; Intel Mac OS X 10.15; rv:88.0) Gecko/20100101 Firefox/88.0,Macintosh,Firefox,88,OS X,10.15
157,1,null,"""",image-keyboard-response,213,401402,0.0-213.0,"""",jspsych/disgustFaces/AM12DIS.JPG,"""",256,Cue,Test,null,16,"""","""","""","""","""","""","""","""",1,4/26/2021 13:22,76.196.205.226,Mozilla/5.0 (Macintosh; Intel Mac OS X 10.15; rv:88.0) Gecko/20100101 Firefox/88.0,Macintosh,Firefox,88,OS X,10.15
157,1,null,"""",image-keyboard-response,214,401511,0.0-214.0,"""",jspsych/neutralFaces/AM17NES.JPG,"""",256,backwardMask,Test,null,100,"""","""","""","""","""","""","""","""",1,4/26/2021 13:22,76.196.205.226,Mozilla/5.0 (Macintosh; Intel Mac OS X 10.15; rv:88.0) Gecko/20100101 Firefox/88.0,Macintosh,Firefox,88,OS X,10.15
157,1,null,"""",html-keyboard-response,215,402518,0.0-215.0,"""","<div style=""font-size:60px;"">+</div>","""",256,fixationBtwnNeutralMaskAndPrompt,Test,null,1000,"""","""","""","""","""","""","""","""",1,4/26/2021 13:22,76.196.205.226,Mozilla/5.0 (Macintosh; Intel Mac OS X 10.15; rv:88.0) Gecko/20100101 Firefox/88.0,Macintosh,Firefox,88,OS X,10.15
157,1,1781,"""",html-button-response,216,404303,0.0-216.0,"""","<img src='jspsych/CFDfaces/CFD-BM-207-024-N.jpg' height=""250px"">,</br><b>Ian</b>",0,256,IntactOrRearranged,Test,"""","""","""","""",CFD-BM-022-022-N.jpg,Luis,0,0,"""","""",1,4/26/2021 13:22,76.196.205.226,Mozilla/5.0 (Macintosh; Intel Mac OS X 10.15; rv:88.0) Gecko/20100101 Firefox/88.0,Macintosh,Firefox,88,OS X,10.15
157,1,2660,"""",html-slider-response,217,406968,0.0-217.0,"""","<img src='jspsych/CFDfaces/CFD-BM-207-024-N.jpg' height=""250px"">,</br><b>Ian</b>","""",256,ConfidenceQuery,Test,"""","""","""","""",CFD-BM-022-022-N.jpg,Luis,0,"""",0,28,1,4/26/2021 13:22,76.196.205.226,Mozilla/5.0 (Macintosh; Intel Mac OS X 10.15; rv:88.0) Gecko/20100101 Firefox/88.0,Macintosh,Firefox,88,OS X,10.15
157,1,null,"""",html-keyboard-response,218,407978,0.0-218.0,"""","<div style=""font-size:60px;"">+</div>","""",256,ITI,Test,null,1000,"""","""","""","""","""","""","""","""",1,4/26/2021 13:22,76.196.205.226,Mozilla/5.0 (Macintosh; Intel Mac OS X 10.15; rv:88.0) Gecko/20100101 Firefox/88.0,Macintosh,Firefox,88,OS X,10.15
157,1,null,"""",image-keyboard-response,219,408235,0.0-219.0,"""",jspsych/scrambledDisgustFaces/scrambledBM26DIS.JPG,"""",256,forwardMask,Test,null,250,"""",d,"""","""","""","""","""","""",1,4/26/2021 13:22,76.196.205.226,Mozilla/5.0 (Macintosh; Intel Mac OS X 10.15; rv:88.0) Gecko/20100101 Firefox/88.0,Macintosh,Firefox,88,OS X,10.15
157,1,null,"""",image-keyboard-response,220,408259,0.0-220.0,"""",jspsych/disgustFaces/BM27DIS.JPG,"""",256,Cue,Test,null,16,"""","""","""","""","""","""","""","""",1,4/26/2021 13:22,76.196.205.226,Mozilla/5.0 (Macintosh; Intel Mac OS X 10.15; rv:88.0) Gecko/20100101 Firefox/88.0,Macintosh,Firefox,88,OS X,10.15
157,1,null,"""",image-keyboard-response,221,408368,0.0-221.0,"""",jspsych/neutralFaces/AM35NES.JPG,"""",256,backwardMask,Test,null,100,"""","""","""","""","""","""","""","""",1,4/26/2021 13:22,76.196.205.226,Mozilla/5.0 (Macintosh; Intel Mac OS X 10.15; rv:88.0) Gecko/20100101 Firefox/88.0,Macintosh,Firefox,88,OS X,10.15
157,1,null,"""",html-keyboard-response,222,409371,0.0-222.0,"""","<div style=""font-size:60px;"">+</div>","""",256,fixationBtwnNeutralMaskAndPrompt,Test,null,1000,"""","""","""","""","""","""","""","""",1,4/26/2021 13:22,76.196.205.226,Mozilla/5.0 (Macintosh; Intel Mac OS X 10.15; rv:88.0) Gecko/20100101 Firefox/88.0,Macintosh,Firefox,88,OS X,10.15
157,1,2093,"""",html-button-response,223,411467,0.0-223.0,"""","<img src='jspsych/CFDfaces/CFD-WF-217-085-N.jpg' height=""250px"">,</br><b>Elizabeth</b>",1,256,IntactOrRearranged,Test,"""","""","""","""",CFD-BM-039-029-N.jpg,Justin,1,1,"""","""",1,4/26/2021 13:22,76.196.205.226,Mozilla/5.0 (Macintosh; Intel Mac OS X 10.15; rv:88.0) Gecko/20100101 Firefox/88.0,Macintosh,Firefox,88,OS X,10.15
157,1,3021,"""",html-slider-response,224,414492,0.0-224.0,"""","<img src='jspsych/CFDfaces/CFD-WF-217-085-N.jpg' height=""250px"">,</br><b>Elizabeth</b>","""",256,ConfidenceQuery,Test,"""","""","""","""",CFD-BM-039-029-N.jpg,Justin,1,"""",0,73,1,4/26/2021 13:22,76.196.205.226,Mozilla/5.0 (Macintosh; Intel Mac OS X 10.15; rv:88.0) Gecko/20100101 Firefox/88.0,Macintosh,Firefox,88,OS X,10.15
157,1,null,"""",html-keyboard-response,225,415505,0.0-225.0,"""","<div style=""font-size:60px;"">+</div>","""",256,ITI,Test,null,1000,"""","""","""","""","""","""","""","""",1,4/26/2021 13:22,76.196.205.226,Mozilla/5.0 (Macintosh; Intel Mac OS X 10.15; rv:88.0) Gecko/20100101 Firefox/88.0,Macintosh,Firefox,88,OS X,10.15
157,1,null,"""",image-keyboard-response,226,415767,0.0-226.0,"""",jspsych/scrambledDisgustFaces/scrambledAF30DIS.JPG,"""",256,forwardMask,Test,null,250,"""",d,"""","""","""","""","""","""",1,4/26/2021 13:22,76.196.205.226,Mozilla/5.0 (Macintosh; Intel Mac OS X 10.15; rv:88.0) Gecko/20100101 Firefox/88.0,Macintosh,Firefox,88,OS X,10.15
157,1,null,"""",image-keyboard-response,227,415791,0.0-227.0,"""",jspsych/disgustFaces/AF30DIS.JPG,"""",256,Cue,Test,null,16,"""","""","""","""","""","""","""","""",1,4/26/2021 13:22,76.196.205.226,Mozilla/5.0 (Macintosh; Intel Mac OS X 10.15; rv:88.0) Gecko/20100101 Firefox/88.0,Macintosh,Firefox,88,OS X,10.15
157,1,null,"""",image-keyboard-response,228,415900,0.0-228.0,"""",jspsych/neutralFaces/AF35NES.JPG,"""",256,backwardMask,Test,null,100,"""","""","""","""","""","""","""","""",1,4/26/2021 13:22,76.196.205.226,Mozilla/5.0 (Macintosh; Intel Mac OS X 10.15; rv:88.0) Gecko/20100101 Firefox/88.0,Macintosh,Firefox,88,OS X,10.15
157,1,null,"""",html-keyboard-response,229,416907,0.0-229.0,"""","<div style=""font-size:60px;"">+</div>","""",256,fixationBtwnNeutralMaskAndPrompt,Test,null,1000,"""","""","""","""","""","""","""","""",1,4/26/2021 13:22,76.196.205.226,Mozilla/5.0 (Macintosh; Intel Mac OS X 10.15; rv:88.0) Gecko/20100101 Firefox/88.0,Macintosh,Firefox,88,OS X,10.15
157,1,2920,"""",html-button-response,230,419830,0.0-230.0,"""","<img src='jspsych/CFDfaces/CFD-WF-202-056-N.jpg' height=""250px"">,</br><b>Andrea</b>",1,256,IntactOrRearranged,Test,"""","""","""","""",CFD-AM-229-224-N.jpg,Jesse,1,1,"""","""",1,4/26/2021 13:22,76.196.205.226,Mozilla/5.0 (Macintosh; Intel Mac OS X 10.15; rv:88.0) Gecko/20100101 Firefox/88.0,Macintosh,Firefox,88,OS X,10.15
157,1,4090,"""",html-slider-response,231,423922,0.0-231.0,"""","<img src='jspsych/CFDfaces/CFD-WF-202-056-N.jpg' height=""250px"">,</br><b>Andrea</b>","""",256,ConfidenceQuery,Test,"""","""","""","""",CFD-AM-229-224-N.jpg,Jesse,1,"""",0,33,1,4/26/2021 13:22,76.196.205.226,Mozilla/5.0 (Macintosh; Intel Mac OS X 10.15; rv:88.0) Gecko/20100101 Firefox/88.0,Macintosh,Firefox,88,OS X,10.15
157,1,null,"""",html-keyboard-response,232,424937,0.0-232.0,"""","<div style=""font-size:60px;"">+</div>","""",256,ITI,Test,null,1000,"""","""","""","""","""","""","""","""",1,4/26/2021 13:22,76.196.205.226,Mozilla/5.0 (Macintosh; Intel Mac OS X 10.15; rv:88.0) Gecko/20100101 Firefox/88.0,Macintosh,Firefox,88,OS X,10.15
157,1,null,"""",image-keyboard-response,233,425198,0.0-233.0,"""",jspsych/scrambledDisgustFaces/scrambledBF11DIS.JPG,"""",256,forwardMask,Test,null,250,"""",d,"""","""","""","""","""","""",1,4/26/2021 13:22,76.196.205.226,Mozilla/5.0 (Macintosh; Intel Mac OS X 10.15; rv:88.0) Gecko/20100101 Firefox/88.0,Macintosh,Firefox,88,OS X,10.15
157,1,null,"""",image-keyboard-response,234,425221,0.0-234.0,"""",jspsych/disgustFaces/BF11DIS.JPG,"""",256,Cue,Test,null,16,"""","""","""","""","""","""","""","""",1,4/26/2021 13:22,76.196.205.226,Mozilla/5.0 (Macintosh; Intel Mac OS X 10.15; rv:88.0) Gecko/20100101 Firefox/88.0,Macintosh,Firefox,88,OS X,10.15
157,1,null,"""",image-keyboard-response,235,425328,0.0-235.0,"""",jspsych/neutralFaces/BF03NES.JPG,"""",256,backwardMask,Test,null,100,"""","""","""","""","""","""","""","""",1,4/26/2021 13:22,76.196.205.226,Mozilla/5.0 (Macintosh; Intel Mac OS X 10.15; rv:88.0) Gecko/20100101 Firefox/88.0,Macintosh,Firefox,88,OS X,10.15
157,1,null,"""",html-keyboard-response,236,426335,0.0-236.0,"""","<div style=""font-size:60px;"">+</div>","""",256,fixationBtwnNeutralMaskAndPrompt,Test,null,1000,"""","""","""","""","""","""","""","""",1,4/26/2021 13:22,76.196.205.226,Mozilla/5.0 (Macintosh; Intel Mac OS X 10.15; rv:88.0) Gecko/20100101 Firefox/88.0,Macintosh,Firefox,88,OS X,10.15
157,1,2101,"""",html-button-response,237,428439,0.0-237.0,"""","<img src='jspsych/CFDfaces/CFD-BM-210-148-N.jpg' height=""250px"">,</br><b>Brian</b>",0,256,IntactOrRearranged,Test,"""","""","""","""",CFD-LF-243-175-N.jpg,Angela,0,0,"""","""",1,4/26/2021 13:22,76.196.205.226,Mozilla/5.0 (Macintosh; Intel Mac OS X 10.15; rv:88.0) Gecko/20100101 Firefox/88.0,Macintosh,Firefox,88,OS X,10.15
157,1,2379,"""",html-slider-response,238,430822,0.0-238.0,"""","<img src='jspsych/CFDfaces/CFD-BM-210-148-N.jpg' height=""250px"">,</br><b>Brian</b>","""",256,ConfidenceQuery,Test,"""","""","""","""",CFD-LF-243-175-N.jpg,Angela,0,"""",0,39,1,4/26/2021 13:22,76.196.205.226,Mozilla/5.0 (Macintosh; Intel Mac OS X 10.15; rv:88.0) Gecko/20100101 Firefox/88.0,Macintosh,Firefox,88,OS X,10.15
157,1,null,"""",html-keyboard-response,239,431834,0.0-239.0,"""","<div style=""font-size:60px;"">+</div>","""",256,ITI,Test,null,1000,"""","""","""","""","""","""","""","""",1,4/26/2021 13:22,76.196.205.226,Mozilla/5.0 (Macintosh; Intel Mac OS X 10.15; rv:88.0) Gecko/20100101 Firefox/88.0,Macintosh,Firefox,88,OS X,10.15
157,1,null,"""",image-keyboard-response,240,432091,0.0-240.0,"""",jspsych/scrambledNeutralFaces/scrambledBF34NES.JPG,"""",256,forwardMask,Test,null,250,"""",n,"""","""","""","""","""","""",1,4/26/2021 13:22,76.196.205.226,Mozilla/5.0 (Macintosh; Intel Mac OS X 10.15; rv:88.0) Gecko/20100101 Firefox/88.0,Macintosh,Firefox,88,OS X,10.15
157,1,null,"""",image-keyboard-response,241,432113,0.0-241.0,"""",jspsych/neutralFaces/BF34NES.JPG,"""",256,Cue,Test,null,16,"""","""","""","""","""","""","""","""",1,4/26/2021 13:22,76.196.205.226,Mozilla/5.0 (Macintosh; Intel Mac OS X 10.15; rv:88.0) Gecko/20100101 Firefox/88.0,Macintosh,Firefox,88,OS X,10.15
157,1,null,"""",image-keyboard-response,242,432223,0.0-242.0,"""",jspsych/neutralFaces/BF30NES.JPG,"""",256,backwardMask,Test,null,100,"""","""","""","""","""","""","""","""",1,4/26/2021 13:22,76.196.205.226,Mozilla/5.0 (Macintosh; Intel Mac OS X 10.15; rv:88.0) Gecko/20100101 Firefox/88.0,Macintosh,Firefox,88,OS X,10.15
157,1,null,"""",html-keyboard-response,243,433231,0.0-243.0,"""","<div style=""font-size:60px;"">+</div>","""",256,fixationBtwnNeutralMaskAndPrompt,Test,null,1000,"""","""","""","""","""","""","""","""",1,4/26/2021 13:22,76.196.205.226,Mozilla/5.0 (Macintosh; Intel Mac OS X 10.15; rv:88.0) Gecko/20100101 Firefox/88.0,Macintosh,Firefox,88,OS X,10.15
157,1,1737,"""",html-button-response,244,434970,0.0-244.0,"""","<img src='jspsych/CFDfaces/CFD-WM-006-002-N.jpg' height=""250px"">,</br><b>James</b>",1,256,IntactOrRearranged,Test,"""","""","""","""",CFD-AF-242-158-N.jpg,Jenna,1,1,"""","""",1,4/26/2021 13:22,76.196.205.226,Mozilla/5.0 (Macintosh; Intel Mac OS X 10.15; rv:88.0) Gecko/20100101 Firefox/88.0,Macintosh,Firefox,88,OS X,10.15
157,1,2483,"""",html-slider-response,245,437458,0.0-245.0,"""","<img src='jspsych/CFDfaces/CFD-WM-006-002-N.jpg' height=""250px"">,</br><b>James</b>","""",256,ConfidenceQuery,Test,"""","""","""","""",CFD-AF-242-158-N.jpg,Jenna,1,"""",0,75,1,4/26/2021 13:22,76.196.205.226,Mozilla/5.0 (Macintosh; Intel Mac OS X 10.15; rv:88.0) Gecko/20100101 Firefox/88.0,Macintosh,Firefox,88,OS X,10.15
157,1,null,"""",html-keyboard-response,246,438473,0.0-246.0,"""","<div style=""font-size:60px;"">+</div>","""",256,ITI,Test,null,1000,"""","""","""","""","""","""","""","""",1,4/26/2021 13:22,76.196.205.226,Mozilla/5.0 (Macintosh; Intel Mac OS X 10.15; rv:88.0) Gecko/20100101 Firefox/88.0,Macintosh,Firefox,88,OS X,10.15
157,1,null,"""",image-keyboard-response,247,438734,0.0-247.0,"""",jspsych/scrambledDisgustFaces/scrambledAM22DIS.JPG,"""",256,forwardMask,Test,null,250,"""",d,"""","""","""","""","""","""",1,4/26/2021 13:22,76.196.205.226,Mozilla/5.0 (Macintosh; Intel Mac OS X 10.15; rv:88.0) Gecko/20100101 Firefox/88.0,Macintosh,Firefox,88,OS X,10.15
157,1,null,"""",image-keyboard-response,248,438757,0.0-248.0,"""",jspsych/disgustFaces/AM22DIS.JPG,"""",256,Cue,Test,null,16,"""","""","""","""","""","""","""","""",1,4/26/2021 13:22,76.196.205.226,Mozilla/5.0 (Macintosh; Intel Mac OS X 10.15; rv:88.0) Gecko/20100101 Firefox/88.0,Macintosh,Firefox,88,OS X,10.15
157,1,null,"""",image-keyboard-response,249,438867,0.0-249.0,"""",jspsych/neutralFaces/BM13NES.JPG,"""",256,backwardMask,Test,null,100,"""","""","""","""","""","""","""","""",1,4/26/2021 13:22,76.196.205.226,Mozilla/5.0 (Macintosh; Intel Mac OS X 10.15; rv:88.0) Gecko/20100101 Firefox/88.0,Macintosh,Firefox,88,OS X,10.15
157,1,null,"""",html-keyboard-response,250,439875,0.0-250.0,"""","<div style=""font-size:60px;"">+</div>","""",256,fixationBtwnNeutralMaskAndPrompt,Test,null,1000,"""","""","""","""","""","""","""","""",1,4/26/2021 13:22,76.196.205.226,Mozilla/5.0 (Macintosh; Intel Mac OS X 10.15; rv:88.0) Gecko/20100101 Firefox/88.0,Macintosh,Firefox,88,OS X,10.15
157,1,2972,"""",html-button-response,251,442849,0.0-251.0,"""","<img src='jspsych/CFDfaces/CFD-WF-003-003-N.jpg' height=""250px"">,</br><b>Julie</b>",0,256,IntactOrRearranged,Test,"""","""","""","""",CFD-AF-203-077-N.jpg,Amy,0,0,"""","""",1,4/26/2021 13:22,76.196.205.226,Mozilla/5.0 (Macintosh; Intel Mac OS X 10.15; rv:88.0) Gecko/20100101 Firefox/88.0,Macintosh,Firefox,88,OS X,10.15
157,1,2823,"""",html-slider-response,252,445682,0.0-252.0,"""","<img src='jspsych/CFDfaces/CFD-WF-003-003-N.jpg' height=""250px"">,</br><b>Julie</b>","""",256,ConfidenceQuery,Test,"""","""","""","""",CFD-AF-203-077-N.jpg,Amy,0,"""",0,79,1,4/26/2021 13:22,76.196.205.226,Mozilla/5.0 (Macintosh; Intel Mac OS X 10.15; rv:88.0) Gecko/20100101 Firefox/88.0,Macintosh,Firefox,88,OS X,10.15
157,1,null,"""",html-keyboard-response,253,446690,0.0-253.0,"""","<div style=""font-size:60px;"">+</div>","""",256,ITI,Test,null,1000,"""","""","""","""","""","""","""","""",1,4/26/2021 13:22,76.196.205.226,Mozilla/5.0 (Macintosh; Intel Mac OS X 10.15; rv:88.0) Gecko/20100101 Firefox/88.0,Macintosh,Firefox,88,OS X,10.15
157,1,null,"""",image-keyboard-response,254,446950,0.0-254.0,"""",jspsych/scrambledNeutralFaces/scrambledBM13NES.JPG,"""",256,forwardMask,Test,null,250,"""",n,"""","""","""","""","""","""",1,4/26/2021 13:22,76.196.205.226,Mozilla/5.0 (Macintosh; Intel Mac OS X 10.15; rv:88.0) Gecko/20100101 Firefox/88.0,Macintosh,Firefox,88,OS X,10.15
157,1,null,"""",image-keyboard-response,255,446976,0.0-255.0,"""",jspsych/neutralFaces/BM13NES.JPG,"""",256,Cue,Test,null,16,"""","""","""","""","""","""","""","""",1,4/26/2021 13:22,76.196.205.226,Mozilla/5.0 (Macintosh; Intel Mac OS X 10.15; rv:88.0) Gecko/20100101 Firefox/88.0,Macintosh,Firefox,88,OS X,10.15
157,1,null,"""",image-keyboard-response,256,447086,0.0-256.0,"""",jspsych/neutralFaces/BM02NES.JPG,"""",256,backwardMask,Test,null,100,"""","""","""","""","""","""","""","""",1,4/26/2021 13:22,76.196.205.226,Mozilla/5.0 (Macintosh; Intel Mac OS X 10.15; rv:88.0) Gecko/20100101 Firefox/88.0,Macintosh,Firefox,88,OS X,10.15
157,1,null,"""",html-keyboard-response,257,448095,0.0-257.0,"""","<div style=""font-size:60px;"">+</div>","""",256,fixationBtwnNeutralMaskAndPrompt,Test,null,1000,"""","""","""","""","""","""","""","""",1,4/26/2021 13:22,76.196.205.226,Mozilla/5.0 (Macintosh; Intel Mac OS X 10.15; rv:88.0) Gecko/20100101 Firefox/88.0,Macintosh,Firefox,88,OS X,10.15
157,1,2142,"""",html-button-response,258,450239,0.0-258.0,"""","<img src='jspsych/CFDfaces/CFD-LM-223-175-N.jpg' height=""250px"">,</br><b>Gregory</b>",1,256,IntactOrRearranged,Test,"""","""","""","""",CFD-AF-235-170-N.jpg,Whitney,1,1,"""","""",1,4/26/2021 13:22,76.196.205.226,Mozilla/5.0 (Macintosh; Intel Mac OS X 10.15; rv:88.0) Gecko/20100101 Firefox/88.0,Macintosh,Firefox,88,OS X,10.15
157,1,2516,"""",html-slider-response,259,452768,0.0-259.0,"""","<img src='jspsych/CFDfaces/CFD-LM-223-175-N.jpg' height=""250px"">,</br><b>Gregory</b>","""",256,ConfidenceQuery,Test,"""","""","""","""",CFD-AF-235-170-N.jpg,Whitney,1,"""",0,20,1,4/26/2021 13:22,76.196.205.226,Mozilla/5.0 (Macintosh; Intel Mac OS X 10.15; rv:88.0) Gecko/20100101 Firefox/88.0,Macintosh,Firefox,88,OS X,10.15
157,1,null,"""",html-keyboard-response,260,453777,0.0-260.0,"""","<div style=""font-size:60px;"">+</div>","""",256,ITI,Test,null,1000,"""","""","""","""","""","""","""","""",1,4/26/2021 13:22,76.196.205.226,Mozilla/5.0 (Macintosh; Intel Mac OS X 10.15; rv:88.0) Gecko/20100101 Firefox/88.0,Macintosh,Firefox,88,OS X,10.15
157,1,null,"""",image-keyboard-response,261,454038,0.0-261.0,"""",jspsych/scrambledNeutralFaces/scrambledAF32NES.JPG,"""",256,forwardMask,Test,null,250,"""",n,"""","""","""","""","""","""",1,4/26/2021 13:22,76.196.205.226,Mozilla/5.0 (Macintosh; Intel Mac OS X 10.15; rv:88.0) Gecko/20100101 Firefox/88.0,Macintosh,Firefox,88,OS X,10.15
157,1,null,"""",image-keyboard-response,262,454065,0.0-262.0,"""",jspsych/neutralFaces/AF32NES.JPG,"""",256,Cue,Test,null,16,"""","""","""","""","""","""","""","""",1,4/26/2021 13:22,76.196.205.226,Mozilla/5.0 (Macintosh; Intel Mac OS X 10.15; rv:88.0) Gecko/20100101 Firefox/88.0,Macintosh,Firefox,88,OS X,10.15
157,1,null,"""",image-keyboard-response,263,454175,0.0-263.0,"""",jspsych/neutralFaces/AF09NES.JPG,"""",256,backwardMask,Test,null,100,"""","""","""","""","""","""","""","""",1,4/26/2021 13:22,76.196.205.226,Mozilla/5.0 (Macintosh; Intel Mac OS X 10.15; rv:88.0) Gecko/20100101 Firefox/88.0,Macintosh,Firefox,88,OS X,10.15
157,1,null,"""",html-keyboard-response,264,455183,0.0-264.0,"""","<div style=""font-size:60px;"">+</div>","""",256,fixationBtwnNeutralMaskAndPrompt,Test,null,1000,"""","""","""","""","""","""","""","""",1,4/26/2021 13:22,76.196.205.226,Mozilla/5.0 (Macintosh; Intel Mac OS X 10.15; rv:88.0) Gecko/20100101 Firefox/88.0,Macintosh,Firefox,88,OS X,10.15
157,1,2245,"""",html-button-response,265,457430,0.0-265.0,"""","<img src='jspsych/CFDfaces/CFD-WM-015-002-N.jpg' height=""250px"">,</br><b>Robert</b>",0,256,IntactOrRearranged,Test,"""","""","""","""",CFD-LF-239-148-N.jpg,Jordan,0,0,"""","""",1,4/26/2021 13:22,76.196.205.226,Mozilla/5.0 (Macintosh; Intel Mac OS X 10.15; rv:88.0) Gecko/20100101 Firefox/88.0,Macintosh,Firefox,88,OS X,10.15
157,1,3553,"""",html-slider-response,266,460994,0.0-266.0,"""","<img src='jspsych/CFDfaces/CFD-WM-015-002-N.jpg' height=""250px"">,</br><b>Robert</b>","""",256,ConfidenceQuery,Test,"""","""","""","""",CFD-LF-239-148-N.jpg,Jordan,0,"""",0,82,1,4/26/2021 13:22,76.196.205.226,Mozilla/5.0 (Macintosh; Intel Mac OS X 10.15; rv:88.0) Gecko/20100101 Firefox/88.0,Macintosh,Firefox,88,OS X,10.15
157,1,null,"""",html-keyboard-response,267,462001,0.0-267.0,"""","<div style=""font-size:60px;"">+</div>","""",256,ITI,Test,null,1000,"""","""","""","""","""","""","""","""",1,4/26/2021 13:22,76.196.205.226,Mozilla/5.0 (Macintosh; Intel Mac OS X 10.15; rv:88.0) Gecko/20100101 Firefox/88.0,Macintosh,Firefox,88,OS X,10.15
157,1,null,"""",image-keyboard-response,268,462263,0.0-268.0,"""",jspsych/scrambledDisgustFaces/scrambledBM08DIS.JPG,"""",256,forwardMask,Test,null,250,"""",d,"""","""","""","""","""","""",1,4/26/2021 13:22,76.196.205.226,Mozilla/5.0 (Macintosh; Intel Mac OS X 10.15; rv:88.0) Gecko/20100101 Firefox/88.0,Macintosh,Firefox,88,OS X,10.15
157,1,null,"""",image-keyboard-response,269,462286,0.0-269.0,"""",jspsych/disgustFaces/BM09DIS.JPG,"""",256,Cue,Test,null,16,"""","""","""","""","""","""","""","""",1,4/26/2021 13:22,76.196.205.226,Mozilla/5.0 (Macintosh; Intel Mac OS X 10.15; rv:88.0) Gecko/20100101 Firefox/88.0,Macintosh,Firefox,88,OS X,10.15
157,1,null,"""",image-keyboard-response,270,462395,0.0-270.0,"""",jspsych/neutralFaces/BM05NES.JPG,"""",256,backwardMask,Test,null,100,"""","""","""","""","""","""","""","""",1,4/26/2021 13:22,76.196.205.226,Mozilla/5.0 (Macintosh; Intel Mac OS X 10.15; rv:88.0) Gecko/20100101 Firefox/88.0,Macintosh,Firefox,88,OS X,10.15
157,1,null,"""",html-keyboard-response,271,463402,0.0-271.0,"""","<div style=""font-size:60px;"">+</div>","""",256,fixationBtwnNeutralMaskAndPrompt,Test,null,1000,"""","""","""","""","""","""","""","""",1,4/26/2021 13:22,76.196.205.226,Mozilla/5.0 (Macintosh; Intel Mac OS X 10.15; rv:88.0) Gecko/20100101 Firefox/88.0,Macintosh,Firefox,88,OS X,10.15
157,1,2257,"""",html-button-response,272,465670,0.0-272.0,"""","<img src='jspsych/CFDfaces/CFD-LF-201-035-N.jpg' height=""250px"">,</br><b>Kayla</b>",0,256,IntactOrRearranged,Test,"""","""","""","""",CFD-AF-215-70-N.jpg,Lindsey,0,0,"""","""",1,4/26/2021 13:22,76.196.205.226,Mozilla/5.0 (Macintosh; Intel Mac OS X 10.15; rv:88.0) Gecko/20100101 Firefox/88.0,Macintosh,Firefox,88,OS X,10.15
157,1,2828,"""",html-slider-response,273,468503,0.0-273.0,"""","<img src='jspsych/CFDfaces/CFD-LF-201-035-N.jpg' height=""250px"">,</br><b>Kayla</b>","""",256,ConfidenceQuery,Test,"""","""","""","""",CFD-AF-215-70-N.jpg,Lindsey,0,"""",0,41,1,4/26/2021 13:22,76.196.205.226,Mozilla/5.0 (Macintosh; Intel Mac OS X 10.15; rv:88.0) Gecko/20100101 Firefox/88.0,Macintosh,Firefox,88,OS X,10.15
157,1,null,"""",html-keyboard-response,274,469511,0.0-274.0,"""","<div style=""font-size:60px;"">+</div>","""",256,ITI,Test,null,1000,"""","""","""","""","""","""","""","""",1,4/26/2021 13:22,76.196.205.226,Mozilla/5.0 (Macintosh; Intel Mac OS X 10.15; rv:88.0) Gecko/20100101 Firefox/88.0,Macintosh,Firefox,88,OS X,10.15
157,1,null,"""",image-keyboard-response,275,469778,0.0-275.0,"""",jspsych/scrambledNeutralFaces/scrambledAM33NES.JPG,"""",256,forwardMask,Test,null,250,"""",n,"""","""","""","""","""","""",1,4/26/2021 13:22,76.196.205.226,Mozilla/5.0 (Macintosh; Intel Mac OS X 10.15; rv:88.0) Gecko/20100101 Firefox/88.0,Macintosh,Firefox,88,OS X,10.15
157,1,null,"""",image-keyboard-response,276,469803,0.0-276.0,"""",jspsych/neutralFaces/AM33NES.JPG,"""",256,Cue,Test,null,16,"""","""","""","""","""","""","""","""",1,4/26/2021 13:22,76.196.205.226,Mozilla/5.0 (Macintosh; Intel Mac OS X 10.15; rv:88.0) Gecko/20100101 Firefox/88.0,Macintosh,Firefox,88,OS X,10.15
157,1,null,"""",image-keyboard-response,277,469912,0.0-277.0,"""",jspsych/neutralFaces/AM31NES.JPG,"""",256,backwardMask,Test,null,100,"""","""","""","""","""","""","""","""",1,4/26/2021 13:22,76.196.205.226,Mozilla/5.0 (Macintosh; Intel Mac OS X 10.15; rv:88.0) Gecko/20100101 Firefox/88.0,Macintosh,Firefox,88,OS X,10.15
157,1,null,"""",html-keyboard-response,278,470917,0.0-278.0,"""","<div style=""font-size:60px;"">+</div>","""",256,fixationBtwnNeutralMaskAndPrompt,Test,null,1000,"""","""","""","""","""","""","""","""",1,4/26/2021 13:22,76.196.205.226,Mozilla/5.0 (Macintosh; Intel Mac OS X 10.15; rv:88.0) Gecko/20100101 Firefox/88.0,Macintosh,Firefox,88,OS X,10.15
157,1,1752,"""",html-button-response,279,472673,0.0-279.0,"""","<img src='jspsych/CFDfaces/CFD-LF-220-120-N.jpg' height=""250px"">,</br><b>Meghan</b>",0,256,IntactOrRearranged,Test,"""","""","""","""",CFD-WM-003-002-N.jpg,Vincent,0,0,"""","""",1,4/26/2021 13:22,76.196.205.226,Mozilla/5.0 (Macintosh; Intel Mac OS X 10.15; rv:88.0) Gecko/20100101 Firefox/88.0,Macintosh,Firefox,88,OS X,10.15
157,1,2285,"""",html-slider-response,280,474962,0.0-280.0,"""","<img src='jspsych/CFDfaces/CFD-LF-220-120-N.jpg' height=""250px"">,</br><b>Meghan</b>","""",256,ConfidenceQuery,Test,"""","""","""","""",CFD-WM-003-002-N.jpg,Vincent,0,"""",0,100,1,4/26/2021 13:22,76.196.205.226,Mozilla/5.0 (Macintosh; Intel Mac OS X 10.15; rv:88.0) Gecko/20100101 Firefox/88.0,Macintosh,Firefox,88,OS X,10.15
157,1,null,"""",html-keyboard-response,281,475976,0.0-281.0,"""","<div style=""font-size:60px;"">+</div>","""",256,ITI,Test,null,1000,"""","""","""","""","""","""","""","""",1,4/26/2021 13:22,76.196.205.226,Mozilla/5.0 (Macintosh; Intel Mac OS X 10.15; rv:88.0) Gecko/20100101 Firefox/88.0,Macintosh,Firefox,88,OS X,10.15
157,1,null,"""",image-keyboard-response,282,476236,0.0-282.0,"""",jspsych/scrambledDisgustFaces/scrambledAF15DIS.JPG,"""",256,forwardMask,Test,null,250,"""",d,"""","""","""","""","""","""",1,4/26/2021 13:22,76.196.205.226,Mozilla/5.0 (Macintosh; Intel Mac OS X 10.15; rv:88.0) Gecko/20100101 Firefox/88.0,Macintosh,Firefox,88,OS X,10.15
157,1,null,"""",image-keyboard-response,283,476264,0.0-283.0,"""",jspsych/disgustFaces/AF15DIS.JPG,"""",256,Cue,Test,null,16,"""","""","""","""","""","""","""","""",1,4/26/2021 13:22,76.196.205.226,Mozilla/5.0 (Macintosh; Intel Mac OS X 10.15; rv:88.0) Gecko/20100101 Firefox/88.0,Macintosh,Firefox,88,OS X,10.15
