run_id,condition,rt,responses,trial_type,trial_index,time_elapsed,internal_node_id,question_order,stimulus,button_pressed,iTrial,Phase,ExperimentPhase,key_press,StimulusDurationSetting,CharacterResponse,correctResponse,Face,Name,rearranged,didSubjectEnterRearranged,slider_start,response,Block,recorded_at,ip,user_agent,device,browser,browser_version,platform,platform_version
219,1,12265,"{""Q0"":""A17OINLIDZ0C14""}",survey-text,0,12268,0.0-0.0,"""","""","""","""","""","""","""","""","""","""","""","""","""","""","""","""","""",5/1/2021 19:58,76.87.181.231,Mozilla/5.0 (Windows NT 10.0; Win64; x64; rv:88.0) Gecko/20100101 Firefox/88.0,,Firefox,88,Windows,10
219,1,2141,"{""Q0"":""25""}",survey-text,1,14417,0.0-1.0,"""","""","""","""","""","""","""","""","""","""","""","""","""","""","""","""","""",5/1/2021 19:58,76.87.181.231,Mozilla/5.0 (Windows NT 10.0; Win64; x64; rv:88.0) Gecko/20100101 Firefox/88.0,,Firefox,88,Windows,10
219,1,5398,"{""Q0"":""female"",""Q1"":""Not Hispanic/Latino"",""Q2"":""White or Caucasian""}",survey-multi-choice,2,19819,0.0-2.0,"[0,1,2]","""","""","""","""","""","""","""","""","""","""","""","""","""","""","""","""",5/1/2021 19:58,76.87.181.231,Mozilla/5.0 (Windows NT 10.0; Win64; x64; rv:88.0) Gecko/20100101 Firefox/88.0,,Firefox,88,Windows,10
219,1,9782,"""",image-button-response,3,29615,0.0-3.0,"""",directionsMemoryAssociation1.JPG,0,1,IntroDirections1,break,"""","""","""","""","""","""","""","""","""","""","""",5/1/2021 19:58,76.87.181.231,Mozilla/5.0 (Windows NT 10.0; Win64; x64; rv:88.0) Gecko/20100101 Firefox/88.0,,Firefox,88,Windows,10
219,1,14331,"""",image-button-response,4,43953,0.0-4.0,"""",directionsMemoryAssociation2.JPG,0,1,IntroDirections2,break,"""","""","""","""","""","""","""","""","""","""","""",5/1/2021 19:58,76.87.181.231,Mozilla/5.0 (Windows NT 10.0; Win64; x64; rv:88.0) Gecko/20100101 Firefox/88.0,,Firefox,88,Windows,10
219,1,null,"""",html-keyboard-response,5,48962,0.0-5.0,"""","<img src='jspsych/CFDfaces/CFD-LM-221-216-N.jpg' height=""250px"">,</br><b>Samuel</b>","""",1,IntactFace,Practice,null,5000,"""","""","""","""","""","""","""","""","""",5/1/2021 19:58,76.87.181.231,Mozilla/5.0 (Windows NT 10.0; Win64; x64; rv:88.0) Gecko/20100101 Firefox/88.0,,Firefox,88,Windows,10
219,1,null,"""",html-keyboard-response,6,49463,0.0-6.0,"""","<div style=""font-size:60px;"">+</div>","""",1,ITI,Practice,null,1000,"""","""","""","""","""","""","""","""","""",5/1/2021 19:58,76.87.181.231,Mozilla/5.0 (Windows NT 10.0; Win64; x64; rv:88.0) Gecko/20100101 Firefox/88.0,,Firefox,88,Windows,10
219,1,3565,"""",html-keyboard-response,7,54469,0.0-7.0,"""","<img src='jspsych/CFDfaces/CFD-LM-201-057-N.jpg' height=""250px"">,</br><b>Patrick</b>","""",2,IntactFace,Practice,70,5000,f,"""","""","""","""","""","""","""","""",5/1/2021 19:58,76.87.181.231,Mozilla/5.0 (Windows NT 10.0; Win64; x64; rv:88.0) Gecko/20100101 Firefox/88.0,,Firefox,88,Windows,10
219,1,null,"""",html-keyboard-response,8,54977,0.0-8.0,"""","<div style=""font-size:60px;"">+</div>","""",2,ITI,Practice,null,1000,"""","""","""","""","""","""","""","""","""",5/1/2021 19:58,76.87.181.231,Mozilla/5.0 (Windows NT 10.0; Win64; x64; rv:88.0) Gecko/20100101 Firefox/88.0,,Firefox,88,Windows,10
219,1,3630,"""",html-keyboard-response,9,59993,0.0-9.0,"""","<img src='jspsych/CFDfaces/CFD-BF-212-315-N.jpg' height=""250px"">,</br><b>Cassandra</b>","""",3,IntactFace,Practice,70,5000,f,"""","""","""","""","""","""","""","""",5/1/2021 19:58,76.87.181.231,Mozilla/5.0 (Windows NT 10.0; Win64; x64; rv:88.0) Gecko/20100101 Firefox/88.0,,Firefox,88,Windows,10
219,1,null,"""",html-keyboard-response,10,60508,0.0-10.0,"""","<div style=""font-size:60px;"">+</div>","""",3,ITI,Practice,null,1000,"""","""","""","""","""","""","""","""","""",5/1/2021 19:58,76.87.181.231,Mozilla/5.0 (Windows NT 10.0; Win64; x64; rv:88.0) Gecko/20100101 Firefox/88.0,,Firefox,88,Windows,10
219,1,2347,"""",html-keyboard-response,11,65517,0.0-11.0,"""","<img src='jspsych/CFDfaces/CFD-LF-218-072-N.jpg' height=""250px"">,</br><b>Shannon</b>","""",4,IntactFace,Practice,78,5000,n,"""","""","""","""","""","""","""","""",5/1/2021 19:58,76.87.181.231,Mozilla/5.0 (Windows NT 10.0; Win64; x64; rv:88.0) Gecko/20100101 Firefox/88.0,,Firefox,88,Windows,10
219,1,null,"""",html-keyboard-response,12,66032,0.0-12.0,"""","<div style=""font-size:60px;"">+</div>","""",4,ITI,Practice,null,1000,"""","""","""","""","""","""","""","""","""",5/1/2021 19:58,76.87.181.231,Mozilla/5.0 (Windows NT 10.0; Win64; x64; rv:88.0) Gecko/20100101 Firefox/88.0,,Firefox,88,Windows,10
219,1,2034,"""",html-keyboard-response,13,71048,0.0-13.0,"""","<img src='jspsych/CFDfaces/CFD-LF-230-203-N.jpg' height=""250px"">,</br><b>Katelyn</b>","""",5,IntactFace,Practice,70,5000,f,"""","""","""","""","""","""","""","""",5/1/2021 19:58,76.87.181.231,Mozilla/5.0 (Windows NT 10.0; Win64; x64; rv:88.0) Gecko/20100101 Firefox/88.0,,Firefox,88,Windows,10
219,1,null,"""",html-keyboard-response,14,71557,0.0-14.0,"""","<div style=""font-size:60px;"">+</div>","""",5,ITI,Practice,null,1000,"""","""","""","""","""","""","""","""","""",5/1/2021 19:58,76.87.181.231,Mozilla/5.0 (Windows NT 10.0; Win64; x64; rv:88.0) Gecko/20100101 Firefox/88.0,,Firefox,88,Windows,10
219,1,3441,"""",html-keyboard-response,15,76561,0.0-15.0,"""","<img src='jspsych/CFDfaces/CFD-AM-207-108-N.jpg' height=""250px"">,</br><b>Carlos</b>","""",6,IntactFace,Practice,78,5000,n,"""","""","""","""","""","""","""","""",5/1/2021 19:58,76.87.181.231,Mozilla/5.0 (Windows NT 10.0; Win64; x64; rv:88.0) Gecko/20100101 Firefox/88.0,,Firefox,88,Windows,10
219,1,null,"""",html-keyboard-response,16,77067,0.0-16.0,"""","<div style=""font-size:60px;"">+</div>","""",6,ITI,Practice,null,1000,"""","""","""","""","""","""","""","""","""",5/1/2021 19:58,76.87.181.231,Mozilla/5.0 (Windows NT 10.0; Win64; x64; rv:88.0) Gecko/20100101 Firefox/88.0,,Firefox,88,Windows,10
219,1,2290,"""",html-keyboard-response,17,82074,0.0-17.0,"""","<img src='jspsych/CFDfaces/CFD-LF-206-078-N.jpg' height=""250px"">,</br><b>Tara</b>","""",7,IntactFace,Practice,70,5000,f,"""","""","""","""","""","""","""","""",5/1/2021 19:58,76.87.181.231,Mozilla/5.0 (Windows NT 10.0; Win64; x64; rv:88.0) Gecko/20100101 Firefox/88.0,,Firefox,88,Windows,10
219,1,null,"""",html-keyboard-response,18,82590,0.0-18.0,"""","<div style=""font-size:60px;"">+</div>","""",7,ITI,Practice,null,1000,"""","""","""","""","""","""","""","""","""",5/1/2021 19:58,76.87.181.231,Mozilla/5.0 (Windows NT 10.0; Win64; x64; rv:88.0) Gecko/20100101 Firefox/88.0,,Firefox,88,Windows,10
219,1,2129,"""",html-keyboard-response,19,87606,0.0-19.0,"""","<img src='jspsych/CFDfaces/CFD-BM-208-065-N.jpg' height=""250px"">,</br><b>Marcus</b>","""",8,IntactFace,Practice,70,5000,f,"""","""","""","""","""","""","""","""",5/1/2021 19:58,76.87.181.231,Mozilla/5.0 (Windows NT 10.0; Win64; x64; rv:88.0) Gecko/20100101 Firefox/88.0,,Firefox,88,Windows,10
219,1,null,"""",html-keyboard-response,20,88121,0.0-20.0,"""","<div style=""font-size:60px;"">+</div>","""",8,ITI,Practice,null,1000,"""","""","""","""","""","""","""","""","""",5/1/2021 19:58,76.87.181.231,Mozilla/5.0 (Windows NT 10.0; Win64; x64; rv:88.0) Gecko/20100101 Firefox/88.0,,Firefox,88,Windows,10
219,1,15610,"""",image-button-response,21,103740,0.0-21.0,"""",directionsForTest.JPG,0,1,directionsForTest,break,"""","""","""","""","""","""","""","""","""","""","""",5/1/2021 19:58,76.87.181.231,Mozilla/5.0 (Windows NT 10.0; Win64; x64; rv:88.0) Gecko/20100101 Firefox/88.0,,Firefox,88,Windows,10
219,1,4855,"""",image-button-response,22,108599,0.0-22.0,"""",directionsForTest2.JPG,0,1,directionsForTest2,break,"""","""","""","""","""","""","""","""","""","""","""",5/1/2021 19:58,76.87.181.231,Mozilla/5.0 (Windows NT 10.0; Win64; x64; rv:88.0) Gecko/20100101 Firefox/88.0,,Firefox,88,Windows,10
219,1,null,"""",html-keyboard-response,23,109614,0.0-23.0,"""","<div style=""font-size:60px;"">+</div>","""",1,ITI,Practice,null,1000,"""","""","""","""","""","""","""","""","""",5/1/2021 19:58,76.87.181.231,Mozilla/5.0 (Windows NT 10.0; Win64; x64; rv:88.0) Gecko/20100101 Firefox/88.0,,Firefox,88,Windows,10
219,1,null,"""",image-keyboard-response,24,109882,0.0-24.0,"""",jspsych/scrambledNeutralFaces/scrambledBM27NES.JPG,"""",1,forwardMask,Practice,null,250,"""",n,"""","""","""","""","""","""","""",5/1/2021 19:58,76.87.181.231,Mozilla/5.0 (Windows NT 10.0; Win64; x64; rv:88.0) Gecko/20100101 Firefox/88.0,,Firefox,88,Windows,10
219,1,null,"""",image-keyboard-response,25,109913,0.0-25.0,"""",jspsych/neutralFaces/BM27NES.JPG,"""",1,Cue,Practice,null,16,"""","""","""","""","""","""","""","""","""",5/1/2021 19:58,76.87.181.231,Mozilla/5.0 (Windows NT 10.0; Win64; x64; rv:88.0) Gecko/20100101 Firefox/88.0,,Firefox,88,Windows,10
219,1,null,"""",image-keyboard-response,26,110020,0.0-26.0,"""",jspsych/neutralFaces/AM34NES.JPG,"""",1,backwardMask,Practice,null,100,"""","""","""","""","""","""","""","""","""",5/1/2021 19:58,76.87.181.231,Mozilla/5.0 (Windows NT 10.0; Win64; x64; rv:88.0) Gecko/20100101 Firefox/88.0,,Firefox,88,Windows,10
219,1,null,"""",html-keyboard-response,27,111030,0.0-27.0,"""","<div style=""font-size:60px;"">+</div>","""",1,fixationBtwnNeutralMaskAndPrompt,Practice,null,1000,"""","""","""","""","""","""","""","""","""",5/1/2021 19:58,76.87.181.231,Mozilla/5.0 (Windows NT 10.0; Win64; x64; rv:88.0) Gecko/20100101 Firefox/88.0,,Firefox,88,Windows,10
219,1,3798,"""",html-button-response,28,114830,0.0-28.0,"""","<img src='jspsych/CFDfaces/CFD-AM-207-108-N.jpg'height=""250px""></br><b>Marcus</b>",1,1,IntactOrRearranged,Practice,"""","""","""","""",CFD-AM-207-108-N.jpg,Marcus,1,1,"""","""","""",5/1/2021 19:58,76.87.181.231,Mozilla/5.0 (Windows NT 10.0; Win64; x64; rv:88.0) Gecko/20100101 Firefox/88.0,,Firefox,88,Windows,10
219,1,2134,"""",html-slider-response,29,116971,0.0-29.0,"""","<img src='jspsych/CFDfaces/CFD-AM-207-108-N.jpg'height=""250px""></br><b>Marcus</b>","""",1,ConfidenceQuery,Practice,"""","""","""","""",CFD-BF-010-001-N.jpg,Sara,1,"""",0,100,"""",5/1/2021 19:58,76.87.181.231,Mozilla/5.0 (Windows NT 10.0; Win64; x64; rv:88.0) Gecko/20100101 Firefox/88.0,,Firefox,88,Windows,10
219,1,1413,"""",html-button-response,30,118386,0.0-30.0,"""",You are Correct. You Called A Rearranged Pair Rearranged,0,1,feedback,Practice,"""","""","""","""","""","""","""","""","""","""","""",5/1/2021 19:58,76.87.181.231,Mozilla/5.0 (Windows NT 10.0; Win64; x64; rv:88.0) Gecko/20100101 Firefox/88.0,,Firefox,88,Windows,10
219,1,null,"""",html-keyboard-response,31,119392,0.0-31.0,"""","<div style=""font-size:60px;"">+</div>","""",2,ITI,Practice,null,1000,"""","""","""","""","""","""","""","""","""",5/1/2021 19:58,76.87.181.231,Mozilla/5.0 (Windows NT 10.0; Win64; x64; rv:88.0) Gecko/20100101 Firefox/88.0,,Firefox,88,Windows,10
219,1,null,"""",image-keyboard-response,32,119659,0.0-32.0,"""",jspsych/scrambledDisgustFaces/scrambledAF28DIS.JPG,"""",2,forwardMask,Practice,null,250,"""",d,"""","""","""","""","""","""","""",5/1/2021 19:58,76.87.181.231,Mozilla/5.0 (Windows NT 10.0; Win64; x64; rv:88.0) Gecko/20100101 Firefox/88.0,,Firefox,88,Windows,10
219,1,null,"""",image-keyboard-response,33,119690,0.0-33.0,"""",jspsych/disgustFaces/AF28DIS.JPG,"""",2,Cue,Practice,null,16,"""","""","""","""","""","""","""","""","""",5/1/2021 19:58,76.87.181.231,Mozilla/5.0 (Windows NT 10.0; Win64; x64; rv:88.0) Gecko/20100101 Firefox/88.0,,Firefox,88,Windows,10
219,1,null,"""",image-keyboard-response,34,119802,0.0-34.0,"""",jspsych/neutralFaces/AF06NES.JPG,"""",2,backwardMask,Practice,null,100,"""","""","""","""","""","""","""","""","""",5/1/2021 19:58,76.87.181.231,Mozilla/5.0 (Windows NT 10.0; Win64; x64; rv:88.0) Gecko/20100101 Firefox/88.0,,Firefox,88,Windows,10
219,1,null,"""",html-keyboard-response,35,120804,0.0-35.0,"""","<div style=""font-size:60px;"">+</div>","""",2,fixationBtwnNeutralMaskAndPrompt,Practice,null,1000,"""","""","""","""","""","""","""","""","""",5/1/2021 19:58,76.87.181.231,Mozilla/5.0 (Windows NT 10.0; Win64; x64; rv:88.0) Gecko/20100101 Firefox/88.0,,Firefox,88,Windows,10
219,1,1321,"""",html-button-response,36,122127,0.0-36.0,"""","<img src='jspsych/CFDfaces/CFD-LF-206-078-N.jpg'height=""250px""></br><b>Tara</b>",0,2,IntactOrRearranged,Practice,"""","""","""","""",CFD-LF-206-078-N.jpg,Tara,0,0,"""","""","""",5/1/2021 19:58,76.87.181.231,Mozilla/5.0 (Windows NT 10.0; Win64; x64; rv:88.0) Gecko/20100101 Firefox/88.0,,Firefox,88,Windows,10
219,1,1612,"""",html-slider-response,37,123741,0.0-37.0,"""","<img src='jspsych/CFDfaces/CFD-LF-206-078-N.jpg'height=""250px""></br><b>Tara</b>","""",2,ConfidenceQuery,Practice,"""","""","""","""",CFD-BF-010-001-N.jpg,Sara,0,"""",0,100,"""",5/1/2021 19:58,76.87.181.231,Mozilla/5.0 (Windows NT 10.0; Win64; x64; rv:88.0) Gecko/20100101 Firefox/88.0,,Firefox,88,Windows,10
219,1,851,"""",html-button-response,38,124594,0.0-38.0,"""",You are Correct. You called an Intact Pair Intact,0,2,feedback,Practice,"""","""","""","""","""","""","""","""","""","""","""",5/1/2021 19:58,76.87.181.231,Mozilla/5.0 (Windows NT 10.0; Win64; x64; rv:88.0) Gecko/20100101 Firefox/88.0,,Firefox,88,Windows,10
219,1,null,"""",html-keyboard-response,39,125605,0.0-39.0,"""","<div style=""font-size:60px;"">+</div>","""",3,ITI,Practice,null,1000,"""","""","""","""","""","""","""","""","""",5/1/2021 19:58,76.87.181.231,Mozilla/5.0 (Windows NT 10.0; Win64; x64; rv:88.0) Gecko/20100101 Firefox/88.0,,Firefox,88,Windows,10
219,1,null,"""",image-keyboard-response,40,125872,0.0-40.0,"""",jspsych/scrambledDisgustFaces/scrambledBF20DIS.JPG,"""",3,forwardMask,Practice,null,250,"""",d,"""","""","""","""","""","""","""",5/1/2021 19:58,76.87.181.231,Mozilla/5.0 (Windows NT 10.0; Win64; x64; rv:88.0) Gecko/20100101 Firefox/88.0,,Firefox,88,Windows,10
219,1,null,"""",image-keyboard-response,41,125903,0.0-41.0,"""",jspsych/disgustFaces/BF20DIS.JPG,"""",3,Cue,Practice,null,16,"""","""","""","""","""","""","""","""","""",5/1/2021 19:58,76.87.181.231,Mozilla/5.0 (Windows NT 10.0; Win64; x64; rv:88.0) Gecko/20100101 Firefox/88.0,,Firefox,88,Windows,10
219,1,null,"""",image-keyboard-response,42,126014,0.0-42.0,"""",jspsych/neutralFaces/BF25NES.JPG,"""",3,backwardMask,Practice,null,100,"""","""","""","""","""","""","""","""","""",5/1/2021 19:58,76.87.181.231,Mozilla/5.0 (Windows NT 10.0; Win64; x64; rv:88.0) Gecko/20100101 Firefox/88.0,,Firefox,88,Windows,10
219,1,null,"""",html-keyboard-response,43,127020,0.0-43.0,"""","<div style=""font-size:60px;"">+</div>","""",3,fixationBtwnNeutralMaskAndPrompt,Practice,null,1000,"""","""","""","""","""","""","""","""","""",5/1/2021 19:58,76.87.181.231,Mozilla/5.0 (Windows NT 10.0; Win64; x64; rv:88.0) Gecko/20100101 Firefox/88.0,,Firefox,88,Windows,10
219,1,1515,"""",html-button-response,44,128537,0.0-44.0,"""","<img src='jspsych/CFDfaces/CFD-LF-218-072-N.jpg'height=""250px""></br><b>Shannon</b>",0,3,IntactOrRearranged,Practice,"""","""","""","""",CFD-LF-218-072-N.jpg,Shannon,0,0,"""","""","""",5/1/2021 19:58,76.87.181.231,Mozilla/5.0 (Windows NT 10.0; Win64; x64; rv:88.0) Gecko/20100101 Firefox/88.0,,Firefox,88,Windows,10
219,1,1709,"""",html-slider-response,45,130251,0.0-45.0,"""","<img src='jspsych/CFDfaces/CFD-LF-218-072-N.jpg'height=""250px""></br><b>Shannon</b>","""",3,ConfidenceQuery,Practice,"""","""","""","""",CFD-BF-010-001-N.jpg,Sara,0,"""",0,100,"""",5/1/2021 19:58,76.87.181.231,Mozilla/5.0 (Windows NT 10.0; Win64; x64; rv:88.0) Gecko/20100101 Firefox/88.0,,Firefox,88,Windows,10
219,1,1541,"""",html-button-response,46,131793,0.0-46.0,"""",You are Correct. You called an Intact Pair Intact,0,3,feedback,Practice,"""","""","""","""","""","""","""","""","""","""","""",5/1/2021 19:58,76.87.181.231,Mozilla/5.0 (Windows NT 10.0; Win64; x64; rv:88.0) Gecko/20100101 Firefox/88.0,,Firefox,88,Windows,10
219,1,null,"""",html-keyboard-response,47,132802,0.0-47.0,"""","<div style=""font-size:60px;"">+</div>","""",4,ITI,Practice,null,1000,"""","""","""","""","""","""","""","""","""",5/1/2021 19:58,76.87.181.231,Mozilla/5.0 (Windows NT 10.0; Win64; x64; rv:88.0) Gecko/20100101 Firefox/88.0,,Firefox,88,Windows,10
219,1,null,"""",image-keyboard-response,48,133055,0.0-48.0,"""",jspsych/scrambledNeutralFaces/scrambledAF14NES.JPG,"""",4,forwardMask,Practice,null,250,"""",n,"""","""","""","""","""","""","""",5/1/2021 19:58,76.87.181.231,Mozilla/5.0 (Windows NT 10.0; Win64; x64; rv:88.0) Gecko/20100101 Firefox/88.0,,Firefox,88,Windows,10
219,1,null,"""",image-keyboard-response,49,133087,0.0-49.0,"""",jspsych/neutralFaces/AF14NES.JPG,"""",4,Cue,Practice,null,16,"""","""","""","""","""","""","""","""","""",5/1/2021 19:58,76.87.181.231,Mozilla/5.0 (Windows NT 10.0; Win64; x64; rv:88.0) Gecko/20100101 Firefox/88.0,,Firefox,88,Windows,10
219,1,null,"""",image-keyboard-response,50,133196,0.0-50.0,"""",jspsych/neutralFaces/BF07NES.JPG,"""",4,backwardMask,Practice,null,100,"""","""","""","""","""","""","""","""","""",5/1/2021 19:58,76.87.181.231,Mozilla/5.0 (Windows NT 10.0; Win64; x64; rv:88.0) Gecko/20100101 Firefox/88.0,,Firefox,88,Windows,10
219,1,null,"""",html-keyboard-response,51,134202,0.0-51.0,"""","<div style=""font-size:60px;"">+</div>","""",4,fixationBtwnNeutralMaskAndPrompt,Practice,null,1000,"""","""","""","""","""","""","""","""","""",5/1/2021 19:58,76.87.181.231,Mozilla/5.0 (Windows NT 10.0; Win64; x64; rv:88.0) Gecko/20100101 Firefox/88.0,,Firefox,88,Windows,10
219,1,2783,"""",html-button-response,52,136987,0.0-52.0,"""","<img src='jspsych/CFDfaces/CFD-LM-221-216-N.jpg'height=""250px""></br><b>Samuel</b>",0,4,IntactOrRearranged,Practice,"""","""","""","""",CFD-LM-221-216-N.jpg,Samuel,0,0,"""","""","""",5/1/2021 19:58,76.87.181.231,Mozilla/5.0 (Windows NT 10.0; Win64; x64; rv:88.0) Gecko/20100101 Firefox/88.0,,Firefox,88,Windows,10
219,1,1438,"""",html-slider-response,53,138428,0.0-53.0,"""","<img src='jspsych/CFDfaces/CFD-LM-221-216-N.jpg'height=""250px""></br><b>Samuel</b>","""",4,ConfidenceQuery,Practice,"""","""","""","""",CFD-BF-010-001-N.jpg,Sara,0,"""",0,58,"""",5/1/2021 19:58,76.87.181.231,Mozilla/5.0 (Windows NT 10.0; Win64; x64; rv:88.0) Gecko/20100101 Firefox/88.0,,Firefox,88,Windows,10
219,1,872,"""",html-button-response,54,139302,0.0-54.0,"""",You are Correct. You called an Intact Pair Intact,0,4,feedback,Practice,"""","""","""","""","""","""","""","""","""","""","""",5/1/2021 19:58,76.87.181.231,Mozilla/5.0 (Windows NT 10.0; Win64; x64; rv:88.0) Gecko/20100101 Firefox/88.0,,Firefox,88,Windows,10
219,1,null,"""",html-keyboard-response,55,140313,0.0-55.0,"""","<div style=""font-size:60px;"">+</div>","""",5,ITI,Practice,null,1000,"""","""","""","""","""","""","""","""","""",5/1/2021 19:58,76.87.181.231,Mozilla/5.0 (Windows NT 10.0; Win64; x64; rv:88.0) Gecko/20100101 Firefox/88.0,,Firefox,88,Windows,10
219,1,null,"""",image-keyboard-response,56,140576,0.0-56.0,"""",jspsych/scrambledNeutralFaces/scrambledAM29NES.JPG,"""",5,forwardMask,Practice,null,250,"""",n,"""","""","""","""","""","""","""",5/1/2021 19:58,76.87.181.231,Mozilla/5.0 (Windows NT 10.0; Win64; x64; rv:88.0) Gecko/20100101 Firefox/88.0,,Firefox,88,Windows,10
219,1,null,"""",image-keyboard-response,57,140606,0.0-57.0,"""",jspsych/neutralFaces/AM29NES.JPG,"""",5,Cue,Practice,null,16,"""","""","""","""","""","""","""","""","""",5/1/2021 19:58,76.87.181.231,Mozilla/5.0 (Windows NT 10.0; Win64; x64; rv:88.0) Gecko/20100101 Firefox/88.0,,Firefox,88,Windows,10
219,1,null,"""",image-keyboard-response,58,140718,0.0-58.0,"""",jspsych/neutralFaces/AM13NES.JPG,"""",5,backwardMask,Practice,null,100,"""","""","""","""","""","""","""","""","""",5/1/2021 19:58,76.87.181.231,Mozilla/5.0 (Windows NT 10.0; Win64; x64; rv:88.0) Gecko/20100101 Firefox/88.0,,Firefox,88,Windows,10
219,1,null,"""",html-keyboard-response,59,141726,0.0-59.0,"""","<div style=""font-size:60px;"">+</div>","""",5,fixationBtwnNeutralMaskAndPrompt,Practice,null,1000,"""","""","""","""","""","""","""","""","""",5/1/2021 19:58,76.87.181.231,Mozilla/5.0 (Windows NT 10.0; Win64; x64; rv:88.0) Gecko/20100101 Firefox/88.0,,Firefox,88,Windows,10
219,1,1416,"""",html-button-response,60,143142,0.0-60.0,"""","<img src='jspsych/CFDfaces/CFD-BM-208-065-N.jpg'height=""250px""></br><b>Carlos</b>",1,5,IntactOrRearranged,Practice,"""","""","""","""",CFD-BM-208-065-N.jpg,Carlos,1,1,"""","""","""",5/1/2021 19:58,76.87.181.231,Mozilla/5.0 (Windows NT 10.0; Win64; x64; rv:88.0) Gecko/20100101 Firefox/88.0,,Firefox,88,Windows,10
219,1,1518,"""",html-slider-response,61,144663,0.0-61.0,"""","<img src='jspsych/CFDfaces/CFD-BM-208-065-N.jpg'height=""250px""></br><b>Carlos</b>","""",5,ConfidenceQuery,Practice,"""","""","""","""",CFD-BF-010-001-N.jpg,Sara,1,"""",0,100,"""",5/1/2021 19:58,76.87.181.231,Mozilla/5.0 (Windows NT 10.0; Win64; x64; rv:88.0) Gecko/20100101 Firefox/88.0,,Firefox,88,Windows,10
219,1,827,"""",html-button-response,62,145490,0.0-62.0,"""",You are Correct. You Called A Rearranged Pair Rearranged,0,5,feedback,Practice,"""","""","""","""","""","""","""","""","""","""","""",5/1/2021 19:58,76.87.181.231,Mozilla/5.0 (Windows NT 10.0; Win64; x64; rv:88.0) Gecko/20100101 Firefox/88.0,,Firefox,88,Windows,10
219,1,null,"""",html-keyboard-response,63,146501,0.0-63.0,"""","<div style=""font-size:60px;"">+</div>","""",6,ITI,Practice,null,1000,"""","""","""","""","""","""","""","""","""",5/1/2021 19:58,76.87.181.231,Mozilla/5.0 (Windows NT 10.0; Win64; x64; rv:88.0) Gecko/20100101 Firefox/88.0,,Firefox,88,Windows,10
219,1,null,"""",image-keyboard-response,64,146754,0.0-64.0,"""",jspsych/scrambledDisgustFaces/scrambledBM28DIS.JPG,"""",6,forwardMask,Practice,null,250,"""",d,"""","""","""","""","""","""","""",5/1/2021 19:58,76.87.181.231,Mozilla/5.0 (Windows NT 10.0; Win64; x64; rv:88.0) Gecko/20100101 Firefox/88.0,,Firefox,88,Windows,10
219,1,null,"""",image-keyboard-response,65,146775,0.0-65.0,"""",jspsych/disgustFaces/BM29DIS.JPG,"""",6,Cue,Practice,null,16,"""","""","""","""","""","""","""","""","""",5/1/2021 19:58,76.87.181.231,Mozilla/5.0 (Windows NT 10.0; Win64; x64; rv:88.0) Gecko/20100101 Firefox/88.0,,Firefox,88,Windows,10
219,1,null,"""",image-keyboard-response,66,146889,0.0-66.0,"""",jspsych/neutralFaces/BM02NES.JPG,"""",6,backwardMask,Practice,null,100,"""","""","""","""","""","""","""","""","""",5/1/2021 19:58,76.87.181.231,Mozilla/5.0 (Windows NT 10.0; Win64; x64; rv:88.0) Gecko/20100101 Firefox/88.0,,Firefox,88,Windows,10
219,1,null,"""",html-keyboard-response,67,147901,0.0-67.0,"""","<div style=""font-size:60px;"">+</div>","""",6,fixationBtwnNeutralMaskAndPrompt,Practice,null,1000,"""","""","""","""","""","""","""","""","""",5/1/2021 19:58,76.87.181.231,Mozilla/5.0 (Windows NT 10.0; Win64; x64; rv:88.0) Gecko/20100101 Firefox/88.0,,Firefox,88,Windows,10
219,1,3230,"""",html-button-response,68,151131,0.0-68.0,"""","<img src='jspsych/CFDfaces/CFD-LM-201-057-N.jpg'height=""250px""></br><b>Patrick</b>",0,6,IntactOrRearranged,Practice,"""","""","""","""",CFD-LM-201-057-N.jpg,Patrick,0,0,"""","""","""",5/1/2021 19:58,76.87.181.231,Mozilla/5.0 (Windows NT 10.0; Win64; x64; rv:88.0) Gecko/20100101 Firefox/88.0,,Firefox,88,Windows,10
219,1,1390,"""",html-slider-response,69,152526,0.0-69.0,"""","<img src='jspsych/CFDfaces/CFD-LM-201-057-N.jpg'height=""250px""></br><b>Patrick</b>","""",6,ConfidenceQuery,Practice,"""","""","""","""",CFD-BF-010-001-N.jpg,Sara,0,"""",0,57,"""",5/1/2021 19:58,76.87.181.231,Mozilla/5.0 (Windows NT 10.0; Win64; x64; rv:88.0) Gecko/20100101 Firefox/88.0,,Firefox,88,Windows,10
219,1,934,"""",html-button-response,70,153462,0.0-70.0,"""",You are Correct. You called an Intact Pair Intact,0,6,feedback,Practice,"""","""","""","""","""","""","""","""","""","""","""",5/1/2021 19:58,76.87.181.231,Mozilla/5.0 (Windows NT 10.0; Win64; x64; rv:88.0) Gecko/20100101 Firefox/88.0,,Firefox,88,Windows,10
219,1,null,"""",html-keyboard-response,71,154463,0.0-71.0,"""","<div style=""font-size:60px;"">+</div>","""",7,ITI,Practice,null,1000,"""","""","""","""","""","""","""","""","""",5/1/2021 19:58,76.87.181.231,Mozilla/5.0 (Windows NT 10.0; Win64; x64; rv:88.0) Gecko/20100101 Firefox/88.0,,Firefox,88,Windows,10
219,1,null,"""",image-keyboard-response,72,154722,0.0-72.0,"""",jspsych/scrambledNeutralFaces/scrambledBM35NES.JPG,"""",7,forwardMask,Practice,null,250,"""",n,"""","""","""","""","""","""","""",5/1/2021 19:58,76.87.181.231,Mozilla/5.0 (Windows NT 10.0; Win64; x64; rv:88.0) Gecko/20100101 Firefox/88.0,,Firefox,88,Windows,10
219,1,null,"""",image-keyboard-response,73,154753,0.0-73.0,"""",jspsych/neutralFaces/BM35NES.JPG,"""",7,Cue,Practice,null,16,"""","""","""","""","""","""","""","""","""",5/1/2021 19:58,76.87.181.231,Mozilla/5.0 (Windows NT 10.0; Win64; x64; rv:88.0) Gecko/20100101 Firefox/88.0,,Firefox,88,Windows,10
219,1,null,"""",image-keyboard-response,74,154862,0.0-74.0,"""",jspsych/neutralFaces/BM04NES.JPG,"""",7,backwardMask,Practice,null,100,"""","""","""","""","""","""","""","""","""",5/1/2021 19:58,76.87.181.231,Mozilla/5.0 (Windows NT 10.0; Win64; x64; rv:88.0) Gecko/20100101 Firefox/88.0,,Firefox,88,Windows,10
219,1,null,"""",html-keyboard-response,75,155863,0.0-75.0,"""","<div style=""font-size:60px;"">+</div>","""",7,fixationBtwnNeutralMaskAndPrompt,Practice,null,1000,"""","""","""","""","""","""","""","""","""",5/1/2021 19:58,76.87.181.231,Mozilla/5.0 (Windows NT 10.0; Win64; x64; rv:88.0) Gecko/20100101 Firefox/88.0,,Firefox,88,Windows,10
219,1,2252,"""",html-button-response,76,158114,0.0-76.0,"""","<img src='jspsych/CFDfaces/CFD-BF-212-315-N.jpg'height=""250px""></br><b>Katelyn</b>",1,7,IntactOrRearranged,Practice,"""","""","""","""",CFD-BF-212-315-N.jpg,Katelyn,1,1,"""","""","""",5/1/2021 19:58,76.87.181.231,Mozilla/5.0 (Windows NT 10.0; Win64; x64; rv:88.0) Gecko/20100101 Firefox/88.0,,Firefox,88,Windows,10
219,1,1442,"""",html-slider-response,77,159561,0.0-77.0,"""","<img src='jspsych/CFDfaces/CFD-BF-212-315-N.jpg'height=""250px""></br><b>Katelyn</b>","""",7,ConfidenceQuery,Practice,"""","""","""","""",CFD-BF-010-001-N.jpg,Sara,1,"""",0,100,"""",5/1/2021 19:58,76.87.181.231,Mozilla/5.0 (Windows NT 10.0; Win64; x64; rv:88.0) Gecko/20100101 Firefox/88.0,,Firefox,88,Windows,10
219,1,653,"""",html-button-response,78,160215,0.0-78.0,"""",You are Correct. You Called A Rearranged Pair Rearranged,0,7,feedback,Practice,"""","""","""","""","""","""","""","""","""","""","""",5/1/2021 19:58,76.87.181.231,Mozilla/5.0 (Windows NT 10.0; Win64; x64; rv:88.0) Gecko/20100101 Firefox/88.0,,Firefox,88,Windows,10
219,1,null,"""",html-keyboard-response,79,161216,0.0-79.0,"""","<div style=""font-size:60px;"">+</div>","""",8,ITI,Practice,null,1000,"""","""","""","""","""","""","""","""","""",5/1/2021 19:58,76.87.181.231,Mozilla/5.0 (Windows NT 10.0; Win64; x64; rv:88.0) Gecko/20100101 Firefox/88.0,,Firefox,88,Windows,10
219,1,null,"""",image-keyboard-response,80,161482,0.0-80.0,"""",jspsych/scrambledDisgustFaces/scrambledAF11DIS.JPG,"""",8,forwardMask,Practice,null,250,"""",d,"""","""","""","""","""","""","""",5/1/2021 19:58,76.87.181.231,Mozilla/5.0 (Windows NT 10.0; Win64; x64; rv:88.0) Gecko/20100101 Firefox/88.0,,Firefox,88,Windows,10
219,1,null,"""",image-keyboard-response,81,161515,0.0-81.0,"""",jspsych/disgustFaces/AF11DIS.JPG,"""",8,Cue,Practice,null,16,"""","""","""","""","""","""","""","""","""",5/1/2021 19:58,76.87.181.231,Mozilla/5.0 (Windows NT 10.0; Win64; x64; rv:88.0) Gecko/20100101 Firefox/88.0,,Firefox,88,Windows,10
219,1,null,"""",image-keyboard-response,82,161624,0.0-82.0,"""",jspsych/neutralFaces/AF34NES.JPG,"""",8,backwardMask,Practice,null,100,"""","""","""","""","""","""","""","""","""",5/1/2021 19:58,76.87.181.231,Mozilla/5.0 (Windows NT 10.0; Win64; x64; rv:88.0) Gecko/20100101 Firefox/88.0,,Firefox,88,Windows,10
219,1,null,"""",html-keyboard-response,83,162631,0.0-83.0,"""","<div style=""font-size:60px;"">+</div>","""",8,fixationBtwnNeutralMaskAndPrompt,Practice,null,1000,"""","""","""","""","""","""","""","""","""",5/1/2021 19:58,76.87.181.231,Mozilla/5.0 (Windows NT 10.0; Win64; x64; rv:88.0) Gecko/20100101 Firefox/88.0,,Firefox,88,Windows,10
219,1,1657,"""",html-button-response,84,164289,0.0-84.0,"""","<img src='jspsych/CFDfaces/CFD-LF-230-203-N.jpg'height=""250px""></br><b>Cassandra</b>",1,8,IntactOrRearranged,Practice,"""","""","""","""",CFD-LF-230-203-N.jpg,Cassandra,1,1,"""","""","""",5/1/2021 19:58,76.87.181.231,Mozilla/5.0 (Windows NT 10.0; Win64; x64; rv:88.0) Gecko/20100101 Firefox/88.0,,Firefox,88,Windows,10
219,1,1394,"""",html-slider-response,85,165687,0.0-85.0,"""","<img src='jspsych/CFDfaces/CFD-LF-230-203-N.jpg'height=""250px""></br><b>Cassandra</b>","""",8,ConfidenceQuery,Practice,"""","""","""","""",CFD-BF-010-001-N.jpg,Sara,1,"""",0,100,"""",5/1/2021 19:58,76.87.181.231,Mozilla/5.0 (Windows NT 10.0; Win64; x64; rv:88.0) Gecko/20100101 Firefox/88.0,,Firefox,88,Windows,10
219,1,897,"""",html-button-response,86,166584,0.0-86.0,"""",You are Correct. You Called A Rearranged Pair Rearranged,0,8,feedback,Practice,"""","""","""","""","""","""","""","""","""","""","""",5/1/2021 19:58,76.87.181.231,Mozilla/5.0 (Windows NT 10.0; Win64; x64; rv:88.0) Gecko/20100101 Firefox/88.0,,Firefox,88,Windows,10
219,1,3899,"""",image-button-response,87,170490,0.0-87.0,"""",directionsMemoryAssociation3.JPG,0,128,DirectionsBeforeActualTEst,Break,"""","""","""","""","""","""","""","""","""","""","""",5/1/2021 19:58,76.87.181.231,Mozilla/5.0 (Windows NT 10.0; Win64; x64; rv:88.0) Gecko/20100101 Firefox/88.0,,Firefox,88,Windows,10
219,1,1992,"""",image-button-response,88,172485,0.0-88.0,"""",directionsForTest2.JPG,0,1,directionsForTest2,break,"""","""","""","""","""","""","""","""","""","""","""",5/1/2021 19:58,76.87.181.231,Mozilla/5.0 (Windows NT 10.0; Win64; x64; rv:88.0) Gecko/20100101 Firefox/88.0,,Firefox,88,Windows,10
219,1,26492,"""",html-button-response,89,198978,0.0-89.0,"""","<p>You will be asked to memorize and then recall four sets of face-name pairs. </p> <p> Each set will have 32 pairs. </p> <p>After the fourth set, there will be a brief follow-up experiment (<40 min alltogether)</p>",0,"""","""","""","""","""","""","""","""","""","""","""","""","""","""",5/1/2021 19:58,76.87.181.231,Mozilla/5.0 (Windows NT 10.0; Win64; x64; rv:88.0) Gecko/20100101 Firefox/88.0,,Firefox,88,Windows,10
219,1,3189,"""",html-keyboard-response,90,203988,0.0-90.0,"""","<img src='jspsych/CFDfaces/CFD-BM-039-029-N.jpg' height=""250px""></br><b>Brian</b>","""",256,IntactFace,Memorization,78,5000,n,"""",CFD-WF-215-145-N.jpg,Lindsey,0,"""","""","""",1,5/1/2021 19:58,76.87.181.231,Mozilla/5.0 (Windows NT 10.0; Win64; x64; rv:88.0) Gecko/20100101 Firefox/88.0,,Firefox,88,Windows,10
219,1,null,"""",html-keyboard-response,91,204492,0.0-91.0,"""","<div style=""font-size:60px;"">+</div>","""",256,fixation,Memorization,null,500,"""","""","""","""","""","""","""","""",1,5/1/2021 19:58,76.87.181.231,Mozilla/5.0 (Windows NT 10.0; Win64; x64; rv:88.0) Gecko/20100101 Firefox/88.0,,Firefox,88,Windows,10
219,1,1379,"""",html-keyboard-response,92,209499,0.0-92.0,"""","<img src='jspsych/CFDfaces/CFD-WF-024-003-N.jpg' height=""250px""></br><b>Kimberly</b>","""",256,IntactFace,Memorization,70,5000,f,"""",CFD-LM-233-171-N.jpg,Sean,0,"""","""","""",1,5/1/2021 19:58,76.87.181.231,Mozilla/5.0 (Windows NT 10.0; Win64; x64; rv:88.0) Gecko/20100101 Firefox/88.0,,Firefox,88,Windows,10
219,1,null,"""",html-keyboard-response,93,210014,0.0-93.0,"""","<div style=""font-size:60px;"">+</div>","""",256,fixation,Memorization,null,500,"""","""","""","""","""","""","""","""",1,5/1/2021 19:58,76.87.181.231,Mozilla/5.0 (Windows NT 10.0; Win64; x64; rv:88.0) Gecko/20100101 Firefox/88.0,,Firefox,88,Windows,10
219,1,2247,"""",html-keyboard-response,94,215019,0.0-94.0,"""","<img src='jspsych/CFDfaces/CFD-BM-001-014-N.jpg' height=""250px""></br><b>Eric</b>","""",256,IntactFace,Memorization,70,5000,f,"""",CFD-LM-223-175-N.jpg,Jesse,0,"""","""","""",1,5/1/2021 19:58,76.87.181.231,Mozilla/5.0 (Windows NT 10.0; Win64; x64; rv:88.0) Gecko/20100101 Firefox/88.0,,Firefox,88,Windows,10
219,1,null,"""",html-keyboard-response,95,215523,0.0-95.0,"""","<div style=""font-size:60px;"">+</div>","""",256,fixation,Memorization,null,500,"""","""","""","""","""","""","""","""",1,5/1/2021 19:58,76.87.181.231,Mozilla/5.0 (Windows NT 10.0; Win64; x64; rv:88.0) Gecko/20100101 Firefox/88.0,,Firefox,88,Windows,10
219,1,2061,"""",html-keyboard-response,96,220526,0.0-96.0,"""","<img src='jspsych/CFDfaces/CFD-WM-213-076-N.jpg' height=""250px""></br><b>Brandon</b>","""",256,IntactFace,Memorization,70,5000,f,"""",CFD-AM-229-224-N.jpg,Ryan,0,"""","""","""",1,5/1/2021 19:58,76.87.181.231,Mozilla/5.0 (Windows NT 10.0; Win64; x64; rv:88.0) Gecko/20100101 Firefox/88.0,,Firefox,88,Windows,10
219,1,null,"""",html-keyboard-response,97,221030,0.0-97.0,"""","<div style=""font-size:60px;"">+</div>","""",256,fixation,Memorization,null,500,"""","""","""","""","""","""","""","""",1,5/1/2021 19:58,76.87.181.231,Mozilla/5.0 (Windows NT 10.0; Win64; x64; rv:88.0) Gecko/20100101 Firefox/88.0,,Firefox,88,Windows,10
219,1,2200,"""",html-keyboard-response,98,226044,0.0-98.0,"""","<img src='jspsych/CFDfaces/CFD-WF-006-002-N.jpg' height=""250px""></br><b>Meghan</b>","""",256,IntactFace,Memorization,70,5000,f,"""",CFD-BM-210-148-N.jpg,Jeremy,0,"""","""","""",1,5/1/2021 19:58,76.87.181.231,Mozilla/5.0 (Windows NT 10.0; Win64; x64; rv:88.0) Gecko/20100101 Firefox/88.0,,Firefox,88,Windows,10
219,1,null,"""",html-keyboard-response,99,226560,0.0-99.0,"""","<div style=""font-size:60px;"">+</div>","""",256,fixation,Memorization,null,500,"""","""","""","""","""","""","""","""",1,5/1/2021 19:58,76.87.181.231,Mozilla/5.0 (Windows NT 10.0; Win64; x64; rv:88.0) Gecko/20100101 Firefox/88.0,,Firefox,88,Windows,10
219,1,1694,"""",html-keyboard-response,100,231561,0.0-100.0,"""","<img src='jspsych/CFDfaces/CFD-BF-221-223-N.jpg' height=""250px""></br><b>Stephanie</b>","""",256,IntactFace,Memorization,70,5000,f,"""",CFD-BM-207-024-N.jpg,Mark,0,"""","""","""",1,5/1/2021 19:58,76.87.181.231,Mozilla/5.0 (Windows NT 10.0; Win64; x64; rv:88.0) Gecko/20100101 Firefox/88.0,,Firefox,88,Windows,10
219,1,null,"""",html-keyboard-response,101,232065,0.0-101.0,"""","<div style=""font-size:60px;"">+</div>","""",256,fixation,Memorization,null,500,"""","""","""","""","""","""","""","""",1,5/1/2021 19:58,76.87.181.231,Mozilla/5.0 (Windows NT 10.0; Win64; x64; rv:88.0) Gecko/20100101 Firefox/88.0,,Firefox,88,Windows,10
219,1,2109,"""",html-keyboard-response,102,237070,0.0-102.0,"""","<img src='jspsych/CFDfaces/CFD-LM-225-130-N.jpg' height=""250px""></br><b>Ian</b>","""",256,IntactFace,Memorization,70,5000,f,"""",CFD-AF-241-141-N.jpg,Whitney,0,"""","""","""",1,5/1/2021 19:58,76.87.181.231,Mozilla/5.0 (Windows NT 10.0; Win64; x64; rv:88.0) Gecko/20100101 Firefox/88.0,,Firefox,88,Windows,10
219,1,null,"""",html-keyboard-response,103,237573,0.0-103.0,"""","<div style=""font-size:60px;"">+</div>","""",256,fixation,Memorization,null,500,"""","""","""","""","""","""","""","""",1,5/1/2021 19:58,76.87.181.231,Mozilla/5.0 (Windows NT 10.0; Win64; x64; rv:88.0) Gecko/20100101 Firefox/88.0,,Firefox,88,Windows,10
219,1,1698,"""",html-keyboard-response,104,242577,0.0-104.0,"""","<img src='jspsych/CFDfaces/CFD-WF-220-101-N.jpg' height=""250px""></br><b>Vanessa</b>","""",256,IntactFace,Memorization,70,5000,f,"""",CFD-WM-215-041-N.jpg,Justin,0,"""","""","""",1,5/1/2021 19:58,76.87.181.231,Mozilla/5.0 (Windows NT 10.0; Win64; x64; rv:88.0) Gecko/20100101 Firefox/88.0,,Firefox,88,Windows,10
219,1,null,"""",html-keyboard-response,105,243083,0.0-105.0,"""","<div style=""font-size:60px;"">+</div>","""",256,fixation,Memorization,null,500,"""","""","""","""","""","""","""","""",1,5/1/2021 19:58,76.87.181.231,Mozilla/5.0 (Windows NT 10.0; Win64; x64; rv:88.0) Gecko/20100101 Firefox/88.0,,Firefox,88,Windows,10
219,1,2436,"""",html-keyboard-response,106,248087,0.0-106.0,"""","<img src='jspsych/CFDfaces/CFD-BF-005-001-N.jpg' height=""250px""></br><b>Christina</b>","""",256,IntactFace,Memorization,70,5000,f,"""",CFD-AF-214-139-N.jpg,Jasmine,0,"""","""","""",1,5/1/2021 19:58,76.87.181.231,Mozilla/5.0 (Windows NT 10.0; Win64; x64; rv:88.0) Gecko/20100101 Firefox/88.0,,Firefox,88,Windows,10
219,1,null,"""",html-keyboard-response,107,248592,0.0-107.0,"""","<div style=""font-size:60px;"">+</div>","""",256,fixation,Memorization,null,500,"""","""","""","""","""","""","""","""",1,5/1/2021 19:58,76.87.181.231,Mozilla/5.0 (Windows NT 10.0; Win64; x64; rv:88.0) Gecko/20100101 Firefox/88.0,,Firefox,88,Windows,10
219,1,2079,"""",html-keyboard-response,108,253594,0.0-108.0,"""","<img src='jspsych/CFDfaces/CFD-BF-218-207-N.jpg' height=""250px""></br><b>Elizabeth</b>","""",256,IntactFace,Memorization,78,5000,n,"""",CFD-WM-222-057-N.jpg,Jacob,0,"""","""","""",1,5/1/2021 19:58,76.87.181.231,Mozilla/5.0 (Windows NT 10.0; Win64; x64; rv:88.0) Gecko/20100101 Firefox/88.0,,Firefox,88,Windows,10
219,1,null,"""",html-keyboard-response,109,254097,0.0-109.0,"""","<div style=""font-size:60px;"">+</div>","""",256,fixation,Memorization,null,500,"""","""","""","""","""","""","""","""",1,5/1/2021 19:58,76.87.181.231,Mozilla/5.0 (Windows NT 10.0; Win64; x64; rv:88.0) Gecko/20100101 Firefox/88.0,,Firefox,88,Windows,10
219,1,1786,"""",html-keyboard-response,110,259098,0.0-110.0,"""","<img src='jspsych/CFDfaces/CFD-LF-213-079-N.jpg' height=""250px""></br><b>Amanda</b>","""",256,IntactFace,Memorization,70,5000,f,"""",CFD-BM-029-024-N.jpg,Austin,0,"""","""","""",1,5/1/2021 19:58,76.87.181.231,Mozilla/5.0 (Windows NT 10.0; Win64; x64; rv:88.0) Gecko/20100101 Firefox/88.0,,Firefox,88,Windows,10
219,1,null,"""",html-keyboard-response,111,259614,0.0-111.0,"""","<div style=""font-size:60px;"">+</div>","""",256,fixation,Memorization,null,500,"""","""","""","""","""","""","""","""",1,5/1/2021 19:58,76.87.181.231,Mozilla/5.0 (Windows NT 10.0; Win64; x64; rv:88.0) Gecko/20100101 Firefox/88.0,,Firefox,88,Windows,10
219,1,2776,"""",html-keyboard-response,112,264621,0.0-112.0,"""","<img src='jspsych/CFDfaces/CFD-WM-207-048-N.jpg' height=""250px""></br><b>Robert</b>","""",256,IntactFace,Memorization,78,5000,n,"""",CFD-BF-047-003-N.jpg,Heather,0,"""","""","""",1,5/1/2021 19:58,76.87.181.231,Mozilla/5.0 (Windows NT 10.0; Win64; x64; rv:88.0) Gecko/20100101 Firefox/88.0,,Firefox,88,Windows,10
219,1,null,"""",html-keyboard-response,113,265125,0.0-113.0,"""","<div style=""font-size:60px;"">+</div>","""",256,fixation,Memorization,null,500,"""","""","""","""","""","""","""","""",1,5/1/2021 19:58,76.87.181.231,Mozilla/5.0 (Windows NT 10.0; Win64; x64; rv:88.0) Gecko/20100101 Firefox/88.0,,Firefox,88,Windows,10
219,1,2961,"""",html-keyboard-response,114,270138,0.0-114.0,"""","<img src='jspsych/CFDfaces/CFD-BF-019-001-N.jpg' height=""250px""></br><b>Samantha</b>","""",256,IntactFace,Memorization,78,5000,n,"""",CFD-LF-204-133-N.jpg,Erin,0,"""","""","""",1,5/1/2021 19:58,76.87.181.231,Mozilla/5.0 (Windows NT 10.0; Win64; x64; rv:88.0) Gecko/20100101 Firefox/88.0,,Firefox,88,Windows,10
219,1,null,"""",html-keyboard-response,115,270650,0.0-115.0,"""","<div style=""font-size:60px;"">+</div>","""",256,fixation,Memorization,null,500,"""","""","""","""","""","""","""","""",1,5/1/2021 19:58,76.87.181.231,Mozilla/5.0 (Windows NT 10.0; Win64; x64; rv:88.0) Gecko/20100101 Firefox/88.0,,Firefox,88,Windows,10
219,1,2778,"""",html-keyboard-response,116,275659,0.0-116.0,"""","<img src='jspsych/CFDfaces/CFD-WM-022-001-N.jpg' height=""250px""></br><b>Gregory</b>","""",256,IntactFace,Memorization,78,5000,n,"""",CFD-BM-010-003-N.jpg,Vincent,0,"""","""","""",1,5/1/2021 19:58,76.87.181.231,Mozilla/5.0 (Windows NT 10.0; Win64; x64; rv:88.0) Gecko/20100101 Firefox/88.0,,Firefox,88,Windows,10
219,1,null,"""",html-keyboard-response,117,276161,0.0-117.0,"""","<div style=""font-size:60px;"">+</div>","""",256,fixation,Memorization,null,500,"""","""","""","""","""","""","""","""",1,5/1/2021 19:58,76.87.181.231,Mozilla/5.0 (Windows NT 10.0; Win64; x64; rv:88.0) Gecko/20100101 Firefox/88.0,,Firefox,88,Windows,10
219,1,2995,"""",html-keyboard-response,118,281165,0.0-118.0,"""","<img src='jspsych/CFDfaces/CFD-LF-220-120-N.jpg' height=""250px""></br><b>Victoria</b>","""",256,IntactFace,Memorization,78,5000,n,"""",CFD-LF-208-127-N.jpg,Jordan,0,"""","""","""",1,5/1/2021 19:58,76.87.181.231,Mozilla/5.0 (Windows NT 10.0; Win64; x64; rv:88.0) Gecko/20100101 Firefox/88.0,,Firefox,88,Windows,10
219,1,null,"""",html-keyboard-response,119,281669,0.0-119.0,"""","<div style=""font-size:60px;"">+</div>","""",256,fixation,Memorization,null,500,"""","""","""","""","""","""","""","""",1,5/1/2021 19:58,76.87.181.231,Mozilla/5.0 (Windows NT 10.0; Win64; x64; rv:88.0) Gecko/20100101 Firefox/88.0,,Firefox,88,Windows,10
219,1,3300,"""",html-keyboard-response,120,286678,0.0-120.0,"""","<img src='jspsych/CFDfaces/CFD-BF-009-002-N.jpg' height=""250px""></br><b>Ashley</b>","""",256,IntactFace,Memorization,70,5000,f,"""",CFD-BF-209-172-N.jpg,Taylor,0,"""","""","""",1,5/1/2021 19:58,76.87.181.231,Mozilla/5.0 (Windows NT 10.0; Win64; x64; rv:88.0) Gecko/20100101 Firefox/88.0,,Firefox,88,Windows,10
219,1,null,"""",html-keyboard-response,121,287181,0.0-121.0,"""","<div style=""font-size:60px;"">+</div>","""",256,fixation,Memorization,null,500,"""","""","""","""","""","""","""","""",1,5/1/2021 19:58,76.87.181.231,Mozilla/5.0 (Windows NT 10.0; Win64; x64; rv:88.0) Gecko/20100101 Firefox/88.0,,Firefox,88,Windows,10
219,1,2047,"""",html-keyboard-response,122,292195,0.0-122.0,"""","<img src='jspsych/CFDfaces/CFD-AM-238-269-N.jpg' height=""250px""></br><b>Peter</b>","""",256,IntactFace,Memorization,78,5000,n,"""",CFD-AF-208-003-N.jpg,Rebecca,0,"""","""","""",1,5/1/2021 19:58,76.87.181.231,Mozilla/5.0 (Windows NT 10.0; Win64; x64; rv:88.0) Gecko/20100101 Firefox/88.0,,Firefox,88,Windows,10
219,1,null,"""",html-keyboard-response,123,292710,0.0-123.0,"""","<div style=""font-size:60px;"">+</div>","""",256,fixation,Memorization,null,500,"""","""","""","""","""","""","""","""",1,5/1/2021 19:58,76.87.181.231,Mozilla/5.0 (Windows NT 10.0; Win64; x64; rv:88.0) Gecko/20100101 Firefox/88.0,,Firefox,88,Windows,10
219,1,1901,"""",html-keyboard-response,124,297715,0.0-124.0,"""","<img src='jspsych/CFDfaces/CFD-WF-205-006-N.jpg' height=""250px""></br><b>Emily</b>","""",256,IntactFace,Memorization,70,5000,f,"""",CFD-BM-203-001-N.jpg,Timothy,0,"""","""","""",1,5/1/2021 19:58,76.87.181.231,Mozilla/5.0 (Windows NT 10.0; Win64; x64; rv:88.0) Gecko/20100101 Firefox/88.0,,Firefox,88,Windows,10
219,1,null,"""",html-keyboard-response,125,298228,0.0-125.0,"""","<div style=""font-size:60px;"">+</div>","""",256,fixation,Memorization,null,500,"""","""","""","""","""","""","""","""",1,5/1/2021 19:58,76.87.181.231,Mozilla/5.0 (Windows NT 10.0; Win64; x64; rv:88.0) Gecko/20100101 Firefox/88.0,,Firefox,88,Windows,10
219,1,3255,"""",html-keyboard-response,126,303242,0.0-126.0,"""","<img src='jspsych/CFDfaces/CFD-BF-025-002-N.jpg' height=""250px""></br><b>Andrea</b>","""",256,IntactFace,Memorization,78,5000,n,"""",CFD-BF-016-017-N.jpg,Amy,0,"""","""","""",1,5/1/2021 19:58,76.87.181.231,Mozilla/5.0 (Windows NT 10.0; Win64; x64; rv:88.0) Gecko/20100101 Firefox/88.0,,Firefox,88,Windows,10
219,1,null,"""",html-keyboard-response,127,303753,0.0-127.0,"""","<div style=""font-size:60px;"">+</div>","""",256,fixation,Memorization,null,500,"""","""","""","""","""","""","""","""",1,5/1/2021 19:58,76.87.181.231,Mozilla/5.0 (Windows NT 10.0; Win64; x64; rv:88.0) Gecko/20100101 Firefox/88.0,,Firefox,88,Windows,10
219,1,2233,"""",html-keyboard-response,128,308761,0.0-128.0,"""","<img src='jspsych/CFDfaces/CFD-WM-015-002-N.jpg' height=""250px""></br><b>Jason</b>","""",256,IntactFace,Memorization,70,5000,f,"""",CFD-WM-006-002-N.jpg,Luis,0,"""","""","""",1,5/1/2021 19:58,76.87.181.231,Mozilla/5.0 (Windows NT 10.0; Win64; x64; rv:88.0) Gecko/20100101 Firefox/88.0,,Firefox,88,Windows,10
219,1,null,"""",html-keyboard-response,129,309266,0.0-129.0,"""","<div style=""font-size:60px;"">+</div>","""",256,fixation,Memorization,null,500,"""","""","""","""","""","""","""","""",1,5/1/2021 19:58,76.87.181.231,Mozilla/5.0 (Windows NT 10.0; Win64; x64; rv:88.0) Gecko/20100101 Firefox/88.0,,Firefox,88,Windows,10
219,1,1822,"""",html-keyboard-response,130,314282,0.0-130.0,"""","<img src='jspsych/CFDfaces/CFD-BF-008-001-N.jpg' height=""250px""></br><b>Michelle</b>","""",256,IntactFace,Memorization,70,5000,f,"""",CFD-AM-248-104-N.jpg,Dustin,0,"""","""","""",1,5/1/2021 19:58,76.87.181.231,Mozilla/5.0 (Windows NT 10.0; Win64; x64; rv:88.0) Gecko/20100101 Firefox/88.0,,Firefox,88,Windows,10
219,1,null,"""",html-keyboard-response,131,314797,0.0-131.0,"""","<div style=""font-size:60px;"">+</div>","""",256,fixation,Memorization,null,500,"""","""","""","""","""","""","""","""",1,5/1/2021 19:58,76.87.181.231,Mozilla/5.0 (Windows NT 10.0; Win64; x64; rv:88.0) Gecko/20100101 Firefox/88.0,,Firefox,88,Windows,10
219,1,2069,"""",html-keyboard-response,132,319806,0.0-132.0,"""","<img src='jspsych/CFDfaces/CFD-LM-246-087-N.jpg' height=""250px""></br><b>Daniel</b>","""",256,IntactFace,Memorization,78,5000,n,"""",CFD-AF-200-228-N.jpg,Angela,0,"""","""","""",1,5/1/2021 19:58,76.87.181.231,Mozilla/5.0 (Windows NT 10.0; Win64; x64; rv:88.0) Gecko/20100101 Firefox/88.0,,Firefox,88,Windows,10
219,1,null,"""",html-keyboard-response,133,320320,0.0-133.0,"""","<div style=""font-size:60px;"">+</div>","""",256,fixation,Memorization,null,500,"""","""","""","""","""","""","""","""",1,5/1/2021 19:58,76.87.181.231,Mozilla/5.0 (Windows NT 10.0; Win64; x64; rv:88.0) Gecko/20100101 Firefox/88.0,,Firefox,88,Windows,10
219,1,2240,"""",html-keyboard-response,134,325330,0.0-134.0,"""","<img src='jspsych/CFDfaces/CFD-LM-217-162-N.jpg' height=""250px""></br><b>Joshua</b>","""",256,IntactFace,Memorization,70,5000,f,"""",CFD-LF-232-199-N.jpg,Jenna,0,"""","""","""",1,5/1/2021 19:58,76.87.181.231,Mozilla/5.0 (Windows NT 10.0; Win64; x64; rv:88.0) Gecko/20100101 Firefox/88.0,,Firefox,88,Windows,10
219,1,null,"""",html-keyboard-response,135,325835,0.0-135.0,"""","<div style=""font-size:60px;"">+</div>","""",256,fixation,Memorization,null,500,"""","""","""","""","""","""","""","""",1,5/1/2021 19:58,76.87.181.231,Mozilla/5.0 (Windows NT 10.0; Win64; x64; rv:88.0) Gecko/20100101 Firefox/88.0,,Firefox,88,Windows,10
219,1,1638,"""",html-keyboard-response,136,330845,0.0-136.0,"""","<img src='jspsych/CFDfaces/CFD-WM-003-002-N.jpg' height=""250px""></br><b>Nicholas</b>","""",256,IntactFace,Memorization,70,5000,f,"""",CFD-LF-200-058-N.jpg,Sara,0,"""","""","""",1,5/1/2021 19:58,76.87.181.231,Mozilla/5.0 (Windows NT 10.0; Win64; x64; rv:88.0) Gecko/20100101 Firefox/88.0,,Firefox,88,Windows,10
219,1,null,"""",html-keyboard-response,137,331347,0.0-137.0,"""","<div style=""font-size:60px;"">+</div>","""",256,fixation,Memorization,null,500,"""","""","""","""","""","""","""","""",1,5/1/2021 19:58,76.87.181.231,Mozilla/5.0 (Windows NT 10.0; Win64; x64; rv:88.0) Gecko/20100101 Firefox/88.0,,Firefox,88,Windows,10
219,1,1784,"""",html-keyboard-response,138,336362,0.0-138.0,"""","<img src='jspsych/CFDfaces/CFD-LM-248-089-N.jpg' height=""250px""></br><b>Jeffrey</b>","""",256,IntactFace,Memorization,78,5000,n,"""",CFD-BM-027-001-N.jpg,Kenneth,0,"""","""","""",1,5/1/2021 19:58,76.87.181.231,Mozilla/5.0 (Windows NT 10.0; Win64; x64; rv:88.0) Gecko/20100101 Firefox/88.0,,Firefox,88,Windows,10
219,1,null,"""",html-keyboard-response,139,336865,0.0-139.0,"""","<div style=""font-size:60px;"">+</div>","""",256,fixation,Memorization,null,500,"""","""","""","""","""","""","""","""",1,5/1/2021 19:58,76.87.181.231,Mozilla/5.0 (Windows NT 10.0; Win64; x64; rv:88.0) Gecko/20100101 Firefox/88.0,,Firefox,88,Windows,10
219,1,1865,"""",html-keyboard-response,140,341868,0.0-140.0,"""","<img src='jspsych/CFDfaces/CFD-AM-243-212-N.jpg' height=""250px""></br><b>Christian</b>","""",256,IntactFace,Memorization,70,5000,f,"""",CFD-BF-010-001-N.jpg,Laura,0,"""","""","""",1,5/1/2021 19:58,76.87.181.231,Mozilla/5.0 (Windows NT 10.0; Win64; x64; rv:88.0) Gecko/20100101 Firefox/88.0,,Firefox,88,Windows,10
219,1,null,"""",html-keyboard-response,141,342385,0.0-141.0,"""","<div style=""font-size:60px;"">+</div>","""",256,fixation,Memorization,null,500,"""","""","""","""","""","""","""","""",1,5/1/2021 19:58,76.87.181.231,Mozilla/5.0 (Windows NT 10.0; Win64; x64; rv:88.0) Gecko/20100101 Firefox/88.0,,Firefox,88,Windows,10
219,1,3227,"""",html-keyboard-response,142,347397,0.0-142.0,"""","<img src='jspsych/CFDfaces/CFD-AM-242-176-N.jpg' height=""250px""></br><b>Juan</b>","""",256,IntactFace,Memorization,70,5000,f,"""",CFD-AF-240-206-N.jpg,Melissa,0,"""","""","""",1,5/1/2021 19:58,76.87.181.231,Mozilla/5.0 (Windows NT 10.0; Win64; x64; rv:88.0) Gecko/20100101 Firefox/88.0,,Firefox,88,Windows,10
219,1,null,"""",html-keyboard-response,143,347915,0.0-143.0,"""","<div style=""font-size:60px;"">+</div>","""",256,fixation,Memorization,null,500,"""","""","""","""","""","""","""","""",1,5/1/2021 19:58,76.87.181.231,Mozilla/5.0 (Windows NT 10.0; Win64; x64; rv:88.0) Gecko/20100101 Firefox/88.0,,Firefox,88,Windows,10
219,1,2305,"""",html-keyboard-response,144,352917,0.0-144.0,"""","<img src='jspsych/CFDfaces/CFD-AM-202-079-N.jpg' height=""250px""></br><b>Richard</b>","""",256,IntactFace,Memorization,78,5000,n,"""",CFD-AM-213-056-N.jpg,Travis,0,"""","""","""",1,5/1/2021 19:58,76.87.181.231,Mozilla/5.0 (Windows NT 10.0; Win64; x64; rv:88.0) Gecko/20100101 Firefox/88.0,,Firefox,88,Windows,10
219,1,null,"""",html-keyboard-response,145,353420,0.0-145.0,"""","<div style=""font-size:60px;"">+</div>","""",256,fixation,Memorization,null,500,"""","""","""","""","""","""","""","""",1,5/1/2021 19:58,76.87.181.231,Mozilla/5.0 (Windows NT 10.0; Win64; x64; rv:88.0) Gecko/20100101 Firefox/88.0,,Firefox,88,Windows,10
219,1,2484,"""",html-keyboard-response,146,358421,0.0-146.0,"""","<img src='jspsych/CFDfaces/CFD-LF-215-157-N.jpg' height=""250px""></br><b>Brittany</b>","""",256,IntactFace,Memorization,78,5000,n,"""",CFD-AM-212-050-N.jpg,Steven,0,"""","""","""",1,5/1/2021 19:58,76.87.181.231,Mozilla/5.0 (Windows NT 10.0; Win64; x64; rv:88.0) Gecko/20100101 Firefox/88.0,,Firefox,88,Windows,10
219,1,null,"""",html-keyboard-response,147,358935,0.0-147.0,"""","<div style=""font-size:60px;"">+</div>","""",256,fixation,Memorization,null,500,"""","""","""","""","""","""","""","""",1,5/1/2021 19:58,76.87.181.231,Mozilla/5.0 (Windows NT 10.0; Win64; x64; rv:88.0) Gecko/20100101 Firefox/88.0,,Firefox,88,Windows,10
219,1,3580,"""",html-keyboard-response,148,363940,0.0-148.0,"""","<img src='jspsych/CFDfaces/CFD-WF-217-085-N.jpg' height=""250px""></br><b>Kayla</b>","""",256,IntactFace,Memorization,70,5000,f,"""",CFD-BM-017-021-N.jpg,Cameron,0,"""","""","""",1,5/1/2021 19:58,76.87.181.231,Mozilla/5.0 (Windows NT 10.0; Win64; x64; rv:88.0) Gecko/20100101 Firefox/88.0,,Firefox,88,Windows,10
219,1,null,"""",html-keyboard-response,149,364445,0.0-149.0,"""","<div style=""font-size:60px;"">+</div>","""",256,fixation,Memorization,null,500,"""","""","""","""","""","""","""","""",1,5/1/2021 19:58,76.87.181.231,Mozilla/5.0 (Windows NT 10.0; Win64; x64; rv:88.0) Gecko/20100101 Firefox/88.0,,Firefox,88,Windows,10
219,1,1576,"""",html-keyboard-response,150,369455,0.0-150.0,"""","<img src='jspsych/CFDfaces/CFD-LM-213-061-N.jpg' height=""250px""></br><b>James</b>","""",256,IntactFace,Memorization,78,5000,n,"""",CFD-AF-237-223-N.jpg,Lauren,0,"""","""","""",1,5/1/2021 19:58,76.87.181.231,Mozilla/5.0 (Windows NT 10.0; Win64; x64; rv:88.0) Gecko/20100101 Firefox/88.0,,Firefox,88,Windows,10
219,1,null,"""",html-keyboard-response,151,369970,0.0-151.0,"""","<div style=""font-size:60px;"">+</div>","""",256,fixation,Memorization,null,500,"""","""","""","""","""","""","""","""",1,5/1/2021 19:58,76.87.181.231,Mozilla/5.0 (Windows NT 10.0; Win64; x64; rv:88.0) Gecko/20100101 Firefox/88.0,,Firefox,88,Windows,10
219,1,2157,"""",html-keyboard-response,152,374979,0.0-152.0,"""","<img src='jspsych/CFDfaces/CFD-WF-029-002-N.jpg' height=""250px""></br><b>Julie</b>","""",256,IntactFace,Memorization,70,5000,f,"""",CFD-AF-222-134-N.jpg,Tiffany,0,"""","""","""",1,5/1/2021 19:58,76.87.181.231,Mozilla/5.0 (Windows NT 10.0; Win64; x64; rv:88.0) Gecko/20100101 Firefox/88.0,,Firefox,88,Windows,10
219,1,null,"""",html-keyboard-response,153,375482,0.0-153.0,"""","<div style=""font-size:60px;"">+</div>","""",256,fixation,Memorization,null,500,"""","""","""","""","""","""","""","""",1,5/1/2021 19:58,76.87.181.231,Mozilla/5.0 (Windows NT 10.0; Win64; x64; rv:88.0) Gecko/20100101 Firefox/88.0,,Firefox,88,Windows,10
219,1,1111,"""",html-keyboard-response,154,376594,0.0-154.0,"""",Press Any Key to Begin Memory Test,"""",1,welcomeScreen,Break,78,"""","""","""","""","""","""","""","""","""",1,5/1/2021 19:58,76.87.181.231,Mozilla/5.0 (Windows NT 10.0; Win64; x64; rv:88.0) Gecko/20100101 Firefox/88.0,,Firefox,88,Windows,10
219,1,null,"""",html-keyboard-response,155,377603,0.0-155.0,"""","<div style=""font-size:60px;"">+</div>","""",256,ITI,Test,null,1000,"""","""","""","""","""","""","""","""",1,5/1/2021 19:58,76.87.181.231,Mozilla/5.0 (Windows NT 10.0; Win64; x64; rv:88.0) Gecko/20100101 Firefox/88.0,,Firefox,88,Windows,10
219,1,null,"""",image-keyboard-response,156,377866,0.0-156.0,"""",jspsych/scrambledNeutralFaces/scrambledBM27NES.JPG,"""",256,forwardMask,Test,null,250,"""",n,"""","""","""","""","""","""",1,5/1/2021 19:58,76.87.181.231,Mozilla/5.0 (Windows NT 10.0; Win64; x64; rv:88.0) Gecko/20100101 Firefox/88.0,,Firefox,88,Windows,10
219,1,null,"""",image-keyboard-response,157,377898,0.0-157.0,"""",jspsych/neutralFaces/BM27NES.JPG,"""",256,Cue,Test,null,16,"""","""","""","""","""","""","""","""",1,5/1/2021 19:58,76.87.181.231,Mozilla/5.0 (Windows NT 10.0; Win64; x64; rv:88.0) Gecko/20100101 Firefox/88.0,,Firefox,88,Windows,10
219,1,null,"""",image-keyboard-response,158,378008,0.0-158.0,"""",jspsych/neutralFaces/AM34NES.JPG,"""",256,backwardMask,Test,null,100,"""","""","""","""","""","""","""","""",1,5/1/2021 19:58,76.87.181.231,Mozilla/5.0 (Windows NT 10.0; Win64; x64; rv:88.0) Gecko/20100101 Firefox/88.0,,Firefox,88,Windows,10
219,1,null,"""",html-keyboard-response,159,379012,0.0-159.0,"""","<div style=""font-size:60px;"">+</div>","""",256,fixationBtwnNeutralMaskAndPrompt,Test,null,1000,"""","""","""","""","""","""","""","""",1,5/1/2021 19:58,76.87.181.231,Mozilla/5.0 (Windows NT 10.0; Win64; x64; rv:88.0) Gecko/20100101 Firefox/88.0,,Firefox,88,Windows,10
219,1,1672,"""",html-button-response,160,380685,0.0-160.0,"""","<img src='jspsych/CFDfaces/CFD-BF-218-207-N.jpg' height=""250px"">,</br><b>Kimberly</b>",1,256,IntactOrRearranged,Test,"""","""","""","""",CFD-BF-047-003-N.jpg,Heather,1,1,"""","""",1,5/1/2021 19:58,76.87.181.231,Mozilla/5.0 (Windows NT 10.0; Win64; x64; rv:88.0) Gecko/20100101 Firefox/88.0,,Firefox,88,Windows,10
219,1,1363,"""",html-slider-response,161,382051,0.0-161.0,"""","<img src='jspsych/CFDfaces/CFD-BF-218-207-N.jpg' height=""250px"">,</br><b>Kimberly</b>","""",256,ConfidenceQuery,Test,"""","""","""","""",CFD-BF-047-003-N.jpg,Heather,1,"""",0,100,1,5/1/2021 19:58,76.87.181.231,Mozilla/5.0 (Windows NT 10.0; Win64; x64; rv:88.0) Gecko/20100101 Firefox/88.0,,Firefox,88,Windows,10
219,1,null,"""",html-keyboard-response,162,383061,0.0-162.0,"""","<div style=""font-size:60px;"">+</div>","""",256,ITI,Test,null,1000,"""","""","""","""","""","""","""","""",1,5/1/2021 19:58,76.87.181.231,Mozilla/5.0 (Windows NT 10.0; Win64; x64; rv:88.0) Gecko/20100101 Firefox/88.0,,Firefox,88,Windows,10
219,1,null,"""",image-keyboard-response,163,383327,0.0-163.0,"""",jspsych/scrambledDisgustFaces/scrambledAF28DIS.JPG,"""",256,forwardMask,Test,null,250,"""",d,"""","""","""","""","""","""",1,5/1/2021 19:58,76.87.181.231,Mozilla/5.0 (Windows NT 10.0; Win64; x64; rv:88.0) Gecko/20100101 Firefox/88.0,,Firefox,88,Windows,10
219,1,null,"""",image-keyboard-response,164,383359,0.0-164.0,"""",jspsych/disgustFaces/AF28DIS.JPG,"""",256,Cue,Test,null,16,"""","""","""","""","""","""","""","""",1,5/1/2021 19:58,76.87.181.231,Mozilla/5.0 (Windows NT 10.0; Win64; x64; rv:88.0) Gecko/20100101 Firefox/88.0,,Firefox,88,Windows,10
219,1,null,"""",image-keyboard-response,165,383469,0.0-165.0,"""",jspsych/neutralFaces/AF06NES.JPG,"""",256,backwardMask,Test,null,100,"""","""","""","""","""","""","""","""",1,5/1/2021 19:58,76.87.181.231,Mozilla/5.0 (Windows NT 10.0; Win64; x64; rv:88.0) Gecko/20100101 Firefox/88.0,,Firefox,88,Windows,10
219,1,null,"""",html-keyboard-response,166,384483,0.0-166.0,"""","<div style=""font-size:60px;"">+</div>","""",256,fixationBtwnNeutralMaskAndPrompt,Test,null,1000,"""","""","""","""","""","""","""","""",1,5/1/2021 19:58,76.87.181.231,Mozilla/5.0 (Windows NT 10.0; Win64; x64; rv:88.0) Gecko/20100101 Firefox/88.0,,Firefox,88,Windows,10
219,1,2102,"""",html-button-response,167,386586,0.0-167.0,"""","<img src='jspsych/CFDfaces/CFD-WF-205-006-N.jpg' height=""250px"">,</br><b>Andrea</b>",1,256,IntactOrRearranged,Test,"""","""","""","""",CFD-BF-209-172-N.jpg,Taylor,1,1,"""","""",1,5/1/2021 19:58,76.87.181.231,Mozilla/5.0 (Windows NT 10.0; Win64; x64; rv:88.0) Gecko/20100101 Firefox/88.0,,Firefox,88,Windows,10
219,1,1956,"""",html-slider-response,168,388543,0.0-168.0,"""","<img src='jspsych/CFDfaces/CFD-WF-205-006-N.jpg' height=""250px"">,</br><b>Andrea</b>","""",256,ConfidenceQuery,Test,"""","""","""","""",CFD-BF-209-172-N.jpg,Taylor,1,"""",0,100,1,5/1/2021 19:58,76.87.181.231,Mozilla/5.0 (Windows NT 10.0; Win64; x64; rv:88.0) Gecko/20100101 Firefox/88.0,,Firefox,88,Windows,10
219,1,null,"""",html-keyboard-response,169,389544,0.0-169.0,"""","<div style=""font-size:60px;"">+</div>","""",256,ITI,Test,null,1000,"""","""","""","""","""","""","""","""",1,5/1/2021 19:58,76.87.181.231,Mozilla/5.0 (Windows NT 10.0; Win64; x64; rv:88.0) Gecko/20100101 Firefox/88.0,,Firefox,88,Windows,10
219,1,null,"""",image-keyboard-response,170,389807,0.0-170.0,"""",jspsych/scrambledDisgustFaces/scrambledBF20DIS.JPG,"""",256,forwardMask,Test,null,250,"""",d,"""","""","""","""","""","""",1,5/1/2021 19:58,76.87.181.231,Mozilla/5.0 (Windows NT 10.0; Win64; x64; rv:88.0) Gecko/20100101 Firefox/88.0,,Firefox,88,Windows,10
219,1,null,"""",image-keyboard-response,171,389838,0.0-171.0,"""",jspsych/disgustFaces/BF20DIS.JPG,"""",256,Cue,Test,null,16,"""","""","""","""","""","""","""","""",1,5/1/2021 19:58,76.87.181.231,Mozilla/5.0 (Windows NT 10.0; Win64; x64; rv:88.0) Gecko/20100101 Firefox/88.0,,Firefox,88,Windows,10
219,1,null,"""",image-keyboard-response,172,389948,0.0-172.0,"""",jspsych/neutralFaces/BF25NES.JPG,"""",256,backwardMask,Test,null,100,"""","""","""","""","""","""","""","""",1,5/1/2021 19:58,76.87.181.231,Mozilla/5.0 (Windows NT 10.0; Win64; x64; rv:88.0) Gecko/20100101 Firefox/88.0,,Firefox,88,Windows,10
219,1,null,"""",html-keyboard-response,173,390956,0.0-173.0,"""","<div style=""font-size:60px;"">+</div>","""",256,fixationBtwnNeutralMaskAndPrompt,Test,null,1000,"""","""","""","""","""","""","""","""",1,5/1/2021 19:58,76.87.181.231,Mozilla/5.0 (Windows NT 10.0; Win64; x64; rv:88.0) Gecko/20100101 Firefox/88.0,,Firefox,88,Windows,10
219,1,1520,"""",html-button-response,174,392478,0.0-174.0,"""","<img src='jspsych/CFDfaces/CFD-BF-019-001-N.jpg' height=""250px"">,</br><b>Samantha</b>",0,256,IntactOrRearranged,Test,"""","""","""","""",CFD-WF-215-145-N.jpg,Lindsey,0,0,"""","""",1,5/1/2021 19:58,76.87.181.231,Mozilla/5.0 (Windows NT 10.0; Win64; x64; rv:88.0) Gecko/20100101 Firefox/88.0,,Firefox,88,Windows,10
219,1,2030,"""",html-slider-response,175,394510,0.0-175.0,"""","<img src='jspsych/CFDfaces/CFD-BF-019-001-N.jpg' height=""250px"">,</br><b>Samantha</b>","""",256,ConfidenceQuery,Test,"""","""","""","""",CFD-WF-215-145-N.jpg,Lindsey,0,"""",0,100,1,5/1/2021 19:58,76.87.181.231,Mozilla/5.0 (Windows NT 10.0; Win64; x64; rv:88.0) Gecko/20100101 Firefox/88.0,,Firefox,88,Windows,10
219,1,null,"""",html-keyboard-response,176,395511,0.0-176.0,"""","<div style=""font-size:60px;"">+</div>","""",256,ITI,Test,null,1000,"""","""","""","""","""","""","""","""",1,5/1/2021 19:58,76.87.181.231,Mozilla/5.0 (Windows NT 10.0; Win64; x64; rv:88.0) Gecko/20100101 Firefox/88.0,,Firefox,88,Windows,10
219,1,null,"""",image-keyboard-response,177,395776,0.0-177.0,"""",jspsych/scrambledNeutralFaces/scrambledAF14NES.JPG,"""",256,forwardMask,Test,null,250,"""",n,"""","""","""","""","""","""",1,5/1/2021 19:58,76.87.181.231,Mozilla/5.0 (Windows NT 10.0; Win64; x64; rv:88.0) Gecko/20100101 Firefox/88.0,,Firefox,88,Windows,10
219,1,null,"""",image-keyboard-response,178,395807,0.0-178.0,"""",jspsych/neutralFaces/AF14NES.JPG,"""",256,Cue,Test,null,16,"""","""","""","""","""","""","""","""",1,5/1/2021 19:58,76.87.181.231,Mozilla/5.0 (Windows NT 10.0; Win64; x64; rv:88.0) Gecko/20100101 Firefox/88.0,,Firefox,88,Windows,10
219,1,null,"""",image-keyboard-response,179,395917,0.0-179.0,"""",jspsych/neutralFaces/BF07NES.JPG,"""",256,backwardMask,Test,null,100,"""","""","""","""","""","""","""","""",1,5/1/2021 19:58,76.87.181.231,Mozilla/5.0 (Windows NT 10.0; Win64; x64; rv:88.0) Gecko/20100101 Firefox/88.0,,Firefox,88,Windows,10
219,1,null,"""",html-keyboard-response,180,396925,0.0-180.0,"""","<div style=""font-size:60px;"">+</div>","""",256,fixationBtwnNeutralMaskAndPrompt,Test,null,1000,"""","""","""","""","""","""","""","""",1,5/1/2021 19:58,76.87.181.231,Mozilla/5.0 (Windows NT 10.0; Win64; x64; rv:88.0) Gecko/20100101 Firefox/88.0,,Firefox,88,Windows,10
219,1,2524,"""",html-button-response,181,399454,0.0-181.0,"""","<img src='jspsych/CFDfaces/CFD-LF-215-157-N.jpg' height=""250px"">,</br><b>Brittany</b>",0,256,IntactOrRearranged,Test,"""","""","""","""",CFD-AM-248-104-N.jpg,Dustin,0,0,"""","""",1,5/1/2021 19:58,76.87.181.231,Mozilla/5.0 (Windows NT 10.0; Win64; x64; rv:88.0) Gecko/20100101 Firefox/88.0,,Firefox,88,Windows,10
219,1,1609,"""",html-slider-response,182,401064,0.0-182.0,"""","<img src='jspsych/CFDfaces/CFD-LF-215-157-N.jpg' height=""250px"">,</br><b>Brittany</b>","""",256,ConfidenceQuery,Test,"""","""","""","""",CFD-AM-248-104-N.jpg,Dustin,0,"""",0,100,1,5/1/2021 19:58,76.87.181.231,Mozilla/5.0 (Windows NT 10.0; Win64; x64; rv:88.0) Gecko/20100101 Firefox/88.0,,Firefox,88,Windows,10
219,1,null,"""",html-keyboard-response,183,402065,0.0-183.0,"""","<div style=""font-size:60px;"">+</div>","""",256,ITI,Test,null,1000,"""","""","""","""","""","""","""","""",1,5/1/2021 19:58,76.87.181.231,Mozilla/5.0 (Windows NT 10.0; Win64; x64; rv:88.0) Gecko/20100101 Firefox/88.0,,Firefox,88,Windows,10
219,1,null,"""",image-keyboard-response,184,402332,0.0-184.0,"""",jspsych/scrambledNeutralFaces/scrambledAM29NES.JPG,"""",256,forwardMask,Test,null,250,"""",n,"""","""","""","""","""","""",1,5/1/2021 19:58,76.87.181.231,Mozilla/5.0 (Windows NT 10.0; Win64; x64; rv:88.0) Gecko/20100101 Firefox/88.0,,Firefox,88,Windows,10
219,1,null,"""",image-keyboard-response,185,402350,0.0-185.0,"""",jspsych/neutralFaces/AM29NES.JPG,"""",256,Cue,Test,null,16,"""","""","""","""","""","""","""","""",1,5/1/2021 19:58,76.87.181.231,Mozilla/5.0 (Windows NT 10.0; Win64; x64; rv:88.0) Gecko/20100101 Firefox/88.0,,Firefox,88,Windows,10
219,1,null,"""",image-keyboard-response,186,402458,0.0-186.0,"""",jspsych/neutralFaces/AM13NES.JPG,"""",256,backwardMask,Test,null,100,"""","""","""","""","""","""","""","""",1,5/1/2021 19:58,76.87.181.231,Mozilla/5.0 (Windows NT 10.0; Win64; x64; rv:88.0) Gecko/20100101 Firefox/88.0,,Firefox,88,Windows,10
219,1,null,"""",html-keyboard-response,187,403464,0.0-187.0,"""","<div style=""font-size:60px;"">+</div>","""",256,fixationBtwnNeutralMaskAndPrompt,Test,null,1000,"""","""","""","""","""","""","""","""",1,5/1/2021 19:58,76.87.181.231,Mozilla/5.0 (Windows NT 10.0; Win64; x64; rv:88.0) Gecko/20100101 Firefox/88.0,,Firefox,88,Windows,10
219,1,1727,"""",html-button-response,188,405195,0.0-188.0,"""","<img src='jspsych/CFDfaces/CFD-LF-213-079-N.jpg' height=""250px"">,</br><b>Christina</b>",1,256,IntactOrRearranged,Test,"""","""","""","""",CFD-LM-223-175-N.jpg,Kenneth,1,1,"""","""",1,5/1/2021 19:58,76.87.181.231,Mozilla/5.0 (Windows NT 10.0; Win64; x64; rv:88.0) Gecko/20100101 Firefox/88.0,,Firefox,88,Windows,10
219,1,1185,"""",html-slider-response,189,406383,0.0-189.0,"""","<img src='jspsych/CFDfaces/CFD-LF-213-079-N.jpg' height=""250px"">,</br><b>Christina</b>","""",256,ConfidenceQuery,Test,"""","""","""","""",CFD-LM-223-175-N.jpg,Kenneth,1,"""",0,100,1,5/1/2021 19:58,76.87.181.231,Mozilla/5.0 (Windows NT 10.0; Win64; x64; rv:88.0) Gecko/20100101 Firefox/88.0,,Firefox,88,Windows,10
219,1,null,"""",html-keyboard-response,190,407395,0.0-190.0,"""","<div style=""font-size:60px;"">+</div>","""",256,ITI,Test,null,1000,"""","""","""","""","""","""","""","""",1,5/1/2021 19:58,76.87.181.231,Mozilla/5.0 (Windows NT 10.0; Win64; x64; rv:88.0) Gecko/20100101 Firefox/88.0,,Firefox,88,Windows,10
219,1,null,"""",image-keyboard-response,191,407661,0.0-191.0,"""",jspsych/scrambledDisgustFaces/scrambledBM28DIS.JPG,"""",256,forwardMask,Test,null,250,"""",d,"""","""","""","""","""","""",1,5/1/2021 19:58,76.87.181.231,Mozilla/5.0 (Windows NT 10.0; Win64; x64; rv:88.0) Gecko/20100101 Firefox/88.0,,Firefox,88,Windows,10
219,1,null,"""",image-keyboard-response,192,407693,0.0-192.0,"""",jspsych/disgustFaces/BM29DIS.JPG,"""",256,Cue,Test,null,16,"""","""","""","""","""","""","""","""",1,5/1/2021 19:58,76.87.181.231,Mozilla/5.0 (Windows NT 10.0; Win64; x64; rv:88.0) Gecko/20100101 Firefox/88.0,,Firefox,88,Windows,10
219,1,null,"""",image-keyboard-response,193,407803,0.0-193.0,"""",jspsych/neutralFaces/BM02NES.JPG,"""",256,backwardMask,Test,null,100,"""","""","""","""","""","""","""","""",1,5/1/2021 19:58,76.87.181.231,Mozilla/5.0 (Windows NT 10.0; Win64; x64; rv:88.0) Gecko/20100101 Firefox/88.0,,Firefox,88,Windows,10
219,1,null,"""",html-keyboard-response,194,408808,0.0-194.0,"""","<div style=""font-size:60px;"">+</div>","""",256,fixationBtwnNeutralMaskAndPrompt,Test,null,1000,"""","""","""","""","""","""","""","""",1,5/1/2021 19:58,76.87.181.231,Mozilla/5.0 (Windows NT 10.0; Win64; x64; rv:88.0) Gecko/20100101 Firefox/88.0,,Firefox,88,Windows,10
219,1,4111,"""",html-button-response,195,412920,0.0-195.0,"""","<img src='jspsych/CFDfaces/CFD-WF-217-085-N.jpg' height=""250px"">,</br><b>Kayla</b>",1,256,IntactOrRearranged,Test,"""","""","""","""",CFD-BM-027-001-N.jpg,Jeremy,0,1,"""","""",1,5/1/2021 19:58,76.87.181.231,Mozilla/5.0 (Windows NT 10.0; Win64; x64; rv:88.0) Gecko/20100101 Firefox/88.0,,Firefox,88,Windows,10
219,1,1039,"""",html-slider-response,196,413964,0.0-196.0,"""","<img src='jspsych/CFDfaces/CFD-WF-217-085-N.jpg' height=""250px"">,</br><b>Kayla</b>","""",256,ConfidenceQuery,Test,"""","""","""","""",CFD-BM-027-001-N.jpg,Jeremy,0,"""",0,57,1,5/1/2021 19:58,76.87.181.231,Mozilla/5.0 (Windows NT 10.0; Win64; x64; rv:88.0) Gecko/20100101 Firefox/88.0,,Firefox,88,Windows,10
219,1,null,"""",html-keyboard-response,197,414969,0.0-197.0,"""","<div style=""font-size:60px;"">+</div>","""",256,ITI,Test,null,1000,"""","""","""","""","""","""","""","""",1,5/1/2021 19:58,76.87.181.231,Mozilla/5.0 (Windows NT 10.0; Win64; x64; rv:88.0) Gecko/20100101 Firefox/88.0,,Firefox,88,Windows,10
219,1,null,"""",image-keyboard-response,198,415224,0.0-198.0,"""",jspsych/scrambledNeutralFaces/scrambledBM35NES.JPG,"""",256,forwardMask,Test,null,250,"""",n,"""","""","""","""","""","""",1,5/1/2021 19:58,76.87.181.231,Mozilla/5.0 (Windows NT 10.0; Win64; x64; rv:88.0) Gecko/20100101 Firefox/88.0,,Firefox,88,Windows,10
219,1,null,"""",image-keyboard-response,199,415255,0.0-199.0,"""",jspsych/neutralFaces/BM35NES.JPG,"""",256,Cue,Test,null,16,"""","""","""","""","""","""","""","""",1,5/1/2021 19:58,76.87.181.231,Mozilla/5.0 (Windows NT 10.0; Win64; x64; rv:88.0) Gecko/20100101 Firefox/88.0,,Firefox,88,Windows,10
219,1,null,"""",image-keyboard-response,200,415365,0.0-200.0,"""",jspsych/neutralFaces/BM04NES.JPG,"""",256,backwardMask,Test,null,100,"""","""","""","""","""","""","""","""",1,5/1/2021 19:58,76.87.181.231,Mozilla/5.0 (Windows NT 10.0; Win64; x64; rv:88.0) Gecko/20100101 Firefox/88.0,,Firefox,88,Windows,10
219,1,null,"""",html-keyboard-response,201,416374,0.0-201.0,"""","<div style=""font-size:60px;"">+</div>","""",256,fixationBtwnNeutralMaskAndPrompt,Test,null,1000,"""","""","""","""","""","""","""","""",1,5/1/2021 19:58,76.87.181.231,Mozilla/5.0 (Windows NT 10.0; Win64; x64; rv:88.0) Gecko/20100101 Firefox/88.0,,Firefox,88,Windows,10
219,1,1478,"""",html-button-response,202,417852,0.0-202.0,"""","<img src='jspsych/CFDfaces/CFD-BF-009-002-N.jpg' height=""250px"">,</br><b>Elizabeth</b>",0,256,IntactOrRearranged,Test,"""","""","""","""",CFD-AF-222-134-N.jpg,Tiffany,1,0,"""","""",1,5/1/2021 19:58,76.87.181.231,Mozilla/5.0 (Windows NT 10.0; Win64; x64; rv:88.0) Gecko/20100101 Firefox/88.0,,Firefox,88,Windows,10
219,1,1456,"""",html-slider-response,203,419310,0.0-203.0,"""","<img src='jspsych/CFDfaces/CFD-BF-009-002-N.jpg' height=""250px"">,</br><b>Elizabeth</b>","""",256,ConfidenceQuery,Test,"""","""","""","""",CFD-AF-222-134-N.jpg,Tiffany,1,"""",0,100,1,5/1/2021 19:58,76.87.181.231,Mozilla/5.0 (Windows NT 10.0; Win64; x64; rv:88.0) Gecko/20100101 Firefox/88.0,,Firefox,88,Windows,10
219,1,null,"""",html-keyboard-response,204,420314,0.0-204.0,"""","<div style=""font-size:60px;"">+</div>","""",256,ITI,Test,null,1000,"""","""","""","""","""","""","""","""",1,5/1/2021 19:58,76.87.181.231,Mozilla/5.0 (Windows NT 10.0; Win64; x64; rv:88.0) Gecko/20100101 Firefox/88.0,,Firefox,88,Windows,10
219,1,null,"""",image-keyboard-response,205,420581,0.0-205.0,"""",jspsych/scrambledDisgustFaces/scrambledAF11DIS.JPG,"""",256,forwardMask,Test,null,250,"""",d,"""","""","""","""","""","""",1,5/1/2021 19:58,76.87.181.231,Mozilla/5.0 (Windows NT 10.0; Win64; x64; rv:88.0) Gecko/20100101 Firefox/88.0,,Firefox,88,Windows,10
219,1,null,"""",image-keyboard-response,206,420600,0.0-206.0,"""",jspsych/disgustFaces/AF11DIS.JPG,"""",256,Cue,Test,null,16,"""","""","""","""","""","""","""","""",1,5/1/2021 19:58,76.87.181.231,Mozilla/5.0 (Windows NT 10.0; Win64; x64; rv:88.0) Gecko/20100101 Firefox/88.0,,Firefox,88,Windows,10
219,1,null,"""",image-keyboard-response,207,420706,0.0-207.0,"""",jspsych/neutralFaces/AF34NES.JPG,"""",256,backwardMask,Test,null,100,"""","""","""","""","""","""","""","""",1,5/1/2021 19:58,76.87.181.231,Mozilla/5.0 (Windows NT 10.0; Win64; x64; rv:88.0) Gecko/20100101 Firefox/88.0,,Firefox,88,Windows,10
219,1,null,"""",html-keyboard-response,208,421708,0.0-208.0,"""","<div style=""font-size:60px;"">+</div>","""",256,fixationBtwnNeutralMaskAndPrompt,Test,null,1000,"""","""","""","""","""","""","""","""",1,5/1/2021 19:58,76.87.181.231,Mozilla/5.0 (Windows NT 10.0; Win64; x64; rv:88.0) Gecko/20100101 Firefox/88.0,,Firefox,88,Windows,10
219,1,4247,"""",html-button-response,209,425955,0.0-209.0,"""","<img src='jspsych/CFDfaces/CFD-LM-213-061-N.jpg' height=""250px"">,</br><b>Jeffrey</b>",1,256,IntactOrRearranged,Test,"""","""","""","""",CFD-BM-203-001-N.jpg,Austin,1,1,"""","""",1,5/1/2021 19:58,76.87.181.231,Mozilla/5.0 (Windows NT 10.0; Win64; x64; rv:88.0) Gecko/20100101 Firefox/88.0,,Firefox,88,Windows,10
219,1,1355,"""",html-slider-response,210,427311,0.0-210.0,"""","<img src='jspsych/CFDfaces/CFD-LM-213-061-N.jpg' height=""250px"">,</br><b>Jeffrey</b>","""",256,ConfidenceQuery,Test,"""","""","""","""",CFD-BM-203-001-N.jpg,Austin,1,"""",0,44,1,5/1/2021 19:58,76.87.181.231,Mozilla/5.0 (Windows NT 10.0; Win64; x64; rv:88.0) Gecko/20100101 Firefox/88.0,,Firefox,88,Windows,10
219,1,null,"""",html-keyboard-response,211,428314,0.0-211.0,"""","<div style=""font-size:60px;"">+</div>","""",256,ITI,Test,null,1000,"""","""","""","""","""","""","""","""",1,5/1/2021 19:58,76.87.181.231,Mozilla/5.0 (Windows NT 10.0; Win64; x64; rv:88.0) Gecko/20100101 Firefox/88.0,,Firefox,88,Windows,10
219,1,null,"""",image-keyboard-response,212,428584,0.0-212.0,"""",jspsych/scrambledNeutralFaces/scrambledAF06NES.JPG,"""",256,forwardMask,Test,null,250,"""",n,"""","""","""","""","""","""",1,5/1/2021 19:58,76.87.181.231,Mozilla/5.0 (Windows NT 10.0; Win64; x64; rv:88.0) Gecko/20100101 Firefox/88.0,,Firefox,88,Windows,10
219,1,null,"""",image-keyboard-response,213,428615,0.0-213.0,"""",jspsych/neutralFaces/AF06NES.JPG,"""",256,Cue,Test,null,16,"""","""","""","""","""","""","""","""",1,5/1/2021 19:58,76.87.181.231,Mozilla/5.0 (Windows NT 10.0; Win64; x64; rv:88.0) Gecko/20100101 Firefox/88.0,,Firefox,88,Windows,10
219,1,null,"""",image-keyboard-response,214,428725,0.0-214.0,"""",jspsych/neutralFaces/AF03NES.JPG,"""",256,backwardMask,Test,null,100,"""","""","""","""","""","""","""","""",1,5/1/2021 19:58,76.87.181.231,Mozilla/5.0 (Windows NT 10.0; Win64; x64; rv:88.0) Gecko/20100101 Firefox/88.0,,Firefox,88,Windows,10
219,1,null,"""",html-keyboard-response,215,429737,0.0-215.0,"""","<div style=""font-size:60px;"">+</div>","""",256,fixationBtwnNeutralMaskAndPrompt,Test,null,1000,"""","""","""","""","""","""","""","""",1,5/1/2021 19:58,76.87.181.231,Mozilla/5.0 (Windows NT 10.0; Win64; x64; rv:88.0) Gecko/20100101 Firefox/88.0,,Firefox,88,Windows,10
219,1,3828,"""",html-button-response,216,433566,0.0-216.0,"""","<img src='jspsych/CFDfaces/CFD-WM-003-002-N.jpg' height=""250px"">,</br><b>Nicholas</b>",0,256,IntactOrRearranged,Test,"""","""","""","""",CFD-LF-208-127-N.jpg,Jenna,0,0,"""","""",1,5/1/2021 19:58,76.87.181.231,Mozilla/5.0 (Windows NT 10.0; Win64; x64; rv:88.0) Gecko/20100101 Firefox/88.0,,Firefox,88,Windows,10
219,1,1576,"""",html-slider-response,217,435144,0.0-217.0,"""","<img src='jspsych/CFDfaces/CFD-WM-003-002-N.jpg' height=""250px"">,</br><b>Nicholas</b>","""",256,ConfidenceQuery,Test,"""","""","""","""",CFD-LF-208-127-N.jpg,Jenna,0,"""",0,79,1,5/1/2021 19:58,76.87.181.231,Mozilla/5.0 (Windows NT 10.0; Win64; x64; rv:88.0) Gecko/20100101 Firefox/88.0,,Firefox,88,Windows,10
219,1,null,"""",html-keyboard-response,218,436151,0.0-218.0,"""","<div style=""font-size:60px;"">+</div>","""",256,ITI,Test,null,1000,"""","""","""","""","""","""","""","""",1,5/1/2021 19:58,76.87.181.231,Mozilla/5.0 (Windows NT 10.0; Win64; x64; rv:88.0) Gecko/20100101 Firefox/88.0,,Firefox,88,Windows,10
219,1,null,"""",image-keyboard-response,219,436410,0.0-219.0,"""",jspsych/scrambledDisgustFaces/scrambledBF10DIS.JPG,"""",256,forwardMask,Test,null,250,"""",d,"""","""","""","""","""","""",1,5/1/2021 19:58,76.87.181.231,Mozilla/5.0 (Windows NT 10.0; Win64; x64; rv:88.0) Gecko/20100101 Firefox/88.0,,Firefox,88,Windows,10
219,1,null,"""",image-keyboard-response,220,436441,0.0-220.0,"""",jspsych/disgustFaces/BF10DIS.JPG,"""",256,Cue,Test,null,16,"""","""","""","""","""","""","""","""",1,5/1/2021 19:58,76.87.181.231,Mozilla/5.0 (Windows NT 10.0; Win64; x64; rv:88.0) Gecko/20100101 Firefox/88.0,,Firefox,88,Windows,10
219,1,null,"""",image-keyboard-response,221,436549,0.0-221.0,"""",jspsych/neutralFaces/BF13NES.JPG,"""",256,backwardMask,Test,null,100,"""","""","""","""","""","""","""","""",1,5/1/2021 19:58,76.87.181.231,Mozilla/5.0 (Windows NT 10.0; Win64; x64; rv:88.0) Gecko/20100101 Firefox/88.0,,Firefox,88,Windows,10
219,1,null,"""",html-keyboard-response,222,437558,0.0-222.0,"""","<div style=""font-size:60px;"">+</div>","""",256,fixationBtwnNeutralMaskAndPrompt,Test,null,1000,"""","""","""","""","""","""","""","""",1,5/1/2021 19:58,76.87.181.231,Mozilla/5.0 (Windows NT 10.0; Win64; x64; rv:88.0) Gecko/20100101 Firefox/88.0,,Firefox,88,Windows,10
219,1,1231,"""",html-button-response,223,438790,0.0-223.0,"""","<img src='jspsych/CFDfaces/CFD-AM-242-176-N.jpg' height=""250px"">,</br><b>Juan</b>",0,256,IntactOrRearranged,Test,"""","""","""","""",CFD-BM-029-024-N.jpg,Mark,0,0,"""","""",1,5/1/2021 19:58,76.87.181.231,Mozilla/5.0 (Windows NT 10.0; Win64; x64; rv:88.0) Gecko/20100101 Firefox/88.0,,Firefox,88,Windows,10
219,1,1905,"""",html-slider-response,224,440698,0.0-224.0,"""","<img src='jspsych/CFDfaces/CFD-AM-242-176-N.jpg' height=""250px"">,</br><b>Juan</b>","""",256,ConfidenceQuery,Test,"""","""","""","""",CFD-BM-029-024-N.jpg,Mark,0,"""",0,100,1,5/1/2021 19:58,76.87.181.231,Mozilla/5.0 (Windows NT 10.0; Win64; x64; rv:88.0) Gecko/20100101 Firefox/88.0,,Firefox,88,Windows,10
219,1,null,"""",html-keyboard-response,225,441705,0.0-225.0,"""","<div style=""font-size:60px;"">+</div>","""",256,ITI,Test,null,1000,"""","""","""","""","""","""","""","""",1,5/1/2021 19:58,76.87.181.231,Mozilla/5.0 (Windows NT 10.0; Win64; x64; rv:88.0) Gecko/20100101 Firefox/88.0,,Firefox,88,Windows,10
219,1,null,"""",image-keyboard-response,226,441963,0.0-226.0,"""",jspsych/scrambledDisgustFaces/scrambledAF27DIS.JPG,"""",256,forwardMask,Test,null,250,"""",d,"""","""","""","""","""","""",1,5/1/2021 19:58,76.87.181.231,Mozilla/5.0 (Windows NT 10.0; Win64; x64; rv:88.0) Gecko/20100101 Firefox/88.0,,Firefox,88,Windows,10
219,1,null,"""",image-keyboard-response,227,441996,0.0-227.0,"""",jspsych/disgustFaces/AF27DIS.JPG,"""",256,Cue,Test,null,16,"""","""","""","""","""","""","""","""",1,5/1/2021 19:58,76.87.181.231,Mozilla/5.0 (Windows NT 10.0; Win64; x64; rv:88.0) Gecko/20100101 Firefox/88.0,,Firefox,88,Windows,10
219,1,null,"""",image-keyboard-response,228,442107,0.0-228.0,"""",jspsych/neutralFaces/BF31NES.JPG,"""",256,backwardMask,Test,null,100,"""","""","""","""","""","""","""","""",1,5/1/2021 19:58,76.87.181.231,Mozilla/5.0 (Windows NT 10.0; Win64; x64; rv:88.0) Gecko/20100101 Firefox/88.0,,Firefox,88,Windows,10
219,1,null,"""",html-keyboard-response,229,443111,0.0-229.0,"""","<div style=""font-size:60px;"">+</div>","""",256,fixationBtwnNeutralMaskAndPrompt,Test,null,1000,"""","""","""","""","""","""","""","""",1,5/1/2021 19:58,76.87.181.231,Mozilla/5.0 (Windows NT 10.0; Win64; x64; rv:88.0) Gecko/20100101 Firefox/88.0,,Firefox,88,Windows,10
219,1,1545,"""",html-button-response,230,444660,0.0-230.0,"""","<img src='jspsych/CFDfaces/CFD-LF-220-120-N.jpg' height=""250px"">,</br><b>Ashley</b>",1,256,IntactOrRearranged,Test,"""","""","""","""",CFD-AF-214-139-N.jpg,Angela,1,1,"""","""",1,5/1/2021 19:58,76.87.181.231,Mozilla/5.0 (Windows NT 10.0; Win64; x64; rv:88.0) Gecko/20100101 Firefox/88.0,,Firefox,88,Windows,10
219,1,1313,"""",html-slider-response,231,445975,0.0-231.0,"""","<img src='jspsych/CFDfaces/CFD-LF-220-120-N.jpg' height=""250px"">,</br><b>Ashley</b>","""",256,ConfidenceQuery,Test,"""","""","""","""",CFD-AF-214-139-N.jpg,Angela,1,"""",0,100,1,5/1/2021 19:58,76.87.181.231,Mozilla/5.0 (Windows NT 10.0; Win64; x64; rv:88.0) Gecko/20100101 Firefox/88.0,,Firefox,88,Windows,10
219,1,null,"""",html-keyboard-response,232,446983,0.0-232.0,"""","<div style=""font-size:60px;"">+</div>","""",256,ITI,Test,null,1000,"""","""","""","""","""","""","""","""",1,5/1/2021 19:58,76.87.181.231,Mozilla/5.0 (Windows NT 10.0; Win64; x64; rv:88.0) Gecko/20100101 Firefox/88.0,,Firefox,88,Windows,10
219,1,null,"""",image-keyboard-response,233,447238,0.0-233.0,"""",jspsych/scrambledDisgustFaces/scrambledAF26DIS.JPG,"""",256,forwardMask,Test,null,250,"""",d,"""","""","""","""","""","""",1,5/1/2021 19:58,76.87.181.231,Mozilla/5.0 (Windows NT 10.0; Win64; x64; rv:88.0) Gecko/20100101 Firefox/88.0,,Firefox,88,Windows,10
219,1,null,"""",image-keyboard-response,234,447265,0.0-234.0,"""",jspsych/disgustFaces/AF26DIS.JPG,"""",256,Cue,Test,null,16,"""","""","""","""","""","""","""","""",1,5/1/2021 19:58,76.87.181.231,Mozilla/5.0 (Windows NT 10.0; Win64; x64; rv:88.0) Gecko/20100101 Firefox/88.0,,Firefox,88,Windows,10
219,1,null,"""",image-keyboard-response,235,447369,0.0-235.0,"""",jspsych/neutralFaces/BF23NES.JPG,"""",256,backwardMask,Test,null,100,"""","""","""","""","""","""","""","""",1,5/1/2021 19:58,76.87.181.231,Mozilla/5.0 (Windows NT 10.0; Win64; x64; rv:88.0) Gecko/20100101 Firefox/88.0,,Firefox,88,Windows,10
219,1,null,"""",html-keyboard-response,236,448373,0.0-236.0,"""","<div style=""font-size:60px;"">+</div>","""",256,fixationBtwnNeutralMaskAndPrompt,Test,null,1000,"""","""","""","""","""","""","""","""",1,5/1/2021 19:58,76.87.181.231,Mozilla/5.0 (Windows NT 10.0; Win64; x64; rv:88.0) Gecko/20100101 Firefox/88.0,,Firefox,88,Windows,10
219,1,3136,"""",html-button-response,237,451509,0.0-237.0,"""","<img src='jspsych/CFDfaces/CFD-BF-221-223-N.jpg' height=""250px"">,</br><b>Stephanie</b>",0,256,IntactOrRearranged,Test,"""","""","""","""",CFD-AF-200-228-N.jpg,Erin,0,0,"""","""",1,5/1/2021 19:58,76.87.181.231,Mozilla/5.0 (Windows NT 10.0; Win64; x64; rv:88.0) Gecko/20100101 Firefox/88.0,,Firefox,88,Windows,10
219,1,1334,"""",html-slider-response,238,452847,0.0-238.0,"""","<img src='jspsych/CFDfaces/CFD-BF-221-223-N.jpg' height=""250px"">,</br><b>Stephanie</b>","""",256,ConfidenceQuery,Test,"""","""","""","""",CFD-AF-200-228-N.jpg,Erin,0,"""",0,79,1,5/1/2021 19:58,76.87.181.231,Mozilla/5.0 (Windows NT 10.0; Win64; x64; rv:88.0) Gecko/20100101 Firefox/88.0,,Firefox,88,Windows,10
219,1,null,"""",html-keyboard-response,239,453851,0.0-239.0,"""","<div style=""font-size:60px;"">+</div>","""",256,ITI,Test,null,1000,"""","""","""","""","""","""","""","""",1,5/1/2021 19:58,76.87.181.231,Mozilla/5.0 (Windows NT 10.0; Win64; x64; rv:88.0) Gecko/20100101 Firefox/88.0,,Firefox,88,Windows,10
219,1,null,"""",image-keyboard-response,240,454118,0.0-240.0,"""",jspsych/scrambledDisgustFaces/scrambledAM07DIS.JPG,"""",256,forwardMask,Test,null,250,"""",d,"""","""","""","""","""","""",1,5/1/2021 19:58,76.87.181.231,Mozilla/5.0 (Windows NT 10.0; Win64; x64; rv:88.0) Gecko/20100101 Firefox/88.0,,Firefox,88,Windows,10
219,1,null,"""",image-keyboard-response,241,454150,0.0-241.0,"""",jspsych/disgustFaces/AM07DIS.JPG,"""",256,Cue,Test,null,16,"""","""","""","""","""","""","""","""",1,5/1/2021 19:58,76.87.181.231,Mozilla/5.0 (Windows NT 10.0; Win64; x64; rv:88.0) Gecko/20100101 Firefox/88.0,,Firefox,88,Windows,10
219,1,null,"""",image-keyboard-response,242,454256,0.0-242.0,"""",jspsych/neutralFaces/AM10NES.JPG,"""",256,backwardMask,Test,null,100,"""","""","""","""","""","""","""","""",1,5/1/2021 19:58,76.87.181.231,Mozilla/5.0 (Windows NT 10.0; Win64; x64; rv:88.0) Gecko/20100101 Firefox/88.0,,Firefox,88,Windows,10
219,1,null,"""",html-keyboard-response,243,455266,0.0-243.0,"""","<div style=""font-size:60px;"">+</div>","""",256,fixationBtwnNeutralMaskAndPrompt,Test,null,1000,"""","""","""","""","""","""","""","""",1,5/1/2021 19:58,76.87.181.231,Mozilla/5.0 (Windows NT 10.0; Win64; x64; rv:88.0) Gecko/20100101 Firefox/88.0,,Firefox,88,Windows,10
219,1,2861,"""",html-button-response,244,458127,0.0-244.0,"""","<img src='jspsych/CFDfaces/CFD-WF-024-003-N.jpg' height=""250px"">,</br><b>Emily</b>",1,256,IntactOrRearranged,Test,"""","""","""","""",CFD-AM-212-050-N.jpg,Steven,1,1,"""","""",1,5/1/2021 19:58,76.87.181.231,Mozilla/5.0 (Windows NT 10.0; Win64; x64; rv:88.0) Gecko/20100101 Firefox/88.0,,Firefox,88,Windows,10
219,1,1916,"""",html-slider-response,245,460044,0.0-245.0,"""","<img src='jspsych/CFDfaces/CFD-WF-024-003-N.jpg' height=""250px"">,</br><b>Emily</b>","""",256,ConfidenceQuery,Test,"""","""","""","""",CFD-AM-212-050-N.jpg,Steven,1,"""",0,100,1,5/1/2021 19:58,76.87.181.231,Mozilla/5.0 (Windows NT 10.0; Win64; x64; rv:88.0) Gecko/20100101 Firefox/88.0,,Firefox,88,Windows,10
219,1,null,"""",html-keyboard-response,246,461054,0.0-246.0,"""","<div style=""font-size:60px;"">+</div>","""",256,ITI,Test,null,1000,"""","""","""","""","""","""","""","""",1,5/1/2021 19:58,76.87.181.231,Mozilla/5.0 (Windows NT 10.0; Win64; x64; rv:88.0) Gecko/20100101 Firefox/88.0,,Firefox,88,Windows,10
219,1,null,"""",image-keyboard-response,247,461321,0.0-247.0,"""",jspsych/scrambledNeutralFaces/scrambledBM07NES.JPG,"""",256,forwardMask,Test,null,250,"""",n,"""","""","""","""","""","""",1,5/1/2021 19:58,76.87.181.231,Mozilla/5.0 (Windows NT 10.0; Win64; x64; rv:88.0) Gecko/20100101 Firefox/88.0,,Firefox,88,Windows,10
219,1,null,"""",image-keyboard-response,248,461353,0.0-248.0,"""",jspsych/neutralFaces/BM07NES.JPG,"""",256,Cue,Test,null,16,"""","""","""","""","""","""","""","""",1,5/1/2021 19:58,76.87.181.231,Mozilla/5.0 (Windows NT 10.0; Win64; x64; rv:88.0) Gecko/20100101 Firefox/88.0,,Firefox,88,Windows,10
219,1,null,"""",image-keyboard-response,249,461464,0.0-249.0,"""",jspsych/neutralFaces/AM27NES.JPG,"""",256,backwardMask,Test,null,100,"""","""","""","""","""","""","""","""",1,5/1/2021 19:58,76.87.181.231,Mozilla/5.0 (Windows NT 10.0; Win64; x64; rv:88.0) Gecko/20100101 Firefox/88.0,,Firefox,88,Windows,10
219,1,null,"""",html-keyboard-response,250,462474,0.0-250.0,"""","<div style=""font-size:60px;"">+</div>","""",256,fixationBtwnNeutralMaskAndPrompt,Test,null,1000,"""","""","""","""","""","""","""","""",1,5/1/2021 19:58,76.87.181.231,Mozilla/5.0 (Windows NT 10.0; Win64; x64; rv:88.0) Gecko/20100101 Firefox/88.0,,Firefox,88,Windows,10
219,1,1728,"""",html-button-response,251,464202,0.0-251.0,"""","<img src='jspsych/CFDfaces/CFD-WF-029-002-N.jpg' height=""250px"">,</br><b>Julie</b>",0,256,IntactOrRearranged,Test,"""","""","""","""",CFD-AF-208-003-N.jpg,Rebecca,0,0,"""","""",1,5/1/2021 19:58,76.87.181.231,Mozilla/5.0 (Windows NT 10.0; Win64; x64; rv:88.0) Gecko/20100101 Firefox/88.0,,Firefox,88,Windows,10
219,1,1057,"""",html-slider-response,252,465261,0.0-252.0,"""","<img src='jspsych/CFDfaces/CFD-WF-029-002-N.jpg' height=""250px"">,</br><b>Julie</b>","""",256,ConfidenceQuery,Test,"""","""","""","""",CFD-AF-208-003-N.jpg,Rebecca,0,"""",0,77,1,5/1/2021 19:58,76.87.181.231,Mozilla/5.0 (Windows NT 10.0; Win64; x64; rv:88.0) Gecko/20100101 Firefox/88.0,,Firefox,88,Windows,10
219,1,null,"""",html-keyboard-response,253,466273,0.0-253.0,"""","<div style=""font-size:60px;"">+</div>","""",256,ITI,Test,null,1000,"""","""","""","""","""","""","""","""",1,5/1/2021 19:58,76.87.181.231,Mozilla/5.0 (Windows NT 10.0; Win64; x64; rv:88.0) Gecko/20100101 Firefox/88.0,,Firefox,88,Windows,10
219,1,null,"""",image-keyboard-response,254,466526,0.0-254.0,"""",jspsych/scrambledNeutralFaces/scrambledBM13NES.JPG,"""",256,forwardMask,Test,null,250,"""",n,"""","""","""","""","""","""",1,5/1/2021 19:58,76.87.181.231,Mozilla/5.0 (Windows NT 10.0; Win64; x64; rv:88.0) Gecko/20100101 Firefox/88.0,,Firefox,88,Windows,10
219,1,null,"""",image-keyboard-response,255,466558,0.0-255.0,"""",jspsych/neutralFaces/BM13NES.JPG,"""",256,Cue,Test,null,16,"""","""","""","""","""","""","""","""",1,5/1/2021 19:58,76.87.181.231,Mozilla/5.0 (Windows NT 10.0; Win64; x64; rv:88.0) Gecko/20100101 Firefox/88.0,,Firefox,88,Windows,10
219,1,null,"""",image-keyboard-response,256,466667,0.0-256.0,"""",jspsych/neutralFaces/BM26NES.JPG,"""",256,backwardMask,Test,null,100,"""","""","""","""","""","""","""","""",1,5/1/2021 19:58,76.87.181.231,Mozilla/5.0 (Windows NT 10.0; Win64; x64; rv:88.0) Gecko/20100101 Firefox/88.0,,Firefox,88,Windows,10
219,1,null,"""",html-keyboard-response,257,467670,0.0-257.0,"""","<div style=""font-size:60px;"">+</div>","""",256,fixationBtwnNeutralMaskAndPrompt,Test,null,1000,"""","""","""","""","""","""","""","""",1,5/1/2021 19:58,76.87.181.231,Mozilla/5.0 (Windows NT 10.0; Win64; x64; rv:88.0) Gecko/20100101 Firefox/88.0,,Firefox,88,Windows,10
219,1,2606,"""",html-button-response,258,470280,0.0-258.0,"""","<img src='jspsych/CFDfaces/CFD-WM-207-048-N.jpg' height=""250px"">,</br><b>Robert</b>",0,256,IntactOrRearranged,Test,"""","""","""","""",CFD-BF-016-017-N.jpg,Amy,0,0,"""","""",1,5/1/2021 19:58,76.87.181.231,Mozilla/5.0 (Windows NT 10.0; Win64; x64; rv:88.0) Gecko/20100101 Firefox/88.0,,Firefox,88,Windows,10
219,1,1454,"""",html-slider-response,259,471735,0.0-259.0,"""","<img src='jspsych/CFDfaces/CFD-WM-207-048-N.jpg' height=""250px"">,</br><b>Robert</b>","""",256,ConfidenceQuery,Test,"""","""","""","""",CFD-BF-016-017-N.jpg,Amy,0,"""",0,52,1,5/1/2021 19:58,76.87.181.231,Mozilla/5.0 (Windows NT 10.0; Win64; x64; rv:88.0) Gecko/20100101 Firefox/88.0,,Firefox,88,Windows,10
219,1,null,"""",html-keyboard-response,260,472747,0.0-260.0,"""","<div style=""font-size:60px;"">+</div>","""",256,ITI,Test,null,1000,"""","""","""","""","""","""","""","""",1,5/1/2021 19:58,76.87.181.231,Mozilla/5.0 (Windows NT 10.0; Win64; x64; rv:88.0) Gecko/20100101 Firefox/88.0,,Firefox,88,Windows,10
219,1,null,"""",image-keyboard-response,261,473001,0.0-261.0,"""",jspsych/scrambledNeutralFaces/scrambledAF27NES.JPG,"""",256,forwardMask,Test,null,250,"""",n,"""","""","""","""","""","""",1,5/1/2021 19:58,76.87.181.231,Mozilla/5.0 (Windows NT 10.0; Win64; x64; rv:88.0) Gecko/20100101 Firefox/88.0,,Firefox,88,Windows,10
219,1,null,"""",image-keyboard-response,262,473020,0.0-262.0,"""",jspsych/neutralFaces/AF27NES.JPG,"""",256,Cue,Test,null,16,"""","""","""","""","""","""","""","""",1,5/1/2021 19:58,76.87.181.231,Mozilla/5.0 (Windows NT 10.0; Win64; x64; rv:88.0) Gecko/20100101 Firefox/88.0,,Firefox,88,Windows,10
219,1,null,"""",image-keyboard-response,263,473124,0.0-263.0,"""",jspsych/neutralFaces/BF28NES.JPG,"""",256,backwardMask,Test,null,100,"""","""","""","""","""","""","""","""",1,5/1/2021 19:58,76.87.181.231,Mozilla/5.0 (Windows NT 10.0; Win64; x64; rv:88.0) Gecko/20100101 Firefox/88.0,,Firefox,88,Windows,10
219,1,null,"""",html-keyboard-response,264,474125,0.0-264.0,"""","<div style=""font-size:60px;"">+</div>","""",256,fixationBtwnNeutralMaskAndPrompt,Test,null,1000,"""","""","""","""","""","""","""","""",1,5/1/2021 19:58,76.87.181.231,Mozilla/5.0 (Windows NT 10.0; Win64; x64; rv:88.0) Gecko/20100101 Firefox/88.0,,Firefox,88,Windows,10
219,1,1896,"""",html-button-response,265,476023,0.0-265.0,"""","<img src='jspsych/CFDfaces/CFD-WM-022-001-N.jpg' height=""250px"">,</br><b>Daniel</b>",1,256,IntactOrRearranged,Test,"""","""","""","""",CFD-LM-233-171-N.jpg,Sean,1,1,"""","""",1,5/1/2021 19:58,76.87.181.231,Mozilla/5.0 (Windows NT 10.0; Win64; x64; rv:88.0) Gecko/20100101 Firefox/88.0,,Firefox,88,Windows,10
219,1,1295,"""",html-slider-response,266,477325,0.0-266.0,"""","<img src='jspsych/CFDfaces/CFD-WM-022-001-N.jpg' height=""250px"">,</br><b>Daniel</b>","""",256,ConfidenceQuery,Test,"""","""","""","""",CFD-LM-233-171-N.jpg,Sean,1,"""",0,100,1,5/1/2021 19:58,76.87.181.231,Mozilla/5.0 (Windows NT 10.0; Win64; x64; rv:88.0) Gecko/20100101 Firefox/88.0,,Firefox,88,Windows,10
219,1,null,"""",html-keyboard-response,267,478337,0.0-267.0,"""","<div style=""font-size:60px;"">+</div>","""",256,ITI,Test,null,1000,"""","""","""","""","""","""","""","""",1,5/1/2021 19:58,76.87.181.231,Mozilla/5.0 (Windows NT 10.0; Win64; x64; rv:88.0) Gecko/20100101 Firefox/88.0,,Firefox,88,Windows,10
219,1,null,"""",image-keyboard-response,268,478612,0.0-268.0,"""",jspsych/scrambledDisgustFaces/scrambledAM14DIS.JPG,"""",256,forwardMask,Test,null,250,"""",d,"""","""","""","""","""","""",1,5/1/2021 19:58,76.87.181.231,Mozilla/5.0 (Windows NT 10.0; Win64; x64; rv:88.0) Gecko/20100101 Firefox/88.0,,Firefox,88,Windows,10
219,1,null,"""",image-keyboard-response,269,478635,0.0-269.0,"""",jspsych/disgustFaces/AM14DIS.JPG,"""",256,Cue,Test,null,16,"""","""","""","""","""","""","""","""",1,5/1/2021 19:58,76.87.181.231,Mozilla/5.0 (Windows NT 10.0; Win64; x64; rv:88.0) Gecko/20100101 Firefox/88.0,,Firefox,88,Windows,10
219,1,null,"""",image-keyboard-response,270,478744,0.0-270.0,"""",jspsych/neutralFaces/AM18NES.JPG,"""",256,backwardMask,Test,null,100,"""","""","""","""","""","""","""","""",1,5/1/2021 19:58,76.87.181.231,Mozilla/5.0 (Windows NT 10.0; Win64; x64; rv:88.0) Gecko/20100101 Firefox/88.0,,Firefox,88,Windows,10
219,1,null,"""",html-keyboard-response,271,479759,0.0-271.0,"""","<div style=""font-size:60px;"">+</div>","""",256,fixationBtwnNeutralMaskAndPrompt,Test,null,1000,"""","""","""","""","""","""","""","""",1,5/1/2021 19:58,76.87.181.231,Mozilla/5.0 (Windows NT 10.0; Win64; x64; rv:88.0) Gecko/20100101 Firefox/88.0,,Firefox,88,Windows,10
219,1,1169,"""",html-button-response,272,480927,0.0-272.0,"""","<img src='jspsych/CFDfaces/CFD-LM-246-087-N.jpg' height=""250px"">,</br><b>James</b>",1,256,IntactOrRearranged,Test,"""","""","""","""",CFD-LF-204-133-N.jpg,Laura,1,1,"""","""",1,5/1/2021 19:58,76.87.181.231,Mozilla/5.0 (Windows NT 10.0; Win64; x64; rv:88.0) Gecko/20100101 Firefox/88.0,,Firefox,88,Windows,10
219,1,1352,"""",html-slider-response,273,482280,0.0-273.0,"""","<img src='jspsych/CFDfaces/CFD-LM-246-087-N.jpg' height=""250px"">,</br><b>James</b>","""",256,ConfidenceQuery,Test,"""","""","""","""",CFD-LF-204-133-N.jpg,Laura,1,"""",0,100,1,5/1/2021 19:58,76.87.181.231,Mozilla/5.0 (Windows NT 10.0; Win64; x64; rv:88.0) Gecko/20100101 Firefox/88.0,,Firefox,88,Windows,10
219,1,null,"""",html-keyboard-response,274,483282,0.0-274.0,"""","<div style=""font-size:60px;"">+</div>","""",256,ITI,Test,null,1000,"""","""","""","""","""","""","""","""",1,5/1/2021 19:58,76.87.181.231,Mozilla/5.0 (Windows NT 10.0; Win64; x64; rv:88.0) Gecko/20100101 Firefox/88.0,,Firefox,88,Windows,10
219,1,null,"""",image-keyboard-response,275,483550,0.0-275.0,"""",jspsych/scrambledNeutralFaces/scrambledAM17NES.JPG,"""",256,forwardMask,Test,null,250,"""",n,"""","""","""","""","""","""",1,5/1/2021 19:58,76.87.181.231,Mozilla/5.0 (Windows NT 10.0; Win64; x64; rv:88.0) Gecko/20100101 Firefox/88.0,,Firefox,88,Windows,10
219,1,null,"""",image-keyboard-response,276,483572,0.0-276.0,"""",jspsych/neutralFaces/AM17NES.JPG,"""",256,Cue,Test,null,16,"""","""","""","""","""","""","""","""",1,5/1/2021 19:58,76.87.181.231,Mozilla/5.0 (Windows NT 10.0; Win64; x64; rv:88.0) Gecko/20100101 Firefox/88.0,,Firefox,88,Windows,10
219,1,null,"""",image-keyboard-response,277,483675,0.0-277.0,"""",jspsych/neutralFaces/BM26NES.JPG,"""",256,backwardMask,Test,null,100,"""","""","""","""","""","""","""","""",1,5/1/2021 19:58,76.87.181.231,Mozilla/5.0 (Windows NT 10.0; Win64; x64; rv:88.0) Gecko/20100101 Firefox/88.0,,Firefox,88,Windows,10
219,1,null,"""",html-keyboard-response,278,484685,0.0-278.0,"""","<div style=""font-size:60px;"">+</div>","""",256,fixationBtwnNeutralMaskAndPrompt,Test,null,1000,"""","""","""","""","""","""","""","""",1,5/1/2021 19:58,76.87.181.231,Mozilla/5.0 (Windows NT 10.0; Win64; x64; rv:88.0) Gecko/20100101 Firefox/88.0,,Firefox,88,Windows,10
219,1,2050,"""",html-button-response,279,486735,0.0-279.0,"""","<img src='jspsych/CFDfaces/CFD-LM-248-089-N.jpg' height=""250px"">,</br><b>Richard</b>",1,256,IntactOrRearranged,Test,"""","""","""","""",CFD-WM-215-041-N.jpg,Justin,1,1,"""","""",1,5/1/2021 19:58,76.87.181.231,Mozilla/5.0 (Windows NT 10.0; Win64; x64; rv:88.0) Gecko/20100101 Firefox/88.0,,Firefox,88,Windows,10
219,1,1508,"""",html-slider-response,280,488245,0.0-280.0,"""","<img src='jspsych/CFDfaces/CFD-LM-248-089-N.jpg' height=""250px"">,</br><b>Richard</b>","""",256,ConfidenceQuery,Test,"""","""","""","""",CFD-WM-215-041-N.jpg,Justin,1,"""",0,79,1,5/1/2021 19:58,76.87.181.231,Mozilla/5.0 (Windows NT 10.0; Win64; x64; rv:88.0) Gecko/20100101 Firefox/88.0,,Firefox,88,Windows,10
219,1,null,"""",html-keyboard-response,281,489245,0.0-281.0,"""","<div style=""font-size:60px;"">+</div>","""",256,ITI,Test,null,1000,"""","""","""","""","""","""","""","""",1,5/1/2021 19:58,76.87.181.231,Mozilla/5.0 (Windows NT 10.0; Win64; x64; rv:88.0) Gecko/20100101 Firefox/88.0,,Firefox,88,Windows,10
219,1,null,"""",image-keyboard-response,282,489511,0.0-282.0,"""",jspsych/scrambledNeutralFaces/scrambledBF28NES.JPG,"""",256,forwardMask,Test,null,250,"""",n,"""","""","""","""","""","""",1,5/1/2021 19:58,76.87.181.231,Mozilla/5.0 (Windows NT 10.0; Win64; x64; rv:88.0) Gecko/20100101 Firefox/88.0,,Firefox,88,Windows,10
219,1,null,"""",image-keyboard-response,283,489543,0.0-283.0,"""",jspsych/neutralFaces/BF28NES.JPG,"""",256,Cue,Test,null,16,"""","""","""","""","""","""","""","""",1,5/1/2021 19:58,76.87.181.231,Mozilla/5.0 (Windows NT 10.0; Win64; x64; rv:88.0) Gecko/20100101 Firefox/88.0,,Firefox,88,Windows,10
219,1,null,"""",image-keyboard-response,284,489648,0.0-284.0,"""",jspsych/neutralFaces/BF16NES.JPG,"""",256,backwardMask,Test,null,100,"""","""","""","""","""","""","""","""",1,5/1/2021 19:58,76.87.181.231,Mozilla/5.0 (Windows NT 10.0; Win64; x64; rv:88.0) Gecko/20100101 Firefox/88.0,,Firefox,88,Windows,10
219,1,null,"""",html-keyboard-response,285,490649,0.0-285.0,"""","<div style=""font-size:60px;"">+</div>","""",256,fixationBtwnNeutralMaskAndPrompt,Test,null,1000,"""","""","""","""","""","""","""","""",1,5/1/2021 19:58,76.87.181.231,Mozilla/5.0 (Windows NT 10.0; Win64; x64; rv:88.0) Gecko/20100101 Firefox/88.0,,Firefox,88,Windows,10
219,1,1645,"""",html-button-response,286,492300,0.0-286.0,"""","<img src='jspsych/CFDfaces/CFD-BM-039-029-N.jpg' height=""250px"">,</br><b>Brian</b>",0,256,IntactOrRearranged,Test,"""","""","""","""",CFD-WM-006-002-N.jpg,Luis,0,0,"""","""",1,5/1/2021 19:58,76.87.181.231,Mozilla/5.0 (Windows NT 10.0; Win64; x64; rv:88.0) Gecko/20100101 Firefox/88.0,,Firefox,88,Windows,10
219,1,976,"""",html-slider-response,287,493278,0.0-287.0,"""","<img src='jspsych/CFDfaces/CFD-BM-039-029-N.jpg' height=""250px"">,</br><b>Brian</b>","""",256,ConfidenceQuery,Test,"""","""","""","""",CFD-WM-006-002-N.jpg,Luis,0,"""",0,39,1,5/1/2021 19:58,76.87.181.231,Mozilla/5.0 (Windows NT 10.0; Win64; x64; rv:88.0) Gecko/20100101 Firefox/88.0,,Firefox,88,Windows,10
219,1,null,"""",html-keyboard-response,288,494293,0.0-288.0,"""","<div style=""font-size:60px;"">+</div>","""",256,ITI,Test,null,1000,"""","""","""","""","""","""","""","""",1,5/1/2021 19:58,76.87.181.231,Mozilla/5.0 (Windows NT 10.0; Win64; x64; rv:88.0) Gecko/20100101 Firefox/88.0,,Firefox,88,Windows,10
219,1,null,"""",image-keyboard-response,289,494559,0.0-289.0,"""",jspsych/scrambledDisgustFaces/scrambledBF16DIS.JPG,"""",256,forwardMask,Test,null,250,"""",d,"""","""","""","""","""","""",1,5/1/2021 19:58,76.87.181.231,Mozilla/5.0 (Windows NT 10.0; Win64; x64; rv:88.0) Gecko/20100101 Firefox/88.0,,Firefox,88,Windows,10
219,1,null,"""",image-keyboard-response,290,494591,0.0-290.0,"""",jspsych/disgustFaces/BF16DIS.JPG,"""",256,Cue,Test,null,16,"""","""","""","""","""","""","""","""",1,5/1/2021 19:58,76.87.181.231,Mozilla/5.0 (Windows NT 10.0; Win64; x64; rv:88.0) Gecko/20100101 Firefox/88.0,,Firefox,88,Windows,10
219,1,null,"""",image-keyboard-response,291,494701,0.0-291.0,"""",jspsych/neutralFaces/AF13NES.JPG,"""",256,backwardMask,Test,null,100,"""","""","""","""","""","""","""","""",1,5/1/2021 19:58,76.87.181.231,Mozilla/5.0 (Windows NT 10.0; Win64; x64; rv:88.0) Gecko/20100101 Firefox/88.0,,Firefox,88,Windows,10
219,1,null,"""",html-keyboard-response,292,495709,0.0-292.0,"""","<div style=""font-size:60px;"">+</div>","""",256,fixationBtwnNeutralMaskAndPrompt,Test,null,1000,"""","""","""","""","""","""","""","""",1,5/1/2021 19:58,76.87.181.231,Mozilla/5.0 (Windows NT 10.0; Win64; x64; rv:88.0) Gecko/20100101 Firefox/88.0,,Firefox,88,Windows,10
219,1,1281,"""",html-button-response,293,496992,0.0-293.0,"""","<img src='jspsych/CFDfaces/CFD-BF-008-001-N.jpg' height=""250px"">,</br><b>Michelle</b>",0,256,IntactOrRearranged,Test,"""","""","""","""",CFD-AF-237-223-N.jpg,Jordan,0,0,"""","""",1,5/1/2021 19:58,76.87.181.231,Mozilla/5.0 (Windows NT 10.0; Win64; x64; rv:88.0) Gecko/20100101 Firefox/88.0,,Firefox,88,Windows,10
219,1,1774,"""",html-slider-response,294,498768,0.0-294.0,"""","<img src='jspsych/CFDfaces/CFD-BF-008-001-N.jpg' height=""250px"">,</br><b>Michelle</b>","""",256,ConfidenceQuery,Test,"""","""","""","""",CFD-AF-237-223-N.jpg,Jordan,0,"""",0,60,1,5/1/2021 19:58,76.87.181.231,Mozilla/5.0 (Windows NT 10.0; Win64; x64; rv:88.0) Gecko/20100101 Firefox/88.0,,Firefox,88,Windows,10
219,1,null,"""",html-keyboard-response,295,499781,0.0-295.0,"""","<div style=""font-size:60px;"">+</div>","""",256,ITI,Test,null,1000,"""","""","""","""","""","""","""","""",1,5/1/2021 19:58,76.87.181.231,Mozilla/5.0 (Windows NT 10.0; Win64; x64; rv:88.0) Gecko/20100101 Firefox/88.0,,Firefox,88,Windows,10
219,1,null,"""",image-keyboard-response,296,500039,0.0-296.0,"""",jspsych/scrambledDisgustFaces/scrambledBM32DIS.JPG,"""",256,forwardMask,Test,null,250,"""",d,"""","""","""","""","""","""",1,5/1/2021 19:58,76.87.181.231,Mozilla/5.0 (Windows NT 10.0; Win64; x64; rv:88.0) Gecko/20100101 Firefox/88.0,,Firefox,88,Windows,10
