run_id,condition,rt,responses,trial_type,trial_index,time_elapsed,internal_node_id,question_order,stimulus,button_pressed,iTrial,Phase,ExperimentPhase,key_press,StimulusDurationSetting,CharacterResponse,correctResponse,Face,Name,rearranged,didSubjectEnterRearranged,slider_start,response,Block,recorded_at,ip,user_agent,device,browser,browser_version,platform,platform_version
85,1,1683701,"{""Q0"":""A1Q0TDPZW53SSJ""}",survey-text,0,1683684,0.0-0.0,"""","""","""","""","""","""","""","""","""","""","""","""","""","""","""","""","""",4/21/2021 11:29,93.40.224.54,Mozilla/5.0 (Windows NT 10.0; Win64; x64; rv:88.0) Gecko/20100101 Firefox/88.0,,Firefox,88,Windows,10
85,1,2560,"{""Q0"":""26""}",survey-text,1,1686248,0.0-1.0,"""","""","""","""","""","""","""","""","""","""","""","""","""","""","""","""","""",4/21/2021 11:29,93.40.224.54,Mozilla/5.0 (Windows NT 10.0; Win64; x64; rv:88.0) Gecko/20100101 Firefox/88.0,,Firefox,88,Windows,10
85,1,10226,"{""Q0"":""male"",""Q1"":""Not Hispanic/Latino"",""Q2"":""White or Caucasian""}",survey-multi-choice,2,1696475,0.0-2.0,"[0,1,2]","""","""","""","""","""","""","""","""","""","""","""","""","""","""","""","""",4/21/2021 11:29,93.40.224.54,Mozilla/5.0 (Windows NT 10.0; Win64; x64; rv:88.0) Gecko/20100101 Firefox/88.0,,Firefox,88,Windows,10
85,1,25392,"""",image-button-response,3,1721877,0.0-3.0,"""",directionsMemoryAssociation1.JPG,0,1,IntroDirections1,break,"""","""","""","""","""","""","""","""","""","""","""",4/21/2021 11:29,93.40.224.54,Mozilla/5.0 (Windows NT 10.0; Win64; x64; rv:88.0) Gecko/20100101 Firefox/88.0,,Firefox,88,Windows,10
85,1,33663,"""",image-button-response,4,1755545,0.0-4.0,"""",directionsMemoryAssociation2.JPG,0,1,IntroDirections2,break,"""","""","""","""","""","""","""","""","""","""","""",4/21/2021 11:29,93.40.224.54,Mozilla/5.0 (Windows NT 10.0; Win64; x64; rv:88.0) Gecko/20100101 Firefox/88.0,,Firefox,88,Windows,10
85,1,null,"""",html-keyboard-response,5,1760556,0.0-5.0,"""","<img src='jspsych/CFDfaces/CFD-AF-215-70-N.jpg' height=""250px"">,</br><b>Katelyn</b>","""",1,IntactFace,Practice,null,5000,"""","""","""","""","""","""","""","""","""",4/21/2021 11:29,93.40.224.54,Mozilla/5.0 (Windows NT 10.0; Win64; x64; rv:88.0) Gecko/20100101 Firefox/88.0,,Firefox,88,Windows,10
85,1,null,"""",html-keyboard-response,6,1761069,0.0-6.0,"""","<div style=""font-size:60px;"">+</div>","""",1,ITI,Practice,null,1000,"""","""","""","""","""","""","""","""","""",4/21/2021 11:29,93.40.224.54,Mozilla/5.0 (Windows NT 10.0; Win64; x64; rv:88.0) Gecko/20100101 Firefox/88.0,,Firefox,88,Windows,10
85,1,2663,"""",html-keyboard-response,7,1766078,0.0-7.0,"""","<img src='jspsych/CFDfaces/CFD-AF-200-228-N.jpg' height=""250px"">,</br><b>Cassandra</b>","""",2,IntactFace,Practice,78,5000,n,"""","""","""","""","""","""","""","""",4/21/2021 11:29,93.40.224.54,Mozilla/5.0 (Windows NT 10.0; Win64; x64; rv:88.0) Gecko/20100101 Firefox/88.0,,Firefox,88,Windows,10
85,1,null,"""",html-keyboard-response,8,1766590,0.0-8.0,"""","<div style=""font-size:60px;"">+</div>","""",2,ITI,Practice,null,1000,"""","""","""","""","""","""","""","""","""",4/21/2021 11:29,93.40.224.54,Mozilla/5.0 (Windows NT 10.0; Win64; x64; rv:88.0) Gecko/20100101 Firefox/88.0,,Firefox,88,Windows,10
85,1,3218,"""",html-keyboard-response,9,1771596,0.0-9.0,"""","<img src='jspsych/CFDfaces/CFD-BM-207-024-N.jpg' height=""250px"">,</br><b>Marcus</b>","""",3,IntactFace,Practice,70,5000,f,"""","""","""","""","""","""","""","""",4/21/2021 11:29,93.40.224.54,Mozilla/5.0 (Windows NT 10.0; Win64; x64; rv:88.0) Gecko/20100101 Firefox/88.0,,Firefox,88,Windows,10
85,1,null,"""",html-keyboard-response,10,1772111,0.0-10.0,"""","<div style=""font-size:60px;"">+</div>","""",3,ITI,Practice,null,1000,"""","""","""","""","""","""","""","""","""",4/21/2021 11:29,93.40.224.54,Mozilla/5.0 (Windows NT 10.0; Win64; x64; rv:88.0) Gecko/20100101 Firefox/88.0,,Firefox,88,Windows,10
85,1,3561,"""",html-keyboard-response,11,1777121,0.0-11.0,"""","<img src='jspsych/CFDfaces/CFD-AF-203-077-N.jpg' height=""250px"">,</br><b>Shannon</b>","""",4,IntactFace,Practice,78,5000,n,"""","""","""","""","""","""","""","""",4/21/2021 11:29,93.40.224.54,Mozilla/5.0 (Windows NT 10.0; Win64; x64; rv:88.0) Gecko/20100101 Firefox/88.0,,Firefox,88,Windows,10
85,1,null,"""",html-keyboard-response,12,1777637,0.0-12.0,"""","<div style=""font-size:60px;"">+</div>","""",4,ITI,Practice,null,1000,"""","""","""","""","""","""","""","""","""",4/21/2021 11:29,93.40.224.54,Mozilla/5.0 (Windows NT 10.0; Win64; x64; rv:88.0) Gecko/20100101 Firefox/88.0,,Firefox,88,Windows,10
85,1,2713,"""",html-keyboard-response,13,1782653,0.0-13.0,"""","<img src='jspsych/CFDfaces/CFD-BM-032-024-N.jpg' height=""250px"">,</br><b>Samuel</b>","""",5,IntactFace,Practice,70,5000,f,"""","""","""","""","""","""","""","""",4/21/2021 11:29,93.40.224.54,Mozilla/5.0 (Windows NT 10.0; Win64; x64; rv:88.0) Gecko/20100101 Firefox/88.0,,Firefox,88,Windows,10
85,1,null,"""",html-keyboard-response,14,1783167,0.0-14.0,"""","<div style=""font-size:60px;"">+</div>","""",5,ITI,Practice,null,1000,"""","""","""","""","""","""","""","""","""",4/21/2021 11:29,93.40.224.54,Mozilla/5.0 (Windows NT 10.0; Win64; x64; rv:88.0) Gecko/20100101 Firefox/88.0,,Firefox,88,Windows,10
85,1,3013,"""",html-keyboard-response,15,1788173,0.0-15.0,"""","<img src='jspsych/CFDfaces/CFD-AF-228-173-N.jpg' height=""250px"">,</br><b>Tara</b>","""",6,IntactFace,Practice,70,5000,f,"""","""","""","""","""","""","""","""",4/21/2021 11:29,93.40.224.54,Mozilla/5.0 (Windows NT 10.0; Win64; x64; rv:88.0) Gecko/20100101 Firefox/88.0,,Firefox,88,Windows,10
85,1,null,"""",html-keyboard-response,16,1788685,0.0-16.0,"""","<div style=""font-size:60px;"">+</div>","""",6,ITI,Practice,null,1000,"""","""","""","""","""","""","""","""","""",4/21/2021 11:29,93.40.224.54,Mozilla/5.0 (Windows NT 10.0; Win64; x64; rv:88.0) Gecko/20100101 Firefox/88.0,,Firefox,88,Windows,10
85,1,2856,"""",html-keyboard-response,17,1793692,0.0-17.0,"""","<img src='jspsych/CFDfaces/CFD-BM-002-013-N.jpg' height=""250px"">,</br><b>Carlos</b>","""",7,IntactFace,Practice,78,5000,n,"""","""","""","""","""","""","""","""",4/21/2021 11:29,93.40.224.54,Mozilla/5.0 (Windows NT 10.0; Win64; x64; rv:88.0) Gecko/20100101 Firefox/88.0,,Firefox,88,Windows,10
85,1,null,"""",html-keyboard-response,18,1794205,0.0-18.0,"""","<div style=""font-size:60px;"">+</div>","""",7,ITI,Practice,null,1000,"""","""","""","""","""","""","""","""","""",4/21/2021 11:29,93.40.224.54,Mozilla/5.0 (Windows NT 10.0; Win64; x64; rv:88.0) Gecko/20100101 Firefox/88.0,,Firefox,88,Windows,10
85,1,1166,"""",html-keyboard-response,19,1799214,0.0-19.0,"""","<img src='jspsych/CFDfaces/CFD-WM-003-002-N.jpg' height=""250px"">,</br><b>Patrick</b>","""",8,IntactFace,Practice,70,5000,f,"""","""","""","""","""","""","""","""",4/21/2021 11:29,93.40.224.54,Mozilla/5.0 (Windows NT 10.0; Win64; x64; rv:88.0) Gecko/20100101 Firefox/88.0,,Firefox,88,Windows,10
85,1,null,"""",html-keyboard-response,20,1799729,0.0-20.0,"""","<div style=""font-size:60px;"">+</div>","""",8,ITI,Practice,null,1000,"""","""","""","""","""","""","""","""","""",4/21/2021 11:29,93.40.224.54,Mozilla/5.0 (Windows NT 10.0; Win64; x64; rv:88.0) Gecko/20100101 Firefox/88.0,,Firefox,88,Windows,10
85,1,5427,"""",image-button-response,21,1805172,0.0-21.0,"""",directionsForTest.JPG,0,1,directionsForTest,break,"""","""","""","""","""","""","""","""","""","""","""",4/21/2021 11:29,93.40.224.54,Mozilla/5.0 (Windows NT 10.0; Win64; x64; rv:88.0) Gecko/20100101 Firefox/88.0,,Firefox,88,Windows,10
85,1,10635,"""",image-button-response,22,1815814,0.0-22.0,"""",directionsForTest2.JPG,0,1,directionsForTest2,break,"""","""","""","""","""","""","""","""","""","""","""",4/21/2021 11:29,93.40.224.54,Mozilla/5.0 (Windows NT 10.0; Win64; x64; rv:88.0) Gecko/20100101 Firefox/88.0,,Firefox,88,Windows,10
85,1,null,"""",html-keyboard-response,23,1816817,0.0-23.0,"""","<div style=""font-size:60px;"">+</div>","""",1,ITI,Practice,null,1000,"""","""","""","""","""","""","""","""","""",4/21/2021 11:29,93.40.224.54,Mozilla/5.0 (Windows NT 10.0; Win64; x64; rv:88.0) Gecko/20100101 Firefox/88.0,,Firefox,88,Windows,10
85,1,null,"""",image-keyboard-response,24,1817070,0.0-24.0,"""",jspsych/scrambledNeutralFaces/scrambledAM30NES.JPG,"""",1,forwardMask,Practice,null,250,"""",n,"""","""","""","""","""","""","""",4/21/2021 11:29,93.40.224.54,Mozilla/5.0 (Windows NT 10.0; Win64; x64; rv:88.0) Gecko/20100101 Firefox/88.0,,Firefox,88,Windows,10
85,1,null,"""",image-keyboard-response,25,1817101,0.0-25.0,"""",jspsych/neutralFaces/AM30NES.JPG,"""",1,Cue,Practice,null,16,"""","""","""","""","""","""","""","""","""",4/21/2021 11:29,93.40.224.54,Mozilla/5.0 (Windows NT 10.0; Win64; x64; rv:88.0) Gecko/20100101 Firefox/88.0,,Firefox,88,Windows,10
85,1,null,"""",image-keyboard-response,26,1817210,0.0-26.0,"""",jspsych/neutralFaces/AM04NES.JPG,"""",1,backwardMask,Practice,null,100,"""","""","""","""","""","""","""","""","""",4/21/2021 11:29,93.40.224.54,Mozilla/5.0 (Windows NT 10.0; Win64; x64; rv:88.0) Gecko/20100101 Firefox/88.0,,Firefox,88,Windows,10
85,1,null,"""",html-keyboard-response,27,1818219,0.0-27.0,"""","<div style=""font-size:60px;"">+</div>","""",1,fixationBtwnNeutralMaskAndPrompt,Practice,null,1000,"""","""","""","""","""","""","""","""","""",4/21/2021 11:29,93.40.224.54,Mozilla/5.0 (Windows NT 10.0; Win64; x64; rv:88.0) Gecko/20100101 Firefox/88.0,,Firefox,88,Windows,10
85,1,2667,"""",html-button-response,28,1820888,0.0-28.0,"""","<img src='jspsych/CFDfaces/CFD-BM-207-024-N.jpg'height=""250px""></br><b>Carlos</b>",0,1,IntactOrRearranged,Practice,"""","""","""","""",CFD-BM-207-024-N.jpg,Carlos,1,0,"""","""","""",4/21/2021 11:29,93.40.224.54,Mozilla/5.0 (Windows NT 10.0; Win64; x64; rv:88.0) Gecko/20100101 Firefox/88.0,,Firefox,88,Windows,10
85,1,2281,"""",html-slider-response,29,1823172,0.0-29.0,"""","<img src='jspsych/CFDfaces/CFD-BM-207-024-N.jpg'height=""250px""></br><b>Carlos</b>","""",1,ConfidenceQuery,Practice,"""","""","""","""",CFD-LM-239-075-N.jpg,Dustin,1,"""",0,100,"""",4/21/2021 11:29,93.40.224.54,Mozilla/5.0 (Windows NT 10.0; Win64; x64; rv:88.0) Gecko/20100101 Firefox/88.0,,Firefox,88,Windows,10
85,1,3892,"""",html-button-response,30,1827065,0.0-30.0,"""",You are Incorrect. You called a Rearranged Pair Intact,0,1,feedback,Practice,"""","""","""","""","""","""","""","""","""","""","""",4/21/2021 11:29,93.40.224.54,Mozilla/5.0 (Windows NT 10.0; Win64; x64; rv:88.0) Gecko/20100101 Firefox/88.0,,Firefox,88,Windows,10
85,1,null,"""",html-keyboard-response,31,1828071,0.0-31.0,"""","<div style=""font-size:60px;"">+</div>","""",2,ITI,Practice,null,1000,"""","""","""","""","""","""","""","""","""",4/21/2021 11:29,93.40.224.54,Mozilla/5.0 (Windows NT 10.0; Win64; x64; rv:88.0) Gecko/20100101 Firefox/88.0,,Firefox,88,Windows,10
85,1,null,"""",image-keyboard-response,32,1828334,0.0-32.0,"""",jspsych/scrambledNeutralFaces/scrambledAF12NES.JPG,"""",2,forwardMask,Practice,null,250,"""",n,"""","""","""","""","""","""","""",4/21/2021 11:29,93.40.224.54,Mozilla/5.0 (Windows NT 10.0; Win64; x64; rv:88.0) Gecko/20100101 Firefox/88.0,,Firefox,88,Windows,10
85,1,null,"""",image-keyboard-response,33,1828365,0.0-33.0,"""",jspsych/neutralFaces/AF12NES.JPG,"""",2,Cue,Practice,null,16,"""","""","""","""","""","""","""","""","""",4/21/2021 11:29,93.40.224.54,Mozilla/5.0 (Windows NT 10.0; Win64; x64; rv:88.0) Gecko/20100101 Firefox/88.0,,Firefox,88,Windows,10
85,1,null,"""",image-keyboard-response,34,1828474,0.0-34.0,"""",jspsych/neutralFaces/BF23NES.JPG,"""",2,backwardMask,Practice,null,100,"""","""","""","""","""","""","""","""","""",4/21/2021 11:29,93.40.224.54,Mozilla/5.0 (Windows NT 10.0; Win64; x64; rv:88.0) Gecko/20100101 Firefox/88.0,,Firefox,88,Windows,10
85,1,null,"""",html-keyboard-response,35,1829486,0.0-35.0,"""","<div style=""font-size:60px;"">+</div>","""",2,fixationBtwnNeutralMaskAndPrompt,Practice,null,1000,"""","""","""","""","""","""","""","""","""",4/21/2021 11:29,93.40.224.54,Mozilla/5.0 (Windows NT 10.0; Win64; x64; rv:88.0) Gecko/20100101 Firefox/88.0,,Firefox,88,Windows,10
85,1,2527,"""",html-button-response,36,1832015,0.0-36.0,"""","<img src='jspsych/CFDfaces/CFD-BM-032-024-N.jpg'height=""250px""></br><b>Samuel</b>",0,2,IntactOrRearranged,Practice,"""","""","""","""",CFD-BM-032-024-N.jpg,Samuel,0,0,"""","""","""",4/21/2021 11:29,93.40.224.54,Mozilla/5.0 (Windows NT 10.0; Win64; x64; rv:88.0) Gecko/20100101 Firefox/88.0,,Firefox,88,Windows,10
85,1,2677,"""",html-slider-response,37,1834693,0.0-37.0,"""","<img src='jspsych/CFDfaces/CFD-BM-032-024-N.jpg'height=""250px""></br><b>Samuel</b>","""",2,ConfidenceQuery,Practice,"""","""","""","""",CFD-LM-239-075-N.jpg,Dustin,0,"""",0,57,"""",4/21/2021 11:29,93.40.224.54,Mozilla/5.0 (Windows NT 10.0; Win64; x64; rv:88.0) Gecko/20100101 Firefox/88.0,,Firefox,88,Windows,10
85,1,1212,"""",html-button-response,38,1835907,0.0-38.0,"""",You are Correct. You called an Intact Pair Intact,0,2,feedback,Practice,"""","""","""","""","""","""","""","""","""","""","""",4/21/2021 11:29,93.40.224.54,Mozilla/5.0 (Windows NT 10.0; Win64; x64; rv:88.0) Gecko/20100101 Firefox/88.0,,Firefox,88,Windows,10
85,1,null,"""",html-keyboard-response,39,1836913,0.0-39.0,"""","<div style=""font-size:60px;"">+</div>","""",3,ITI,Practice,null,1000,"""","""","""","""","""","""","""","""","""",4/21/2021 11:29,93.40.224.54,Mozilla/5.0 (Windows NT 10.0; Win64; x64; rv:88.0) Gecko/20100101 Firefox/88.0,,Firefox,88,Windows,10
85,1,null,"""",image-keyboard-response,40,1837176,0.0-40.0,"""",jspsych/scrambledDisgustFaces/scrambledAF23DIS.JPG,"""",3,forwardMask,Practice,null,250,"""",d,"""","""","""","""","""","""","""",4/21/2021 11:29,93.40.224.54,Mozilla/5.0 (Windows NT 10.0; Win64; x64; rv:88.0) Gecko/20100101 Firefox/88.0,,Firefox,88,Windows,10
85,1,null,"""",image-keyboard-response,41,1837207,0.0-41.0,"""",jspsych/disgustFaces/AF23DIS.JPG,"""",3,Cue,Practice,null,16,"""","""","""","""","""","""","""","""","""",4/21/2021 11:29,93.40.224.54,Mozilla/5.0 (Windows NT 10.0; Win64; x64; rv:88.0) Gecko/20100101 Firefox/88.0,,Firefox,88,Windows,10
85,1,null,"""",image-keyboard-response,42,1837317,0.0-42.0,"""",jspsych/neutralFaces/AF34NES.JPG,"""",3,backwardMask,Practice,null,100,"""","""","""","""","""","""","""","""","""",4/21/2021 11:29,93.40.224.54,Mozilla/5.0 (Windows NT 10.0; Win64; x64; rv:88.0) Gecko/20100101 Firefox/88.0,,Firefox,88,Windows,10
85,1,null,"""",html-keyboard-response,43,1838331,0.0-43.0,"""","<div style=""font-size:60px;"">+</div>","""",3,fixationBtwnNeutralMaskAndPrompt,Practice,null,1000,"""","""","""","""","""","""","""","""","""",4/21/2021 11:29,93.40.224.54,Mozilla/5.0 (Windows NT 10.0; Win64; x64; rv:88.0) Gecko/20100101 Firefox/88.0,,Firefox,88,Windows,10
85,1,null,"""",html-button-response,44,1843345,0.0-44.0,"""","<img src='jspsych/CFDfaces/CFD-AF-200-228-N.jpg'height=""250px""></br><b>Katelyn</b>",null,3,IntactOrRearranged,Practice,"""","""","""","""",CFD-AF-200-228-N.jpg,Katelyn,1,"""","""","""","""",4/21/2021 11:29,93.40.224.54,Mozilla/5.0 (Windows NT 10.0; Win64; x64; rv:88.0) Gecko/20100101 Firefox/88.0,,Firefox,88,Windows,10
85,1,2449,"""",html-slider-response,45,1845795,0.0-45.0,"""","<img src='jspsych/CFDfaces/CFD-AF-200-228-N.jpg'height=""250px""></br><b>Katelyn</b>","""",3,ConfidenceQuery,Practice,"""","""","""","""",CFD-LM-239-075-N.jpg,Dustin,1,"""",0,19,"""",4/21/2021 11:29,93.40.224.54,Mozilla/5.0 (Windows NT 10.0; Win64; x64; rv:88.0) Gecko/20100101 Firefox/88.0,,Firefox,88,Windows,10
85,1,1564,"""",html-button-response,46,1847359,0.0-46.0,"""",<p>Please click either button: REARRANGED or INTACT before the 5-second time limit.</p>,0,3,feedback,Practice,"""","""","""","""","""","""","""","""","""","""","""",4/21/2021 11:29,93.40.224.54,Mozilla/5.0 (Windows NT 10.0; Win64; x64; rv:88.0) Gecko/20100101 Firefox/88.0,,Firefox,88,Windows,10
85,1,null,"""",html-keyboard-response,47,1848375,0.0-47.0,"""","<div style=""font-size:60px;"">+</div>","""",4,ITI,Practice,null,1000,"""","""","""","""","""","""","""","""","""",4/21/2021 11:29,93.40.224.54,Mozilla/5.0 (Windows NT 10.0; Win64; x64; rv:88.0) Gecko/20100101 Firefox/88.0,,Firefox,88,Windows,10
85,1,null,"""",image-keyboard-response,48,1848640,0.0-48.0,"""",jspsych/scrambledNeutralFaces/scrambledBF21NES.JPG,"""",4,forwardMask,Practice,null,250,"""",n,"""","""","""","""","""","""","""",4/21/2021 11:29,93.40.224.54,Mozilla/5.0 (Windows NT 10.0; Win64; x64; rv:88.0) Gecko/20100101 Firefox/88.0,,Firefox,88,Windows,10
85,1,null,"""",image-keyboard-response,49,1848670,0.0-49.0,"""",jspsych/neutralFaces/BF21NES.JPG,"""",4,Cue,Practice,null,16,"""","""","""","""","""","""","""","""","""",4/21/2021 11:29,93.40.224.54,Mozilla/5.0 (Windows NT 10.0; Win64; x64; rv:88.0) Gecko/20100101 Firefox/88.0,,Firefox,88,Windows,10
85,1,null,"""",image-keyboard-response,50,1848779,0.0-50.0,"""",jspsych/neutralFaces/BF29NES.JPG,"""",4,backwardMask,Practice,null,100,"""","""","""","""","""","""","""","""","""",4/21/2021 11:29,93.40.224.54,Mozilla/5.0 (Windows NT 10.0; Win64; x64; rv:88.0) Gecko/20100101 Firefox/88.0,,Firefox,88,Windows,10
85,1,null,"""",html-keyboard-response,51,1849794,0.0-51.0,"""","<div style=""font-size:60px;"">+</div>","""",4,fixationBtwnNeutralMaskAndPrompt,Practice,null,1000,"""","""","""","""","""","""","""","""","""",4/21/2021 11:29,93.40.224.54,Mozilla/5.0 (Windows NT 10.0; Win64; x64; rv:88.0) Gecko/20100101 Firefox/88.0,,Firefox,88,Windows,10
85,1,1996,"""",html-button-response,52,1851792,0.0-52.0,"""","<img src='jspsych/CFDfaces/CFD-AF-215-70-N.jpg'height=""250px""></br><b>Cassandra</b>",1,4,IntactOrRearranged,Practice,"""","""","""","""",CFD-AF-215-70-N.jpg,Cassandra,1,1,"""","""","""",4/21/2021 11:29,93.40.224.54,Mozilla/5.0 (Windows NT 10.0; Win64; x64; rv:88.0) Gecko/20100101 Firefox/88.0,,Firefox,88,Windows,10
85,1,2033,"""",html-slider-response,53,1853828,0.0-53.0,"""","<img src='jspsych/CFDfaces/CFD-AF-215-70-N.jpg'height=""250px""></br><b>Cassandra</b>","""",4,ConfidenceQuery,Practice,"""","""","""","""",CFD-LM-239-075-N.jpg,Dustin,1,"""",0,53,"""",4/21/2021 11:29,93.40.224.54,Mozilla/5.0 (Windows NT 10.0; Win64; x64; rv:88.0) Gecko/20100101 Firefox/88.0,,Firefox,88,Windows,10
85,1,1272,"""",html-button-response,54,1855099,0.0-54.0,"""",You are Correct. You Called A Rearranged Pair Rearranged,0,4,feedback,Practice,"""","""","""","""","""","""","""","""","""","""","""",4/21/2021 11:29,93.40.224.54,Mozilla/5.0 (Windows NT 10.0; Win64; x64; rv:88.0) Gecko/20100101 Firefox/88.0,,Firefox,88,Windows,10
85,1,null,"""",html-keyboard-response,55,1856110,0.0-55.0,"""","<div style=""font-size:60px;"">+</div>","""",5,ITI,Practice,null,1000,"""","""","""","""","""","""","""","""","""",4/21/2021 11:29,93.40.224.54,Mozilla/5.0 (Windows NT 10.0; Win64; x64; rv:88.0) Gecko/20100101 Firefox/88.0,,Firefox,88,Windows,10
85,1,null,"""",image-keyboard-response,56,1856373,0.0-56.0,"""",jspsych/scrambledNeutralFaces/scrambledAM09NES.JPG,"""",5,forwardMask,Practice,null,250,"""",n,"""","""","""","""","""","""","""",4/21/2021 11:29,93.40.224.54,Mozilla/5.0 (Windows NT 10.0; Win64; x64; rv:88.0) Gecko/20100101 Firefox/88.0,,Firefox,88,Windows,10
85,1,null,"""",image-keyboard-response,57,1856405,0.0-57.0,"""",jspsych/neutralFaces/AM09NES.JPG,"""",5,Cue,Practice,null,16,"""","""","""","""","""","""","""","""","""",4/21/2021 11:29,93.40.224.54,Mozilla/5.0 (Windows NT 10.0; Win64; x64; rv:88.0) Gecko/20100101 Firefox/88.0,,Firefox,88,Windows,10
85,1,null,"""",image-keyboard-response,58,1856515,0.0-58.0,"""",jspsych/neutralFaces/AM11NES.JPG,"""",5,backwardMask,Practice,null,100,"""","""","""","""","""","""","""","""","""",4/21/2021 11:29,93.40.224.54,Mozilla/5.0 (Windows NT 10.0; Win64; x64; rv:88.0) Gecko/20100101 Firefox/88.0,,Firefox,88,Windows,10
85,1,null,"""",html-keyboard-response,59,1857520,0.0-59.0,"""","<div style=""font-size:60px;"">+</div>","""",5,fixationBtwnNeutralMaskAndPrompt,Practice,null,1000,"""","""","""","""","""","""","""","""","""",4/21/2021 11:29,93.40.224.54,Mozilla/5.0 (Windows NT 10.0; Win64; x64; rv:88.0) Gecko/20100101 Firefox/88.0,,Firefox,88,Windows,10
85,1,2089,"""",html-button-response,60,1859611,0.0-60.0,"""","<img src='jspsych/CFDfaces/CFD-AF-228-173-N.jpg'height=""250px""></br><b>Tara</b>",0,5,IntactOrRearranged,Practice,"""","""","""","""",CFD-AF-228-173-N.jpg,Tara,0,0,"""","""","""",4/21/2021 11:29,93.40.224.54,Mozilla/5.0 (Windows NT 10.0; Win64; x64; rv:88.0) Gecko/20100101 Firefox/88.0,,Firefox,88,Windows,10
85,1,1809,"""",html-slider-response,61,1861421,0.0-61.0,"""","<img src='jspsych/CFDfaces/CFD-AF-228-173-N.jpg'height=""250px""></br><b>Tara</b>","""",5,ConfidenceQuery,Practice,"""","""","""","""",CFD-LM-239-075-N.jpg,Dustin,0,"""",0,67,"""",4/21/2021 11:29,93.40.224.54,Mozilla/5.0 (Windows NT 10.0; Win64; x64; rv:88.0) Gecko/20100101 Firefox/88.0,,Firefox,88,Windows,10
85,1,1474,"""",html-button-response,62,1862896,0.0-62.0,"""",You are Correct. You called an Intact Pair Intact,0,5,feedback,Practice,"""","""","""","""","""","""","""","""","""","""","""",4/21/2021 11:29,93.40.224.54,Mozilla/5.0 (Windows NT 10.0; Win64; x64; rv:88.0) Gecko/20100101 Firefox/88.0,,Firefox,88,Windows,10
85,1,null,"""",html-keyboard-response,63,1863902,0.0-63.0,"""","<div style=""font-size:60px;"">+</div>","""",6,ITI,Practice,null,1000,"""","""","""","""","""","""","""","""","""",4/21/2021 11:29,93.40.224.54,Mozilla/5.0 (Windows NT 10.0; Win64; x64; rv:88.0) Gecko/20100101 Firefox/88.0,,Firefox,88,Windows,10
85,1,null,"""",image-keyboard-response,64,1864165,0.0-64.0,"""",jspsych/scrambledNeutralFaces/scrambledBF23NES.JPG,"""",6,forwardMask,Practice,null,250,"""",n,"""","""","""","""","""","""","""",4/21/2021 11:29,93.40.224.54,Mozilla/5.0 (Windows NT 10.0; Win64; x64; rv:88.0) Gecko/20100101 Firefox/88.0,,Firefox,88,Windows,10
85,1,null,"""",image-keyboard-response,65,1864196,0.0-65.0,"""",jspsych/neutralFaces/BF23NES.JPG,"""",6,Cue,Practice,null,16,"""","""","""","""","""","""","""","""","""",4/21/2021 11:29,93.40.224.54,Mozilla/5.0 (Windows NT 10.0; Win64; x64; rv:88.0) Gecko/20100101 Firefox/88.0,,Firefox,88,Windows,10
85,1,null,"""",image-keyboard-response,66,1864305,0.0-66.0,"""",jspsych/neutralFaces/BF24NES.JPG,"""",6,backwardMask,Practice,null,100,"""","""","""","""","""","""","""","""","""",4/21/2021 11:29,93.40.224.54,Mozilla/5.0 (Windows NT 10.0; Win64; x64; rv:88.0) Gecko/20100101 Firefox/88.0,,Firefox,88,Windows,10
85,1,null,"""",html-keyboard-response,67,1865321,0.0-67.0,"""","<div style=""font-size:60px;"">+</div>","""",6,fixationBtwnNeutralMaskAndPrompt,Practice,null,1000,"""","""","""","""","""","""","""","""","""",4/21/2021 11:29,93.40.224.54,Mozilla/5.0 (Windows NT 10.0; Win64; x64; rv:88.0) Gecko/20100101 Firefox/88.0,,Firefox,88,Windows,10
85,1,2636,"""",html-button-response,68,1867960,0.0-68.0,"""","<img src='jspsych/CFDfaces/CFD-AF-203-077-N.jpg'height=""250px""></br><b>Shannon</b>",0,6,IntactOrRearranged,Practice,"""","""","""","""",CFD-AF-203-077-N.jpg,Shannon,0,0,"""","""","""",4/21/2021 11:29,93.40.224.54,Mozilla/5.0 (Windows NT 10.0; Win64; x64; rv:88.0) Gecko/20100101 Firefox/88.0,,Firefox,88,Windows,10
85,1,2470,"""",html-slider-response,69,1870433,0.0-69.0,"""","<img src='jspsych/CFDfaces/CFD-AF-203-077-N.jpg'height=""250px""></br><b>Shannon</b>","""",6,ConfidenceQuery,Practice,"""","""","""","""",CFD-LM-239-075-N.jpg,Dustin,0,"""",0,56,"""",4/21/2021 11:29,93.40.224.54,Mozilla/5.0 (Windows NT 10.0; Win64; x64; rv:88.0) Gecko/20100101 Firefox/88.0,,Firefox,88,Windows,10
85,1,980,"""",html-button-response,70,1871411,0.0-70.0,"""",You are Correct. You called an Intact Pair Intact,0,6,feedback,Practice,"""","""","""","""","""","""","""","""","""","""","""",4/21/2021 11:29,93.40.224.54,Mozilla/5.0 (Windows NT 10.0; Win64; x64; rv:88.0) Gecko/20100101 Firefox/88.0,,Firefox,88,Windows,10
85,1,null,"""",html-keyboard-response,71,1872417,0.0-71.0,"""","<div style=""font-size:60px;"">+</div>","""",7,ITI,Practice,null,1000,"""","""","""","""","""","""","""","""","""",4/21/2021 11:29,93.40.224.54,Mozilla/5.0 (Windows NT 10.0; Win64; x64; rv:88.0) Gecko/20100101 Firefox/88.0,,Firefox,88,Windows,10
85,1,null,"""",image-keyboard-response,72,1872683,0.0-72.0,"""",jspsych/scrambledDisgustFaces/scrambledBM05DIS.JPG,"""",7,forwardMask,Practice,null,250,"""",d,"""","""","""","""","""","""","""",4/21/2021 11:29,93.40.224.54,Mozilla/5.0 (Windows NT 10.0; Win64; x64; rv:88.0) Gecko/20100101 Firefox/88.0,,Firefox,88,Windows,10
85,1,null,"""",image-keyboard-response,73,1872713,0.0-73.0,"""",jspsych/disgustFaces/BM06DIS.JPG,"""",7,Cue,Practice,null,16,"""","""","""","""","""","""","""","""","""",4/21/2021 11:29,93.40.224.54,Mozilla/5.0 (Windows NT 10.0; Win64; x64; rv:88.0) Gecko/20100101 Firefox/88.0,,Firefox,88,Windows,10
85,1,null,"""",image-keyboard-response,74,1872824,0.0-74.0,"""",jspsych/neutralFaces/AM15NES.JPG,"""",7,backwardMask,Practice,null,100,"""","""","""","""","""","""","""","""","""",4/21/2021 11:29,93.40.224.54,Mozilla/5.0 (Windows NT 10.0; Win64; x64; rv:88.0) Gecko/20100101 Firefox/88.0,,Firefox,88,Windows,10
85,1,null,"""",html-keyboard-response,75,1873835,0.0-75.0,"""","<div style=""font-size:60px;"">+</div>","""",7,fixationBtwnNeutralMaskAndPrompt,Practice,null,1000,"""","""","""","""","""","""","""","""","""",4/21/2021 11:29,93.40.224.54,Mozilla/5.0 (Windows NT 10.0; Win64; x64; rv:88.0) Gecko/20100101 Firefox/88.0,,Firefox,88,Windows,10
85,1,3525,"""",html-button-response,76,1877362,0.0-76.0,"""","<img src='jspsych/CFDfaces/CFD-BM-002-013-N.jpg'height=""250px""></br><b>Marcus</b>",0,7,IntactOrRearranged,Practice,"""","""","""","""",CFD-BM-002-013-N.jpg,Marcus,1,0,"""","""","""",4/21/2021 11:29,93.40.224.54,Mozilla/5.0 (Windows NT 10.0; Win64; x64; rv:88.0) Gecko/20100101 Firefox/88.0,,Firefox,88,Windows,10
85,1,3611,"""",html-slider-response,77,1880975,0.0-77.0,"""","<img src='jspsych/CFDfaces/CFD-BM-002-013-N.jpg'height=""250px""></br><b>Marcus</b>","""",7,ConfidenceQuery,Practice,"""","""","""","""",CFD-LM-239-075-N.jpg,Dustin,1,"""",0,64,"""",4/21/2021 11:29,93.40.224.54,Mozilla/5.0 (Windows NT 10.0; Win64; x64; rv:88.0) Gecko/20100101 Firefox/88.0,,Firefox,88,Windows,10
85,1,1086,"""",html-button-response,78,1882065,0.0-78.0,"""",You are Incorrect. You called a Rearranged Pair Intact,0,7,feedback,Practice,"""","""","""","""","""","""","""","""","""","""","""",4/21/2021 11:29,93.40.224.54,Mozilla/5.0 (Windows NT 10.0; Win64; x64; rv:88.0) Gecko/20100101 Firefox/88.0,,Firefox,88,Windows,10
85,1,null,"""",html-keyboard-response,79,1883076,0.0-79.0,"""","<div style=""font-size:60px;"">+</div>","""",8,ITI,Practice,null,1000,"""","""","""","""","""","""","""","""","""",4/21/2021 11:29,93.40.224.54,Mozilla/5.0 (Windows NT 10.0; Win64; x64; rv:88.0) Gecko/20100101 Firefox/88.0,,Firefox,88,Windows,10
85,1,null,"""",image-keyboard-response,80,1883340,0.0-80.0,"""",jspsych/scrambledNeutralFaces/scrambledAF02NES.JPG,"""",8,forwardMask,Practice,null,250,"""",n,"""","""","""","""","""","""","""",4/21/2021 11:29,93.40.224.54,Mozilla/5.0 (Windows NT 10.0; Win64; x64; rv:88.0) Gecko/20100101 Firefox/88.0,,Firefox,88,Windows,10
85,1,null,"""",image-keyboard-response,81,1883371,0.0-81.0,"""",jspsych/neutralFaces/AF02NES.JPG,"""",8,Cue,Practice,null,16,"""","""","""","""","""","""","""","""","""",4/21/2021 11:29,93.40.224.54,Mozilla/5.0 (Windows NT 10.0; Win64; x64; rv:88.0) Gecko/20100101 Firefox/88.0,,Firefox,88,Windows,10
85,1,null,"""",image-keyboard-response,82,1883482,0.0-82.0,"""",jspsych/neutralFaces/BF10NES.JPG,"""",8,backwardMask,Practice,null,100,"""","""","""","""","""","""","""","""","""",4/21/2021 11:29,93.40.224.54,Mozilla/5.0 (Windows NT 10.0; Win64; x64; rv:88.0) Gecko/20100101 Firefox/88.0,,Firefox,88,Windows,10
85,1,null,"""",html-keyboard-response,83,1884484,0.0-83.0,"""","<div style=""font-size:60px;"">+</div>","""",8,fixationBtwnNeutralMaskAndPrompt,Practice,null,1000,"""","""","""","""","""","""","""","""","""",4/21/2021 11:29,93.40.224.54,Mozilla/5.0 (Windows NT 10.0; Win64; x64; rv:88.0) Gecko/20100101 Firefox/88.0,,Firefox,88,Windows,10
85,1,1283,"""",html-button-response,84,1885766,0.0-84.0,"""","<img src='jspsych/CFDfaces/CFD-WM-003-002-N.jpg'height=""250px""></br><b>Patrick</b>",0,8,IntactOrRearranged,Practice,"""","""","""","""",CFD-WM-003-002-N.jpg,Patrick,0,0,"""","""","""",4/21/2021 11:29,93.40.224.54,Mozilla/5.0 (Windows NT 10.0; Win64; x64; rv:88.0) Gecko/20100101 Firefox/88.0,,Firefox,88,Windows,10
85,1,2058,"""",html-slider-response,85,1887826,0.0-85.0,"""","<img src='jspsych/CFDfaces/CFD-WM-003-002-N.jpg'height=""250px""></br><b>Patrick</b>","""",8,ConfidenceQuery,Practice,"""","""","""","""",CFD-LM-239-075-N.jpg,Dustin,0,"""",0,100,"""",4/21/2021 11:29,93.40.224.54,Mozilla/5.0 (Windows NT 10.0; Win64; x64; rv:88.0) Gecko/20100101 Firefox/88.0,,Firefox,88,Windows,10
85,1,864,"""",html-button-response,86,1888692,0.0-86.0,"""",You are Correct. You called an Intact Pair Intact,0,8,feedback,Practice,"""","""","""","""","""","""","""","""","""","""","""",4/21/2021 11:29,93.40.224.54,Mozilla/5.0 (Windows NT 10.0; Win64; x64; rv:88.0) Gecko/20100101 Firefox/88.0,,Firefox,88,Windows,10
85,1,1095,"""",image-button-response,87,1889795,0.0-87.0,"""",directionsMemoryAssociation3.JPG,0,128,DirectionsBeforeActualTEst,Break,"""","""","""","""","""","""","""","""","""","""","""",4/21/2021 11:29,93.40.224.54,Mozilla/5.0 (Windows NT 10.0; Win64; x64; rv:88.0) Gecko/20100101 Firefox/88.0,,Firefox,88,Windows,10
85,1,1899,"""",image-button-response,88,1891696,0.0-88.0,"""",directionsForTest2.JPG,0,1,directionsForTest2,break,"""","""","""","""","""","""","""","""","""","""","""",4/21/2021 11:29,93.40.224.54,Mozilla/5.0 (Windows NT 10.0; Win64; x64; rv:88.0) Gecko/20100101 Firefox/88.0,,Firefox,88,Windows,10
85,1,5308,"""",html-button-response,89,1897005,0.0-89.0,"""","<p>You will be asked to memorize and then recall four sets of face-name pairs. </p> <p> Each set will have 32 pairs. </p> <p>After the fourth set, there will be a brief follow-up experiment (<40 min alltogether)</p>",0,"""","""","""","""","""","""","""","""","""","""","""","""","""","""",4/21/2021 11:29,93.40.224.54,Mozilla/5.0 (Windows NT 10.0; Win64; x64; rv:88.0) Gecko/20100101 Firefox/88.0,,Firefox,88,Windows,10
85,1,3597,"""",html-keyboard-response,90,1902012,0.0-90.0,"""","<img src='jspsych/CFDfaces/CFD-AM-214-168-N.jpg' height=""250px""></br><b>Juan</b>","""",256,IntactFace,Memorization,70,5000,f,"""",CFD-AF-214-139-N.jpg,Jenna,0,"""","""","""",1,4/21/2021 11:29,93.40.224.54,Mozilla/5.0 (Windows NT 10.0; Win64; x64; rv:88.0) Gecko/20100101 Firefox/88.0,,Firefox,88,Windows,10
85,1,null,"""",html-keyboard-response,91,1902516,0.0-91.0,"""","<div style=""font-size:60px;"">+</div>","""",256,fixation,Memorization,null,500,"""","""","""","""","""","""","""","""",1,4/21/2021 11:29,93.40.224.54,Mozilla/5.0 (Windows NT 10.0; Win64; x64; rv:88.0) Gecko/20100101 Firefox/88.0,,Firefox,88,Windows,10
85,1,2226,"""",html-keyboard-response,92,1907535,0.0-92.0,"""","<img src='jspsych/CFDfaces/CFD-LM-246-087-N.jpg' height=""250px""></br><b>Robert</b>","""",256,IntactFace,Memorization,78,5000,n,"""",CFD-AM-238-269-N.jpg,Cameron,0,"""","""","""",1,4/21/2021 11:29,93.40.224.54,Mozilla/5.0 (Windows NT 10.0; Win64; x64; rv:88.0) Gecko/20100101 Firefox/88.0,,Firefox,88,Windows,10
85,1,null,"""",html-keyboard-response,93,1908049,0.0-93.0,"""","<div style=""font-size:60px;"">+</div>","""",256,fixation,Memorization,null,500,"""","""","""","""","""","""","""","""",1,4/21/2021 11:29,93.40.224.54,Mozilla/5.0 (Windows NT 10.0; Win64; x64; rv:88.0) Gecko/20100101 Firefox/88.0,,Firefox,88,Windows,10
85,1,1946,"""",html-keyboard-response,94,1913053,0.0-94.0,"""","<img src='jspsych/CFDfaces/CFD-WM-032-001-N.jpg' height=""250px""></br><b>Jeffrey</b>","""",256,IntactFace,Memorization,78,5000,n,"""",CFD-BF-023-010-N.jpg,Erin,0,"""","""","""",1,4/21/2021 11:29,93.40.224.54,Mozilla/5.0 (Windows NT 10.0; Win64; x64; rv:88.0) Gecko/20100101 Firefox/88.0,,Firefox,88,Windows,10
85,1,null,"""",html-keyboard-response,95,1913567,0.0-95.0,"""","<div style=""font-size:60px;"">+</div>","""",256,fixation,Memorization,null,500,"""","""","""","""","""","""","""","""",1,4/21/2021 11:29,93.40.224.54,Mozilla/5.0 (Windows NT 10.0; Win64; x64; rv:88.0) Gecko/20100101 Firefox/88.0,,Firefox,88,Windows,10
85,1,2774,"""",html-keyboard-response,96,1918575,0.0-96.0,"""","<img src='jspsych/CFDfaces/CFD-WF-218-087-N.jpg' height=""250px""></br><b>Vanessa</b>","""",256,IntactFace,Memorization,78,5000,n,"""",CFD-BF-001-025-N.jpg,Rebecca,0,"""","""","""",1,4/21/2021 11:29,93.40.224.54,Mozilla/5.0 (Windows NT 10.0; Win64; x64; rv:88.0) Gecko/20100101 Firefox/88.0,,Firefox,88,Windows,10
85,1,null,"""",html-keyboard-response,97,1919089,0.0-97.0,"""","<div style=""font-size:60px;"">+</div>","""",256,fixation,Memorization,null,500,"""","""","""","""","""","""","""","""",1,4/21/2021 11:29,93.40.224.54,Mozilla/5.0 (Windows NT 10.0; Win64; x64; rv:88.0) Gecko/20100101 Firefox/88.0,,Firefox,88,Windows,10
85,1,2221,"""",html-keyboard-response,98,1924095,0.0-98.0,"""","<img src='jspsych/CFDfaces/CFD-WF-038-021-N.jpg' height=""250px""></br><b>Michelle</b>","""",256,IntactFace,Memorization,78,5000,n,"""",CFD-AM-228-214-N.jpg,Jesse,0,"""","""","""",1,4/21/2021 11:29,93.40.224.54,Mozilla/5.0 (Windows NT 10.0; Win64; x64; rv:88.0) Gecko/20100101 Firefox/88.0,,Firefox,88,Windows,10
85,1,null,"""",html-keyboard-response,99,1924606,0.0-99.0,"""","<div style=""font-size:60px;"">+</div>","""",256,fixation,Memorization,null,500,"""","""","""","""","""","""","""","""",1,4/21/2021 11:29,93.40.224.54,Mozilla/5.0 (Windows NT 10.0; Win64; x64; rv:88.0) Gecko/20100101 Firefox/88.0,,Firefox,88,Windows,10
85,1,3015,"""",html-keyboard-response,100,1929618,0.0-100.0,"""","<img src='jspsych/CFDfaces/CFD-LF-208-127-N.jpg' height=""250px""></br><b>Meghan</b>","""",256,IntactFace,Memorization,78,5000,n,"""",CFD-BM-205-001-N.jpg,Jacob,0,"""","""","""",1,4/21/2021 11:29,93.40.224.54,Mozilla/5.0 (Windows NT 10.0; Win64; x64; rv:88.0) Gecko/20100101 Firefox/88.0,,Firefox,88,Windows,10
85,1,null,"""",html-keyboard-response,101,1930131,0.0-101.0,"""","<div style=""font-size:60px;"">+</div>","""",256,fixation,Memorization,null,500,"""","""","""","""","""","""","""","""",1,4/21/2021 11:29,93.40.224.54,Mozilla/5.0 (Windows NT 10.0; Win64; x64; rv:88.0) Gecko/20100101 Firefox/88.0,,Firefox,88,Windows,10
85,1,1400,"""",html-keyboard-response,102,1935142,0.0-102.0,"""","<img src='jspsych/CFDfaces/CFD-AF-226-251-N.jpg' height=""250px""></br><b>Emily</b>","""",256,IntactFace,Memorization,70,5000,f,"""",CFD-WM-034-030-N.jpg,Austin,0,"""","""","""",1,4/21/2021 11:29,93.40.224.54,Mozilla/5.0 (Windows NT 10.0; Win64; x64; rv:88.0) Gecko/20100101 Firefox/88.0,,Firefox,88,Windows,10
85,1,null,"""",html-keyboard-response,103,1935662,0.0-103.0,"""","<div style=""font-size:60px;"">+</div>","""",256,fixation,Memorization,null,500,"""","""","""","""","""","""","""","""",1,4/21/2021 11:29,93.40.224.54,Mozilla/5.0 (Windows NT 10.0; Win64; x64; rv:88.0) Gecko/20100101 Firefox/88.0,,Firefox,88,Windows,10
85,1,1200,"""",html-keyboard-response,104,1940676,0.0-104.0,"""","<img src='jspsych/CFDfaces/CFD-WM-015-002-N.jpg' height=""250px""></br><b>Eric</b>","""",256,IntactFace,Memorization,70,5000,f,"""",CFD-AF-230-193-N.jpg,Lauren,0,"""","""","""",1,4/21/2021 11:29,93.40.224.54,Mozilla/5.0 (Windows NT 10.0; Win64; x64; rv:88.0) Gecko/20100101 Firefox/88.0,,Firefox,88,Windows,10
85,1,null,"""",html-keyboard-response,105,1941191,0.0-105.0,"""","<div style=""font-size:60px;"">+</div>","""",256,fixation,Memorization,null,500,"""","""","""","""","""","""","""","""",1,4/21/2021 11:29,93.40.224.54,Mozilla/5.0 (Windows NT 10.0; Win64; x64; rv:88.0) Gecko/20100101 Firefox/88.0,,Firefox,88,Windows,10
85,1,1450,"""",html-keyboard-response,106,1946207,0.0-106.0,"""","<img src='jspsych/CFDfaces/CFD-WF-006-002-N.jpg' height=""250px""></br><b>Christina</b>","""",256,IntactFace,Memorization,70,5000,f,"""",CFD-LF-215-157-N.jpg,Heather,0,"""","""","""",1,4/21/2021 11:29,93.40.224.54,Mozilla/5.0 (Windows NT 10.0; Win64; x64; rv:88.0) Gecko/20100101 Firefox/88.0,,Firefox,88,Windows,10
85,1,null,"""",html-keyboard-response,107,1946721,0.0-107.0,"""","<div style=""font-size:60px;"">+</div>","""",256,fixation,Memorization,null,500,"""","""","""","""","""","""","""","""",1,4/21/2021 11:29,93.40.224.54,Mozilla/5.0 (Windows NT 10.0; Win64; x64; rv:88.0) Gecko/20100101 Firefox/88.0,,Firefox,88,Windows,10
85,1,1557,"""",html-keyboard-response,108,1951732,0.0-108.0,"""","<img src='jspsych/CFDfaces/CFD-WF-019-005-N.jpg' height=""250px""></br><b>Elizabeth</b>","""",256,IntactFace,Memorization,78,5000,n,"""",CFD-WF-024-003-N.jpg,Melissa,0,"""","""","""",1,4/21/2021 11:29,93.40.224.54,Mozilla/5.0 (Windows NT 10.0; Win64; x64; rv:88.0) Gecko/20100101 Firefox/88.0,,Firefox,88,Windows,10
85,1,null,"""",html-keyboard-response,109,1952234,0.0-109.0,"""","<div style=""font-size:60px;"">+</div>","""",256,fixation,Memorization,null,500,"""","""","""","""","""","""","""","""",1,4/21/2021 11:29,93.40.224.54,Mozilla/5.0 (Windows NT 10.0; Win64; x64; rv:88.0) Gecko/20100101 Firefox/88.0,,Firefox,88,Windows,10
85,1,null,"""",html-keyboard-response,110,1957242,0.0-110.0,"""","<img src='jspsych/CFDfaces/CFD-AM-207-108-N.jpg' height=""250px""></br><b>Brian</b>","""",256,IntactFace,Memorization,null,5000,"""","""",CFD-WF-017-003-N.jpg,Taylor,0,"""","""","""",1,4/21/2021 11:29,93.40.224.54,Mozilla/5.0 (Windows NT 10.0; Win64; x64; rv:88.0) Gecko/20100101 Firefox/88.0,,Firefox,88,Windows,10
85,1,null,"""",html-keyboard-response,111,1957760,0.0-111.0,"""","<div style=""font-size:60px;"">+</div>","""",256,fixation,Memorization,null,500,"""","""","""","""","""","""","""","""",1,4/21/2021 11:29,93.40.224.54,Mozilla/5.0 (Windows NT 10.0; Win64; x64; rv:88.0) Gecko/20100101 Firefox/88.0,,Firefox,88,Windows,10
85,1,null,"""",html-keyboard-response,112,1962770,0.0-112.0,"""","<img src='jspsych/CFDfaces/CFD-WM-017-002-N.jpg' height=""250px""></br><b>James</b>","""",256,IntactFace,Memorization,null,5000,"""","""",CFD-BM-203-001-N.jpg,Jeremy,0,"""","""","""",1,4/21/2021 11:29,93.40.224.54,Mozilla/5.0 (Windows NT 10.0; Win64; x64; rv:88.0) Gecko/20100101 Firefox/88.0,,Firefox,88,Windows,10
85,1,null,"""",html-keyboard-response,113,1963281,0.0-113.0,"""","<div style=""font-size:60px;"">+</div>","""",256,fixation,Memorization,null,500,"""","""","""","""","""","""","""","""",1,4/21/2021 11:29,93.40.224.54,Mozilla/5.0 (Windows NT 10.0; Win64; x64; rv:88.0) Gecko/20100101 Firefox/88.0,,Firefox,88,Windows,10
85,1,null,"""",html-keyboard-response,114,1968291,0.0-114.0,"""","<img src='jspsych/CFDfaces/CFD-WM-216-061-N.jpg' height=""250px""></br><b>Nicholas</b>","""",256,IntactFace,Memorization,null,5000,"""","""",CFD-BM-026-002-N.jpg,Travis,0,"""","""","""",1,4/21/2021 11:29,93.40.224.54,Mozilla/5.0 (Windows NT 10.0; Win64; x64; rv:88.0) Gecko/20100101 Firefox/88.0,,Firefox,88,Windows,10
85,1,null,"""",html-keyboard-response,115,1968805,0.0-115.0,"""","<div style=""font-size:60px;"">+</div>","""",256,fixation,Memorization,null,500,"""","""","""","""","""","""","""","""",1,4/21/2021 11:29,93.40.224.54,Mozilla/5.0 (Windows NT 10.0; Win64; x64; rv:88.0) Gecko/20100101 Firefox/88.0,,Firefox,88,Windows,10
85,1,null,"""",html-keyboard-response,116,1973812,0.0-116.0,"""","<img src='jspsych/CFDfaces/CFD-WM-215-041-N.jpg' height=""250px""></br><b>Gregory</b>","""",256,IntactFace,Memorization,null,5000,"""","""",CFD-LF-243-175-N.jpg,Tiffany,0,"""","""","""",1,4/21/2021 11:29,93.40.224.54,Mozilla/5.0 (Windows NT 10.0; Win64; x64; rv:88.0) Gecko/20100101 Firefox/88.0,,Firefox,88,Windows,10
85,1,null,"""",html-keyboard-response,117,1974325,0.0-117.0,"""","<div style=""font-size:60px;"">+</div>","""",256,fixation,Memorization,null,500,"""","""","""","""","""","""","""","""",1,4/21/2021 11:29,93.40.224.54,Mozilla/5.0 (Windows NT 10.0; Win64; x64; rv:88.0) Gecko/20100101 Firefox/88.0,,Firefox,88,Windows,10
85,1,null,"""",html-keyboard-response,118,1979326,0.0-118.0,"""","<img src='jspsych/CFDfaces/CFD-AF-240-206-N.jpg' height=""250px""></br><b>Victoria</b>","""",256,IntactFace,Memorization,null,5000,"""","""",CFD-BF-004-014-N.jpg,Whitney,0,"""","""","""",1,4/21/2021 11:29,93.40.224.54,Mozilla/5.0 (Windows NT 10.0; Win64; x64; rv:88.0) Gecko/20100101 Firefox/88.0,,Firefox,88,Windows,10
85,1,null,"""",html-keyboard-response,119,1979830,0.0-119.0,"""","<div style=""font-size:60px;"">+</div>","""",256,fixation,Memorization,null,500,"""","""","""","""","""","""","""","""",1,4/21/2021 11:29,93.40.224.54,Mozilla/5.0 (Windows NT 10.0; Win64; x64; rv:88.0) Gecko/20100101 Firefox/88.0,,Firefox,88,Windows,10
85,1,null,"""",html-keyboard-response,120,1984834,0.0-120.0,"""","<img src='jspsych/CFDfaces/CFD-BF-218-207-N.jpg' height=""250px""></br><b>Amanda</b>","""",256,IntactFace,Memorization,null,5000,"""","""",CFD-LM-217-162-N.jpg,Luis,0,"""","""","""",1,4/21/2021 11:29,93.40.224.54,Mozilla/5.0 (Windows NT 10.0; Win64; x64; rv:88.0) Gecko/20100101 Firefox/88.0,,Firefox,88,Windows,10
85,1,null,"""",html-keyboard-response,121,1985348,0.0-121.0,"""","<div style=""font-size:60px;"">+</div>","""",256,fixation,Memorization,null,500,"""","""","""","""","""","""","""","""",1,4/21/2021 11:29,93.40.224.54,Mozilla/5.0 (Windows NT 10.0; Win64; x64; rv:88.0) Gecko/20100101 Firefox/88.0,,Firefox,88,Windows,10
85,1,null,"""",html-keyboard-response,122,1990364,0.0-122.0,"""","<img src='jspsych/CFDfaces/CFD-AF-222-134-N.jpg' height=""250px""></br><b>Julie</b>","""",256,IntactFace,Memorization,null,5000,"""","""",CFD-AF-241-141-N.jpg,Jasmine,0,"""","""","""",1,4/21/2021 11:29,93.40.224.54,Mozilla/5.0 (Windows NT 10.0; Win64; x64; rv:88.0) Gecko/20100101 Firefox/88.0,,Firefox,88,Windows,10
85,1,null,"""",html-keyboard-response,123,1990876,0.0-123.0,"""","<div style=""font-size:60px;"">+</div>","""",256,fixation,Memorization,null,500,"""","""","""","""","""","""","""","""",1,4/21/2021 11:29,93.40.224.54,Mozilla/5.0 (Windows NT 10.0; Win64; x64; rv:88.0) Gecko/20100101 Firefox/88.0,,Firefox,88,Windows,10
85,1,null,"""",html-keyboard-response,124,1995887,0.0-124.0,"""","<img src='jspsych/CFDfaces/CFD-BF-226-119-N.jpg' height=""250px""></br><b>Ashley</b>","""",256,IntactFace,Memorization,null,5000,"""","""",CFD-LM-223-175-N.jpg,Kenneth,0,"""","""","""",1,4/21/2021 11:29,93.40.224.54,Mozilla/5.0 (Windows NT 10.0; Win64; x64; rv:88.0) Gecko/20100101 Firefox/88.0,,Firefox,88,Windows,10
85,1,null,"""",html-keyboard-response,125,1996399,0.0-125.0,"""","<div style=""font-size:60px;"">+</div>","""",256,fixation,Memorization,null,500,"""","""","""","""","""","""","""","""",1,4/21/2021 11:29,93.40.224.54,Mozilla/5.0 (Windows NT 10.0; Win64; x64; rv:88.0) Gecko/20100101 Firefox/88.0,,Firefox,88,Windows,10
85,1,null,"""",html-keyboard-response,126,2001407,0.0-126.0,"""","<img src='jspsych/CFDfaces/CFD-AF-208-003-N.jpg' height=""250px""></br><b>Stephanie</b>","""",256,IntactFace,Memorization,null,5000,"""","""",CFD-BF-010-001-N.jpg,Sara,0,"""","""","""",1,4/21/2021 11:29,93.40.224.54,Mozilla/5.0 (Windows NT 10.0; Win64; x64; rv:88.0) Gecko/20100101 Firefox/88.0,,Firefox,88,Windows,10
85,1,null,"""",html-keyboard-response,127,2001919,0.0-127.0,"""","<div style=""font-size:60px;"">+</div>","""",256,fixation,Memorization,null,500,"""","""","""","""","""","""","""","""",1,4/21/2021 11:29,93.40.224.54,Mozilla/5.0 (Windows NT 10.0; Win64; x64; rv:88.0) Gecko/20100101 Firefox/88.0,,Firefox,88,Windows,10
85,1,null,"""",html-keyboard-response,128,2006924,0.0-128.0,"""","<img src='jspsych/CFDfaces/CFD-AF-220-107-N.jpg' height=""250px""></br><b>Brittany</b>","""",256,IntactFace,Memorization,null,5000,"""","""",CFD-WM-212-097-N.jpg,Timothy,0,"""","""","""",1,4/21/2021 11:29,93.40.224.54,Mozilla/5.0 (Windows NT 10.0; Win64; x64; rv:88.0) Gecko/20100101 Firefox/88.0,,Firefox,88,Windows,10
85,1,null,"""",html-keyboard-response,129,2007436,0.0-129.0,"""","<div style=""font-size:60px;"">+</div>","""",256,fixation,Memorization,null,500,"""","""","""","""","""","""","""","""",1,4/21/2021 11:29,93.40.224.54,Mozilla/5.0 (Windows NT 10.0; Win64; x64; rv:88.0) Gecko/20100101 Firefox/88.0,,Firefox,88,Windows,10
85,1,null,"""",html-keyboard-response,130,2012449,0.0-130.0,"""","<img src='jspsych/CFDfaces/CFD-BM-029-024-N.jpg' height=""250px""></br><b>Jason</b>","""",256,IntactFace,Memorization,null,5000,"""","""",CFD-BF-008-001-N.jpg,Lindsey,0,"""","""","""",1,4/21/2021 11:29,93.40.224.54,Mozilla/5.0 (Windows NT 10.0; Win64; x64; rv:88.0) Gecko/20100101 Firefox/88.0,,Firefox,88,Windows,10
85,1,null,"""",html-keyboard-response,131,2012965,0.0-131.0,"""","<div style=""font-size:60px;"">+</div>","""",256,fixation,Memorization,null,500,"""","""","""","""","""","""","""","""",1,4/21/2021 11:29,93.40.224.54,Mozilla/5.0 (Windows NT 10.0; Win64; x64; rv:88.0) Gecko/20100101 Firefox/88.0,,Firefox,88,Windows,10
85,1,2764,"""",html-keyboard-response,132,2017973,0.0-132.0,"""","<img src='jspsych/CFDfaces/CFD-LM-233-171-N.jpg' height=""250px""></br><b>Daniel</b>","""",256,IntactFace,Memorization,78,5000,n,"""",CFD-AM-220-134-N.jpg,Ryan,0,"""","""","""",1,4/21/2021 11:29,93.40.224.54,Mozilla/5.0 (Windows NT 10.0; Win64; x64; rv:88.0) Gecko/20100101 Firefox/88.0,,Firefox,88,Windows,10
85,1,null,"""",html-keyboard-response,133,2018487,0.0-133.0,"""","<div style=""font-size:60px;"">+</div>","""",256,fixation,Memorization,null,500,"""","""","""","""","""","""","""","""",1,4/21/2021 11:29,93.40.224.54,Mozilla/5.0 (Windows NT 10.0; Win64; x64; rv:88.0) Gecko/20100101 Firefox/88.0,,Firefox,88,Windows,10
85,1,1584,"""",html-keyboard-response,134,2023504,0.0-134.0,"""","<img src='jspsych/CFDfaces/CFD-BF-019-001-N.jpg' height=""250px""></br><b>Samantha</b>","""",256,IntactFace,Memorization,70,5000,f,"""",CFD-WF-207-014-N.jpg,Amy,0,"""","""","""",1,4/21/2021 11:29,93.40.224.54,Mozilla/5.0 (Windows NT 10.0; Win64; x64; rv:88.0) Gecko/20100101 Firefox/88.0,,Firefox,88,Windows,10
85,1,null,"""",html-keyboard-response,135,2024016,0.0-135.0,"""","<div style=""font-size:60px;"">+</div>","""",256,fixation,Memorization,null,500,"""","""","""","""","""","""","""","""",1,4/21/2021 11:29,93.40.224.54,Mozilla/5.0 (Windows NT 10.0; Win64; x64; rv:88.0) Gecko/20100101 Firefox/88.0,,Firefox,88,Windows,10
85,1,2210,"""",html-keyboard-response,136,2029032,0.0-136.0,"""","<img src='jspsych/CFDfaces/CFD-AF-209-006-N.jpg' height=""250px""></br><b>Andrea</b>","""",256,IntactFace,Memorization,78,5000,n,"""",CFD-LF-231-260-N.jpg,Laura,0,"""","""","""",1,4/21/2021 11:29,93.40.224.54,Mozilla/5.0 (Windows NT 10.0; Win64; x64; rv:88.0) Gecko/20100101 Firefox/88.0,,Firefox,88,Windows,10
85,1,null,"""",html-keyboard-response,137,2029543,0.0-137.0,"""","<div style=""font-size:60px;"">+</div>","""",256,fixation,Memorization,null,500,"""","""","""","""","""","""","""","""",1,4/21/2021 11:29,93.40.224.54,Mozilla/5.0 (Windows NT 10.0; Win64; x64; rv:88.0) Gecko/20100101 Firefox/88.0,,Firefox,88,Windows,10
85,1,3096,"""",html-keyboard-response,138,2034547,0.0-138.0,"""","<img src='jspsych/CFDfaces/CFD-BM-041-035-N.jpg' height=""250px""></br><b>Ian</b>","""",256,IntactFace,Memorization,70,5000,f,"""",CFD-BF-212-315-N.jpg,Angela,0,"""","""","""",1,4/21/2021 11:29,93.40.224.54,Mozilla/5.0 (Windows NT 10.0; Win64; x64; rv:88.0) Gecko/20100101 Firefox/88.0,,Firefox,88,Windows,10
85,1,null,"""",html-keyboard-response,139,2035064,0.0-139.0,"""","<div style=""font-size:60px;"">+</div>","""",256,fixation,Memorization,null,500,"""","""","""","""","""","""","""","""",1,4/21/2021 11:29,93.40.224.54,Mozilla/5.0 (Windows NT 10.0; Win64; x64; rv:88.0) Gecko/20100101 Firefox/88.0,,Firefox,88,Windows,10
85,1,2110,"""",html-keyboard-response,140,2040080,0.0-140.0,"""","<img src='jspsych/CFDfaces/CFD-WM-006-002-N.jpg' height=""250px""></br><b>Peter</b>","""",256,IntactFace,Memorization,70,5000,f,"""",CFD-LM-239-075-N.jpg,Dustin,0,"""","""","""",1,4/21/2021 11:29,93.40.224.54,Mozilla/5.0 (Windows NT 10.0; Win64; x64; rv:88.0) Gecko/20100101 Firefox/88.0,,Firefox,88,Windows,10
85,1,null,"""",html-keyboard-response,141,2040591,0.0-141.0,"""","<div style=""font-size:60px;"">+</div>","""",256,fixation,Memorization,null,500,"""","""","""","""","""","""","""","""",1,4/21/2021 11:29,93.40.224.54,Mozilla/5.0 (Windows NT 10.0; Win64; x64; rv:88.0) Gecko/20100101 Firefox/88.0,,Firefox,88,Windows,10
85,1,2500,"""",html-keyboard-response,142,2045597,0.0-142.0,"""","<img src='jspsych/CFDfaces/CFD-LF-220-120-N.jpg' height=""250px""></br><b>Kimberly</b>","""",256,IntactFace,Memorization,78,5000,n,"""",CFD-LM-220-329-N.jpg,Mark,0,"""","""","""",1,4/21/2021 11:29,93.40.224.54,Mozilla/5.0 (Windows NT 10.0; Win64; x64; rv:88.0) Gecko/20100101 Firefox/88.0,,Firefox,88,Windows,10
85,1,null,"""",html-keyboard-response,143,2046114,0.0-143.0,"""","<div style=""font-size:60px;"">+</div>","""",256,fixation,Memorization,null,500,"""","""","""","""","""","""","""","""",1,4/21/2021 11:29,93.40.224.54,Mozilla/5.0 (Windows NT 10.0; Win64; x64; rv:88.0) Gecko/20100101 Firefox/88.0,,Firefox,88,Windows,10
85,1,1578,"""",html-keyboard-response,144,2051124,0.0-144.0,"""","<img src='jspsych/CFDfaces/CFD-AM-248-104-N.jpg' height=""250px""></br><b>Joshua</b>","""",256,IntactFace,Memorization,70,5000,f,"""",CFD-BM-017-021-N.jpg,Sean,0,"""","""","""",1,4/21/2021 11:29,93.40.224.54,Mozilla/5.0 (Windows NT 10.0; Win64; x64; rv:88.0) Gecko/20100101 Firefox/88.0,,Firefox,88,Windows,10
85,1,null,"""",html-keyboard-response,145,2051636,0.0-145.0,"""","<div style=""font-size:60px;"">+</div>","""",256,fixation,Memorization,null,500,"""","""","""","""","""","""","""","""",1,4/21/2021 11:29,93.40.224.54,Mozilla/5.0 (Windows NT 10.0; Win64; x64; rv:88.0) Gecko/20100101 Firefox/88.0,,Firefox,88,Windows,10
85,1,2451,"""",html-keyboard-response,146,2056649,0.0-146.0,"""","<img src='jspsych/CFDfaces/CFD-BF-016-017-N.jpg' height=""250px""></br><b>Kayla</b>","""",256,IntactFace,Memorization,78,5000,n,"""",CFD-BM-018-001-N.jpg,Steven,0,"""","""","""",1,4/21/2021 11:29,93.40.224.54,Mozilla/5.0 (Windows NT 10.0; Win64; x64; rv:88.0) Gecko/20100101 Firefox/88.0,,Firefox,88,Windows,10
85,1,null,"""",html-keyboard-response,147,2057168,0.0-147.0,"""","<div style=""font-size:60px;"">+</div>","""",256,fixation,Memorization,null,500,"""","""","""","""","""","""","""","""",1,4/21/2021 11:29,93.40.224.54,Mozilla/5.0 (Windows NT 10.0; Win64; x64; rv:88.0) Gecko/20100101 Firefox/88.0,,Firefox,88,Windows,10
85,1,914,"""",html-keyboard-response,148,2062177,0.0-148.0,"""","<img src='jspsych/CFDfaces/CFD-LM-248-089-N.jpg' height=""250px""></br><b>Christian</b>","""",256,IntactFace,Memorization,78,5000,n,"""",CFD-AF-201-060-N.jpg,Jordan,0,"""","""","""",1,4/21/2021 11:29,93.40.224.54,Mozilla/5.0 (Windows NT 10.0; Win64; x64; rv:88.0) Gecko/20100101 Firefox/88.0,,Firefox,88,Windows,10
85,1,null,"""",html-keyboard-response,149,2062690,0.0-149.0,"""","<div style=""font-size:60px;"">+</div>","""",256,fixation,Memorization,null,500,"""","""","""","""","""","""","""","""",1,4/21/2021 11:29,93.40.224.54,Mozilla/5.0 (Windows NT 10.0; Win64; x64; rv:88.0) Gecko/20100101 Firefox/88.0,,Firefox,88,Windows,10
85,1,1897,"""",html-keyboard-response,150,2067690,0.0-150.0,"""","<img src='jspsych/CFDfaces/CFD-LM-252-076-N.jpg' height=""250px""></br><b>Brandon</b>","""",256,IntactFace,Memorization,70,5000,f,"""",CFD-AM-202-079-N.jpg,Vincent,0,"""","""","""",1,4/21/2021 11:29,93.40.224.54,Mozilla/5.0 (Windows NT 10.0; Win64; x64; rv:88.0) Gecko/20100101 Firefox/88.0,,Firefox,88,Windows,10
85,1,null,"""",html-keyboard-response,151,2068201,0.0-151.0,"""","<div style=""font-size:60px;"">+</div>","""",256,fixation,Memorization,null,500,"""","""","""","""","""","""","""","""",1,4/21/2021 11:29,93.40.224.54,Mozilla/5.0 (Windows NT 10.0; Win64; x64; rv:88.0) Gecko/20100101 Firefox/88.0,,Firefox,88,Windows,10
85,1,845,"""",html-keyboard-response,152,2073207,0.0-152.0,"""","<img src='jspsych/CFDfaces/CFD-BM-211-174-N.jpg' height=""250px""></br><b>Richard</b>","""",256,IntactFace,Memorization,78,5000,n,"""",CFD-BM-011-016-N.jpg,Justin,0,"""","""","""",1,4/21/2021 11:29,93.40.224.54,Mozilla/5.0 (Windows NT 10.0; Win64; x64; rv:88.0) Gecko/20100101 Firefox/88.0,,Firefox,88,Windows,10
85,1,null,"""",html-keyboard-response,153,2073723,0.0-153.0,"""","<div style=""font-size:60px;"">+</div>","""",256,fixation,Memorization,null,500,"""","""","""","""","""","""","""","""",1,4/21/2021 11:29,93.40.224.54,Mozilla/5.0 (Windows NT 10.0; Win64; x64; rv:88.0) Gecko/20100101 Firefox/88.0,,Firefox,88,Windows,10
85,1,4154,"""",html-keyboard-response,154,2077878,0.0-154.0,"""",Press Any Key to Begin Memory Test,"""",1,welcomeScreen,Break,70,"""","""","""","""","""","""","""","""","""",1,4/21/2021 11:29,93.40.224.54,Mozilla/5.0 (Windows NT 10.0; Win64; x64; rv:88.0) Gecko/20100101 Firefox/88.0,,Firefox,88,Windows,10
85,1,null,"""",html-keyboard-response,155,2078880,0.0-155.0,"""","<div style=""font-size:60px;"">+</div>","""",256,ITI,Test,null,1000,"""","""","""","""","""","""","""","""",1,4/21/2021 11:29,93.40.224.54,Mozilla/5.0 (Windows NT 10.0; Win64; x64; rv:88.0) Gecko/20100101 Firefox/88.0,,Firefox,88,Windows,10
85,1,null,"""",image-keyboard-response,156,2079146,0.0-156.0,"""",jspsych/scrambledNeutralFaces/scrambledAM30NES.JPG,"""",256,forwardMask,Test,null,250,"""",n,"""","""","""","""","""","""",1,4/21/2021 11:29,93.40.224.54,Mozilla/5.0 (Windows NT 10.0; Win64; x64; rv:88.0) Gecko/20100101 Firefox/88.0,,Firefox,88,Windows,10
85,1,null,"""",image-keyboard-response,157,2079176,0.0-157.0,"""",jspsych/neutralFaces/AM30NES.JPG,"""",256,Cue,Test,null,16,"""","""","""","""","""","""","""","""",1,4/21/2021 11:29,93.40.224.54,Mozilla/5.0 (Windows NT 10.0; Win64; x64; rv:88.0) Gecko/20100101 Firefox/88.0,,Firefox,88,Windows,10
85,1,null,"""",image-keyboard-response,158,2079285,0.0-158.0,"""",jspsych/neutralFaces/AM04NES.JPG,"""",256,backwardMask,Test,null,100,"""","""","""","""","""","""","""","""",1,4/21/2021 11:29,93.40.224.54,Mozilla/5.0 (Windows NT 10.0; Win64; x64; rv:88.0) Gecko/20100101 Firefox/88.0,,Firefox,88,Windows,10
85,1,null,"""",html-keyboard-response,159,2080299,0.0-159.0,"""","<div style=""font-size:60px;"">+</div>","""",256,fixationBtwnNeutralMaskAndPrompt,Test,null,1000,"""","""","""","""","""","""","""","""",1,4/21/2021 11:29,93.40.224.54,Mozilla/5.0 (Windows NT 10.0; Win64; x64; rv:88.0) Gecko/20100101 Firefox/88.0,,Firefox,88,Windows,10
85,1,2602,"""",html-button-response,160,2082901,0.0-160.0,"""","<img src='jspsych/CFDfaces/CFD-BF-226-119-N.jpg' height=""250px"">,</br><b>Elizabeth</b>",1,256,IntactOrRearranged,Test,"""","""","""","""",CFD-LM-223-175-N.jpg,Jeremy,1,1,"""","""",1,4/21/2021 11:29,93.40.224.54,Mozilla/5.0 (Windows NT 10.0; Win64; x64; rv:88.0) Gecko/20100101 Firefox/88.0,,Firefox,88,Windows,10
85,1,3599,"""",html-slider-response,161,2086501,0.0-161.0,"""","<img src='jspsych/CFDfaces/CFD-BF-226-119-N.jpg' height=""250px"">,</br><b>Elizabeth</b>","""",256,ConfidenceQuery,Test,"""","""","""","""",CFD-LM-223-175-N.jpg,Jeremy,1,"""",0,57,1,4/21/2021 11:29,93.40.224.54,Mozilla/5.0 (Windows NT 10.0; Win64; x64; rv:88.0) Gecko/20100101 Firefox/88.0,,Firefox,88,Windows,10
85,1,null,"""",html-keyboard-response,162,2087505,0.0-162.0,"""","<div style=""font-size:60px;"">+</div>","""",256,ITI,Test,null,1000,"""","""","""","""","""","""","""","""",1,4/21/2021 11:29,93.40.224.54,Mozilla/5.0 (Windows NT 10.0; Win64; x64; rv:88.0) Gecko/20100101 Firefox/88.0,,Firefox,88,Windows,10
85,1,null,"""",image-keyboard-response,163,2087769,0.0-163.0,"""",jspsych/scrambledNeutralFaces/scrambledAF12NES.JPG,"""",256,forwardMask,Test,null,250,"""",n,"""","""","""","""","""","""",1,4/21/2021 11:29,93.40.224.54,Mozilla/5.0 (Windows NT 10.0; Win64; x64; rv:88.0) Gecko/20100101 Firefox/88.0,,Firefox,88,Windows,10
85,1,null,"""",image-keyboard-response,164,2087801,0.0-164.0,"""",jspsych/neutralFaces/AF12NES.JPG,"""",256,Cue,Test,null,16,"""","""","""","""","""","""","""","""",1,4/21/2021 11:29,93.40.224.54,Mozilla/5.0 (Windows NT 10.0; Win64; x64; rv:88.0) Gecko/20100101 Firefox/88.0,,Firefox,88,Windows,10
85,1,null,"""",image-keyboard-response,165,2087907,0.0-165.0,"""",jspsych/neutralFaces/BF23NES.JPG,"""",256,backwardMask,Test,null,100,"""","""","""","""","""","""","""","""",1,4/21/2021 11:29,93.40.224.54,Mozilla/5.0 (Windows NT 10.0; Win64; x64; rv:88.0) Gecko/20100101 Firefox/88.0,,Firefox,88,Windows,10
85,1,null,"""",html-keyboard-response,166,2088919,0.0-166.0,"""","<div style=""font-size:60px;"">+</div>","""",256,fixationBtwnNeutralMaskAndPrompt,Test,null,1000,"""","""","""","""","""","""","""","""",1,4/21/2021 11:29,93.40.224.54,Mozilla/5.0 (Windows NT 10.0; Win64; x64; rv:88.0) Gecko/20100101 Firefox/88.0,,Firefox,88,Windows,10
85,1,4194,"""",html-button-response,167,2093114,0.0-167.0,"""","<img src='jspsych/CFDfaces/CFD-WM-006-002-N.jpg' height=""250px"">,</br><b>Peter</b>",0,256,IntactOrRearranged,Test,"""","""","""","""",CFD-BM-203-001-N.jpg,Ryan,0,0,"""","""",1,4/21/2021 11:29,93.40.224.54,Mozilla/5.0 (Windows NT 10.0; Win64; x64; rv:88.0) Gecko/20100101 Firefox/88.0,,Firefox,88,Windows,10
85,1,2587,"""",html-slider-response,168,2095705,0.0-168.0,"""","<img src='jspsych/CFDfaces/CFD-WM-006-002-N.jpg' height=""250px"">,</br><b>Peter</b>","""",256,ConfidenceQuery,Test,"""","""","""","""",CFD-BM-203-001-N.jpg,Ryan,0,"""",0,19,1,4/21/2021 11:29,93.40.224.54,Mozilla/5.0 (Windows NT 10.0; Win64; x64; rv:88.0) Gecko/20100101 Firefox/88.0,,Firefox,88,Windows,10
85,1,null,"""",html-keyboard-response,169,2096707,0.0-169.0,"""","<div style=""font-size:60px;"">+</div>","""",256,ITI,Test,null,1000,"""","""","""","""","""","""","""","""",1,4/21/2021 11:29,93.40.224.54,Mozilla/5.0 (Windows NT 10.0; Win64; x64; rv:88.0) Gecko/20100101 Firefox/88.0,,Firefox,88,Windows,10
85,1,null,"""",image-keyboard-response,170,2096964,0.0-170.0,"""",jspsych/scrambledDisgustFaces/scrambledAF23DIS.JPG,"""",256,forwardMask,Test,null,250,"""",d,"""","""","""","""","""","""",1,4/21/2021 11:29,93.40.224.54,Mozilla/5.0 (Windows NT 10.0; Win64; x64; rv:88.0) Gecko/20100101 Firefox/88.0,,Firefox,88,Windows,10
85,1,null,"""",image-keyboard-response,171,2096995,0.0-171.0,"""",jspsych/disgustFaces/AF23DIS.JPG,"""",256,Cue,Test,null,16,"""","""","""","""","""","""","""","""",1,4/21/2021 11:29,93.40.224.54,Mozilla/5.0 (Windows NT 10.0; Win64; x64; rv:88.0) Gecko/20100101 Firefox/88.0,,Firefox,88,Windows,10
85,1,null,"""",image-keyboard-response,172,2097105,0.0-172.0,"""",jspsych/neutralFaces/AF34NES.JPG,"""",256,backwardMask,Test,null,100,"""","""","""","""","""","""","""","""",1,4/21/2021 11:29,93.40.224.54,Mozilla/5.0 (Windows NT 10.0; Win64; x64; rv:88.0) Gecko/20100101 Firefox/88.0,,Firefox,88,Windows,10
85,1,null,"""",html-keyboard-response,173,2098121,0.0-173.0,"""","<div style=""font-size:60px;"">+</div>","""",256,fixationBtwnNeutralMaskAndPrompt,Test,null,1000,"""","""","""","""","""","""","""","""",1,4/21/2021 11:29,93.40.224.54,Mozilla/5.0 (Windows NT 10.0; Win64; x64; rv:88.0) Gecko/20100101 Firefox/88.0,,Firefox,88,Windows,10
85,1,2499,"""",html-button-response,174,2100620,0.0-174.0,"""","<img src='jspsych/CFDfaces/CFD-AF-240-206-N.jpg' height=""250px"">,</br><b>Ashley</b>",1,256,IntactOrRearranged,Test,"""","""","""","""",CFD-BM-011-016-N.jpg,Justin,1,1,"""","""",1,4/21/2021 11:29,93.40.224.54,Mozilla/5.0 (Windows NT 10.0; Win64; x64; rv:88.0) Gecko/20100101 Firefox/88.0,,Firefox,88,Windows,10
85,1,2075,"""",html-slider-response,175,2102701,0.0-175.0,"""","<img src='jspsych/CFDfaces/CFD-AF-240-206-N.jpg' height=""250px"">,</br><b>Ashley</b>","""",256,ConfidenceQuery,Test,"""","""","""","""",CFD-BM-011-016-N.jpg,Justin,1,"""",0,41,1,4/21/2021 11:29,93.40.224.54,Mozilla/5.0 (Windows NT 10.0; Win64; x64; rv:88.0) Gecko/20100101 Firefox/88.0,,Firefox,88,Windows,10
85,1,null,"""",html-keyboard-response,176,2103707,0.0-176.0,"""","<div style=""font-size:60px;"">+</div>","""",256,ITI,Test,null,1000,"""","""","""","""","""","""","""","""",1,4/21/2021 11:29,93.40.224.54,Mozilla/5.0 (Windows NT 10.0; Win64; x64; rv:88.0) Gecko/20100101 Firefox/88.0,,Firefox,88,Windows,10
85,1,null,"""",image-keyboard-response,177,2103963,0.0-177.0,"""",jspsych/scrambledNeutralFaces/scrambledBF21NES.JPG,"""",256,forwardMask,Test,null,250,"""",n,"""","""","""","""","""","""",1,4/21/2021 11:29,93.40.224.54,Mozilla/5.0 (Windows NT 10.0; Win64; x64; rv:88.0) Gecko/20100101 Firefox/88.0,,Firefox,88,Windows,10
85,1,null,"""",image-keyboard-response,178,2103982,0.0-178.0,"""",jspsych/neutralFaces/BF21NES.JPG,"""",256,Cue,Test,null,16,"""","""","""","""","""","""","""","""",1,4/21/2021 11:29,93.40.224.54,Mozilla/5.0 (Windows NT 10.0; Win64; x64; rv:88.0) Gecko/20100101 Firefox/88.0,,Firefox,88,Windows,10
85,1,null,"""",image-keyboard-response,179,2104092,0.0-179.0,"""",jspsych/neutralFaces/BF29NES.JPG,"""",256,backwardMask,Test,null,100,"""","""","""","""","""","""","""","""",1,4/21/2021 11:29,93.40.224.54,Mozilla/5.0 (Windows NT 10.0; Win64; x64; rv:88.0) Gecko/20100101 Firefox/88.0,,Firefox,88,Windows,10
85,1,null,"""",html-keyboard-response,180,2105099,0.0-180.0,"""","<div style=""font-size:60px;"">+</div>","""",256,fixationBtwnNeutralMaskAndPrompt,Test,null,1000,"""","""","""","""","""","""","""","""",1,4/21/2021 11:29,93.40.224.54,Mozilla/5.0 (Windows NT 10.0; Win64; x64; rv:88.0) Gecko/20100101 Firefox/88.0,,Firefox,88,Windows,10
85,1,1134,"""",html-button-response,181,2106235,0.0-181.0,"""","<img src='jspsych/CFDfaces/CFD-AM-214-168-N.jpg' height=""250px"">,</br><b>Juan</b>",0,256,IntactOrRearranged,Test,"""","""","""","""",CFD-WM-034-030-N.jpg,Mark,0,0,"""","""",1,4/21/2021 11:29,93.40.224.54,Mozilla/5.0 (Windows NT 10.0; Win64; x64; rv:88.0) Gecko/20100101 Firefox/88.0,,Firefox,88,Windows,10
85,1,1436,"""",html-slider-response,182,2107674,0.0-182.0,"""","<img src='jspsych/CFDfaces/CFD-AM-214-168-N.jpg' height=""250px"">,</br><b>Juan</b>","""",256,ConfidenceQuery,Test,"""","""","""","""",CFD-WM-034-030-N.jpg,Mark,0,"""",0,100,1,4/21/2021 11:29,93.40.224.54,Mozilla/5.0 (Windows NT 10.0; Win64; x64; rv:88.0) Gecko/20100101 Firefox/88.0,,Firefox,88,Windows,10
85,1,null,"""",html-keyboard-response,183,2108684,0.0-183.0,"""","<div style=""font-size:60px;"">+</div>","""",256,ITI,Test,null,1000,"""","""","""","""","""","""","""","""",1,4/21/2021 11:29,93.40.224.54,Mozilla/5.0 (Windows NT 10.0; Win64; x64; rv:88.0) Gecko/20100101 Firefox/88.0,,Firefox,88,Windows,10
85,1,null,"""",image-keyboard-response,184,2108948,0.0-184.0,"""",jspsych/scrambledNeutralFaces/scrambledAM09NES.JPG,"""",256,forwardMask,Test,null,250,"""",n,"""","""","""","""","""","""",1,4/21/2021 11:29,93.40.224.54,Mozilla/5.0 (Windows NT 10.0; Win64; x64; rv:88.0) Gecko/20100101 Firefox/88.0,,Firefox,88,Windows,10
85,1,null,"""",image-keyboard-response,185,2108978,0.0-185.0,"""",jspsych/neutralFaces/AM09NES.JPG,"""",256,Cue,Test,null,16,"""","""","""","""","""","""","""","""",1,4/21/2021 11:29,93.40.224.54,Mozilla/5.0 (Windows NT 10.0; Win64; x64; rv:88.0) Gecko/20100101 Firefox/88.0,,Firefox,88,Windows,10
85,1,null,"""",image-keyboard-response,186,2109087,0.0-186.0,"""",jspsych/neutralFaces/AM11NES.JPG,"""",256,backwardMask,Test,null,100,"""","""","""","""","""","""","""","""",1,4/21/2021 11:29,93.40.224.54,Mozilla/5.0 (Windows NT 10.0; Win64; x64; rv:88.0) Gecko/20100101 Firefox/88.0,,Firefox,88,Windows,10
85,1,null,"""",html-keyboard-response,187,2110097,0.0-187.0,"""","<div style=""font-size:60px;"">+</div>","""",256,fixationBtwnNeutralMaskAndPrompt,Test,null,1000,"""","""","""","""","""","""","""","""",1,4/21/2021 11:29,93.40.224.54,Mozilla/5.0 (Windows NT 10.0; Win64; x64; rv:88.0) Gecko/20100101 Firefox/88.0,,Firefox,88,Windows,10
85,1,2593,"""",html-button-response,188,2112691,0.0-188.0,"""","<img src='jspsych/CFDfaces/CFD-LM-248-089-N.jpg' height=""250px"">,</br><b>Joshua</b>",1,256,IntactOrRearranged,Test,"""","""","""","""",CFD-BF-001-025-N.jpg,Rebecca,1,1,"""","""",1,4/21/2021 11:29,93.40.224.54,Mozilla/5.0 (Windows NT 10.0; Win64; x64; rv:88.0) Gecko/20100101 Firefox/88.0,,Firefox,88,Windows,10
85,1,null,"""",html-slider-response,189,2117699,0.0-189.0,"""","<img src='jspsych/CFDfaces/CFD-LM-248-089-N.jpg' height=""250px"">,</br><b>Joshua</b>","""",256,ConfidenceQuery,Test,"""","""","""","""",CFD-BF-001-025-N.jpg,Rebecca,1,"""",0,null,1,4/21/2021 11:29,93.40.224.54,Mozilla/5.0 (Windows NT 10.0; Win64; x64; rv:88.0) Gecko/20100101 Firefox/88.0,,Firefox,88,Windows,10
85,1,null,"""",html-keyboard-response,190,2118713,0.0-190.0,"""","<div style=""font-size:60px;"">+</div>","""",256,ITI,Test,null,1000,"""","""","""","""","""","""","""","""",1,4/21/2021 11:29,93.40.224.54,Mozilla/5.0 (Windows NT 10.0; Win64; x64; rv:88.0) Gecko/20100101 Firefox/88.0,,Firefox,88,Windows,10
85,1,null,"""",image-keyboard-response,191,2118978,0.0-191.0,"""",jspsych/scrambledNeutralFaces/scrambledBF23NES.JPG,"""",256,forwardMask,Test,null,250,"""",n,"""","""","""","""","""","""",1,4/21/2021 11:29,93.40.224.54,Mozilla/5.0 (Windows NT 10.0; Win64; x64; rv:88.0) Gecko/20100101 Firefox/88.0,,Firefox,88,Windows,10
85,1,null,"""",image-keyboard-response,192,2119008,0.0-192.0,"""",jspsych/neutralFaces/BF23NES.JPG,"""",256,Cue,Test,null,16,"""","""","""","""","""","""","""","""",1,4/21/2021 11:29,93.40.224.54,Mozilla/5.0 (Windows NT 10.0; Win64; x64; rv:88.0) Gecko/20100101 Firefox/88.0,,Firefox,88,Windows,10
85,1,null,"""",image-keyboard-response,193,2119118,0.0-193.0,"""",jspsych/neutralFaces/BF24NES.JPG,"""",256,backwardMask,Test,null,100,"""","""","""","""","""","""","""","""",1,4/21/2021 11:29,93.40.224.54,Mozilla/5.0 (Windows NT 10.0; Win64; x64; rv:88.0) Gecko/20100101 Firefox/88.0,,Firefox,88,Windows,10
85,1,null,"""",html-keyboard-response,194,2120130,0.0-194.0,"""","<div style=""font-size:60px;"">+</div>","""",256,fixationBtwnNeutralMaskAndPrompt,Test,null,1000,"""","""","""","""","""","""","""","""",1,4/21/2021 11:29,93.40.224.54,Mozilla/5.0 (Windows NT 10.0; Win64; x64; rv:88.0) Gecko/20100101 Firefox/88.0,,Firefox,88,Windows,10
85,1,1763,"""",html-button-response,195,2121894,0.0-195.0,"""","<img src='jspsych/CFDfaces/CFD-BM-041-035-N.jpg' height=""250px"">,</br><b>Ian</b>",1,256,IntactOrRearranged,Test,"""","""","""","""",CFD-LM-217-162-N.jpg,Luis,0,1,"""","""",1,4/21/2021 11:29,93.40.224.54,Mozilla/5.0 (Windows NT 10.0; Win64; x64; rv:88.0) Gecko/20100101 Firefox/88.0,,Firefox,88,Windows,10
85,1,2069,"""",html-slider-response,196,2123964,0.0-196.0,"""","<img src='jspsych/CFDfaces/CFD-BM-041-035-N.jpg' height=""250px"">,</br><b>Ian</b>","""",256,ConfidenceQuery,Test,"""","""","""","""",CFD-LM-217-162-N.jpg,Luis,0,"""",0,100,1,4/21/2021 11:29,93.40.224.54,Mozilla/5.0 (Windows NT 10.0; Win64; x64; rv:88.0) Gecko/20100101 Firefox/88.0,,Firefox,88,Windows,10
85,1,null,"""",html-keyboard-response,197,2124970,0.0-197.0,"""","<div style=""font-size:60px;"">+</div>","""",256,ITI,Test,null,1000,"""","""","""","""","""","""","""","""",1,4/21/2021 11:29,93.40.224.54,Mozilla/5.0 (Windows NT 10.0; Win64; x64; rv:88.0) Gecko/20100101 Firefox/88.0,,Firefox,88,Windows,10
85,1,null,"""",image-keyboard-response,198,2125235,0.0-198.0,"""",jspsych/scrambledDisgustFaces/scrambledBM05DIS.JPG,"""",256,forwardMask,Test,null,250,"""",d,"""","""","""","""","""","""",1,4/21/2021 11:29,93.40.224.54,Mozilla/5.0 (Windows NT 10.0; Win64; x64; rv:88.0) Gecko/20100101 Firefox/88.0,,Firefox,88,Windows,10
85,1,null,"""",image-keyboard-response,199,2125265,0.0-199.0,"""",jspsych/disgustFaces/BM06DIS.JPG,"""",256,Cue,Test,null,16,"""","""","""","""","""","""","""","""",1,4/21/2021 11:29,93.40.224.54,Mozilla/5.0 (Windows NT 10.0; Win64; x64; rv:88.0) Gecko/20100101 Firefox/88.0,,Firefox,88,Windows,10
85,1,null,"""",image-keyboard-response,200,2125375,0.0-200.0,"""",jspsych/neutralFaces/AM15NES.JPG,"""",256,backwardMask,Test,null,100,"""","""","""","""","""","""","""","""",1,4/21/2021 11:29,93.40.224.54,Mozilla/5.0 (Windows NT 10.0; Win64; x64; rv:88.0) Gecko/20100101 Firefox/88.0,,Firefox,88,Windows,10
85,1,null,"""",html-keyboard-response,201,2126389,0.0-201.0,"""","<div style=""font-size:60px;"">+</div>","""",256,fixationBtwnNeutralMaskAndPrompt,Test,null,1000,"""","""","""","""","""","""","""","""",1,4/21/2021 11:29,93.40.224.54,Mozilla/5.0 (Windows NT 10.0; Win64; x64; rv:88.0) Gecko/20100101 Firefox/88.0,,Firefox,88,Windows,10
85,1,1489,"""",html-button-response,202,2127879,0.0-202.0,"""","<img src='jspsych/CFDfaces/CFD-LM-246-087-N.jpg' height=""250px"">,</br><b>Robert</b>",0,256,IntactOrRearranged,Test,"""","""","""","""",CFD-AF-201-060-N.jpg,Jenna,0,0,"""","""",1,4/21/2021 11:29,93.40.224.54,Mozilla/5.0 (Windows NT 10.0; Win64; x64; rv:88.0) Gecko/20100101 Firefox/88.0,,Firefox,88,Windows,10
85,1,1563,"""",html-slider-response,203,2129443,0.0-203.0,"""","<img src='jspsych/CFDfaces/CFD-LM-246-087-N.jpg' height=""250px"">,</br><b>Robert</b>","""",256,ConfidenceQuery,Test,"""","""","""","""",CFD-AF-201-060-N.jpg,Jenna,0,"""",0,100,1,4/21/2021 11:29,93.40.224.54,Mozilla/5.0 (Windows NT 10.0; Win64; x64; rv:88.0) Gecko/20100101 Firefox/88.0,,Firefox,88,Windows,10
85,1,null,"""",html-keyboard-response,204,2130453,0.0-204.0,"""","<div style=""font-size:60px;"">+</div>","""",256,ITI,Test,null,1000,"""","""","""","""","""","""","""","""",1,4/21/2021 11:29,93.40.224.54,Mozilla/5.0 (Windows NT 10.0; Win64; x64; rv:88.0) Gecko/20100101 Firefox/88.0,,Firefox,88,Windows,10
85,1,null,"""",image-keyboard-response,205,2130715,0.0-205.0,"""",jspsych/scrambledNeutralFaces/scrambledAF02NES.JPG,"""",256,forwardMask,Test,null,250,"""",n,"""","""","""","""","""","""",1,4/21/2021 11:29,93.40.224.54,Mozilla/5.0 (Windows NT 10.0; Win64; x64; rv:88.0) Gecko/20100101 Firefox/88.0,,Firefox,88,Windows,10
85,1,null,"""",image-keyboard-response,206,2130746,0.0-206.0,"""",jspsych/neutralFaces/AF02NES.JPG,"""",256,Cue,Test,null,16,"""","""","""","""","""","""","""","""",1,4/21/2021 11:29,93.40.224.54,Mozilla/5.0 (Windows NT 10.0; Win64; x64; rv:88.0) Gecko/20100101 Firefox/88.0,,Firefox,88,Windows,10
85,1,null,"""",image-keyboard-response,207,2130853,0.0-207.0,"""",jspsych/neutralFaces/BF10NES.JPG,"""",256,backwardMask,Test,null,100,"""","""","""","""","""","""","""","""",1,4/21/2021 11:29,93.40.224.54,Mozilla/5.0 (Windows NT 10.0; Win64; x64; rv:88.0) Gecko/20100101 Firefox/88.0,,Firefox,88,Windows,10
85,1,null,"""",html-keyboard-response,208,2131867,0.0-208.0,"""","<div style=""font-size:60px;"">+</div>","""",256,fixationBtwnNeutralMaskAndPrompt,Test,null,1000,"""","""","""","""","""","""","""","""",1,4/21/2021 11:29,93.40.224.54,Mozilla/5.0 (Windows NT 10.0; Win64; x64; rv:88.0) Gecko/20100101 Firefox/88.0,,Firefox,88,Windows,10
85,1,1826,"""",html-button-response,209,2133694,0.0-209.0,"""","<img src='jspsych/CFDfaces/CFD-AM-248-104-N.jpg' height=""250px"">,</br><b>Eric</b>",1,256,IntactOrRearranged,Test,"""","""","""","""",CFD-WM-212-097-N.jpg,Austin,1,1,"""","""",1,4/21/2021 11:29,93.40.224.54,Mozilla/5.0 (Windows NT 10.0; Win64; x64; rv:88.0) Gecko/20100101 Firefox/88.0,,Firefox,88,Windows,10
85,1,3566,"""",html-slider-response,210,2137262,0.0-210.0,"""","<img src='jspsych/CFDfaces/CFD-AM-248-104-N.jpg' height=""250px"">,</br><b>Eric</b>","""",256,ConfidenceQuery,Test,"""","""","""","""",CFD-WM-212-097-N.jpg,Austin,1,"""",0,50,1,4/21/2021 11:29,93.40.224.54,Mozilla/5.0 (Windows NT 10.0; Win64; x64; rv:88.0) Gecko/20100101 Firefox/88.0,,Firefox,88,Windows,10
85,1,null,"""",html-keyboard-response,211,2138278,0.0-211.0,"""","<div style=""font-size:60px;"">+</div>","""",256,ITI,Test,null,1000,"""","""","""","""","""","""","""","""",1,4/21/2021 11:29,93.40.224.54,Mozilla/5.0 (Windows NT 10.0; Win64; x64; rv:88.0) Gecko/20100101 Firefox/88.0,,Firefox,88,Windows,10
85,1,null,"""",image-keyboard-response,212,2138545,0.0-212.0,"""",jspsych/scrambledDisgustFaces/scrambledAF34DIS.JPG,"""",256,forwardMask,Test,null,250,"""",d,"""","""","""","""","""","""",1,4/21/2021 11:29,93.40.224.54,Mozilla/5.0 (Windows NT 10.0; Win64; x64; rv:88.0) Gecko/20100101 Firefox/88.0,,Firefox,88,Windows,10
85,1,null,"""",image-keyboard-response,213,2138576,0.0-213.0,"""",jspsych/disgustFaces/AF34DIS.JPG,"""",256,Cue,Test,null,16,"""","""","""","""","""","""","""","""",1,4/21/2021 11:29,93.40.224.54,Mozilla/5.0 (Windows NT 10.0; Win64; x64; rv:88.0) Gecko/20100101 Firefox/88.0,,Firefox,88,Windows,10
85,1,null,"""",image-keyboard-response,214,2138685,0.0-214.0,"""",jspsych/neutralFaces/BF31NES.JPG,"""",256,backwardMask,Test,null,100,"""","""","""","""","""","""","""","""",1,4/21/2021 11:29,93.40.224.54,Mozilla/5.0 (Windows NT 10.0; Win64; x64; rv:88.0) Gecko/20100101 Firefox/88.0,,Firefox,88,Windows,10
85,1,null,"""",html-keyboard-response,215,2139698,0.0-215.0,"""","<div style=""font-size:60px;"">+</div>","""",256,fixationBtwnNeutralMaskAndPrompt,Test,null,1000,"""","""","""","""","""","""","""","""",1,4/21/2021 11:29,93.40.224.54,Mozilla/5.0 (Windows NT 10.0; Win64; x64; rv:88.0) Gecko/20100101 Firefox/88.0,,Firefox,88,Windows,10
85,1,3199,"""",html-button-response,216,2142897,0.0-216.0,"""","<img src='jspsych/CFDfaces/CFD-WM-215-041-N.jpg' height=""250px"">,</br><b>Daniel</b>",0,256,IntactOrRearranged,Test,"""","""","""","""",CFD-LF-215-157-N.jpg,Heather,1,0,"""","""",1,4/21/2021 11:29,93.40.224.54,Mozilla/5.0 (Windows NT 10.0; Win64; x64; rv:88.0) Gecko/20100101 Firefox/88.0,,Firefox,88,Windows,10
85,1,1640,"""",html-slider-response,217,2144541,0.0-217.0,"""","<img src='jspsych/CFDfaces/CFD-WM-215-041-N.jpg' height=""250px"">,</br><b>Daniel</b>","""",256,ConfidenceQuery,Test,"""","""","""","""",CFD-LF-215-157-N.jpg,Heather,1,"""",0,23,1,4/21/2021 11:29,93.40.224.54,Mozilla/5.0 (Windows NT 10.0; Win64; x64; rv:88.0) Gecko/20100101 Firefox/88.0,,Firefox,88,Windows,10
85,1,null,"""",html-keyboard-response,218,2145544,0.0-218.0,"""","<div style=""font-size:60px;"">+</div>","""",256,ITI,Test,null,1000,"""","""","""","""","""","""","""","""",1,4/21/2021 11:29,93.40.224.54,Mozilla/5.0 (Windows NT 10.0; Win64; x64; rv:88.0) Gecko/20100101 Firefox/88.0,,Firefox,88,Windows,10
85,1,null,"""",image-keyboard-response,219,2145799,0.0-219.0,"""",jspsych/scrambledNeutralFaces/scrambledBF27NES.JPG,"""",256,forwardMask,Test,null,250,"""",n,"""","""","""","""","""","""",1,4/21/2021 11:29,93.40.224.54,Mozilla/5.0 (Windows NT 10.0; Win64; x64; rv:88.0) Gecko/20100101 Firefox/88.0,,Firefox,88,Windows,10
85,1,null,"""",image-keyboard-response,220,2145817,0.0-220.0,"""",jspsych/neutralFaces/BF27NES.JPG,"""",256,Cue,Test,null,16,"""","""","""","""","""","""","""","""",1,4/21/2021 11:29,93.40.224.54,Mozilla/5.0 (Windows NT 10.0; Win64; x64; rv:88.0) Gecko/20100101 Firefox/88.0,,Firefox,88,Windows,10
85,1,null,"""",image-keyboard-response,221,2145920,0.0-221.0,"""",jspsych/neutralFaces/AF02NES.JPG,"""",256,backwardMask,Test,null,100,"""","""","""","""","""","""","""","""",1,4/21/2021 11:29,93.40.224.54,Mozilla/5.0 (Windows NT 10.0; Win64; x64; rv:88.0) Gecko/20100101 Firefox/88.0,,Firefox,88,Windows,10
85,1,null,"""",html-keyboard-response,222,2146924,0.0-222.0,"""","<div style=""font-size:60px;"">+</div>","""",256,fixationBtwnNeutralMaskAndPrompt,Test,null,1000,"""","""","""","""","""","""","""","""",1,4/21/2021 11:29,93.40.224.54,Mozilla/5.0 (Windows NT 10.0; Win64; x64; rv:88.0) Gecko/20100101 Firefox/88.0,,Firefox,88,Windows,10
85,1,3499,"""",html-button-response,223,2150424,0.0-223.0,"""","<img src='jspsych/CFDfaces/CFD-AF-208-003-N.jpg' height=""250px"">,</br><b>Stephanie</b>",1,256,IntactOrRearranged,Test,"""","""","""","""",CFD-WF-024-003-N.jpg,Melissa,0,1,"""","""",1,4/21/2021 11:29,93.40.224.54,Mozilla/5.0 (Windows NT 10.0; Win64; x64; rv:88.0) Gecko/20100101 Firefox/88.0,,Firefox,88,Windows,10
85,1,2088,"""",html-slider-response,224,2152516,0.0-224.0,"""","<img src='jspsych/CFDfaces/CFD-AF-208-003-N.jpg' height=""250px"">,</br><b>Stephanie</b>","""",256,ConfidenceQuery,Test,"""","""","""","""",CFD-WF-024-003-N.jpg,Melissa,0,"""",0,53,1,4/21/2021 11:29,93.40.224.54,Mozilla/5.0 (Windows NT 10.0; Win64; x64; rv:88.0) Gecko/20100101 Firefox/88.0,,Firefox,88,Windows,10
85,1,null,"""",html-keyboard-response,225,2153521,0.0-225.0,"""","<div style=""font-size:60px;"">+</div>","""",256,ITI,Test,null,1000,"""","""","""","""","""","""","""","""",1,4/21/2021 11:29,93.40.224.54,Mozilla/5.0 (Windows NT 10.0; Win64; x64; rv:88.0) Gecko/20100101 Firefox/88.0,,Firefox,88,Windows,10
85,1,null,"""",image-keyboard-response,226,2153782,0.0-226.0,"""",jspsych/scrambledNeutralFaces/scrambledBM08NES.JPG,"""",256,forwardMask,Test,null,250,"""",n,"""","""","""","""","""","""",1,4/21/2021 11:29,93.40.224.54,Mozilla/5.0 (Windows NT 10.0; Win64; x64; rv:88.0) Gecko/20100101 Firefox/88.0,,Firefox,88,Windows,10
85,1,null,"""",image-keyboard-response,227,2153813,0.0-227.0,"""",jspsych/neutralFaces/BM08NES.JPG,"""",256,Cue,Test,null,16,"""","""","""","""","""","""","""","""",1,4/21/2021 11:29,93.40.224.54,Mozilla/5.0 (Windows NT 10.0; Win64; x64; rv:88.0) Gecko/20100101 Firefox/88.0,,Firefox,88,Windows,10
85,1,null,"""",image-keyboard-response,228,2153921,0.0-228.0,"""",jspsych/neutralFaces/AM10NES.JPG,"""",256,backwardMask,Test,null,100,"""","""","""","""","""","""","""","""",1,4/21/2021 11:29,93.40.224.54,Mozilla/5.0 (Windows NT 10.0; Win64; x64; rv:88.0) Gecko/20100101 Firefox/88.0,,Firefox,88,Windows,10
85,1,null,"""",html-keyboard-response,229,2154931,0.0-229.0,"""","<div style=""font-size:60px;"">+</div>","""",256,fixationBtwnNeutralMaskAndPrompt,Test,null,1000,"""","""","""","""","""","""","""","""",1,4/21/2021 11:29,93.40.224.54,Mozilla/5.0 (Windows NT 10.0; Win64; x64; rv:88.0) Gecko/20100101 Firefox/88.0,,Firefox,88,Windows,10
85,1,2827,"""",html-button-response,230,2157759,0.0-230.0,"""","<img src='jspsych/CFDfaces/CFD-WM-017-002-N.jpg' height=""250px"">,</br><b>Jeffrey</b>",1,256,IntactOrRearranged,Test,"""","""","""","""",CFD-AM-238-269-N.jpg,Timothy,1,1,"""","""",1,4/21/2021 11:29,93.40.224.54,Mozilla/5.0 (Windows NT 10.0; Win64; x64; rv:88.0) Gecko/20100101 Firefox/88.0,,Firefox,88,Windows,10
85,1,2727,"""",html-slider-response,231,2160492,0.0-231.0,"""","<img src='jspsych/CFDfaces/CFD-WM-017-002-N.jpg' height=""250px"">,</br><b>Jeffrey</b>","""",256,ConfidenceQuery,Test,"""","""","""","""",CFD-AM-238-269-N.jpg,Timothy,1,"""",0,74,1,4/21/2021 11:29,93.40.224.54,Mozilla/5.0 (Windows NT 10.0; Win64; x64; rv:88.0) Gecko/20100101 Firefox/88.0,,Firefox,88,Windows,10
85,1,null,"""",html-keyboard-response,232,2161500,0.0-232.0,"""","<div style=""font-size:60px;"">+</div>","""",256,ITI,Test,null,1000,"""","""","""","""","""","""","""","""",1,4/21/2021 11:29,93.40.224.54,Mozilla/5.0 (Windows NT 10.0; Win64; x64; rv:88.0) Gecko/20100101 Firefox/88.0,,Firefox,88,Windows,10
85,1,null,"""",image-keyboard-response,233,2161765,0.0-233.0,"""",jspsych/scrambledNeutralFaces/scrambledBM02NES.JPG,"""",256,forwardMask,Test,null,250,"""",n,"""","""","""","""","""","""",1,4/21/2021 11:29,93.40.224.54,Mozilla/5.0 (Windows NT 10.0; Win64; x64; rv:88.0) Gecko/20100101 Firefox/88.0,,Firefox,88,Windows,10
85,1,null,"""",image-keyboard-response,234,2161796,0.0-234.0,"""",jspsych/neutralFaces/BM02NES.JPG,"""",256,Cue,Test,null,16,"""","""","""","""","""","""","""","""",1,4/21/2021 11:29,93.40.224.54,Mozilla/5.0 (Windows NT 10.0; Win64; x64; rv:88.0) Gecko/20100101 Firefox/88.0,,Firefox,88,Windows,10
85,1,null,"""",image-keyboard-response,235,2161905,0.0-235.0,"""",jspsych/neutralFaces/BM27NES.JPG,"""",256,backwardMask,Test,null,100,"""","""","""","""","""","""","""","""",1,4/21/2021 11:29,93.40.224.54,Mozilla/5.0 (Windows NT 10.0; Win64; x64; rv:88.0) Gecko/20100101 Firefox/88.0,,Firefox,88,Windows,10
85,1,null,"""",html-keyboard-response,236,2162910,0.0-236.0,"""","<div style=""font-size:60px;"">+</div>","""",256,fixationBtwnNeutralMaskAndPrompt,Test,null,1000,"""","""","""","""","""","""","""","""",1,4/21/2021 11:29,93.40.224.54,Mozilla/5.0 (Windows NT 10.0; Win64; x64; rv:88.0) Gecko/20100101 Firefox/88.0,,Firefox,88,Windows,10
85,1,2070,"""",html-button-response,237,2164981,0.0-237.0,"""","<img src='jspsych/CFDfaces/CFD-LM-252-076-N.jpg' height=""250px"">,</br><b>Brandon</b>",1,256,IntactOrRearranged,Test,"""","""","""","""",CFD-BM-017-021-N.jpg,Sean,0,1,"""","""",1,4/21/2021 11:29,93.40.224.54,Mozilla/5.0 (Windows NT 10.0; Win64; x64; rv:88.0) Gecko/20100101 Firefox/88.0,,Firefox,88,Windows,10
85,1,1915,"""",html-slider-response,238,2166904,0.0-238.0,"""","<img src='jspsych/CFDfaces/CFD-LM-252-076-N.jpg' height=""250px"">,</br><b>Brandon</b>","""",256,ConfidenceQuery,Test,"""","""","""","""",CFD-BM-017-021-N.jpg,Sean,0,"""",0,48,1,4/21/2021 11:29,93.40.224.54,Mozilla/5.0 (Windows NT 10.0; Win64; x64; rv:88.0) Gecko/20100101 Firefox/88.0,,Firefox,88,Windows,10
85,1,null,"""",html-keyboard-response,239,2167911,0.0-239.0,"""","<div style=""font-size:60px;"">+</div>","""",256,ITI,Test,null,1000,"""","""","""","""","""","""","""","""",1,4/21/2021 11:29,93.40.224.54,Mozilla/5.0 (Windows NT 10.0; Win64; x64; rv:88.0) Gecko/20100101 Firefox/88.0,,Firefox,88,Windows,10
85,1,null,"""",image-keyboard-response,240,2168174,0.0-240.0,"""",jspsych/scrambledDisgustFaces/scrambledAF27DIS.JPG,"""",256,forwardMask,Test,null,250,"""",d,"""","""","""","""","""","""",1,4/21/2021 11:29,93.40.224.54,Mozilla/5.0 (Windows NT 10.0; Win64; x64; rv:88.0) Gecko/20100101 Firefox/88.0,,Firefox,88,Windows,10
85,1,null,"""",image-keyboard-response,241,2168205,0.0-241.0,"""",jspsych/disgustFaces/AF27DIS.JPG,"""",256,Cue,Test,null,16,"""","""","""","""","""","""","""","""",1,4/21/2021 11:29,93.40.224.54,Mozilla/5.0 (Windows NT 10.0; Win64; x64; rv:88.0) Gecko/20100101 Firefox/88.0,,Firefox,88,Windows,10
85,1,null,"""",image-keyboard-response,242,2168315,0.0-242.0,"""",jspsych/neutralFaces/AF07NES.JPG,"""",256,backwardMask,Test,null,100,"""","""","""","""","""","""","""","""",1,4/21/2021 11:29,93.40.224.54,Mozilla/5.0 (Windows NT 10.0; Win64; x64; rv:88.0) Gecko/20100101 Firefox/88.0,,Firefox,88,Windows,10
85,1,null,"""",html-keyboard-response,243,2169326,0.0-243.0,"""","<div style=""font-size:60px;"">+</div>","""",256,fixationBtwnNeutralMaskAndPrompt,Test,null,1000,"""","""","""","""","""","""","""","""",1,4/21/2021 11:29,93.40.224.54,Mozilla/5.0 (Windows NT 10.0; Win64; x64; rv:88.0) Gecko/20100101 Firefox/88.0,,Firefox,88,Windows,10
85,1,1717,"""",html-button-response,244,2171045,0.0-244.0,"""","<img src='jspsych/CFDfaces/CFD-AF-220-107-N.jpg' height=""250px"">,</br><b>Brittany</b>",0,256,IntactOrRearranged,Test,"""","""","""","""",CFD-BM-205-001-N.jpg,Jacob,0,0,"""","""",1,4/21/2021 11:29,93.40.224.54,Mozilla/5.0 (Windows NT 10.0; Win64; x64; rv:88.0) Gecko/20100101 Firefox/88.0,,Firefox,88,Windows,10
85,1,1818,"""",html-slider-response,245,2172867,0.0-245.0,"""","<img src='jspsych/CFDfaces/CFD-AF-220-107-N.jpg' height=""250px"">,</br><b>Brittany</b>","""",256,ConfidenceQuery,Test,"""","""","""","""",CFD-BM-205-001-N.jpg,Jacob,0,"""",0,63,1,4/21/2021 11:29,93.40.224.54,Mozilla/5.0 (Windows NT 10.0; Win64; x64; rv:88.0) Gecko/20100101 Firefox/88.0,,Firefox,88,Windows,10
85,1,null,"""",html-keyboard-response,246,2173873,0.0-246.0,"""","<div style=""font-size:60px;"">+</div>","""",256,ITI,Test,null,1000,"""","""","""","""","""","""","""","""",1,4/21/2021 11:29,93.40.224.54,Mozilla/5.0 (Windows NT 10.0; Win64; x64; rv:88.0) Gecko/20100101 Firefox/88.0,,Firefox,88,Windows,10
85,1,null,"""",image-keyboard-response,247,2174134,0.0-247.0,"""",jspsych/scrambledDisgustFaces/scrambledAF20DIS.JPG,"""",256,forwardMask,Test,null,250,"""",d,"""","""","""","""","""","""",1,4/21/2021 11:29,93.40.224.54,Mozilla/5.0 (Windows NT 10.0; Win64; x64; rv:88.0) Gecko/20100101 Firefox/88.0,,Firefox,88,Windows,10
85,1,null,"""",image-keyboard-response,248,2174165,0.0-248.0,"""",jspsych/disgustFaces/AF20DIS.JPG,"""",256,Cue,Test,null,16,"""","""","""","""","""","""","""","""",1,4/21/2021 11:29,93.40.224.54,Mozilla/5.0 (Windows NT 10.0; Win64; x64; rv:88.0) Gecko/20100101 Firefox/88.0,,Firefox,88,Windows,10
85,1,null,"""",image-keyboard-response,249,2174275,0.0-249.0,"""",jspsych/neutralFaces/BF16NES.JPG,"""",256,backwardMask,Test,null,100,"""","""","""","""","""","""","""","""",1,4/21/2021 11:29,93.40.224.54,Mozilla/5.0 (Windows NT 10.0; Win64; x64; rv:88.0) Gecko/20100101 Firefox/88.0,,Firefox,88,Windows,10
85,1,null,"""",html-keyboard-response,250,2175281,0.0-250.0,"""","<div style=""font-size:60px;"">+</div>","""",256,fixationBtwnNeutralMaskAndPrompt,Test,null,1000,"""","""","""","""","""","""","""","""",1,4/21/2021 11:29,93.40.224.54,Mozilla/5.0 (Windows NT 10.0; Win64; x64; rv:88.0) Gecko/20100101 Firefox/88.0,,Firefox,88,Windows,10
85,1,1545,"""",html-button-response,251,2176827,0.0-251.0,"""","<img src='jspsych/CFDfaces/CFD-AF-209-006-N.jpg' height=""250px"">,</br><b>Amanda</b>",0,256,IntactOrRearranged,Test,"""","""","""","""",CFD-AM-202-079-N.jpg,Vincent,1,0,"""","""",1,4/21/2021 11:29,93.40.224.54,Mozilla/5.0 (Windows NT 10.0; Win64; x64; rv:88.0) Gecko/20100101 Firefox/88.0,,Firefox,88,Windows,10
85,1,1798,"""",html-slider-response,252,2178628,0.0-252.0,"""","<img src='jspsych/CFDfaces/CFD-AF-209-006-N.jpg' height=""250px"">,</br><b>Amanda</b>","""",256,ConfidenceQuery,Test,"""","""","""","""",CFD-AM-202-079-N.jpg,Vincent,1,"""",0,76,1,4/21/2021 11:29,93.40.224.54,Mozilla/5.0 (Windows NT 10.0; Win64; x64; rv:88.0) Gecko/20100101 Firefox/88.0,,Firefox,88,Windows,10
85,1,null,"""",html-keyboard-response,253,2179630,0.0-253.0,"""","<div style=""font-size:60px;"">+</div>","""",256,ITI,Test,null,1000,"""","""","""","""","""","""","""","""",1,4/21/2021 11:29,93.40.224.54,Mozilla/5.0 (Windows NT 10.0; Win64; x64; rv:88.0) Gecko/20100101 Firefox/88.0,,Firefox,88,Windows,10
85,1,null,"""",image-keyboard-response,254,2179896,0.0-254.0,"""",jspsych/scrambledNeutralFaces/scrambledBF02NES.JPG,"""",256,forwardMask,Test,null,250,"""",n,"""","""","""","""","""","""",1,4/21/2021 11:29,93.40.224.54,Mozilla/5.0 (Windows NT 10.0; Win64; x64; rv:88.0) Gecko/20100101 Firefox/88.0,,Firefox,88,Windows,10
85,1,null,"""",image-keyboard-response,255,2179927,0.0-255.0,"""",jspsych/neutralFaces/BF02NES.JPG,"""",256,Cue,Test,null,16,"""","""","""","""","""","""","""","""",1,4/21/2021 11:29,93.40.224.54,Mozilla/5.0 (Windows NT 10.0; Win64; x64; rv:88.0) Gecko/20100101 Firefox/88.0,,Firefox,88,Windows,10
85,1,null,"""",image-keyboard-response,256,2180036,0.0-256.0,"""",jspsych/neutralFaces/BF08NES.JPG,"""",256,backwardMask,Test,null,100,"""","""","""","""","""","""","""","""",1,4/21/2021 11:29,93.40.224.54,Mozilla/5.0 (Windows NT 10.0; Win64; x64; rv:88.0) Gecko/20100101 Firefox/88.0,,Firefox,88,Windows,10
85,1,null,"""",html-keyboard-response,257,2181042,0.0-257.0,"""","<div style=""font-size:60px;"">+</div>","""",256,fixationBtwnNeutralMaskAndPrompt,Test,null,1000,"""","""","""","""","""","""","""","""",1,4/21/2021 11:29,93.40.224.54,Mozilla/5.0 (Windows NT 10.0; Win64; x64; rv:88.0) Gecko/20100101 Firefox/88.0,,Firefox,88,Windows,10
85,1,2118,"""",html-button-response,258,2183161,0.0-258.0,"""","<img src='jspsych/CFDfaces/CFD-AM-207-108-N.jpg' height=""250px"">,</br><b>Brian</b>",1,256,IntactOrRearranged,Test,"""","""","""","""",CFD-AM-220-134-N.jpg,Cameron,0,1,"""","""",1,4/21/2021 11:29,93.40.224.54,Mozilla/5.0 (Windows NT 10.0; Win64; x64; rv:88.0) Gecko/20100101 Firefox/88.0,,Firefox,88,Windows,10
85,1,2032,"""",html-slider-response,259,2185198,0.0-259.0,"""","<img src='jspsych/CFDfaces/CFD-AM-207-108-N.jpg' height=""250px"">,</br><b>Brian</b>","""",256,ConfidenceQuery,Test,"""","""","""","""",CFD-AM-220-134-N.jpg,Cameron,0,"""",0,17,1,4/21/2021 11:29,93.40.224.54,Mozilla/5.0 (Windows NT 10.0; Win64; x64; rv:88.0) Gecko/20100101 Firefox/88.0,,Firefox,88,Windows,10
85,1,null,"""",html-keyboard-response,260,2186206,0.0-260.0,"""","<div style=""font-size:60px;"">+</div>","""",256,ITI,Test,null,1000,"""","""","""","""","""","""","""","""",1,4/21/2021 11:29,93.40.224.54,Mozilla/5.0 (Windows NT 10.0; Win64; x64; rv:88.0) Gecko/20100101 Firefox/88.0,,Firefox,88,Windows,10
85,1,null,"""",image-keyboard-response,261,2186472,0.0-261.0,"""",jspsych/scrambledDisgustFaces/scrambledAM35DIS.JPG,"""",256,forwardMask,Test,null,250,"""",d,"""","""","""","""","""","""",1,4/21/2021 11:29,93.40.224.54,Mozilla/5.0 (Windows NT 10.0; Win64; x64; rv:88.0) Gecko/20100101 Firefox/88.0,,Firefox,88,Windows,10
85,1,null,"""",image-keyboard-response,262,2186503,0.0-262.0,"""",jspsych/disgustFaces/AM35DIS.JPG,"""",256,Cue,Test,null,16,"""","""","""","""","""","""","""","""",1,4/21/2021 11:29,93.40.224.54,Mozilla/5.0 (Windows NT 10.0; Win64; x64; rv:88.0) Gecko/20100101 Firefox/88.0,,Firefox,88,Windows,10
85,1,null,"""",image-keyboard-response,263,2186613,0.0-263.0,"""",jspsych/neutralFaces/AM33NES.JPG,"""",256,backwardMask,Test,null,100,"""","""","""","""","""","""","""","""",1,4/21/2021 11:29,93.40.224.54,Mozilla/5.0 (Windows NT 10.0; Win64; x64; rv:88.0) Gecko/20100101 Firefox/88.0,,Firefox,88,Windows,10
85,1,null,"""",html-keyboard-response,264,2187619,0.0-264.0,"""","<div style=""font-size:60px;"">+</div>","""",256,fixationBtwnNeutralMaskAndPrompt,Test,null,1000,"""","""","""","""","""","""","""","""",1,4/21/2021 11:29,93.40.224.54,Mozilla/5.0 (Windows NT 10.0; Win64; x64; rv:88.0) Gecko/20100101 Firefox/88.0,,Firefox,88,Windows,10
85,1,1874,"""",html-button-response,265,2189495,0.0-265.0,"""","<img src='jspsych/CFDfaces/CFD-WM-032-001-N.jpg' height=""250px"">,</br><b>Richard</b>",0,256,IntactOrRearranged,Test,"""","""","""","""",CFD-BF-008-001-N.jpg,Lindsey,1,0,"""","""",1,4/21/2021 11:29,93.40.224.54,Mozilla/5.0 (Windows NT 10.0; Win64; x64; rv:88.0) Gecko/20100101 Firefox/88.0,,Firefox,88,Windows,10
85,1,3133,"""",html-slider-response,266,2192635,0.0-266.0,"""","<img src='jspsych/CFDfaces/CFD-WM-032-001-N.jpg' height=""250px"">,</br><b>Richard</b>","""",256,ConfidenceQuery,Test,"""","""","""","""",CFD-BF-008-001-N.jpg,Lindsey,1,"""",0,37,1,4/21/2021 11:29,93.40.224.54,Mozilla/5.0 (Windows NT 10.0; Win64; x64; rv:88.0) Gecko/20100101 Firefox/88.0,,Firefox,88,Windows,10
85,1,null,"""",html-keyboard-response,267,2193645,0.0-267.0,"""","<div style=""font-size:60px;"">+</div>","""",256,ITI,Test,null,1000,"""","""","""","""","""","""","""","""",1,4/21/2021 11:29,93.40.224.54,Mozilla/5.0 (Windows NT 10.0; Win64; x64; rv:88.0) Gecko/20100101 Firefox/88.0,,Firefox,88,Windows,10
85,1,null,"""",image-keyboard-response,268,2193909,0.0-268.0,"""",jspsych/scrambledNeutralFaces/scrambledBM34NES.JPG,"""",256,forwardMask,Test,null,250,"""",n,"""","""","""","""","""","""",1,4/21/2021 11:29,93.40.224.54,Mozilla/5.0 (Windows NT 10.0; Win64; x64; rv:88.0) Gecko/20100101 Firefox/88.0,,Firefox,88,Windows,10
85,1,null,"""",image-keyboard-response,269,2193940,0.0-269.0,"""",jspsych/neutralFaces/BM34NES.JPG,"""",256,Cue,Test,null,16,"""","""","""","""","""","""","""","""",1,4/21/2021 11:29,93.40.224.54,Mozilla/5.0 (Windows NT 10.0; Win64; x64; rv:88.0) Gecko/20100101 Firefox/88.0,,Firefox,88,Windows,10
85,1,null,"""",image-keyboard-response,270,2194044,0.0-270.0,"""",jspsych/neutralFaces/AM34NES.JPG,"""",256,backwardMask,Test,null,100,"""","""","""","""","""","""","""","""",1,4/21/2021 11:29,93.40.224.54,Mozilla/5.0 (Windows NT 10.0; Win64; x64; rv:88.0) Gecko/20100101 Firefox/88.0,,Firefox,88,Windows,10
85,1,null,"""",html-keyboard-response,271,2195049,0.0-271.0,"""","<div style=""font-size:60px;"">+</div>","""",256,fixationBtwnNeutralMaskAndPrompt,Test,null,1000,"""","""","""","""","""","""","""","""",1,4/21/2021 11:29,93.40.224.54,Mozilla/5.0 (Windows NT 10.0; Win64; x64; rv:88.0) Gecko/20100101 Firefox/88.0,,Firefox,88,Windows,10
85,1,1745,"""",html-button-response,272,2196807,0.0-272.0,"""","<img src='jspsych/CFDfaces/CFD-WF-019-005-N.jpg' height=""250px"">,</br><b>Kimberly</b>",1,256,IntactOrRearranged,Test,"""","""","""","""",CFD-AF-214-139-N.jpg,Jasmine,1,1,"""","""",1,4/21/2021 11:29,93.40.224.54,Mozilla/5.0 (Windows NT 10.0; Win64; x64; rv:88.0) Gecko/20100101 Firefox/88.0,,Firefox,88,Windows,10
85,1,1124,"""",html-slider-response,273,2197931,0.0-273.0,"""","<img src='jspsych/CFDfaces/CFD-WF-019-005-N.jpg' height=""250px"">,</br><b>Kimberly</b>","""",256,ConfidenceQuery,Test,"""","""","""","""",CFD-AF-214-139-N.jpg,Jasmine,1,"""",0,79,1,4/21/2021 11:29,93.40.224.54,Mozilla/5.0 (Windows NT 10.0; Win64; x64; rv:88.0) Gecko/20100101 Firefox/88.0,,Firefox,88,Windows,10
85,1,null,"""",html-keyboard-response,274,2198940,0.0-274.0,"""","<div style=""font-size:60px;"">+</div>","""",256,ITI,Test,null,1000,"""","""","""","""","""","""","""","""",1,4/21/2021 11:29,93.40.224.54,Mozilla/5.0 (Windows NT 10.0; Win64; x64; rv:88.0) Gecko/20100101 Firefox/88.0,,Firefox,88,Windows,10
85,1,null,"""",image-keyboard-response,275,2199207,0.0-275.0,"""",jspsych/scrambledNeutralFaces/scrambledBM14NES.JPG,"""",256,forwardMask,Test,null,250,"""",n,"""","""","""","""","""","""",1,4/21/2021 11:29,93.40.224.54,Mozilla/5.0 (Windows NT 10.0; Win64; x64; rv:88.0) Gecko/20100101 Firefox/88.0,,Firefox,88,Windows,10
85,1,null,"""",image-keyboard-response,276,2199236,0.0-276.0,"""",jspsych/neutralFaces/BM14NES.JPG,"""",256,Cue,Test,null,16,"""","""","""","""","""","""","""","""",1,4/21/2021 11:29,93.40.224.54,Mozilla/5.0 (Windows NT 10.0; Win64; x64; rv:88.0) Gecko/20100101 Firefox/88.0,,Firefox,88,Windows,10
85,1,null,"""",image-keyboard-response,277,2199346,0.0-277.0,"""",jspsych/neutralFaces/BM13NES.JPG,"""",256,backwardMask,Test,null,100,"""","""","""","""","""","""","""","""",1,4/21/2021 11:29,93.40.224.54,Mozilla/5.0 (Windows NT 10.0; Win64; x64; rv:88.0) Gecko/20100101 Firefox/88.0,,Firefox,88,Windows,10
85,1,null,"""",html-keyboard-response,278,2200362,0.0-278.0,"""","<div style=""font-size:60px;"">+</div>","""",256,fixationBtwnNeutralMaskAndPrompt,Test,null,1000,"""","""","""","""","""","""","""","""",1,4/21/2021 11:29,93.40.224.54,Mozilla/5.0 (Windows NT 10.0; Win64; x64; rv:88.0) Gecko/20100101 Firefox/88.0,,Firefox,88,Windows,10
85,1,2417,"""",html-button-response,279,2202781,0.0-279.0,"""","<img src='jspsych/CFDfaces/CFD-WF-006-002-N.jpg' height=""250px"">,</br><b>Victoria</b>",1,256,IntactOrRearranged,Test,"""","""","""","""",CFD-AF-241-141-N.jpg,Angela,1,1,"""","""",1,4/21/2021 11:29,93.40.224.54,Mozilla/5.0 (Windows NT 10.0; Win64; x64; rv:88.0) Gecko/20100101 Firefox/88.0,,Firefox,88,Windows,10
85,1,1278,"""",html-slider-response,280,2204076,0.0-280.0,"""","<img src='jspsych/CFDfaces/CFD-WF-006-002-N.jpg' height=""250px"">,</br><b>Victoria</b>","""",256,ConfidenceQuery,Test,"""","""","""","""",CFD-AF-241-141-N.jpg,Angela,1,"""",0,86,1,4/21/2021 11:29,93.40.224.54,Mozilla/5.0 (Windows NT 10.0; Win64; x64; rv:88.0) Gecko/20100101 Firefox/88.0,,Firefox,88,Windows,10
85,1,null,"""",html-keyboard-response,281,2205080,0.0-281.0,"""","<div style=""font-size:60px;"">+</div>","""",256,ITI,Test,null,1000,"""","""","""","""","""","""","""","""",1,4/21/2021 11:29,93.40.224.54,Mozilla/5.0 (Windows NT 10.0; Win64; x64; rv:88.0) Gecko/20100101 Firefox/88.0,,Firefox,88,Windows,10
85,1,null,"""",image-keyboard-response,282,2205343,0.0-282.0,"""",jspsych/scrambledNeutralFaces/scrambledBM11NES.JPG,"""",256,forwardMask,Test,null,250,"""",n,"""","""","""","""","""","""",1,4/21/2021 11:29,93.40.224.54,Mozilla/5.0 (Windows NT 10.0; Win64; x64; rv:88.0) Gecko/20100101 Firefox/88.0,,Firefox,88,Windows,10
85,1,null,"""",image-keyboard-response,283,2205374,0.0-283.0,"""",jspsych/neutralFaces/BM11NES.JPG,"""",256,Cue,Test,null,16,"""","""","""","""","""","""","""","""",1,4/21/2021 11:29,93.40.224.54,Mozilla/5.0 (Windows NT 10.0; Win64; x64; rv:88.0) Gecko/20100101 Firefox/88.0,,Firefox,88,Windows,10
85,1,null,"""",image-keyboard-response,284,2205484,0.0-284.0,"""",jspsych/neutralFaces/AM21NES.JPG,"""",256,backwardMask,Test,null,100,"""","""","""","""","""","""","""","""",1,4/21/2021 11:29,93.40.224.54,Mozilla/5.0 (Windows NT 10.0; Win64; x64; rv:88.0) Gecko/20100101 Firefox/88.0,,Firefox,88,Windows,10
85,1,null,"""",html-keyboard-response,285,2206494,0.0-285.0,"""","<div style=""font-size:60px;"">+</div>","""",256,fixationBtwnNeutralMaskAndPrompt,Test,null,1000,"""","""","""","""","""","""","""","""",1,4/21/2021 11:29,93.40.224.54,Mozilla/5.0 (Windows NT 10.0; Win64; x64; rv:88.0) Gecko/20100101 Firefox/88.0,,Firefox,88,Windows,10
85,1,2182,"""",html-button-response,286,2208676,0.0-286.0,"""","<img src='jspsych/CFDfaces/CFD-AF-222-134-N.jpg' height=""250px"">,</br><b>Julie</b>",1,256,IntactOrRearranged,Test,"""","""","""","""",CFD-BF-010-001-N.jpg,Lauren,0,1,"""","""",1,4/21/2021 11:29,93.40.224.54,Mozilla/5.0 (Windows NT 10.0; Win64; x64; rv:88.0) Gecko/20100101 Firefox/88.0,,Firefox,88,Windows,10
85,1,1192,"""",html-slider-response,287,2209879,0.0-287.0,"""","<img src='jspsych/CFDfaces/CFD-AF-222-134-N.jpg' height=""250px"">,</br><b>Julie</b>","""",256,ConfidenceQuery,Test,"""","""","""","""",CFD-BF-010-001-N.jpg,Lauren,0,"""",0,67,1,4/21/2021 11:29,93.40.224.54,Mozilla/5.0 (Windows NT 10.0; Win64; x64; rv:88.0) Gecko/20100101 Firefox/88.0,,Firefox,88,Windows,10
85,1,null,"""",html-keyboard-response,288,2210887,0.0-288.0,"""","<div style=""font-size:60px;"">+</div>","""",256,ITI,Test,null,1000,"""","""","""","""","""","""","""","""",1,4/21/2021 11:29,93.40.224.54,Mozilla/5.0 (Windows NT 10.0; Win64; x64; rv:88.0) Gecko/20100101 Firefox/88.0,,Firefox,88,Windows,10
85,1,null,"""",image-keyboard-response,289,2211153,0.0-289.0,"""",jspsych/scrambledNeutralFaces/scrambledAF19NES.JPG,"""",256,forwardMask,Test,null,250,"""",n,"""","""","""","""","""","""",1,4/21/2021 11:29,93.40.224.54,Mozilla/5.0 (Windows NT 10.0; Win64; x64; rv:88.0) Gecko/20100101 Firefox/88.0,,Firefox,88,Windows,10
85,1,null,"""",image-keyboard-response,290,2211184,0.0-290.0,"""",jspsych/neutralFaces/AF19NES.JPG,"""",256,Cue,Test,null,16,"""","""","""","""","""","""","""","""",1,4/21/2021 11:29,93.40.224.54,Mozilla/5.0 (Windows NT 10.0; Win64; x64; rv:88.0) Gecko/20100101 Firefox/88.0,,Firefox,88,Windows,10
85,1,null,"""",image-keyboard-response,291,2211294,0.0-291.0,"""",jspsych/neutralFaces/AF07NES.JPG,"""",256,backwardMask,Test,null,100,"""","""","""","""","""","""","""","""",1,4/21/2021 11:29,93.40.224.54,Mozilla/5.0 (Windows NT 10.0; Win64; x64; rv:88.0) Gecko/20100101 Firefox/88.0,,Firefox,88,Windows,10
85,1,null,"""",html-keyboard-response,292,2212298,0.0-292.0,"""","<div style=""font-size:60px;"">+</div>","""",256,fixationBtwnNeutralMaskAndPrompt,Test,null,1000,"""","""","""","""","""","""","""","""",1,4/21/2021 11:29,93.40.224.54,Mozilla/5.0 (Windows NT 10.0; Win64; x64; rv:88.0) Gecko/20100101 Firefox/88.0,,Firefox,88,Windows,10
85,1,2698,"""",html-button-response,293,2214998,0.0-293.0,"""","<img src='jspsych/CFDfaces/CFD-BM-211-174-N.jpg' height=""250px"">,</br><b>Christian</b>",1,256,IntactOrRearranged,Test,"""","""","""","""",CFD-BF-004-014-N.jpg,Whitney,1,1,"""","""",1,4/21/2021 11:29,93.40.224.54,Mozilla/5.0 (Windows NT 10.0; Win64; x64; rv:88.0) Gecko/20100101 Firefox/88.0,,Firefox,88,Windows,10
85,1,2324,"""",html-slider-response,294,2217328,0.0-294.0,"""","<img src='jspsych/CFDfaces/CFD-BM-211-174-N.jpg' height=""250px"">,</br><b>Christian</b>","""",256,ConfidenceQuery,Test,"""","""","""","""",CFD-BF-004-014-N.jpg,Whitney,1,"""",0,25,1,4/21/2021 11:29,93.40.224.54,Mozilla/5.0 (Windows NT 10.0; Win64; x64; rv:88.0) Gecko/20100101 Firefox/88.0,,Firefox,88,Windows,10
85,1,null,"""",html-keyboard-response,295,2218331,0.0-295.0,"""","<div style=""font-size:60px;"">+</div>","""",256,ITI,Test,null,1000,"""","""","""","""","""","""","""","""",1,4/21/2021 11:29,93.40.224.54,Mozilla/5.0 (Windows NT 10.0; Win64; x64; rv:88.0) Gecko/20100101 Firefox/88.0,,Firefox,88,Windows,10
