run_id,condition,rt,responses,trial_type,trial_index,time_elapsed,internal_node_id,question_order,stimulus,button_pressed,iTrial,Phase,ExperimentPhase,key_press,StimulusDurationSetting,CharacterResponse,correctResponse,Face,Name,rearranged,didSubjectEnterRearranged,slider_start,response,Block,recorded_at,ip,user_agent,device,browser,browser_version,platform,platform_version
18,1,7411,"{""Q0"":""ABR580YP0ST7X""}",survey-text,0,7421,0.0-0.0,"""","""","""","""","""","""","""","""","""","""","""","""","""","""","""","""","""",4/18/2021 21:49,108.173.198.252,Mozilla/5.0 (Macintosh; Intel Mac OS X 10.15; rv:87.0) Gecko/20100101 Firefox/87.0,Macintosh,Firefox,87,OS X,10.15
18,1,13181,"{""Q0"":""33""}",survey-text,1,20617,0.0-1.0,"""","""","""","""","""","""","""","""","""","""","""","""","""","""","""","""","""",4/18/2021 21:49,108.173.198.252,Mozilla/5.0 (Macintosh; Intel Mac OS X 10.15; rv:87.0) Gecko/20100101 Firefox/87.0,Macintosh,Firefox,87,OS X,10.15
18,1,13004,"{""Q0"":""male"",""Q1"":""Not Hispanic/Latino"",""Q2"":""White or Caucasian""}",survey-multi-choice,2,33629,0.0-2.0,"[0,1,2]","""","""","""","""","""","""","""","""","""","""","""","""","""","""","""","""",4/18/2021 21:49,108.173.198.252,Mozilla/5.0 (Macintosh; Intel Mac OS X 10.15; rv:87.0) Gecko/20100101 Firefox/87.0,Macintosh,Firefox,87,OS X,10.15
18,1,15957,"""",image-button-response,3,49617,0.0-3.0,"""",directionsMemoryAssociation1.JPG,0,1,IntroDirections1,break,"""","""","""","""","""","""","""","""","""","""","""",4/18/2021 21:49,108.173.198.252,Mozilla/5.0 (Macintosh; Intel Mac OS X 10.15; rv:87.0) Gecko/20100101 Firefox/87.0,Macintosh,Firefox,87,OS X,10.15
18,1,18926,"""",image-button-response,4,68556,0.0-4.0,"""",directionsMemoryAssociation2.JPG,0,1,IntroDirections2,break,"""","""","""","""","""","""","""","""","""","""","""",4/18/2021 21:49,108.173.198.252,Mozilla/5.0 (Macintosh; Intel Mac OS X 10.15; rv:87.0) Gecko/20100101 Firefox/87.0,Macintosh,Firefox,87,OS X,10.15
18,1,4977,"""",html-keyboard-response,5,73568,0.0-5.0,"""","<img src='jspsych/CFDfaces/CFD-WF-215-145-N.jpg' height=""250px"">,</br><b>Tara</b>","""",1,IntactFace,Practice,70,5000,f,"""","""","""","""","""","""","""","""",4/18/2021 21:49,108.173.198.252,Mozilla/5.0 (Macintosh; Intel Mac OS X 10.15; rv:87.0) Gecko/20100101 Firefox/87.0,Macintosh,Firefox,87,OS X,10.15
18,1,null,"""",html-keyboard-response,6,74072,0.0-6.0,"""","<div style=""font-size:60px;"">+</div>","""",1,ITI,Practice,null,1000,"""","""","""","""","""","""","""","""","""",4/18/2021 21:49,108.173.198.252,Mozilla/5.0 (Macintosh; Intel Mac OS X 10.15; rv:87.0) Gecko/20100101 Firefox/87.0,Macintosh,Firefox,87,OS X,10.15
18,1,3953,"""",html-keyboard-response,7,79076,0.0-7.0,"""","<img src='jspsych/CFDfaces/CFD-BM-002-013-N.jpg' height=""250px"">,</br><b>Patrick</b>","""",2,IntactFace,Practice,70,5000,f,"""","""","""","""","""","""","""","""",4/18/2021 21:49,108.173.198.252,Mozilla/5.0 (Macintosh; Intel Mac OS X 10.15; rv:87.0) Gecko/20100101 Firefox/87.0,Macintosh,Firefox,87,OS X,10.15
18,1,null,"""",html-keyboard-response,8,79584,0.0-8.0,"""","<div style=""font-size:60px;"">+</div>","""",2,ITI,Practice,null,1000,"""","""","""","""","""","""","""","""","""",4/18/2021 21:49,108.173.198.252,Mozilla/5.0 (Macintosh; Intel Mac OS X 10.15; rv:87.0) Gecko/20100101 Firefox/87.0,Macintosh,Firefox,87,OS X,10.15
18,1,2877,"""",html-keyboard-response,9,84590,0.0-9.0,"""","<img src='jspsych/CFDfaces/CFD-BF-039-031-N.jpg' height=""250px"">,</br><b>Cassandra</b>","""",3,IntactFace,Practice,70,5000,f,"""","""","""","""","""","""","""","""",4/18/2021 21:49,108.173.198.252,Mozilla/5.0 (Macintosh; Intel Mac OS X 10.15; rv:87.0) Gecko/20100101 Firefox/87.0,Macintosh,Firefox,87,OS X,10.15
18,1,null,"""",html-keyboard-response,10,85094,0.0-10.0,"""","<div style=""font-size:60px;"">+</div>","""",3,ITI,Practice,null,1000,"""","""","""","""","""","""","""","""","""",4/18/2021 21:49,108.173.198.252,Mozilla/5.0 (Macintosh; Intel Mac OS X 10.15; rv:87.0) Gecko/20100101 Firefox/87.0,Macintosh,Firefox,87,OS X,10.15
18,1,2989,"""",html-keyboard-response,11,90099,0.0-11.0,"""","<img src='jspsych/CFDfaces/CFD-AF-230-193-N.jpg' height=""250px"">,</br><b>Shannon</b>","""",4,IntactFace,Practice,78,5000,n,"""","""","""","""","""","""","""","""",4/18/2021 21:49,108.173.198.252,Mozilla/5.0 (Macintosh; Intel Mac OS X 10.15; rv:87.0) Gecko/20100101 Firefox/87.0,Macintosh,Firefox,87,OS X,10.15
18,1,null,"""",html-keyboard-response,12,90606,0.0-12.0,"""","<div style=""font-size:60px;"">+</div>","""",4,ITI,Practice,null,1000,"""","""","""","""","""","""","""","""","""",4/18/2021 21:49,108.173.198.252,Mozilla/5.0 (Macintosh; Intel Mac OS X 10.15; rv:87.0) Gecko/20100101 Firefox/87.0,Macintosh,Firefox,87,OS X,10.15
18,1,2735,"""",html-keyboard-response,13,95611,0.0-13.0,"""","<img src='jspsych/CFDfaces/CFD-AM-213-056-N.jpg' height=""250px"">,</br><b>Marcus</b>","""",5,IntactFace,Practice,78,5000,n,"""","""","""","""","""","""","""","""",4/18/2021 21:49,108.173.198.252,Mozilla/5.0 (Macintosh; Intel Mac OS X 10.15; rv:87.0) Gecko/20100101 Firefox/87.0,Macintosh,Firefox,87,OS X,10.15
18,1,null,"""",html-keyboard-response,14,96114,0.0-14.0,"""","<div style=""font-size:60px;"">+</div>","""",5,ITI,Practice,null,1000,"""","""","""","""","""","""","""","""","""",4/18/2021 21:49,108.173.198.252,Mozilla/5.0 (Macintosh; Intel Mac OS X 10.15; rv:87.0) Gecko/20100101 Firefox/87.0,Macintosh,Firefox,87,OS X,10.15
18,1,3338,"""",html-keyboard-response,15,101118,0.0-15.0,"""","<img src='jspsych/CFDfaces/CFD-AM-246-184-N.jpg' height=""250px"">,</br><b>Carlos</b>","""",6,IntactFace,Practice,70,5000,f,"""","""","""","""","""","""","""","""",4/18/2021 21:49,108.173.198.252,Mozilla/5.0 (Macintosh; Intel Mac OS X 10.15; rv:87.0) Gecko/20100101 Firefox/87.0,Macintosh,Firefox,87,OS X,10.15
18,1,null,"""",html-keyboard-response,16,101622,0.0-16.0,"""","<div style=""font-size:60px;"">+</div>","""",6,ITI,Practice,null,1000,"""","""","""","""","""","""","""","""","""",4/18/2021 21:49,108.173.198.252,Mozilla/5.0 (Macintosh; Intel Mac OS X 10.15; rv:87.0) Gecko/20100101 Firefox/87.0,Macintosh,Firefox,87,OS X,10.15
18,1,1675,"""",html-keyboard-response,17,106632,0.0-17.0,"""","<img src='jspsych/CFDfaces/CFD-BM-203-001-N.jpg' height=""250px"">,</br><b>Samuel</b>","""",7,IntactFace,Practice,70,5000,f,"""","""","""","""","""","""","""","""",4/18/2021 21:49,108.173.198.252,Mozilla/5.0 (Macintosh; Intel Mac OS X 10.15; rv:87.0) Gecko/20100101 Firefox/87.0,Macintosh,Firefox,87,OS X,10.15
18,1,null,"""",html-keyboard-response,18,107134,0.0-18.0,"""","<div style=""font-size:60px;"">+</div>","""",7,ITI,Practice,null,1000,"""","""","""","""","""","""","""","""","""",4/18/2021 21:49,108.173.198.252,Mozilla/5.0 (Macintosh; Intel Mac OS X 10.15; rv:87.0) Gecko/20100101 Firefox/87.0,Macintosh,Firefox,87,OS X,10.15
18,1,4361,"""",html-keyboard-response,19,112139,0.0-19.0,"""","<img src='jspsych/CFDfaces/CFD-AF-200-228-N.jpg' height=""250px"">,</br><b>Katelyn</b>","""",8,IntactFace,Practice,78,5000,n,"""","""","""","""","""","""","""","""",4/18/2021 21:49,108.173.198.252,Mozilla/5.0 (Macintosh; Intel Mac OS X 10.15; rv:87.0) Gecko/20100101 Firefox/87.0,Macintosh,Firefox,87,OS X,10.15
18,1,null,"""",html-keyboard-response,20,112642,0.0-20.0,"""","<div style=""font-size:60px;"">+</div>","""",8,ITI,Practice,null,1000,"""","""","""","""","""","""","""","""","""",4/18/2021 21:49,108.173.198.252,Mozilla/5.0 (Macintosh; Intel Mac OS X 10.15; rv:87.0) Gecko/20100101 Firefox/87.0,Macintosh,Firefox,87,OS X,10.15
18,1,12220,"""",image-button-response,21,124877,0.0-21.0,"""",directionsForTest.JPG,0,1,directionsForTest,break,"""","""","""","""","""","""","""","""","""","""","""",4/18/2021 21:49,108.173.198.252,Mozilla/5.0 (Macintosh; Intel Mac OS X 10.15; rv:87.0) Gecko/20100101 Firefox/87.0,Macintosh,Firefox,87,OS X,10.15
18,1,12528,"""",image-button-response,22,137419,0.0-22.0,"""",directionsForTest2.JPG,0,1,directionsForTest2,break,"""","""","""","""","""","""","""","""","""","""","""",4/18/2021 21:49,108.173.198.252,Mozilla/5.0 (Macintosh; Intel Mac OS X 10.15; rv:87.0) Gecko/20100101 Firefox/87.0,Macintosh,Firefox,87,OS X,10.15
18,1,null,"""",html-keyboard-response,23,138422,0.0-23.0,"""","<div style=""font-size:60px;"">+</div>","""",1,ITI,Practice,null,1000,"""","""","""","""","""","""","""","""","""",4/18/2021 21:49,108.173.198.252,Mozilla/5.0 (Macintosh; Intel Mac OS X 10.15; rv:87.0) Gecko/20100101 Firefox/87.0,Macintosh,Firefox,87,OS X,10.15
18,1,null,"""",image-keyboard-response,24,138689,0.0-24.0,"""",jspsych/scrambledDisgustFaces/scrambledBF35DIS.JPG,"""",1,forwardMask,Practice,null,250,"""",d,"""","""","""","""","""","""","""",4/18/2021 21:49,108.173.198.252,Mozilla/5.0 (Macintosh; Intel Mac OS X 10.15; rv:87.0) Gecko/20100101 Firefox/87.0,Macintosh,Firefox,87,OS X,10.15
18,1,null,"""",image-keyboard-response,25,138716,0.0-25.0,"""",jspsych/disgustFaces/BF35DIS.JPG,"""",1,Cue,Practice,null,16,"""","""","""","""","""","""","""","""","""",4/18/2021 21:49,108.173.198.252,Mozilla/5.0 (Macintosh; Intel Mac OS X 10.15; rv:87.0) Gecko/20100101 Firefox/87.0,Macintosh,Firefox,87,OS X,10.15
18,1,null,"""",image-keyboard-response,26,138826,0.0-26.0,"""",jspsych/neutralFaces/BF33NES.JPG,"""",1,backwardMask,Practice,null,100,"""","""","""","""","""","""","""","""","""",4/18/2021 21:49,108.173.198.252,Mozilla/5.0 (Macintosh; Intel Mac OS X 10.15; rv:87.0) Gecko/20100101 Firefox/87.0,Macintosh,Firefox,87,OS X,10.15
18,1,null,"""",html-keyboard-response,27,139830,0.0-27.0,"""","<div style=""font-size:60px;"">+</div>","""",1,fixationBtwnNeutralMaskAndPrompt,Practice,null,1000,"""","""","""","""","""","""","""","""","""",4/18/2021 21:49,108.173.198.252,Mozilla/5.0 (Macintosh; Intel Mac OS X 10.15; rv:87.0) Gecko/20100101 Firefox/87.0,Macintosh,Firefox,87,OS X,10.15
18,1,4507,"""",html-button-response,28,144346,0.0-28.0,"""","<img src='jspsych/CFDfaces/CFD-BF-039-031-N.jpg'height=""250px""></br><b>Katelyn</b>",0,1,IntactOrRearranged,Practice,"""","""","""","""",CFD-BF-039-031-N.jpg,Katelyn,1,0,"""","""","""",4/18/2021 21:49,108.173.198.252,Mozilla/5.0 (Macintosh; Intel Mac OS X 10.15; rv:87.0) Gecko/20100101 Firefox/87.0,Macintosh,Firefox,87,OS X,10.15
18,1,2628,"""",html-slider-response,29,147006,0.0-29.0,"""","<img src='jspsych/CFDfaces/CFD-BF-039-031-N.jpg'height=""250px""></br><b>Katelyn</b>","""",1,ConfidenceQuery,Practice,"""","""","""","""",CFD-WM-003-002-N.jpg,Jacob,1,"""",0,91,"""",4/18/2021 21:49,108.173.198.252,Mozilla/5.0 (Macintosh; Intel Mac OS X 10.15; rv:87.0) Gecko/20100101 Firefox/87.0,Macintosh,Firefox,87,OS X,10.15
18,1,1813,"""",html-button-response,30,148822,0.0-30.0,"""",You are Incorrect. You called a Rearranged Pair Intact,0,1,feedback,Practice,"""","""","""","""","""","""","""","""","""","""","""",4/18/2021 21:49,108.173.198.252,Mozilla/5.0 (Macintosh; Intel Mac OS X 10.15; rv:87.0) Gecko/20100101 Firefox/87.0,Macintosh,Firefox,87,OS X,10.15
18,1,null,"""",html-keyboard-response,31,149823,0.0-31.0,"""","<div style=""font-size:60px;"">+</div>","""",2,ITI,Practice,null,1000,"""","""","""","""","""","""","""","""","""",4/18/2021 21:49,108.173.198.252,Mozilla/5.0 (Macintosh; Intel Mac OS X 10.15; rv:87.0) Gecko/20100101 Firefox/87.0,Macintosh,Firefox,87,OS X,10.15
18,1,null,"""",image-keyboard-response,32,150084,0.0-32.0,"""",jspsych/scrambledNeutralFaces/scrambledAM09NES.JPG,"""",2,forwardMask,Practice,null,250,"""",n,"""","""","""","""","""","""","""",4/18/2021 21:49,108.173.198.252,Mozilla/5.0 (Macintosh; Intel Mac OS X 10.15; rv:87.0) Gecko/20100101 Firefox/87.0,Macintosh,Firefox,87,OS X,10.15
18,1,null,"""",image-keyboard-response,33,150108,0.0-33.0,"""",jspsych/neutralFaces/AM09NES.JPG,"""",2,Cue,Practice,null,16,"""","""","""","""","""","""","""","""","""",4/18/2021 21:49,108.173.198.252,Mozilla/5.0 (Macintosh; Intel Mac OS X 10.15; rv:87.0) Gecko/20100101 Firefox/87.0,Macintosh,Firefox,87,OS X,10.15
18,1,null,"""",image-keyboard-response,34,150214,0.0-34.0,"""",jspsych/neutralFaces/AM08NES.JPG,"""",2,backwardMask,Practice,null,100,"""","""","""","""","""","""","""","""","""",4/18/2021 21:49,108.173.198.252,Mozilla/5.0 (Macintosh; Intel Mac OS X 10.15; rv:87.0) Gecko/20100101 Firefox/87.0,Macintosh,Firefox,87,OS X,10.15
18,1,null,"""",html-keyboard-response,35,151220,0.0-35.0,"""","<div style=""font-size:60px;"">+</div>","""",2,fixationBtwnNeutralMaskAndPrompt,Practice,null,1000,"""","""","""","""","""","""","""","""","""",4/18/2021 21:49,108.173.198.252,Mozilla/5.0 (Macintosh; Intel Mac OS X 10.15; rv:87.0) Gecko/20100101 Firefox/87.0,Macintosh,Firefox,87,OS X,10.15
18,1,2114,"""",html-button-response,36,153335,0.0-36.0,"""","<img src='jspsych/CFDfaces/CFD-WF-215-145-N.jpg'height=""250px""></br><b>Tara</b>",0,2,IntactOrRearranged,Practice,"""","""","""","""",CFD-WF-215-145-N.jpg,Tara,0,0,"""","""","""",4/18/2021 21:49,108.173.198.252,Mozilla/5.0 (Macintosh; Intel Mac OS X 10.15; rv:87.0) Gecko/20100101 Firefox/87.0,Macintosh,Firefox,87,OS X,10.15
18,1,2815,"""",html-slider-response,37,156154,0.0-37.0,"""","<img src='jspsych/CFDfaces/CFD-WF-215-145-N.jpg'height=""250px""></br><b>Tara</b>","""",2,ConfidenceQuery,Practice,"""","""","""","""",CFD-WM-003-002-N.jpg,Jacob,0,"""",0,100,"""",4/18/2021 21:49,108.173.198.252,Mozilla/5.0 (Macintosh; Intel Mac OS X 10.15; rv:87.0) Gecko/20100101 Firefox/87.0,Macintosh,Firefox,87,OS X,10.15
18,1,1421,"""",html-button-response,38,157577,0.0-38.0,"""",You are Correct. You called an Intact Pair Intact,0,2,feedback,Practice,"""","""","""","""","""","""","""","""","""","""","""",4/18/2021 21:49,108.173.198.252,Mozilla/5.0 (Macintosh; Intel Mac OS X 10.15; rv:87.0) Gecko/20100101 Firefox/87.0,Macintosh,Firefox,87,OS X,10.15
18,1,null,"""",html-keyboard-response,39,158581,0.0-39.0,"""","<div style=""font-size:60px;"">+</div>","""",3,ITI,Practice,null,1000,"""","""","""","""","""","""","""","""","""",4/18/2021 21:49,108.173.198.252,Mozilla/5.0 (Macintosh; Intel Mac OS X 10.15; rv:87.0) Gecko/20100101 Firefox/87.0,Macintosh,Firefox,87,OS X,10.15
18,1,null,"""",image-keyboard-response,40,158839,0.0-40.0,"""",jspsych/scrambledNeutralFaces/scrambledAF18NES.JPG,"""",3,forwardMask,Practice,null,250,"""",n,"""","""","""","""","""","""","""",4/18/2021 21:49,108.173.198.252,Mozilla/5.0 (Macintosh; Intel Mac OS X 10.15; rv:87.0) Gecko/20100101 Firefox/87.0,Macintosh,Firefox,87,OS X,10.15
18,1,null,"""",image-keyboard-response,41,158858,0.0-41.0,"""",jspsych/neutralFaces/AF18NES.JPG,"""",3,Cue,Practice,null,16,"""","""","""","""","""","""","""","""","""",4/18/2021 21:49,108.173.198.252,Mozilla/5.0 (Macintosh; Intel Mac OS X 10.15; rv:87.0) Gecko/20100101 Firefox/87.0,Macintosh,Firefox,87,OS X,10.15
18,1,null,"""",image-keyboard-response,42,158965,0.0-42.0,"""",jspsych/neutralFaces/BF22NES.JPG,"""",3,backwardMask,Practice,null,100,"""","""","""","""","""","""","""","""","""",4/18/2021 21:49,108.173.198.252,Mozilla/5.0 (Macintosh; Intel Mac OS X 10.15; rv:87.0) Gecko/20100101 Firefox/87.0,Macintosh,Firefox,87,OS X,10.15
18,1,null,"""",html-keyboard-response,43,159971,0.0-43.0,"""","<div style=""font-size:60px;"">+</div>","""",3,fixationBtwnNeutralMaskAndPrompt,Practice,null,1000,"""","""","""","""","""","""","""","""","""",4/18/2021 21:49,108.173.198.252,Mozilla/5.0 (Macintosh; Intel Mac OS X 10.15; rv:87.0) Gecko/20100101 Firefox/87.0,Macintosh,Firefox,87,OS X,10.15
18,1,3165,"""",html-button-response,44,163137,0.0-44.0,"""","<img src='jspsych/CFDfaces/CFD-AF-200-228-N.jpg'height=""250px""></br><b>Cassandra</b>",1,3,IntactOrRearranged,Practice,"""","""","""","""",CFD-AF-200-228-N.jpg,Cassandra,1,1,"""","""","""",4/18/2021 21:49,108.173.198.252,Mozilla/5.0 (Macintosh; Intel Mac OS X 10.15; rv:87.0) Gecko/20100101 Firefox/87.0,Macintosh,Firefox,87,OS X,10.15
18,1,1977,"""",html-slider-response,45,165119,0.0-45.0,"""","<img src='jspsych/CFDfaces/CFD-AF-200-228-N.jpg'height=""250px""></br><b>Cassandra</b>","""",3,ConfidenceQuery,Practice,"""","""","""","""",CFD-WM-003-002-N.jpg,Jacob,1,"""",0,59,"""",4/18/2021 21:49,108.173.198.252,Mozilla/5.0 (Macintosh; Intel Mac OS X 10.15; rv:87.0) Gecko/20100101 Firefox/87.0,Macintosh,Firefox,87,OS X,10.15
18,1,1188,"""",html-button-response,46,166307,0.0-46.0,"""",You are Correct. You Called A Rearranged Pair Rearranged,0,3,feedback,Practice,"""","""","""","""","""","""","""","""","""","""","""",4/18/2021 21:49,108.173.198.252,Mozilla/5.0 (Macintosh; Intel Mac OS X 10.15; rv:87.0) Gecko/20100101 Firefox/87.0,Macintosh,Firefox,87,OS X,10.15
18,1,null,"""",html-keyboard-response,47,167314,0.0-47.0,"""","<div style=""font-size:60px;"">+</div>","""",4,ITI,Practice,null,1000,"""","""","""","""","""","""","""","""","""",4/18/2021 21:49,108.173.198.252,Mozilla/5.0 (Macintosh; Intel Mac OS X 10.15; rv:87.0) Gecko/20100101 Firefox/87.0,Macintosh,Firefox,87,OS X,10.15
18,1,null,"""",image-keyboard-response,48,167572,0.0-48.0,"""",jspsych/scrambledNeutralFaces/scrambledAF06NES.JPG,"""",4,forwardMask,Practice,null,250,"""",n,"""","""","""","""","""","""","""",4/18/2021 21:49,108.173.198.252,Mozilla/5.0 (Macintosh; Intel Mac OS X 10.15; rv:87.0) Gecko/20100101 Firefox/87.0,Macintosh,Firefox,87,OS X,10.15
18,1,null,"""",image-keyboard-response,49,167595,0.0-49.0,"""",jspsych/neutralFaces/AF06NES.JPG,"""",4,Cue,Practice,null,16,"""","""","""","""","""","""","""","""","""",4/18/2021 21:49,108.173.198.252,Mozilla/5.0 (Macintosh; Intel Mac OS X 10.15; rv:87.0) Gecko/20100101 Firefox/87.0,Macintosh,Firefox,87,OS X,10.15
18,1,null,"""",image-keyboard-response,50,167705,0.0-50.0,"""",jspsych/neutralFaces/AF34NES.JPG,"""",4,backwardMask,Practice,null,100,"""","""","""","""","""","""","""","""","""",4/18/2021 21:49,108.173.198.252,Mozilla/5.0 (Macintosh; Intel Mac OS X 10.15; rv:87.0) Gecko/20100101 Firefox/87.0,Macintosh,Firefox,87,OS X,10.15
18,1,null,"""",html-keyboard-response,51,168709,0.0-51.0,"""","<div style=""font-size:60px;"">+</div>","""",4,fixationBtwnNeutralMaskAndPrompt,Practice,null,1000,"""","""","""","""","""","""","""","""","""",4/18/2021 21:49,108.173.198.252,Mozilla/5.0 (Macintosh; Intel Mac OS X 10.15; rv:87.0) Gecko/20100101 Firefox/87.0,Macintosh,Firefox,87,OS X,10.15
18,1,2557,"""",html-button-response,52,171270,0.0-52.0,"""","<img src='jspsych/CFDfaces/CFD-AM-246-184-N.jpg'height=""250px""></br><b>Marcus</b>",1,4,IntactOrRearranged,Practice,"""","""","""","""",CFD-AM-246-184-N.jpg,Marcus,1,1,"""","""","""",4/18/2021 21:49,108.173.198.252,Mozilla/5.0 (Macintosh; Intel Mac OS X 10.15; rv:87.0) Gecko/20100101 Firefox/87.0,Macintosh,Firefox,87,OS X,10.15
18,1,2382,"""",html-slider-response,53,173654,0.0-53.0,"""","<img src='jspsych/CFDfaces/CFD-AM-246-184-N.jpg'height=""250px""></br><b>Marcus</b>","""",4,ConfidenceQuery,Practice,"""","""","""","""",CFD-WM-003-002-N.jpg,Jacob,1,"""",0,99,"""",4/18/2021 21:49,108.173.198.252,Mozilla/5.0 (Macintosh; Intel Mac OS X 10.15; rv:87.0) Gecko/20100101 Firefox/87.0,Macintosh,Firefox,87,OS X,10.15
18,1,1587,"""",html-button-response,54,175242,0.0-54.0,"""",You are Correct. You Called A Rearranged Pair Rearranged,0,4,feedback,Practice,"""","""","""","""","""","""","""","""","""","""","""",4/18/2021 21:49,108.173.198.252,Mozilla/5.0 (Macintosh; Intel Mac OS X 10.15; rv:87.0) Gecko/20100101 Firefox/87.0,Macintosh,Firefox,87,OS X,10.15
18,1,null,"""",html-keyboard-response,55,176248,0.0-55.0,"""","<div style=""font-size:60px;"">+</div>","""",5,ITI,Practice,null,1000,"""","""","""","""","""","""","""","""","""",4/18/2021 21:49,108.173.198.252,Mozilla/5.0 (Macintosh; Intel Mac OS X 10.15; rv:87.0) Gecko/20100101 Firefox/87.0,Macintosh,Firefox,87,OS X,10.15
18,1,null,"""",image-keyboard-response,56,176505,0.0-56.0,"""",jspsych/scrambledNeutralFaces/scrambledBM07NES.JPG,"""",5,forwardMask,Practice,null,250,"""",n,"""","""","""","""","""","""","""",4/18/2021 21:49,108.173.198.252,Mozilla/5.0 (Macintosh; Intel Mac OS X 10.15; rv:87.0) Gecko/20100101 Firefox/87.0,Macintosh,Firefox,87,OS X,10.15
18,1,null,"""",image-keyboard-response,57,176529,0.0-57.0,"""",jspsych/neutralFaces/BM07NES.JPG,"""",5,Cue,Practice,null,16,"""","""","""","""","""","""","""","""","""",4/18/2021 21:49,108.173.198.252,Mozilla/5.0 (Macintosh; Intel Mac OS X 10.15; rv:87.0) Gecko/20100101 Firefox/87.0,Macintosh,Firefox,87,OS X,10.15
18,1,null,"""",image-keyboard-response,58,176639,0.0-58.0,"""",jspsych/neutralFaces/BM03NES.JPG,"""",5,backwardMask,Practice,null,100,"""","""","""","""","""","""","""","""","""",4/18/2021 21:49,108.173.198.252,Mozilla/5.0 (Macintosh; Intel Mac OS X 10.15; rv:87.0) Gecko/20100101 Firefox/87.0,Macintosh,Firefox,87,OS X,10.15
18,1,null,"""",html-keyboard-response,59,177642,0.0-59.0,"""","<div style=""font-size:60px;"">+</div>","""",5,fixationBtwnNeutralMaskAndPrompt,Practice,null,1000,"""","""","""","""","""","""","""","""","""",4/18/2021 21:49,108.173.198.252,Mozilla/5.0 (Macintosh; Intel Mac OS X 10.15; rv:87.0) Gecko/20100101 Firefox/87.0,Macintosh,Firefox,87,OS X,10.15
18,1,2130,"""",html-button-response,60,179772,0.0-60.0,"""","<img src='jspsych/CFDfaces/CFD-AM-213-056-N.jpg'height=""250px""></br><b>Carlos</b>",1,5,IntactOrRearranged,Practice,"""","""","""","""",CFD-AM-213-056-N.jpg,Carlos,1,1,"""","""","""",4/18/2021 21:49,108.173.198.252,Mozilla/5.0 (Macintosh; Intel Mac OS X 10.15; rv:87.0) Gecko/20100101 Firefox/87.0,Macintosh,Firefox,87,OS X,10.15
18,1,2138,"""",html-slider-response,61,181913,0.0-61.0,"""","<img src='jspsych/CFDfaces/CFD-AM-213-056-N.jpg'height=""250px""></br><b>Carlos</b>","""",5,ConfidenceQuery,Practice,"""","""","""","""",CFD-WM-003-002-N.jpg,Jacob,1,"""",0,99,"""",4/18/2021 21:49,108.173.198.252,Mozilla/5.0 (Macintosh; Intel Mac OS X 10.15; rv:87.0) Gecko/20100101 Firefox/87.0,Macintosh,Firefox,87,OS X,10.15
18,1,1283,"""",html-button-response,62,183201,0.0-62.0,"""",You are Correct. You Called A Rearranged Pair Rearranged,0,5,feedback,Practice,"""","""","""","""","""","""","""","""","""","""","""",4/18/2021 21:49,108.173.198.252,Mozilla/5.0 (Macintosh; Intel Mac OS X 10.15; rv:87.0) Gecko/20100101 Firefox/87.0,Macintosh,Firefox,87,OS X,10.15
18,1,null,"""",html-keyboard-response,63,184208,0.0-63.0,"""","<div style=""font-size:60px;"">+</div>","""",6,ITI,Practice,null,1000,"""","""","""","""","""","""","""","""","""",4/18/2021 21:49,108.173.198.252,Mozilla/5.0 (Macintosh; Intel Mac OS X 10.15; rv:87.0) Gecko/20100101 Firefox/87.0,Macintosh,Firefox,87,OS X,10.15
18,1,null,"""",image-keyboard-response,64,184473,0.0-64.0,"""",jspsych/scrambledDisgustFaces/scrambledAM34DIS.JPG,"""",6,forwardMask,Practice,null,250,"""",d,"""","""","""","""","""","""","""",4/18/2021 21:49,108.173.198.252,Mozilla/5.0 (Macintosh; Intel Mac OS X 10.15; rv:87.0) Gecko/20100101 Firefox/87.0,Macintosh,Firefox,87,OS X,10.15
18,1,null,"""",image-keyboard-response,65,184496,0.0-65.0,"""",jspsych/disgustFaces/AM34DIS.JPG,"""",6,Cue,Practice,null,16,"""","""","""","""","""","""","""","""","""",4/18/2021 21:49,108.173.198.252,Mozilla/5.0 (Macintosh; Intel Mac OS X 10.15; rv:87.0) Gecko/20100101 Firefox/87.0,Macintosh,Firefox,87,OS X,10.15
18,1,null,"""",image-keyboard-response,66,184608,0.0-66.0,"""",jspsych/neutralFaces/AM05NES.JPG,"""",6,backwardMask,Practice,null,100,"""","""","""","""","""","""","""","""","""",4/18/2021 21:49,108.173.198.252,Mozilla/5.0 (Macintosh; Intel Mac OS X 10.15; rv:87.0) Gecko/20100101 Firefox/87.0,Macintosh,Firefox,87,OS X,10.15
18,1,null,"""",html-keyboard-response,67,185613,0.0-67.0,"""","<div style=""font-size:60px;"">+</div>","""",6,fixationBtwnNeutralMaskAndPrompt,Practice,null,1000,"""","""","""","""","""","""","""","""","""",4/18/2021 21:49,108.173.198.252,Mozilla/5.0 (Macintosh; Intel Mac OS X 10.15; rv:87.0) Gecko/20100101 Firefox/87.0,Macintosh,Firefox,87,OS X,10.15
18,1,2695,"""",html-button-response,68,188312,0.0-68.0,"""","<img src='jspsych/CFDfaces/CFD-AF-230-193-N.jpg'height=""250px""></br><b>Shannon</b>",0,6,IntactOrRearranged,Practice,"""","""","""","""",CFD-AF-230-193-N.jpg,Shannon,0,0,"""","""","""",4/18/2021 21:49,108.173.198.252,Mozilla/5.0 (Macintosh; Intel Mac OS X 10.15; rv:87.0) Gecko/20100101 Firefox/87.0,Macintosh,Firefox,87,OS X,10.15
18,1,2236,"""",html-slider-response,69,190561,0.0-69.0,"""","<img src='jspsych/CFDfaces/CFD-AF-230-193-N.jpg'height=""250px""></br><b>Shannon</b>","""",6,ConfidenceQuery,Practice,"""","""","""","""",CFD-WM-003-002-N.jpg,Jacob,0,"""",0,62,"""",4/18/2021 21:49,108.173.198.252,Mozilla/5.0 (Macintosh; Intel Mac OS X 10.15; rv:87.0) Gecko/20100101 Firefox/87.0,Macintosh,Firefox,87,OS X,10.15
18,1,1169,"""",html-button-response,70,191732,0.0-70.0,"""",You are Correct. You called an Intact Pair Intact,0,6,feedback,Practice,"""","""","""","""","""","""","""","""","""","""","""",4/18/2021 21:49,108.173.198.252,Mozilla/5.0 (Macintosh; Intel Mac OS X 10.15; rv:87.0) Gecko/20100101 Firefox/87.0,Macintosh,Firefox,87,OS X,10.15
18,1,null,"""",html-keyboard-response,71,192736,0.0-71.0,"""","<div style=""font-size:60px;"">+</div>","""",7,ITI,Practice,null,1000,"""","""","""","""","""","""","""","""","""",4/18/2021 21:49,108.173.198.252,Mozilla/5.0 (Macintosh; Intel Mac OS X 10.15; rv:87.0) Gecko/20100101 Firefox/87.0,Macintosh,Firefox,87,OS X,10.15
18,1,null,"""",image-keyboard-response,72,192991,0.0-72.0,"""",jspsych/scrambledNeutralFaces/scrambledAM06NES.JPG,"""",7,forwardMask,Practice,null,250,"""",n,"""","""","""","""","""","""","""",4/18/2021 21:49,108.173.198.252,Mozilla/5.0 (Macintosh; Intel Mac OS X 10.15; rv:87.0) Gecko/20100101 Firefox/87.0,Macintosh,Firefox,87,OS X,10.15
18,1,null,"""",image-keyboard-response,73,193019,0.0-73.0,"""",jspsych/neutralFaces/AM06NES.JPG,"""",7,Cue,Practice,null,16,"""","""","""","""","""","""","""","""","""",4/18/2021 21:49,108.173.198.252,Mozilla/5.0 (Macintosh; Intel Mac OS X 10.15; rv:87.0) Gecko/20100101 Firefox/87.0,Macintosh,Firefox,87,OS X,10.15
18,1,null,"""",image-keyboard-response,74,193126,0.0-74.0,"""",jspsych/neutralFaces/AM22NES.JPG,"""",7,backwardMask,Practice,null,100,"""","""","""","""","""","""","""","""","""",4/18/2021 21:49,108.173.198.252,Mozilla/5.0 (Macintosh; Intel Mac OS X 10.15; rv:87.0) Gecko/20100101 Firefox/87.0,Macintosh,Firefox,87,OS X,10.15
18,1,null,"""",html-keyboard-response,75,194128,0.0-75.0,"""","<div style=""font-size:60px;"">+</div>","""",7,fixationBtwnNeutralMaskAndPrompt,Practice,null,1000,"""","""","""","""","""","""","""","""","""",4/18/2021 21:49,108.173.198.252,Mozilla/5.0 (Macintosh; Intel Mac OS X 10.15; rv:87.0) Gecko/20100101 Firefox/87.0,Macintosh,Firefox,87,OS X,10.15
18,1,1959,"""",html-button-response,76,196091,0.0-76.0,"""","<img src='jspsych/CFDfaces/CFD-BM-002-013-N.jpg'height=""250px""></br><b>Patrick</b>",0,7,IntactOrRearranged,Practice,"""","""","""","""",CFD-BM-002-013-N.jpg,Patrick,0,0,"""","""","""",4/18/2021 21:49,108.173.198.252,Mozilla/5.0 (Macintosh; Intel Mac OS X 10.15; rv:87.0) Gecko/20100101 Firefox/87.0,Macintosh,Firefox,87,OS X,10.15
18,1,2053,"""",html-slider-response,77,198147,0.0-77.0,"""","<img src='jspsych/CFDfaces/CFD-BM-002-013-N.jpg'height=""250px""></br><b>Patrick</b>","""",7,ConfidenceQuery,Practice,"""","""","""","""",CFD-WM-003-002-N.jpg,Jacob,0,"""",0,37,"""",4/18/2021 21:49,108.173.198.252,Mozilla/5.0 (Macintosh; Intel Mac OS X 10.15; rv:87.0) Gecko/20100101 Firefox/87.0,Macintosh,Firefox,87,OS X,10.15
18,1,1174,"""",html-button-response,78,199322,0.0-78.0,"""",You are Correct. You called an Intact Pair Intact,0,7,feedback,Practice,"""","""","""","""","""","""","""","""","""","""","""",4/18/2021 21:49,108.173.198.252,Mozilla/5.0 (Macintosh; Intel Mac OS X 10.15; rv:87.0) Gecko/20100101 Firefox/87.0,Macintosh,Firefox,87,OS X,10.15
18,1,null,"""",html-keyboard-response,79,200328,0.0-79.0,"""","<div style=""font-size:60px;"">+</div>","""",8,ITI,Practice,null,1000,"""","""","""","""","""","""","""","""","""",4/18/2021 21:49,108.173.198.252,Mozilla/5.0 (Macintosh; Intel Mac OS X 10.15; rv:87.0) Gecko/20100101 Firefox/87.0,Macintosh,Firefox,87,OS X,10.15
18,1,null,"""",image-keyboard-response,80,200587,0.0-80.0,"""",jspsych/scrambledNeutralFaces/scrambledAF24NES.JPG,"""",8,forwardMask,Practice,null,250,"""",n,"""","""","""","""","""","""","""",4/18/2021 21:49,108.173.198.252,Mozilla/5.0 (Macintosh; Intel Mac OS X 10.15; rv:87.0) Gecko/20100101 Firefox/87.0,Macintosh,Firefox,87,OS X,10.15
18,1,null,"""",image-keyboard-response,81,200609,0.0-81.0,"""",jspsych/neutralFaces/AF24NES.JPG,"""",8,Cue,Practice,null,16,"""","""","""","""","""","""","""","""","""",4/18/2021 21:49,108.173.198.252,Mozilla/5.0 (Macintosh; Intel Mac OS X 10.15; rv:87.0) Gecko/20100101 Firefox/87.0,Macintosh,Firefox,87,OS X,10.15
18,1,null,"""",image-keyboard-response,82,200716,0.0-82.0,"""",jspsych/neutralFaces/AF25NES.JPG,"""",8,backwardMask,Practice,null,100,"""","""","""","""","""","""","""","""","""",4/18/2021 21:49,108.173.198.252,Mozilla/5.0 (Macintosh; Intel Mac OS X 10.15; rv:87.0) Gecko/20100101 Firefox/87.0,Macintosh,Firefox,87,OS X,10.15
18,1,null,"""",html-keyboard-response,83,201721,0.0-83.0,"""","<div style=""font-size:60px;"">+</div>","""",8,fixationBtwnNeutralMaskAndPrompt,Practice,null,1000,"""","""","""","""","""","""","""","""","""",4/18/2021 21:49,108.173.198.252,Mozilla/5.0 (Macintosh; Intel Mac OS X 10.15; rv:87.0) Gecko/20100101 Firefox/87.0,Macintosh,Firefox,87,OS X,10.15
18,1,2388,"""",html-button-response,84,204112,0.0-84.0,"""","<img src='jspsych/CFDfaces/CFD-BM-203-001-N.jpg'height=""250px""></br><b>Samuel</b>",0,8,IntactOrRearranged,Practice,"""","""","""","""",CFD-BM-203-001-N.jpg,Samuel,0,0,"""","""","""",4/18/2021 21:49,108.173.198.252,Mozilla/5.0 (Macintosh; Intel Mac OS X 10.15; rv:87.0) Gecko/20100101 Firefox/87.0,Macintosh,Firefox,87,OS X,10.15
18,1,1957,"""",html-slider-response,85,206070,0.0-85.0,"""","<img src='jspsych/CFDfaces/CFD-BM-203-001-N.jpg'height=""250px""></br><b>Samuel</b>","""",8,ConfidenceQuery,Practice,"""","""","""","""",CFD-WM-003-002-N.jpg,Jacob,0,"""",0,59,"""",4/18/2021 21:49,108.173.198.252,Mozilla/5.0 (Macintosh; Intel Mac OS X 10.15; rv:87.0) Gecko/20100101 Firefox/87.0,Macintosh,Firefox,87,OS X,10.15
18,1,1210,"""",html-button-response,86,207285,0.0-86.0,"""",You are Correct. You called an Intact Pair Intact,0,8,feedback,Practice,"""","""","""","""","""","""","""","""","""","""","""",4/18/2021 21:49,108.173.198.252,Mozilla/5.0 (Macintosh; Intel Mac OS X 10.15; rv:87.0) Gecko/20100101 Firefox/87.0,Macintosh,Firefox,87,OS X,10.15
18,1,4344,"""",image-button-response,87,211643,0.0-87.0,"""",directionsMemoryAssociation3.JPG,0,128,DirectionsBeforeActualTEst,Break,"""","""","""","""","""","""","""","""","""","""","""",4/18/2021 21:49,108.173.198.252,Mozilla/5.0 (Macintosh; Intel Mac OS X 10.15; rv:87.0) Gecko/20100101 Firefox/87.0,Macintosh,Firefox,87,OS X,10.15
18,1,1618,"""",image-button-response,88,213274,0.0-88.0,"""",directionsForTest2.JPG,0,1,directionsForTest2,break,"""","""","""","""","""","""","""","""","""","""","""",4/18/2021 21:49,108.173.198.252,Mozilla/5.0 (Macintosh; Intel Mac OS X 10.15; rv:87.0) Gecko/20100101 Firefox/87.0,Macintosh,Firefox,87,OS X,10.15
18,1,16995,"""",html-button-response,89,230281,0.0-89.0,"""","<p>You will be asked to memorize and then recall four sets of face-name pairs. </p> <p> Each set will have 32 pairs. </p> <p>After the fourth set, there will be a brief follow-up experiment (<40 min alltogether)</p>",0,"""","""","""","""","""","""","""","""","""","""","""","""","""","""",4/18/2021 21:49,108.173.198.252,Mozilla/5.0 (Macintosh; Intel Mac OS X 10.15; rv:87.0) Gecko/20100101 Firefox/87.0,Macintosh,Firefox,87,OS X,10.15
18,1,4883,"""",html-keyboard-response,90,235298,0.0-90.0,"""","<img src='jspsych/CFDfaces/CFD-BM-018-001-N.jpg' height=""250px""></br><b>Robert</b>","""",256,IntactFace,Memorization,78,5000,n,"""",CFD-WF-200-099-N.jpg,Melissa,0,"""","""","""",1,4/18/2021 21:49,108.173.198.252,Mozilla/5.0 (Macintosh; Intel Mac OS X 10.15; rv:87.0) Gecko/20100101 Firefox/87.0,Macintosh,Firefox,87,OS X,10.15
18,1,null,"""",html-keyboard-response,91,235804,0.0-91.0,"""","<div style=""font-size:60px;"">+</div>","""",256,fixation,Memorization,null,500,"""","""","""","""","""","""","""","""",1,4/18/2021 21:49,108.173.198.252,Mozilla/5.0 (Macintosh; Intel Mac OS X 10.15; rv:87.0) Gecko/20100101 Firefox/87.0,Macintosh,Firefox,87,OS X,10.15
18,1,3924,"""",html-keyboard-response,92,240810,0.0-92.0,"""","<img src='jspsych/CFDfaces/CFD-BM-027-001-N.jpg' height=""250px""></br><b>Eric</b>","""",256,IntactFace,Memorization,78,5000,n,"""",CFD-BF-005-001-N.jpg,Tiffany,0,"""","""","""",1,4/18/2021 21:49,108.173.198.252,Mozilla/5.0 (Macintosh; Intel Mac OS X 10.15; rv:87.0) Gecko/20100101 Firefox/87.0,Macintosh,Firefox,87,OS X,10.15
18,1,null,"""",html-keyboard-response,93,241311,0.0-93.0,"""","<div style=""font-size:60px;"">+</div>","""",256,fixation,Memorization,null,500,"""","""","""","""","""","""","""","""",1,4/18/2021 21:49,108.173.198.252,Mozilla/5.0 (Macintosh; Intel Mac OS X 10.15; rv:87.0) Gecko/20100101 Firefox/87.0,Macintosh,Firefox,87,OS X,10.15
18,1,4435,"""",html-keyboard-response,94,246319,0.0-94.0,"""","<img src='jspsych/CFDfaces/CFD-WF-204-038-N.jpg' height=""250px""></br><b>Samantha</b>","""",256,IntactFace,Memorization,70,5000,f,"""",CFD-AF-222-134-N.jpg,Lindsey,0,"""","""","""",1,4/18/2021 21:49,108.173.198.252,Mozilla/5.0 (Macintosh; Intel Mac OS X 10.15; rv:87.0) Gecko/20100101 Firefox/87.0,Macintosh,Firefox,87,OS X,10.15
18,1,null,"""",html-keyboard-response,95,246837,0.0-95.0,"""","<div style=""font-size:60px;"">+</div>","""",256,fixation,Memorization,null,500,"""","""","""","""","""","""","""","""",1,4/18/2021 21:49,108.173.198.252,Mozilla/5.0 (Macintosh; Intel Mac OS X 10.15; rv:87.0) Gecko/20100101 Firefox/87.0,Macintosh,Firefox,87,OS X,10.15
18,1,4578,"""",html-keyboard-response,96,251841,0.0-96.0,"""","<img src='jspsych/CFDfaces/CFD-BM-205-001-N.jpg' height=""250px""></br><b>Ian</b>","""",256,IntactFace,Memorization,78,5000,n,"""",CFD-LM-217-162-N.jpg,Jeremy,0,"""","""","""",1,4/18/2021 21:49,108.173.198.252,Mozilla/5.0 (Macintosh; Intel Mac OS X 10.15; rv:87.0) Gecko/20100101 Firefox/87.0,Macintosh,Firefox,87,OS X,10.15
18,1,null,"""",html-keyboard-response,97,252343,0.0-97.0,"""","<div style=""font-size:60px;"">+</div>","""",256,fixation,Memorization,null,500,"""","""","""","""","""","""","""","""",1,4/18/2021 21:49,108.173.198.252,Mozilla/5.0 (Macintosh; Intel Mac OS X 10.15; rv:87.0) Gecko/20100101 Firefox/87.0,Macintosh,Firefox,87,OS X,10.15
18,1,3994,"""",html-keyboard-response,98,257355,0.0-98.0,"""","<img src='jspsych/CFDfaces/CFD-BF-009-002-N.jpg' height=""250px""></br><b>Amanda</b>","""",256,IntactFace,Memorization,78,5000,n,"""",CFD-AM-234-355-N.jpg,Luis,0,"""","""","""",1,4/18/2021 21:49,108.173.198.252,Mozilla/5.0 (Macintosh; Intel Mac OS X 10.15; rv:87.0) Gecko/20100101 Firefox/87.0,Macintosh,Firefox,87,OS X,10.15
18,1,null,"""",html-keyboard-response,99,257858,0.0-99.0,"""","<div style=""font-size:60px;"">+</div>","""",256,fixation,Memorization,null,500,"""","""","""","""","""","""","""","""",1,4/18/2021 21:49,108.173.198.252,Mozilla/5.0 (Macintosh; Intel Mac OS X 10.15; rv:87.0) Gecko/20100101 Firefox/87.0,Macintosh,Firefox,87,OS X,10.15
18,1,3601,"""",html-keyboard-response,100,262863,0.0-100.0,"""","<img src='jspsych/CFDfaces/CFD-LM-213-061-N.jpg' height=""250px""></br><b>Richard</b>","""",256,IntactFace,Memorization,70,5000,f,"""",CFD-LF-232-199-N.jpg,Taylor,0,"""","""","""",1,4/18/2021 21:49,108.173.198.252,Mozilla/5.0 (Macintosh; Intel Mac OS X 10.15; rv:87.0) Gecko/20100101 Firefox/87.0,Macintosh,Firefox,87,OS X,10.15
18,1,null,"""",html-keyboard-response,101,263370,0.0-101.0,"""","<div style=""font-size:60px;"">+</div>","""",256,fixation,Memorization,null,500,"""","""","""","""","""","""","""","""",1,4/18/2021 21:49,108.173.198.252,Mozilla/5.0 (Macintosh; Intel Mac OS X 10.15; rv:87.0) Gecko/20100101 Firefox/87.0,Macintosh,Firefox,87,OS X,10.15
18,1,3094,"""",html-keyboard-response,102,268378,0.0-102.0,"""","<img src='jspsych/CFDfaces/CFD-LF-239-148-N.jpg' height=""250px""></br><b>Victoria</b>","""",256,IntactFace,Memorization,70,5000,f,"""",CFD-WM-216-061-N.jpg,Cameron,0,"""","""","""",1,4/18/2021 21:49,108.173.198.252,Mozilla/5.0 (Macintosh; Intel Mac OS X 10.15; rv:87.0) Gecko/20100101 Firefox/87.0,Macintosh,Firefox,87,OS X,10.15
18,1,null,"""",html-keyboard-response,103,268885,0.0-103.0,"""","<div style=""font-size:60px;"">+</div>","""",256,fixation,Memorization,null,500,"""","""","""","""","""","""","""","""",1,4/18/2021 21:49,108.173.198.252,Mozilla/5.0 (Macintosh; Intel Mac OS X 10.15; rv:87.0) Gecko/20100101 Firefox/87.0,Macintosh,Firefox,87,OS X,10.15
18,1,3135,"""",html-keyboard-response,104,273893,0.0-104.0,"""","<img src='jspsych/CFDfaces/CFD-BF-212-315-N.jpg' height=""250px""></br><b>Ashley</b>","""",256,IntactFace,Memorization,78,5000,n,"""",CFD-WF-202-056-N.jpg,Heather,0,"""","""","""",1,4/18/2021 21:49,108.173.198.252,Mozilla/5.0 (Macintosh; Intel Mac OS X 10.15; rv:87.0) Gecko/20100101 Firefox/87.0,Macintosh,Firefox,87,OS X,10.15
18,1,null,"""",html-keyboard-response,105,274400,0.0-105.0,"""","<div style=""font-size:60px;"">+</div>","""",256,fixation,Memorization,null,500,"""","""","""","""","""","""","""","""",1,4/18/2021 21:49,108.173.198.252,Mozilla/5.0 (Macintosh; Intel Mac OS X 10.15; rv:87.0) Gecko/20100101 Firefox/87.0,Macintosh,Firefox,87,OS X,10.15
18,1,2104,"""",html-keyboard-response,106,279410,0.0-106.0,"""","<img src='jspsych/CFDfaces/CFD-WM-207-048-N.jpg' height=""250px""></br><b>Daniel</b>","""",256,IntactFace,Memorization,70,5000,f,"""",CFD-AM-238-269-N.jpg,Austin,0,"""","""","""",1,4/18/2021 21:49,108.173.198.252,Mozilla/5.0 (Macintosh; Intel Mac OS X 10.15; rv:87.0) Gecko/20100101 Firefox/87.0,Macintosh,Firefox,87,OS X,10.15
18,1,null,"""",html-keyboard-response,107,279913,0.0-107.0,"""","<div style=""font-size:60px;"">+</div>","""",256,fixation,Memorization,null,500,"""","""","""","""","""","""","""","""",1,4/18/2021 21:49,108.173.198.252,Mozilla/5.0 (Macintosh; Intel Mac OS X 10.15; rv:87.0) Gecko/20100101 Firefox/87.0,Macintosh,Firefox,87,OS X,10.15
18,1,null,"""",html-keyboard-response,108,284921,0.0-108.0,"""","<img src='jspsych/CFDfaces/CFD-LF-213-079-N.jpg' height=""250px""></br><b>Christina</b>","""",256,IntactFace,Memorization,null,5000,"""","""",CFD-LF-201-035-N.jpg,Rebecca,0,"""","""","""",1,4/18/2021 21:49,108.173.198.252,Mozilla/5.0 (Macintosh; Intel Mac OS X 10.15; rv:87.0) Gecko/20100101 Firefox/87.0,Macintosh,Firefox,87,OS X,10.15
18,1,null,"""",html-keyboard-response,109,285424,0.0-109.0,"""","<div style=""font-size:60px;"">+</div>","""",256,fixation,Memorization,null,500,"""","""","""","""","""","""","""","""",1,4/18/2021 21:49,108.173.198.252,Mozilla/5.0 (Macintosh; Intel Mac OS X 10.15; rv:87.0) Gecko/20100101 Firefox/87.0,Macintosh,Firefox,87,OS X,10.15
18,1,3192,"""",html-keyboard-response,110,290430,0.0-110.0,"""","<img src='jspsych/CFDfaces/CFD-WF-218-087-N.jpg' height=""250px""></br><b>Stephanie</b>","""",256,IntactFace,Memorization,70,5000,f,"""",CFD-WF-223-133-N.jpg,Lauren,0,"""","""","""",1,4/18/2021 21:49,108.173.198.252,Mozilla/5.0 (Macintosh; Intel Mac OS X 10.15; rv:87.0) Gecko/20100101 Firefox/87.0,Macintosh,Firefox,87,OS X,10.15
18,1,null,"""",html-keyboard-response,111,290935,0.0-111.0,"""","<div style=""font-size:60px;"">+</div>","""",256,fixation,Memorization,null,500,"""","""","""","""","""","""","""","""",1,4/18/2021 21:49,108.173.198.252,Mozilla/5.0 (Macintosh; Intel Mac OS X 10.15; rv:87.0) Gecko/20100101 Firefox/87.0,Macintosh,Firefox,87,OS X,10.15
18,1,2661,"""",html-keyboard-response,112,295943,0.0-112.0,"""","<img src='jspsych/CFDfaces/CFD-LM-221-216-N.jpg' height=""250px""></br><b>Nicholas</b>","""",256,IntactFace,Memorization,70,5000,f,"""",CFD-BF-025-002-N.jpg,Whitney,0,"""","""","""",1,4/18/2021 21:49,108.173.198.252,Mozilla/5.0 (Macintosh; Intel Mac OS X 10.15; rv:87.0) Gecko/20100101 Firefox/87.0,Macintosh,Firefox,87,OS X,10.15
18,1,null,"""",html-keyboard-response,113,296445,0.0-113.0,"""","<div style=""font-size:60px;"">+</div>","""",256,fixation,Memorization,null,500,"""","""","""","""","""","""","""","""",1,4/18/2021 21:49,108.173.198.252,Mozilla/5.0 (Macintosh; Intel Mac OS X 10.15; rv:87.0) Gecko/20100101 Firefox/87.0,Macintosh,Firefox,87,OS X,10.15
18,1,2441,"""",html-keyboard-response,114,301450,0.0-114.0,"""","<img src='jspsych/CFDfaces/CFD-BF-047-003-N.jpg' height=""250px""></br><b>Elizabeth</b>","""",256,IntactFace,Memorization,78,5000,n,"""",CFD-BF-016-017-N.jpg,Jordan,0,"""","""","""",1,4/18/2021 21:49,108.173.198.252,Mozilla/5.0 (Macintosh; Intel Mac OS X 10.15; rv:87.0) Gecko/20100101 Firefox/87.0,Macintosh,Firefox,87,OS X,10.15
18,1,null,"""",html-keyboard-response,115,301954,0.0-115.0,"""","<div style=""font-size:60px;"">+</div>","""",256,fixation,Memorization,null,500,"""","""","""","""","""","""","""","""",1,4/18/2021 21:49,108.173.198.252,Mozilla/5.0 (Macintosh; Intel Mac OS X 10.15; rv:87.0) Gecko/20100101 Firefox/87.0,Macintosh,Firefox,87,OS X,10.15
18,1,2511,"""",html-keyboard-response,116,306969,0.0-116.0,"""","<img src='jspsych/CFDfaces/CFD-BM-211-174-N.jpg' height=""250px""></br><b>Jeffrey</b>","""",256,IntactFace,Memorization,78,5000,n,"""",CFD-LF-200-058-N.jpg,Jenna,0,"""","""","""",1,4/18/2021 21:49,108.173.198.252,Mozilla/5.0 (Macintosh; Intel Mac OS X 10.15; rv:87.0) Gecko/20100101 Firefox/87.0,Macintosh,Firefox,87,OS X,10.15
18,1,null,"""",html-keyboard-response,117,307475,0.0-117.0,"""","<div style=""font-size:60px;"">+</div>","""",256,fixation,Memorization,null,500,"""","""","""","""","""","""","""","""",1,4/18/2021 21:49,108.173.198.252,Mozilla/5.0 (Macintosh; Intel Mac OS X 10.15; rv:87.0) Gecko/20100101 Firefox/87.0,Macintosh,Firefox,87,OS X,10.15
18,1,2574,"""",html-keyboard-response,118,312484,0.0-118.0,"""","<img src='jspsych/CFDfaces/CFD-BM-017-021-N.jpg' height=""250px""></br><b>Joshua</b>","""",256,IntactFace,Memorization,78,5000,n,"""",CFD-AM-205-153-N.jpg,Travis,0,"""","""","""",1,4/18/2021 21:49,108.173.198.252,Mozilla/5.0 (Macintosh; Intel Mac OS X 10.15; rv:87.0) Gecko/20100101 Firefox/87.0,Macintosh,Firefox,87,OS X,10.15
18,1,null,"""",html-keyboard-response,119,312990,0.0-119.0,"""","<div style=""font-size:60px;"">+</div>","""",256,fixation,Memorization,null,500,"""","""","""","""","""","""","""","""",1,4/18/2021 21:49,108.173.198.252,Mozilla/5.0 (Macintosh; Intel Mac OS X 10.15; rv:87.0) Gecko/20100101 Firefox/87.0,Macintosh,Firefox,87,OS X,10.15
18,1,null,"""",html-keyboard-response,120,318004,0.0-120.0,"""","<img src='jspsych/CFDfaces/CFD-LM-224-162-N.jpg' height=""250px""></br><b>Christian</b>","""",256,IntactFace,Memorization,null,5000,"""","""",CFD-AM-207-108-N.jpg,Justin,0,"""","""","""",1,4/18/2021 21:49,108.173.198.252,Mozilla/5.0 (Macintosh; Intel Mac OS X 10.15; rv:87.0) Gecko/20100101 Firefox/87.0,Macintosh,Firefox,87,OS X,10.15
18,1,null,"""",html-keyboard-response,121,318506,0.0-121.0,"""","<div style=""font-size:60px;"">+</div>","""",256,fixation,Memorization,null,500,"""","""","""","""","""","""","""","""",1,4/18/2021 21:49,108.173.198.252,Mozilla/5.0 (Macintosh; Intel Mac OS X 10.15; rv:87.0) Gecko/20100101 Firefox/87.0,Macintosh,Firefox,87,OS X,10.15
18,1,1446,"""",html-keyboard-response,122,323514,0.0-122.0,"""","<img src='jspsych/CFDfaces/CFD-BF-004-014-N.jpg' height=""250px""></br><b>Vanessa</b>","""",256,IntactFace,Memorization,78,5000,n,"""",CFD-WM-017-002-N.jpg,Timothy,0,"""","""","""",1,4/18/2021 21:49,108.173.198.252,Mozilla/5.0 (Macintosh; Intel Mac OS X 10.15; rv:87.0) Gecko/20100101 Firefox/87.0,Macintosh,Firefox,87,OS X,10.15
18,1,null,"""",html-keyboard-response,123,324020,0.0-123.0,"""","<div style=""font-size:60px;"">+</div>","""",256,fixation,Memorization,null,500,"""","""","""","""","""","""","""","""",1,4/18/2021 21:49,108.173.198.252,Mozilla/5.0 (Macintosh; Intel Mac OS X 10.15; rv:87.0) Gecko/20100101 Firefox/87.0,Macintosh,Firefox,87,OS X,10.15
18,1,1766,"""",html-keyboard-response,124,329028,0.0-124.0,"""","<img src='jspsych/CFDfaces/CFD-BF-221-223-N.jpg' height=""250px""></br><b>Kimberly</b>","""",256,IntactFace,Memorization,78,5000,n,"""",CFD-WF-217-085-N.jpg,Erin,0,"""","""","""",1,4/18/2021 21:49,108.173.198.252,Mozilla/5.0 (Macintosh; Intel Mac OS X 10.15; rv:87.0) Gecko/20100101 Firefox/87.0,Macintosh,Firefox,87,OS X,10.15
18,1,null,"""",html-keyboard-response,125,329530,0.0-125.0,"""","<div style=""font-size:60px;"">+</div>","""",256,fixation,Memorization,null,500,"""","""","""","""","""","""","""","""",1,4/18/2021 21:49,108.173.198.252,Mozilla/5.0 (Macintosh; Intel Mac OS X 10.15; rv:87.0) Gecko/20100101 Firefox/87.0,Macintosh,Firefox,87,OS X,10.15
18,1,187,"""",html-keyboard-response,126,334548,0.0-126.0,"""","<img src='jspsych/CFDfaces/CFD-BM-039-029-N.jpg' height=""250px""></br><b>Gregory</b>","""",256,IntactFace,Memorization,78,5000,n,"""",CFD-LM-200-045-N.jpg,Vincent,0,"""","""","""",1,4/18/2021 21:49,108.173.198.252,Mozilla/5.0 (Macintosh; Intel Mac OS X 10.15; rv:87.0) Gecko/20100101 Firefox/87.0,Macintosh,Firefox,87,OS X,10.15
18,1,null,"""",html-keyboard-response,127,335053,0.0-127.0,"""","<div style=""font-size:60px;"">+</div>","""",256,fixation,Memorization,null,500,"""","""","""","""","""","""","""","""",1,4/18/2021 21:49,108.173.198.252,Mozilla/5.0 (Macintosh; Intel Mac OS X 10.15; rv:87.0) Gecko/20100101 Firefox/87.0,Macintosh,Firefox,87,OS X,10.15
18,1,1759,"""",html-keyboard-response,128,340063,0.0-128.0,"""","<img src='jspsych/CFDfaces/CFD-AF-233-190-N.jpg' height=""250px""></br><b>Michelle</b>","""",256,IntactFace,Memorization,78,5000,n,"""",CFD-WF-023-003-N.jpg,Angela,0,"""","""","""",1,4/18/2021 21:49,108.173.198.252,Mozilla/5.0 (Macintosh; Intel Mac OS X 10.15; rv:87.0) Gecko/20100101 Firefox/87.0,Macintosh,Firefox,87,OS X,10.15
18,1,null,"""",html-keyboard-response,129,340565,0.0-129.0,"""","<div style=""font-size:60px;"">+</div>","""",256,fixation,Memorization,null,500,"""","""","""","""","""","""","""","""",1,4/18/2021 21:49,108.173.198.252,Mozilla/5.0 (Macintosh; Intel Mac OS X 10.15; rv:87.0) Gecko/20100101 Firefox/87.0,Macintosh,Firefox,87,OS X,10.15
18,1,1824,"""",html-keyboard-response,130,345570,0.0-130.0,"""","<img src='jspsych/CFDfaces/CFD-LF-205-100-N.jpg' height=""250px""></br><b>Julie</b>","""",256,IntactFace,Memorization,78,5000,n,"""",CFD-LF-215-157-N.jpg,Jasmine,0,"""","""","""",1,4/18/2021 21:49,108.173.198.252,Mozilla/5.0 (Macintosh; Intel Mac OS X 10.15; rv:87.0) Gecko/20100101 Firefox/87.0,Macintosh,Firefox,87,OS X,10.15
18,1,null,"""",html-keyboard-response,131,346077,0.0-131.0,"""","<div style=""font-size:60px;"">+</div>","""",256,fixation,Memorization,null,500,"""","""","""","""","""","""","""","""",1,4/18/2021 21:49,108.173.198.252,Mozilla/5.0 (Macintosh; Intel Mac OS X 10.15; rv:87.0) Gecko/20100101 Firefox/87.0,Macintosh,Firefox,87,OS X,10.15
18,1,1222,"""",html-keyboard-response,132,351080,0.0-132.0,"""","<img src='jspsych/CFDfaces/CFD-BM-207-024-N.jpg' height=""250px""></br><b>Brian</b>","""",256,IntactFace,Memorization,78,5000,n,"""",CFD-WM-009-002-N.jpg,Sean,0,"""","""","""",1,4/18/2021 21:49,108.173.198.252,Mozilla/5.0 (Macintosh; Intel Mac OS X 10.15; rv:87.0) Gecko/20100101 Firefox/87.0,Macintosh,Firefox,87,OS X,10.15
18,1,null,"""",html-keyboard-response,133,351590,0.0-133.0,"""","<div style=""font-size:60px;"">+</div>","""",256,fixation,Memorization,null,500,"""","""","""","""","""","""","""","""",1,4/18/2021 21:49,108.173.198.252,Mozilla/5.0 (Macintosh; Intel Mac OS X 10.15; rv:87.0) Gecko/20100101 Firefox/87.0,Macintosh,Firefox,87,OS X,10.15
18,1,2606,"""",html-keyboard-response,134,356592,0.0-134.0,"""","<img src='jspsych/CFDfaces/CFD-LF-243-175-N.jpg' height=""250px""></br><b>Andrea</b>","""",256,IntactFace,Memorization,70,5000,f,"""",CFD-AM-220-134-N.jpg,Dustin,0,"""","""","""",1,4/18/2021 21:49,108.173.198.252,Mozilla/5.0 (Macintosh; Intel Mac OS X 10.15; rv:87.0) Gecko/20100101 Firefox/87.0,Macintosh,Firefox,87,OS X,10.15
18,1,null,"""",html-keyboard-response,135,357097,0.0-135.0,"""","<div style=""font-size:60px;"">+</div>","""",256,fixation,Memorization,null,500,"""","""","""","""","""","""","""","""",1,4/18/2021 21:49,108.173.198.252,Mozilla/5.0 (Macintosh; Intel Mac OS X 10.15; rv:87.0) Gecko/20100101 Firefox/87.0,Macintosh,Firefox,87,OS X,10.15
18,1,2179,"""",html-keyboard-response,136,362106,0.0-136.0,"""","<img src='jspsych/CFDfaces/CFD-LM-209-111-N.jpg' height=""250px""></br><b>Jason</b>","""",256,IntactFace,Memorization,70,5000,f,"""",CFD-LM-233-171-N.jpg,Mark,0,"""","""","""",1,4/18/2021 21:49,108.173.198.252,Mozilla/5.0 (Macintosh; Intel Mac OS X 10.15; rv:87.0) Gecko/20100101 Firefox/87.0,Macintosh,Firefox,87,OS X,10.15
18,1,null,"""",html-keyboard-response,137,362607,0.0-137.0,"""","<div style=""font-size:60px;"">+</div>","""",256,fixation,Memorization,null,500,"""","""","""","""","""","""","""","""",1,4/18/2021 21:49,108.173.198.252,Mozilla/5.0 (Macintosh; Intel Mac OS X 10.15; rv:87.0) Gecko/20100101 Firefox/87.0,Macintosh,Firefox,87,OS X,10.15
18,1,1633,"""",html-keyboard-response,138,367613,0.0-138.0,"""","<img src='jspsych/CFDfaces/CFD-WM-222-057-N.jpg' height=""250px""></br><b>Juan</b>","""",256,IntactFace,Memorization,78,5000,n,"""",CFD-BM-208-065-N.jpg,Steven,0,"""","""","""",1,4/18/2021 21:49,108.173.198.252,Mozilla/5.0 (Macintosh; Intel Mac OS X 10.15; rv:87.0) Gecko/20100101 Firefox/87.0,Macintosh,Firefox,87,OS X,10.15
18,1,null,"""",html-keyboard-response,139,368122,0.0-139.0,"""","<div style=""font-size:60px;"">+</div>","""",256,fixation,Memorization,null,500,"""","""","""","""","""","""","""","""",1,4/18/2021 21:49,108.173.198.252,Mozilla/5.0 (Macintosh; Intel Mac OS X 10.15; rv:87.0) Gecko/20100101 Firefox/87.0,Macintosh,Firefox,87,OS X,10.15
18,1,1873,"""",html-keyboard-response,140,373128,0.0-140.0,"""","<img src='jspsych/CFDfaces/CFD-LF-206-078-N.jpg' height=""250px""></br><b>Emily</b>","""",256,IntactFace,Memorization,70,5000,f,"""",CFD-AF-237-223-N.jpg,Laura,0,"""","""","""",1,4/18/2021 21:49,108.173.198.252,Mozilla/5.0 (Macintosh; Intel Mac OS X 10.15; rv:87.0) Gecko/20100101 Firefox/87.0,Macintosh,Firefox,87,OS X,10.15
18,1,null,"""",html-keyboard-response,141,373637,0.0-141.0,"""","<div style=""font-size:60px;"">+</div>","""",256,fixation,Memorization,null,500,"""","""","""","""","""","""","""","""",1,4/18/2021 21:49,108.173.198.252,Mozilla/5.0 (Macintosh; Intel Mac OS X 10.15; rv:87.0) Gecko/20100101 Firefox/87.0,Macintosh,Firefox,87,OS X,10.15
18,1,3594,"""",html-keyboard-response,142,378640,0.0-142.0,"""","<img src='jspsych/CFDfaces/CFD-WM-232-070-N.jpg' height=""250px""></br><b>Peter</b>","""",256,IntactFace,Memorization,70,5000,f,"""",CFD-LF-203-066-N.jpg,Amy,0,"""","""","""",1,4/18/2021 21:49,108.173.198.252,Mozilla/5.0 (Macintosh; Intel Mac OS X 10.15; rv:87.0) Gecko/20100101 Firefox/87.0,Macintosh,Firefox,87,OS X,10.15
18,1,null,"""",html-keyboard-response,143,379144,0.0-143.0,"""","<div style=""font-size:60px;"">+</div>","""",256,fixation,Memorization,null,500,"""","""","""","""","""","""","""","""",1,4/18/2021 21:49,108.173.198.252,Mozilla/5.0 (Macintosh; Intel Mac OS X 10.15; rv:87.0) Gecko/20100101 Firefox/87.0,Macintosh,Firefox,87,OS X,10.15
18,1,1763,"""",html-keyboard-response,144,384154,0.0-144.0,"""","<img src='jspsych/CFDfaces/CFD-BF-021-013-N.jpg' height=""250px""></br><b>Kayla</b>","""",256,IntactFace,Memorization,78,5000,n,"""",CFD-LM-220-329-N.jpg,Kenneth,0,"""","""","""",1,4/18/2021 21:49,108.173.198.252,Mozilla/5.0 (Macintosh; Intel Mac OS X 10.15; rv:87.0) Gecko/20100101 Firefox/87.0,Macintosh,Firefox,87,OS X,10.15
18,1,null,"""",html-keyboard-response,145,384658,0.0-145.0,"""","<div style=""font-size:60px;"">+</div>","""",256,fixation,Memorization,null,500,"""","""","""","""","""","""","""","""",1,4/18/2021 21:49,108.173.198.252,Mozilla/5.0 (Macintosh; Intel Mac OS X 10.15; rv:87.0) Gecko/20100101 Firefox/87.0,Macintosh,Firefox,87,OS X,10.15
18,1,1703,"""",html-keyboard-response,146,389667,0.0-146.0,"""","<img src='jspsych/CFDfaces/CFD-AF-214-139-N.jpg' height=""250px""></br><b>Meghan</b>","""",256,IntactFace,Memorization,78,5000,n,"""",CFD-WM-020-001-N.jpg,Ryan,0,"""","""","""",1,4/18/2021 21:49,108.173.198.252,Mozilla/5.0 (Macintosh; Intel Mac OS X 10.15; rv:87.0) Gecko/20100101 Firefox/87.0,Macintosh,Firefox,87,OS X,10.15
18,1,null,"""",html-keyboard-response,147,390168,0.0-147.0,"""","<div style=""font-size:60px;"">+</div>","""",256,fixation,Memorization,null,500,"""","""","""","""","""","""","""","""",1,4/18/2021 21:49,108.173.198.252,Mozilla/5.0 (Macintosh; Intel Mac OS X 10.15; rv:87.0) Gecko/20100101 Firefox/87.0,Macintosh,Firefox,87,OS X,10.15
18,1,2829,"""",html-keyboard-response,148,395179,0.0-148.0,"""","<img src='jspsych/CFDfaces/CFD-AF-243-170-N.jpg' height=""250px""></br><b>Brittany</b>","""",256,IntactFace,Memorization,78,5000,n,"""",CFD-WM-003-002-N.jpg,Jacob,0,"""","""","""",1,4/18/2021 21:49,108.173.198.252,Mozilla/5.0 (Macintosh; Intel Mac OS X 10.15; rv:87.0) Gecko/20100101 Firefox/87.0,Macintosh,Firefox,87,OS X,10.15
18,1,null,"""",html-keyboard-response,149,395685,0.0-149.0,"""","<div style=""font-size:60px;"">+</div>","""",256,fixation,Memorization,null,500,"""","""","""","""","""","""","""","""",1,4/18/2021 21:49,108.173.198.252,Mozilla/5.0 (Macintosh; Intel Mac OS X 10.15; rv:87.0) Gecko/20100101 Firefox/87.0,Macintosh,Firefox,87,OS X,10.15
18,1,2083,"""",html-keyboard-response,150,400693,0.0-150.0,"""","<img src='jspsych/CFDfaces/CFD-WM-032-001-N.jpg' height=""250px""></br><b>Brandon</b>","""",256,IntactFace,Memorization,70,5000,f,"""",CFD-BF-010-001-N.jpg,Sara,0,"""","""","""",1,4/18/2021 21:49,108.173.198.252,Mozilla/5.0 (Macintosh; Intel Mac OS X 10.15; rv:87.0) Gecko/20100101 Firefox/87.0,Macintosh,Firefox,87,OS X,10.15
18,1,null,"""",html-keyboard-response,151,401195,0.0-151.0,"""","<div style=""font-size:60px;"">+</div>","""",256,fixation,Memorization,null,500,"""","""","""","""","""","""","""","""",1,4/18/2021 21:49,108.173.198.252,Mozilla/5.0 (Macintosh; Intel Mac OS X 10.15; rv:87.0) Gecko/20100101 Firefox/87.0,Macintosh,Firefox,87,OS X,10.15
18,1,2096,"""",html-keyboard-response,152,406207,0.0-152.0,"""","<img src='jspsych/CFDfaces/CFD-LM-246-087-N.jpg' height=""250px""></br><b>James</b>","""",256,IntactFace,Memorization,70,5000,f,"""",CFD-BM-022-022-N.jpg,Jesse,0,"""","""","""",1,4/18/2021 21:49,108.173.198.252,Mozilla/5.0 (Macintosh; Intel Mac OS X 10.15; rv:87.0) Gecko/20100101 Firefox/87.0,Macintosh,Firefox,87,OS X,10.15
18,1,null,"""",html-keyboard-response,153,406712,0.0-153.0,"""","<div style=""font-size:60px;"">+</div>","""",256,fixation,Memorization,null,500,"""","""","""","""","""","""","""","""",1,4/18/2021 21:49,108.173.198.252,Mozilla/5.0 (Macintosh; Intel Mac OS X 10.15; rv:87.0) Gecko/20100101 Firefox/87.0,Macintosh,Firefox,87,OS X,10.15
18,1,1754,"""",html-keyboard-response,154,408467,0.0-154.0,"""",Press Any Key to Begin Memory Test,"""",1,welcomeScreen,Break,65,"""","""","""","""","""","""","""","""","""",1,4/18/2021 21:49,108.173.198.252,Mozilla/5.0 (Macintosh; Intel Mac OS X 10.15; rv:87.0) Gecko/20100101 Firefox/87.0,Macintosh,Firefox,87,OS X,10.15
18,1,null,"""",html-keyboard-response,155,409476,0.0-155.0,"""","<div style=""font-size:60px;"">+</div>","""",256,ITI,Test,null,1000,"""","""","""","""","""","""","""","""",1,4/18/2021 21:49,108.173.198.252,Mozilla/5.0 (Macintosh; Intel Mac OS X 10.15; rv:87.0) Gecko/20100101 Firefox/87.0,Macintosh,Firefox,87,OS X,10.15
18,1,null,"""",image-keyboard-response,156,409735,0.0-156.0,"""",jspsych/scrambledDisgustFaces/scrambledBF35DIS.JPG,"""",256,forwardMask,Test,null,250,"""",d,"""","""","""","""","""","""",1,4/18/2021 21:49,108.173.198.252,Mozilla/5.0 (Macintosh; Intel Mac OS X 10.15; rv:87.0) Gecko/20100101 Firefox/87.0,Macintosh,Firefox,87,OS X,10.15
18,1,null,"""",image-keyboard-response,157,409760,0.0-157.0,"""",jspsych/disgustFaces/BF35DIS.JPG,"""",256,Cue,Test,null,16,"""","""","""","""","""","""","""","""",1,4/18/2021 21:49,108.173.198.252,Mozilla/5.0 (Macintosh; Intel Mac OS X 10.15; rv:87.0) Gecko/20100101 Firefox/87.0,Macintosh,Firefox,87,OS X,10.15
18,1,null,"""",image-keyboard-response,158,409877,0.0-158.0,"""",jspsych/neutralFaces/BF33NES.JPG,"""",256,backwardMask,Test,null,100,"""","""","""","""","""","""","""","""",1,4/18/2021 21:49,108.173.198.252,Mozilla/5.0 (Macintosh; Intel Mac OS X 10.15; rv:87.0) Gecko/20100101 Firefox/87.0,Macintosh,Firefox,87,OS X,10.15
18,1,null,"""",html-keyboard-response,159,410881,0.0-159.0,"""","<div style=""font-size:60px;"">+</div>","""",256,fixationBtwnNeutralMaskAndPrompt,Test,null,1000,"""","""","""","""","""","""","""","""",1,4/18/2021 21:49,108.173.198.252,Mozilla/5.0 (Macintosh; Intel Mac OS X 10.15; rv:87.0) Gecko/20100101 Firefox/87.0,Macintosh,Firefox,87,OS X,10.15
18,1,null,"""",html-button-response,160,415886,0.0-160.0,"""","<img src='jspsych/CFDfaces/CFD-AF-214-139-N.jpg' height=""250px"">,</br><b>Meghan</b>",null,256,IntactOrRearranged,Test,"""","""","""","""",CFD-WM-216-061-N.jpg,Timothy,0,"""","""","""",1,4/18/2021 21:49,108.173.198.252,Mozilla/5.0 (Macintosh; Intel Mac OS X 10.15; rv:87.0) Gecko/20100101 Firefox/87.0,Macintosh,Firefox,87,OS X,10.15
18,1,4287,"""",html-slider-response,161,420206,0.0-161.0,"""","<img src='jspsych/CFDfaces/CFD-AF-214-139-N.jpg' height=""250px"">,</br><b>Meghan</b>","""",256,ConfidenceQuery,Test,"""","""","""","""",CFD-WM-216-061-N.jpg,Timothy,0,"""",0,9,1,4/18/2021 21:49,108.173.198.252,Mozilla/5.0 (Macintosh; Intel Mac OS X 10.15; rv:87.0) Gecko/20100101 Firefox/87.0,Macintosh,Firefox,87,OS X,10.15
18,1,null,"""",html-keyboard-response,162,421211,0.0-162.0,"""","<div style=""font-size:60px;"">+</div>","""",256,ITI,Test,null,1000,"""","""","""","""","""","""","""","""",1,4/18/2021 21:49,108.173.198.252,Mozilla/5.0 (Macintosh; Intel Mac OS X 10.15; rv:87.0) Gecko/20100101 Firefox/87.0,Macintosh,Firefox,87,OS X,10.15
18,1,null,"""",image-keyboard-response,163,421472,0.0-163.0,"""",jspsych/scrambledNeutralFaces/scrambledAM09NES.JPG,"""",256,forwardMask,Test,null,250,"""",n,"""","""","""","""","""","""",1,4/18/2021 21:49,108.173.198.252,Mozilla/5.0 (Macintosh; Intel Mac OS X 10.15; rv:87.0) Gecko/20100101 Firefox/87.0,Macintosh,Firefox,87,OS X,10.15
18,1,null,"""",image-keyboard-response,164,421506,0.0-164.0,"""",jspsych/neutralFaces/AM09NES.JPG,"""",256,Cue,Test,null,16,"""","""","""","""","""","""","""","""",1,4/18/2021 21:49,108.173.198.252,Mozilla/5.0 (Macintosh; Intel Mac OS X 10.15; rv:87.0) Gecko/20100101 Firefox/87.0,Macintosh,Firefox,87,OS X,10.15
18,1,null,"""",image-keyboard-response,165,421621,0.0-165.0,"""",jspsych/neutralFaces/AM08NES.JPG,"""",256,backwardMask,Test,null,100,"""","""","""","""","""","""","""","""",1,4/18/2021 21:49,108.173.198.252,Mozilla/5.0 (Macintosh; Intel Mac OS X 10.15; rv:87.0) Gecko/20100101 Firefox/87.0,Macintosh,Firefox,87,OS X,10.15
18,1,null,"""",html-keyboard-response,166,422628,0.0-166.0,"""","<div style=""font-size:60px;"">+</div>","""",256,fixationBtwnNeutralMaskAndPrompt,Test,null,1000,"""","""","""","""","""","""","""","""",1,4/18/2021 21:49,108.173.198.252,Mozilla/5.0 (Macintosh; Intel Mac OS X 10.15; rv:87.0) Gecko/20100101 Firefox/87.0,Macintosh,Firefox,87,OS X,10.15
18,1,4912,"""",html-button-response,167,427543,0.0-167.0,"""","<img src='jspsych/CFDfaces/CFD-LF-205-100-N.jpg' height=""250px"">,</br><b>Julie</b>",0,256,IntactOrRearranged,Test,"""","""","""","""",CFD-BF-025-002-N.jpg,Whitney,0,0,"""","""",1,4/18/2021 21:49,108.173.198.252,Mozilla/5.0 (Macintosh; Intel Mac OS X 10.15; rv:87.0) Gecko/20100101 Firefox/87.0,Macintosh,Firefox,87,OS X,10.15
18,1,2091,"""",html-slider-response,168,429641,0.0-168.0,"""","<img src='jspsych/CFDfaces/CFD-LF-205-100-N.jpg' height=""250px"">,</br><b>Julie</b>","""",256,ConfidenceQuery,Test,"""","""","""","""",CFD-BF-025-002-N.jpg,Whitney,0,"""",0,5,1,4/18/2021 21:49,108.173.198.252,Mozilla/5.0 (Macintosh; Intel Mac OS X 10.15; rv:87.0) Gecko/20100101 Firefox/87.0,Macintosh,Firefox,87,OS X,10.15
18,1,null,"""",html-keyboard-response,169,430642,0.0-169.0,"""","<div style=""font-size:60px;"">+</div>","""",256,ITI,Test,null,1000,"""","""","""","""","""","""","""","""",1,4/18/2021 21:49,108.173.198.252,Mozilla/5.0 (Macintosh; Intel Mac OS X 10.15; rv:87.0) Gecko/20100101 Firefox/87.0,Macintosh,Firefox,87,OS X,10.15
18,1,null,"""",image-keyboard-response,170,430900,0.0-170.0,"""",jspsych/scrambledNeutralFaces/scrambledAF18NES.JPG,"""",256,forwardMask,Test,null,250,"""",n,"""","""","""","""","""","""",1,4/18/2021 21:49,108.173.198.252,Mozilla/5.0 (Macintosh; Intel Mac OS X 10.15; rv:87.0) Gecko/20100101 Firefox/87.0,Macintosh,Firefox,87,OS X,10.15
18,1,null,"""",image-keyboard-response,171,430923,0.0-171.0,"""",jspsych/neutralFaces/AF18NES.JPG,"""",256,Cue,Test,null,16,"""","""","""","""","""","""","""","""",1,4/18/2021 21:49,108.173.198.252,Mozilla/5.0 (Macintosh; Intel Mac OS X 10.15; rv:87.0) Gecko/20100101 Firefox/87.0,Macintosh,Firefox,87,OS X,10.15
18,1,null,"""",image-keyboard-response,172,431031,0.0-172.0,"""",jspsych/neutralFaces/BF22NES.JPG,"""",256,backwardMask,Test,null,100,"""","""","""","""","""","""","""","""",1,4/18/2021 21:49,108.173.198.252,Mozilla/5.0 (Macintosh; Intel Mac OS X 10.15; rv:87.0) Gecko/20100101 Firefox/87.0,Macintosh,Firefox,87,OS X,10.15
18,1,null,"""",html-keyboard-response,173,432036,0.0-173.0,"""","<div style=""font-size:60px;"">+</div>","""",256,fixationBtwnNeutralMaskAndPrompt,Test,null,1000,"""","""","""","""","""","""","""","""",1,4/18/2021 21:49,108.173.198.252,Mozilla/5.0 (Macintosh; Intel Mac OS X 10.15; rv:87.0) Gecko/20100101 Firefox/87.0,Macintosh,Firefox,87,OS X,10.15
18,1,2888,"""",html-button-response,174,434926,0.0-174.0,"""","<img src='jspsych/CFDfaces/CFD-LM-213-061-N.jpg' height=""250px"">,</br><b>Christian</b>",1,256,IntactOrRearranged,Test,"""","""","""","""",CFD-LM-200-045-N.jpg,Vincent,1,1,"""","""",1,4/18/2021 21:49,108.173.198.252,Mozilla/5.0 (Macintosh; Intel Mac OS X 10.15; rv:87.0) Gecko/20100101 Firefox/87.0,Macintosh,Firefox,87,OS X,10.15
18,1,3340,"""",html-slider-response,175,438273,0.0-175.0,"""","<img src='jspsych/CFDfaces/CFD-LM-213-061-N.jpg' height=""250px"">,</br><b>Christian</b>","""",256,ConfidenceQuery,Test,"""","""","""","""",CFD-LM-200-045-N.jpg,Vincent,1,"""",0,56,1,4/18/2021 21:49,108.173.198.252,Mozilla/5.0 (Macintosh; Intel Mac OS X 10.15; rv:87.0) Gecko/20100101 Firefox/87.0,Macintosh,Firefox,87,OS X,10.15
18,1,null,"""",html-keyboard-response,176,439279,0.0-176.0,"""","<div style=""font-size:60px;"">+</div>","""",256,ITI,Test,null,1000,"""","""","""","""","""","""","""","""",1,4/18/2021 21:49,108.173.198.252,Mozilla/5.0 (Macintosh; Intel Mac OS X 10.15; rv:87.0) Gecko/20100101 Firefox/87.0,Macintosh,Firefox,87,OS X,10.15
18,1,null,"""",image-keyboard-response,177,439535,0.0-177.0,"""",jspsych/scrambledNeutralFaces/scrambledAF06NES.JPG,"""",256,forwardMask,Test,null,250,"""",n,"""","""","""","""","""","""",1,4/18/2021 21:49,108.173.198.252,Mozilla/5.0 (Macintosh; Intel Mac OS X 10.15; rv:87.0) Gecko/20100101 Firefox/87.0,Macintosh,Firefox,87,OS X,10.15
18,1,null,"""",image-keyboard-response,178,439559,0.0-178.0,"""",jspsych/neutralFaces/AF06NES.JPG,"""",256,Cue,Test,null,16,"""","""","""","""","""","""","""","""",1,4/18/2021 21:49,108.173.198.252,Mozilla/5.0 (Macintosh; Intel Mac OS X 10.15; rv:87.0) Gecko/20100101 Firefox/87.0,Macintosh,Firefox,87,OS X,10.15
18,1,null,"""",image-keyboard-response,179,439665,0.0-179.0,"""",jspsych/neutralFaces/AF34NES.JPG,"""",256,backwardMask,Test,null,100,"""","""","""","""","""","""","""","""",1,4/18/2021 21:49,108.173.198.252,Mozilla/5.0 (Macintosh; Intel Mac OS X 10.15; rv:87.0) Gecko/20100101 Firefox/87.0,Macintosh,Firefox,87,OS X,10.15
18,1,null,"""",html-keyboard-response,180,440667,0.0-180.0,"""","<div style=""font-size:60px;"">+</div>","""",256,fixationBtwnNeutralMaskAndPrompt,Test,null,1000,"""","""","""","""","""","""","""","""",1,4/18/2021 21:49,108.173.198.252,Mozilla/5.0 (Macintosh; Intel Mac OS X 10.15; rv:87.0) Gecko/20100101 Firefox/87.0,Macintosh,Firefox,87,OS X,10.15
18,1,null,"""",html-button-response,181,445677,0.0-181.0,"""","<img src='jspsych/CFDfaces/CFD-BF-047-003-N.jpg' height=""250px"">,</br><b>Kimberly</b>",null,256,IntactOrRearranged,Test,"""","""","""","""",CFD-AM-234-355-N.jpg,Luis,1,"""","""","""",1,4/18/2021 21:49,108.173.198.252,Mozilla/5.0 (Macintosh; Intel Mac OS X 10.15; rv:87.0) Gecko/20100101 Firefox/87.0,Macintosh,Firefox,87,OS X,10.15
18,1,2230,"""",html-slider-response,182,447911,0.0-182.0,"""","<img src='jspsych/CFDfaces/CFD-BF-047-003-N.jpg' height=""250px"">,</br><b>Kimberly</b>","""",256,ConfidenceQuery,Test,"""","""","""","""",CFD-AM-234-355-N.jpg,Luis,1,"""",0,18,1,4/18/2021 21:49,108.173.198.252,Mozilla/5.0 (Macintosh; Intel Mac OS X 10.15; rv:87.0) Gecko/20100101 Firefox/87.0,Macintosh,Firefox,87,OS X,10.15
18,1,null,"""",html-keyboard-response,183,448930,0.0-183.0,"""","<div style=""font-size:60px;"">+</div>","""",256,ITI,Test,null,1000,"""","""","""","""","""","""","""","""",1,4/18/2021 21:49,108.173.198.252,Mozilla/5.0 (Macintosh; Intel Mac OS X 10.15; rv:87.0) Gecko/20100101 Firefox/87.0,Macintosh,Firefox,87,OS X,10.15
18,1,null,"""",image-keyboard-response,184,449191,0.0-184.0,"""",jspsych/scrambledNeutralFaces/scrambledBM07NES.JPG,"""",256,forwardMask,Test,null,250,"""",n,"""","""","""","""","""","""",1,4/18/2021 21:49,108.173.198.252,Mozilla/5.0 (Macintosh; Intel Mac OS X 10.15; rv:87.0) Gecko/20100101 Firefox/87.0,Macintosh,Firefox,87,OS X,10.15
18,1,null,"""",image-keyboard-response,185,449217,0.0-185.0,"""",jspsych/neutralFaces/BM07NES.JPG,"""",256,Cue,Test,null,16,"""","""","""","""","""","""","""","""",1,4/18/2021 21:49,108.173.198.252,Mozilla/5.0 (Macintosh; Intel Mac OS X 10.15; rv:87.0) Gecko/20100101 Firefox/87.0,Macintosh,Firefox,87,OS X,10.15
18,1,null,"""",image-keyboard-response,186,449324,0.0-186.0,"""",jspsych/neutralFaces/BM03NES.JPG,"""",256,backwardMask,Test,null,100,"""","""","""","""","""","""","""","""",1,4/18/2021 21:49,108.173.198.252,Mozilla/5.0 (Macintosh; Intel Mac OS X 10.15; rv:87.0) Gecko/20100101 Firefox/87.0,Macintosh,Firefox,87,OS X,10.15
18,1,null,"""",html-keyboard-response,187,450328,0.0-187.0,"""","<div style=""font-size:60px;"">+</div>","""",256,fixationBtwnNeutralMaskAndPrompt,Test,null,1000,"""","""","""","""","""","""","""","""",1,4/18/2021 21:49,108.173.198.252,Mozilla/5.0 (Macintosh; Intel Mac OS X 10.15; rv:87.0) Gecko/20100101 Firefox/87.0,Macintosh,Firefox,87,OS X,10.15
18,1,2399,"""",html-button-response,188,452729,0.0-188.0,"""","<img src='jspsych/CFDfaces/CFD-LM-224-162-N.jpg' height=""250px"">,</br><b>Joshua</b>",1,256,IntactOrRearranged,Test,"""","""","""","""",CFD-LF-203-066-N.jpg,Amy,1,1,"""","""",1,4/18/2021 21:49,108.173.198.252,Mozilla/5.0 (Macintosh; Intel Mac OS X 10.15; rv:87.0) Gecko/20100101 Firefox/87.0,Macintosh,Firefox,87,OS X,10.15
18,1,1633,"""",html-slider-response,189,454364,0.0-189.0,"""","<img src='jspsych/CFDfaces/CFD-LM-224-162-N.jpg' height=""250px"">,</br><b>Joshua</b>","""",256,ConfidenceQuery,Test,"""","""","""","""",CFD-LF-203-066-N.jpg,Amy,1,"""",0,17,1,4/18/2021 21:49,108.173.198.252,Mozilla/5.0 (Macintosh; Intel Mac OS X 10.15; rv:87.0) Gecko/20100101 Firefox/87.0,Macintosh,Firefox,87,OS X,10.15
18,1,null,"""",html-keyboard-response,190,455374,0.0-190.0,"""","<div style=""font-size:60px;"">+</div>","""",256,ITI,Test,null,1000,"""","""","""","""","""","""","""","""",1,4/18/2021 21:49,108.173.198.252,Mozilla/5.0 (Macintosh; Intel Mac OS X 10.15; rv:87.0) Gecko/20100101 Firefox/87.0,Macintosh,Firefox,87,OS X,10.15
18,1,null,"""",image-keyboard-response,191,455635,0.0-191.0,"""",jspsych/scrambledDisgustFaces/scrambledAM34DIS.JPG,"""",256,forwardMask,Test,null,250,"""",d,"""","""","""","""","""","""",1,4/18/2021 21:49,108.173.198.252,Mozilla/5.0 (Macintosh; Intel Mac OS X 10.15; rv:87.0) Gecko/20100101 Firefox/87.0,Macintosh,Firefox,87,OS X,10.15
18,1,null,"""",image-keyboard-response,192,455659,0.0-192.0,"""",jspsych/disgustFaces/AM34DIS.JPG,"""",256,Cue,Test,null,16,"""","""","""","""","""","""","""","""",1,4/18/2021 21:49,108.173.198.252,Mozilla/5.0 (Macintosh; Intel Mac OS X 10.15; rv:87.0) Gecko/20100101 Firefox/87.0,Macintosh,Firefox,87,OS X,10.15
18,1,null,"""",image-keyboard-response,193,455768,0.0-193.0,"""",jspsych/neutralFaces/AM05NES.JPG,"""",256,backwardMask,Test,null,100,"""","""","""","""","""","""","""","""",1,4/18/2021 21:49,108.173.198.252,Mozilla/5.0 (Macintosh; Intel Mac OS X 10.15; rv:87.0) Gecko/20100101 Firefox/87.0,Macintosh,Firefox,87,OS X,10.15
18,1,null,"""",html-keyboard-response,194,456771,0.0-194.0,"""","<div style=""font-size:60px;"">+</div>","""",256,fixationBtwnNeutralMaskAndPrompt,Test,null,1000,"""","""","""","""","""","""","""","""",1,4/18/2021 21:49,108.173.198.252,Mozilla/5.0 (Macintosh; Intel Mac OS X 10.15; rv:87.0) Gecko/20100101 Firefox/87.0,Macintosh,Firefox,87,OS X,10.15
18,1,1623,"""",html-button-response,195,458395,0.0-195.0,"""","<img src='jspsych/CFDfaces/CFD-BF-221-223-N.jpg' height=""250px"">,</br><b>Emily</b>",1,256,IntactOrRearranged,Test,"""","""","""","""",CFD-WF-217-085-N.jpg,Laura,1,1,"""","""",1,4/18/2021 21:49,108.173.198.252,Mozilla/5.0 (Macintosh; Intel Mac OS X 10.15; rv:87.0) Gecko/20100101 Firefox/87.0,Macintosh,Firefox,87,OS X,10.15
18,1,1787,"""",html-slider-response,196,460184,0.0-196.0,"""","<img src='jspsych/CFDfaces/CFD-BF-221-223-N.jpg' height=""250px"">,</br><b>Emily</b>","""",256,ConfidenceQuery,Test,"""","""","""","""",CFD-WF-217-085-N.jpg,Laura,1,"""",0,22,1,4/18/2021 21:49,108.173.198.252,Mozilla/5.0 (Macintosh; Intel Mac OS X 10.15; rv:87.0) Gecko/20100101 Firefox/87.0,Macintosh,Firefox,87,OS X,10.15
18,1,null,"""",html-keyboard-response,197,461194,0.0-197.0,"""","<div style=""font-size:60px;"">+</div>","""",256,ITI,Test,null,1000,"""","""","""","""","""","""","""","""",1,4/18/2021 21:49,108.173.198.252,Mozilla/5.0 (Macintosh; Intel Mac OS X 10.15; rv:87.0) Gecko/20100101 Firefox/87.0,Macintosh,Firefox,87,OS X,10.15
18,1,null,"""",image-keyboard-response,198,461448,0.0-198.0,"""",jspsych/scrambledNeutralFaces/scrambledAM06NES.JPG,"""",256,forwardMask,Test,null,250,"""",n,"""","""","""","""","""","""",1,4/18/2021 21:49,108.173.198.252,Mozilla/5.0 (Macintosh; Intel Mac OS X 10.15; rv:87.0) Gecko/20100101 Firefox/87.0,Macintosh,Firefox,87,OS X,10.15
18,1,null,"""",image-keyboard-response,199,461470,0.0-199.0,"""",jspsych/neutralFaces/AM06NES.JPG,"""",256,Cue,Test,null,16,"""","""","""","""","""","""","""","""",1,4/18/2021 21:49,108.173.198.252,Mozilla/5.0 (Macintosh; Intel Mac OS X 10.15; rv:87.0) Gecko/20100101 Firefox/87.0,Macintosh,Firefox,87,OS X,10.15
18,1,null,"""",image-keyboard-response,200,461578,0.0-200.0,"""",jspsych/neutralFaces/AM22NES.JPG,"""",256,backwardMask,Test,null,100,"""","""","""","""","""","""","""","""",1,4/18/2021 21:49,108.173.198.252,Mozilla/5.0 (Macintosh; Intel Mac OS X 10.15; rv:87.0) Gecko/20100101 Firefox/87.0,Macintosh,Firefox,87,OS X,10.15
18,1,null,"""",html-keyboard-response,201,462584,0.0-201.0,"""","<div style=""font-size:60px;"">+</div>","""",256,fixationBtwnNeutralMaskAndPrompt,Test,null,1000,"""","""","""","""","""","""","""","""",1,4/18/2021 21:49,108.173.198.252,Mozilla/5.0 (Macintosh; Intel Mac OS X 10.15; rv:87.0) Gecko/20100101 Firefox/87.0,Macintosh,Firefox,87,OS X,10.15
18,1,2302,"""",html-button-response,202,464887,0.0-202.0,"""","<img src='jspsych/CFDfaces/CFD-BF-212-315-N.jpg' height=""250px"">,</br><b>Elizabeth</b>",1,256,IntactOrRearranged,Test,"""","""","""","""",CFD-LM-220-329-N.jpg,Jeremy,1,1,"""","""",1,4/18/2021 21:49,108.173.198.252,Mozilla/5.0 (Macintosh; Intel Mac OS X 10.15; rv:87.0) Gecko/20100101 Firefox/87.0,Macintosh,Firefox,87,OS X,10.15
18,1,1638,"""",html-slider-response,203,466528,0.0-203.0,"""","<img src='jspsych/CFDfaces/CFD-BF-212-315-N.jpg' height=""250px"">,</br><b>Elizabeth</b>","""",256,ConfidenceQuery,Test,"""","""","""","""",CFD-LM-220-329-N.jpg,Jeremy,1,"""",0,40,1,4/18/2021 21:49,108.173.198.252,Mozilla/5.0 (Macintosh; Intel Mac OS X 10.15; rv:87.0) Gecko/20100101 Firefox/87.0,Macintosh,Firefox,87,OS X,10.15
18,1,null,"""",html-keyboard-response,204,467542,0.0-204.0,"""","<div style=""font-size:60px;"">+</div>","""",256,ITI,Test,null,1000,"""","""","""","""","""","""","""","""",1,4/18/2021 21:49,108.173.198.252,Mozilla/5.0 (Macintosh; Intel Mac OS X 10.15; rv:87.0) Gecko/20100101 Firefox/87.0,Macintosh,Firefox,87,OS X,10.15
18,1,null,"""",image-keyboard-response,205,467800,0.0-205.0,"""",jspsych/scrambledNeutralFaces/scrambledAF24NES.JPG,"""",256,forwardMask,Test,null,250,"""",n,"""","""","""","""","""","""",1,4/18/2021 21:49,108.173.198.252,Mozilla/5.0 (Macintosh; Intel Mac OS X 10.15; rv:87.0) Gecko/20100101 Firefox/87.0,Macintosh,Firefox,87,OS X,10.15
18,1,null,"""",image-keyboard-response,206,467820,0.0-206.0,"""",jspsych/neutralFaces/AF24NES.JPG,"""",256,Cue,Test,null,16,"""","""","""","""","""","""","""","""",1,4/18/2021 21:49,108.173.198.252,Mozilla/5.0 (Macintosh; Intel Mac OS X 10.15; rv:87.0) Gecko/20100101 Firefox/87.0,Macintosh,Firefox,87,OS X,10.15
18,1,null,"""",image-keyboard-response,207,467926,0.0-207.0,"""",jspsych/neutralFaces/AF25NES.JPG,"""",256,backwardMask,Test,null,100,"""","""","""","""","""","""","""","""",1,4/18/2021 21:49,108.173.198.252,Mozilla/5.0 (Macintosh; Intel Mac OS X 10.15; rv:87.0) Gecko/20100101 Firefox/87.0,Macintosh,Firefox,87,OS X,10.15
18,1,null,"""",html-keyboard-response,208,468931,0.0-208.0,"""","<div style=""font-size:60px;"">+</div>","""",256,fixationBtwnNeutralMaskAndPrompt,Test,null,1000,"""","""","""","""","""","""","""","""",1,4/18/2021 21:49,108.173.198.252,Mozilla/5.0 (Macintosh; Intel Mac OS X 10.15; rv:87.0) Gecko/20100101 Firefox/87.0,Macintosh,Firefox,87,OS X,10.15
18,1,1217,"""",html-button-response,209,470148,0.0-209.0,"""","<img src='jspsych/CFDfaces/CFD-WM-032-001-N.jpg' height=""250px"">,</br><b>Brandon</b>",0,256,IntactOrRearranged,Test,"""","""","""","""",CFD-LM-217-162-N.jpg,Ryan,0,0,"""","""",1,4/18/2021 21:49,108.173.198.252,Mozilla/5.0 (Macintosh; Intel Mac OS X 10.15; rv:87.0) Gecko/20100101 Firefox/87.0,Macintosh,Firefox,87,OS X,10.15
18,1,2014,"""",html-slider-response,210,472165,0.0-210.0,"""","<img src='jspsych/CFDfaces/CFD-WM-032-001-N.jpg' height=""250px"">,</br><b>Brandon</b>","""",256,ConfidenceQuery,Test,"""","""","""","""",CFD-LM-217-162-N.jpg,Ryan,0,"""",0,82,1,4/18/2021 21:49,108.173.198.252,Mozilla/5.0 (Macintosh; Intel Mac OS X 10.15; rv:87.0) Gecko/20100101 Firefox/87.0,Macintosh,Firefox,87,OS X,10.15
18,1,null,"""",html-keyboard-response,211,473170,0.0-211.0,"""","<div style=""font-size:60px;"">+</div>","""",256,ITI,Test,null,1000,"""","""","""","""","""","""","""","""",1,4/18/2021 21:49,108.173.198.252,Mozilla/5.0 (Macintosh; Intel Mac OS X 10.15; rv:87.0) Gecko/20100101 Firefox/87.0,Macintosh,Firefox,87,OS X,10.15
18,1,null,"""",image-keyboard-response,212,473428,0.0-212.0,"""",jspsych/scrambledNeutralFaces/scrambledAF07NES.JPG,"""",256,forwardMask,Test,null,250,"""",n,"""","""","""","""","""","""",1,4/18/2021 21:49,108.173.198.252,Mozilla/5.0 (Macintosh; Intel Mac OS X 10.15; rv:87.0) Gecko/20100101 Firefox/87.0,Macintosh,Firefox,87,OS X,10.15
18,1,null,"""",image-keyboard-response,213,473449,0.0-213.0,"""",jspsych/neutralFaces/AF07NES.JPG,"""",256,Cue,Test,null,16,"""","""","""","""","""","""","""","""",1,4/18/2021 21:49,108.173.198.252,Mozilla/5.0 (Macintosh; Intel Mac OS X 10.15; rv:87.0) Gecko/20100101 Firefox/87.0,Macintosh,Firefox,87,OS X,10.15
18,1,null,"""",image-keyboard-response,214,473556,0.0-214.0,"""",jspsych/neutralFaces/AF25NES.JPG,"""",256,backwardMask,Test,null,100,"""","""","""","""","""","""","""","""",1,4/18/2021 21:49,108.173.198.252,Mozilla/5.0 (Macintosh; Intel Mac OS X 10.15; rv:87.0) Gecko/20100101 Firefox/87.0,Macintosh,Firefox,87,OS X,10.15
18,1,null,"""",html-keyboard-response,215,474560,0.0-215.0,"""","<div style=""font-size:60px;"">+</div>","""",256,fixationBtwnNeutralMaskAndPrompt,Test,null,1000,"""","""","""","""","""","""","""","""",1,4/18/2021 21:49,108.173.198.252,Mozilla/5.0 (Macintosh; Intel Mac OS X 10.15; rv:87.0) Gecko/20100101 Firefox/87.0,Macintosh,Firefox,87,OS X,10.15
18,1,2364,"""",html-button-response,216,476926,0.0-216.0,"""","<img src='jspsych/CFDfaces/CFD-BM-018-001-N.jpg' height=""250px"">,</br><b>Robert</b>",1,256,IntactOrRearranged,Test,"""","""","""","""",CFD-LF-200-058-N.jpg,Jasmine,0,1,"""","""",1,4/18/2021 21:49,108.173.198.252,Mozilla/5.0 (Macintosh; Intel Mac OS X 10.15; rv:87.0) Gecko/20100101 Firefox/87.0,Macintosh,Firefox,87,OS X,10.15
18,1,1678,"""",html-slider-response,217,478606,0.0-217.0,"""","<img src='jspsych/CFDfaces/CFD-BM-018-001-N.jpg' height=""250px"">,</br><b>Robert</b>","""",256,ConfidenceQuery,Test,"""","""","""","""",CFD-LF-200-058-N.jpg,Jasmine,0,"""",0,8,1,4/18/2021 21:49,108.173.198.252,Mozilla/5.0 (Macintosh; Intel Mac OS X 10.15; rv:87.0) Gecko/20100101 Firefox/87.0,Macintosh,Firefox,87,OS X,10.15
18,1,null,"""",html-keyboard-response,218,479614,0.0-218.0,"""","<div style=""font-size:60px;"">+</div>","""",256,ITI,Test,null,1000,"""","""","""","""","""","""","""","""",1,4/18/2021 21:49,108.173.198.252,Mozilla/5.0 (Macintosh; Intel Mac OS X 10.15; rv:87.0) Gecko/20100101 Firefox/87.0,Macintosh,Firefox,87,OS X,10.15
18,1,null,"""",image-keyboard-response,219,479874,0.0-219.0,"""",jspsych/scrambledDisgustFaces/scrambledBF09DIS.JPG,"""",256,forwardMask,Test,null,250,"""",d,"""","""","""","""","""","""",1,4/18/2021 21:49,108.173.198.252,Mozilla/5.0 (Macintosh; Intel Mac OS X 10.15; rv:87.0) Gecko/20100101 Firefox/87.0,Macintosh,Firefox,87,OS X,10.15
18,1,null,"""",image-keyboard-response,220,479903,0.0-220.0,"""",jspsych/disgustFaces/BF09DIS.JPG,"""",256,Cue,Test,null,16,"""","""","""","""","""","""","""","""",1,4/18/2021 21:49,108.173.198.252,Mozilla/5.0 (Macintosh; Intel Mac OS X 10.15; rv:87.0) Gecko/20100101 Firefox/87.0,Macintosh,Firefox,87,OS X,10.15
18,1,null,"""",image-keyboard-response,221,480014,0.0-221.0,"""",jspsych/neutralFaces/BF08NES.JPG,"""",256,backwardMask,Test,null,100,"""","""","""","""","""","""","""","""",1,4/18/2021 21:49,108.173.198.252,Mozilla/5.0 (Macintosh; Intel Mac OS X 10.15; rv:87.0) Gecko/20100101 Firefox/87.0,Macintosh,Firefox,87,OS X,10.15
18,1,null,"""",html-keyboard-response,222,481019,0.0-222.0,"""","<div style=""font-size:60px;"">+</div>","""",256,fixationBtwnNeutralMaskAndPrompt,Test,null,1000,"""","""","""","""","""","""","""","""",1,4/18/2021 21:49,108.173.198.252,Mozilla/5.0 (Macintosh; Intel Mac OS X 10.15; rv:87.0) Gecko/20100101 Firefox/87.0,Macintosh,Firefox,87,OS X,10.15
18,1,1324,"""",html-button-response,223,482344,0.0-223.0,"""","<img src='jspsych/CFDfaces/CFD-BF-021-013-N.jpg' height=""250px"">,</br><b>Kayla</b>",0,256,IntactOrRearranged,Test,"""","""","""","""",CFD-BM-208-065-N.jpg,Steven,0,0,"""","""",1,4/18/2021 21:49,108.173.198.252,Mozilla/5.0 (Macintosh; Intel Mac OS X 10.15; rv:87.0) Gecko/20100101 Firefox/87.0,Macintosh,Firefox,87,OS X,10.15
18,1,1992,"""",html-slider-response,224,484339,0.0-224.0,"""","<img src='jspsych/CFDfaces/CFD-BF-021-013-N.jpg' height=""250px"">,</br><b>Kayla</b>","""",256,ConfidenceQuery,Test,"""","""","""","""",CFD-BM-208-065-N.jpg,Steven,0,"""",0,5,1,4/18/2021 21:49,108.173.198.252,Mozilla/5.0 (Macintosh; Intel Mac OS X 10.15; rv:87.0) Gecko/20100101 Firefox/87.0,Macintosh,Firefox,87,OS X,10.15
18,1,null,"""",html-keyboard-response,225,485347,0.0-225.0,"""","<div style=""font-size:60px;"">+</div>","""",256,ITI,Test,null,1000,"""","""","""","""","""","""","""","""",1,4/18/2021 21:49,108.173.198.252,Mozilla/5.0 (Macintosh; Intel Mac OS X 10.15; rv:87.0) Gecko/20100101 Firefox/87.0,Macintosh,Firefox,87,OS X,10.15
18,1,null,"""",image-keyboard-response,226,485605,0.0-226.0,"""",jspsych/scrambledNeutralFaces/scrambledBM28NES.JPG,"""",256,forwardMask,Test,null,250,"""",n,"""","""","""","""","""","""",1,4/18/2021 21:49,108.173.198.252,Mozilla/5.0 (Macintosh; Intel Mac OS X 10.15; rv:87.0) Gecko/20100101 Firefox/87.0,Macintosh,Firefox,87,OS X,10.15
18,1,null,"""",image-keyboard-response,227,485628,0.0-227.0,"""",jspsych/neutralFaces/BM28NES.JPG,"""",256,Cue,Test,null,16,"""","""","""","""","""","""","""","""",1,4/18/2021 21:49,108.173.198.252,Mozilla/5.0 (Macintosh; Intel Mac OS X 10.15; rv:87.0) Gecko/20100101 Firefox/87.0,Macintosh,Firefox,87,OS X,10.15
18,1,null,"""",image-keyboard-response,228,485732,0.0-228.0,"""",jspsych/neutralFaces/AM04NES.JPG,"""",256,backwardMask,Test,null,100,"""","""","""","""","""","""","""","""",1,4/18/2021 21:49,108.173.198.252,Mozilla/5.0 (Macintosh; Intel Mac OS X 10.15; rv:87.0) Gecko/20100101 Firefox/87.0,Macintosh,Firefox,87,OS X,10.15
18,1,null,"""",html-keyboard-response,229,486735,0.0-229.0,"""","<div style=""font-size:60px;"">+</div>","""",256,fixationBtwnNeutralMaskAndPrompt,Test,null,1000,"""","""","""","""","""","""","""","""",1,4/18/2021 21:49,108.173.198.252,Mozilla/5.0 (Macintosh; Intel Mac OS X 10.15; rv:87.0) Gecko/20100101 Firefox/87.0,Macintosh,Firefox,87,OS X,10.15
18,1,1365,"""",html-button-response,230,488102,0.0-230.0,"""","<img src='jspsych/CFDfaces/CFD-WF-204-038-N.jpg' height=""250px"">,</br><b>Samantha</b>",0,256,IntactOrRearranged,Test,"""","""","""","""",CFD-WM-020-001-N.jpg,Cameron,0,0,"""","""",1,4/18/2021 21:49,108.173.198.252,Mozilla/5.0 (Macintosh; Intel Mac OS X 10.15; rv:87.0) Gecko/20100101 Firefox/87.0,Macintosh,Firefox,87,OS X,10.15
18,1,1727,"""",html-slider-response,231,489832,0.0-231.0,"""","<img src='jspsych/CFDfaces/CFD-WF-204-038-N.jpg' height=""250px"">,</br><b>Samantha</b>","""",256,ConfidenceQuery,Test,"""","""","""","""",CFD-WM-020-001-N.jpg,Cameron,0,"""",0,77,1,4/18/2021 21:49,108.173.198.252,Mozilla/5.0 (Macintosh; Intel Mac OS X 10.15; rv:87.0) Gecko/20100101 Firefox/87.0,Macintosh,Firefox,87,OS X,10.15
18,1,null,"""",html-keyboard-response,232,490843,0.0-232.0,"""","<div style=""font-size:60px;"">+</div>","""",256,ITI,Test,null,1000,"""","""","""","""","""","""","""","""",1,4/18/2021 21:49,108.173.198.252,Mozilla/5.0 (Macintosh; Intel Mac OS X 10.15; rv:87.0) Gecko/20100101 Firefox/87.0,Macintosh,Firefox,87,OS X,10.15
18,1,null,"""",image-keyboard-response,233,491102,0.0-233.0,"""",jspsych/scrambledDisgustFaces/scrambledBF05DIS.JPG,"""",256,forwardMask,Test,null,250,"""",d,"""","""","""","""","""","""",1,4/18/2021 21:49,108.173.198.252,Mozilla/5.0 (Macintosh; Intel Mac OS X 10.15; rv:87.0) Gecko/20100101 Firefox/87.0,Macintosh,Firefox,87,OS X,10.15
18,1,null,"""",image-keyboard-response,234,491124,0.0-234.0,"""",jspsych/disgustFaces/BF05DIS.JPG,"""",256,Cue,Test,null,16,"""","""","""","""","""","""","""","""",1,4/18/2021 21:49,108.173.198.252,Mozilla/5.0 (Macintosh; Intel Mac OS X 10.15; rv:87.0) Gecko/20100101 Firefox/87.0,Macintosh,Firefox,87,OS X,10.15
18,1,null,"""",image-keyboard-response,235,491232,0.0-235.0,"""",jspsych/neutralFaces/BF29NES.JPG,"""",256,backwardMask,Test,null,100,"""","""","""","""","""","""","""","""",1,4/18/2021 21:49,108.173.198.252,Mozilla/5.0 (Macintosh; Intel Mac OS X 10.15; rv:87.0) Gecko/20100101 Firefox/87.0,Macintosh,Firefox,87,OS X,10.15
18,1,null,"""",html-keyboard-response,236,492235,0.0-236.0,"""","<div style=""font-size:60px;"">+</div>","""",256,fixationBtwnNeutralMaskAndPrompt,Test,null,1000,"""","""","""","""","""","""","""","""",1,4/18/2021 21:49,108.173.198.252,Mozilla/5.0 (Macintosh; Intel Mac OS X 10.15; rv:87.0) Gecko/20100101 Firefox/87.0,Macintosh,Firefox,87,OS X,10.15
18,1,1441,"""",html-button-response,237,493678,0.0-237.0,"""","<img src='jspsych/CFDfaces/CFD-BM-027-001-N.jpg' height=""250px"">,</br><b>Gregory</b>",0,256,IntactOrRearranged,Test,"""","""","""","""",CFD-BF-016-017-N.jpg,Jenna,1,0,"""","""",1,4/18/2021 21:49,108.173.198.252,Mozilla/5.0 (Macintosh; Intel Mac OS X 10.15; rv:87.0) Gecko/20100101 Firefox/87.0,Macintosh,Firefox,87,OS X,10.15
18,1,1977,"""",html-slider-response,238,495657,0.0-238.0,"""","<img src='jspsych/CFDfaces/CFD-BM-027-001-N.jpg' height=""250px"">,</br><b>Gregory</b>","""",256,ConfidenceQuery,Test,"""","""","""","""",CFD-BF-016-017-N.jpg,Jenna,1,"""",0,41,1,4/18/2021 21:49,108.173.198.252,Mozilla/5.0 (Macintosh; Intel Mac OS X 10.15; rv:87.0) Gecko/20100101 Firefox/87.0,Macintosh,Firefox,87,OS X,10.15
18,1,null,"""",html-keyboard-response,239,496669,0.0-239.0,"""","<div style=""font-size:60px;"">+</div>","""",256,ITI,Test,null,1000,"""","""","""","""","""","""","""","""",1,4/18/2021 21:49,108.173.198.252,Mozilla/5.0 (Macintosh; Intel Mac OS X 10.15; rv:87.0) Gecko/20100101 Firefox/87.0,Macintosh,Firefox,87,OS X,10.15
18,1,null,"""",image-keyboard-response,240,496936,0.0-240.0,"""",jspsych/scrambledDisgustFaces/scrambledBF30DIS.JPG,"""",256,forwardMask,Test,null,250,"""",d,"""","""","""","""","""","""",1,4/18/2021 21:49,108.173.198.252,Mozilla/5.0 (Macintosh; Intel Mac OS X 10.15; rv:87.0) Gecko/20100101 Firefox/87.0,Macintosh,Firefox,87,OS X,10.15
18,1,null,"""",image-keyboard-response,241,496966,0.0-241.0,"""",jspsych/disgustFaces/BF30DIS.JPG,"""",256,Cue,Test,null,16,"""","""","""","""","""","""","""","""",1,4/18/2021 21:49,108.173.198.252,Mozilla/5.0 (Macintosh; Intel Mac OS X 10.15; rv:87.0) Gecko/20100101 Firefox/87.0,Macintosh,Firefox,87,OS X,10.15
18,1,null,"""",image-keyboard-response,242,497079,0.0-242.0,"""",jspsych/neutralFaces/BF15NES.JPG,"""",256,backwardMask,Test,null,100,"""","""","""","""","""","""","""","""",1,4/18/2021 21:49,108.173.198.252,Mozilla/5.0 (Macintosh; Intel Mac OS X 10.15; rv:87.0) Gecko/20100101 Firefox/87.0,Macintosh,Firefox,87,OS X,10.15
18,1,null,"""",html-keyboard-response,243,498080,0.0-243.0,"""","<div style=""font-size:60px;"">+</div>","""",256,fixationBtwnNeutralMaskAndPrompt,Test,null,1000,"""","""","""","""","""","""","""","""",1,4/18/2021 21:49,108.173.198.252,Mozilla/5.0 (Macintosh; Intel Mac OS X 10.15; rv:87.0) Gecko/20100101 Firefox/87.0,Macintosh,Firefox,87,OS X,10.15
18,1,1661,"""",html-button-response,244,499742,0.0-244.0,"""","<img src='jspsych/CFDfaces/CFD-BM-017-021-N.jpg' height=""250px"">,</br><b>Eric</b>",1,256,IntactOrRearranged,Test,"""","""","""","""",CFD-WF-223-133-N.jpg,Jordan,1,1,"""","""",1,4/18/2021 21:49,108.173.198.252,Mozilla/5.0 (Macintosh; Intel Mac OS X 10.15; rv:87.0) Gecko/20100101 Firefox/87.0,Macintosh,Firefox,87,OS X,10.15
18,1,2047,"""",html-slider-response,245,501793,0.0-245.0,"""","<img src='jspsych/CFDfaces/CFD-BM-017-021-N.jpg' height=""250px"">,</br><b>Eric</b>","""",256,ConfidenceQuery,Test,"""","""","""","""",CFD-WF-223-133-N.jpg,Jordan,1,"""",0,2,1,4/18/2021 21:49,108.173.198.252,Mozilla/5.0 (Macintosh; Intel Mac OS X 10.15; rv:87.0) Gecko/20100101 Firefox/87.0,Macintosh,Firefox,87,OS X,10.15
18,1,null,"""",html-keyboard-response,246,502803,0.0-246.0,"""","<div style=""font-size:60px;"">+</div>","""",256,ITI,Test,null,1000,"""","""","""","""","""","""","""","""",1,4/18/2021 21:49,108.173.198.252,Mozilla/5.0 (Macintosh; Intel Mac OS X 10.15; rv:87.0) Gecko/20100101 Firefox/87.0,Macintosh,Firefox,87,OS X,10.15
18,1,null,"""",image-keyboard-response,247,503057,0.0-247.0,"""",jspsych/scrambledDisgustFaces/scrambledAF17DIS.JPG,"""",256,forwardMask,Test,null,250,"""",d,"""","""","""","""","""","""",1,4/18/2021 21:49,108.173.198.252,Mozilla/5.0 (Macintosh; Intel Mac OS X 10.15; rv:87.0) Gecko/20100101 Firefox/87.0,Macintosh,Firefox,87,OS X,10.15
18,1,null,"""",image-keyboard-response,248,503082,0.0-248.0,"""",jspsych/disgustFaces/AF17DIS.JPG,"""",256,Cue,Test,null,16,"""","""","""","""","""","""","""","""",1,4/18/2021 21:49,108.173.198.252,Mozilla/5.0 (Macintosh; Intel Mac OS X 10.15; rv:87.0) Gecko/20100101 Firefox/87.0,Macintosh,Firefox,87,OS X,10.15
18,1,null,"""",image-keyboard-response,249,503190,0.0-249.0,"""",jspsych/neutralFaces/BF21NES.JPG,"""",256,backwardMask,Test,null,100,"""","""","""","""","""","""","""","""",1,4/18/2021 21:49,108.173.198.252,Mozilla/5.0 (Macintosh; Intel Mac OS X 10.15; rv:87.0) Gecko/20100101 Firefox/87.0,Macintosh,Firefox,87,OS X,10.15
18,1,null,"""",html-keyboard-response,250,504195,0.0-250.0,"""","<div style=""font-size:60px;"">+</div>","""",256,fixationBtwnNeutralMaskAndPrompt,Test,null,1000,"""","""","""","""","""","""","""","""",1,4/18/2021 21:49,108.173.198.252,Mozilla/5.0 (Macintosh; Intel Mac OS X 10.15; rv:87.0) Gecko/20100101 Firefox/87.0,Macintosh,Firefox,87,OS X,10.15
18,1,1142,"""",html-button-response,251,505340,0.0-251.0,"""","<img src='jspsych/CFDfaces/CFD-BF-004-014-N.jpg' height=""250px"">,</br><b>Vanessa</b>",0,256,IntactOrRearranged,Test,"""","""","""","""",CFD-LF-201-035-N.jpg,Rebecca,0,0,"""","""",1,4/18/2021 21:49,108.173.198.252,Mozilla/5.0 (Macintosh; Intel Mac OS X 10.15; rv:87.0) Gecko/20100101 Firefox/87.0,Macintosh,Firefox,87,OS X,10.15
18,1,2171,"""",html-slider-response,252,507513,0.0-252.0,"""","<img src='jspsych/CFDfaces/CFD-BF-004-014-N.jpg' height=""250px"">,</br><b>Vanessa</b>","""",256,ConfidenceQuery,Test,"""","""","""","""",CFD-LF-201-035-N.jpg,Rebecca,0,"""",0,4,1,4/18/2021 21:49,108.173.198.252,Mozilla/5.0 (Macintosh; Intel Mac OS X 10.15; rv:87.0) Gecko/20100101 Firefox/87.0,Macintosh,Firefox,87,OS X,10.15
18,1,null,"""",html-keyboard-response,253,508524,0.0-253.0,"""","<div style=""font-size:60px;"">+</div>","""",256,ITI,Test,null,1000,"""","""","""","""","""","""","""","""",1,4/18/2021 21:49,108.173.198.252,Mozilla/5.0 (Macintosh; Intel Mac OS X 10.15; rv:87.0) Gecko/20100101 Firefox/87.0,Macintosh,Firefox,87,OS X,10.15
18,1,null,"""",image-keyboard-response,254,508780,0.0-254.0,"""",jspsych/scrambledNeutralFaces/scrambledAF08NES.JPG,"""",256,forwardMask,Test,null,250,"""",n,"""","""","""","""","""","""",1,4/18/2021 21:49,108.173.198.252,Mozilla/5.0 (Macintosh; Intel Mac OS X 10.15; rv:87.0) Gecko/20100101 Firefox/87.0,Macintosh,Firefox,87,OS X,10.15
18,1,null,"""",image-keyboard-response,255,508803,0.0-255.0,"""",jspsych/neutralFaces/AF08NES.JPG,"""",256,Cue,Test,null,16,"""","""","""","""","""","""","""","""",1,4/18/2021 21:49,108.173.198.252,Mozilla/5.0 (Macintosh; Intel Mac OS X 10.15; rv:87.0) Gecko/20100101 Firefox/87.0,Macintosh,Firefox,87,OS X,10.15
18,1,null,"""",image-keyboard-response,256,508912,0.0-256.0,"""",jspsych/neutralFaces/BF13NES.JPG,"""",256,backwardMask,Test,null,100,"""","""","""","""","""","""","""","""",1,4/18/2021 21:49,108.173.198.252,Mozilla/5.0 (Macintosh; Intel Mac OS X 10.15; rv:87.0) Gecko/20100101 Firefox/87.0,Macintosh,Firefox,87,OS X,10.15
18,1,null,"""",html-keyboard-response,257,509917,0.0-257.0,"""","<div style=""font-size:60px;"">+</div>","""",256,fixationBtwnNeutralMaskAndPrompt,Test,null,1000,"""","""","""","""","""","""","""","""",1,4/18/2021 21:49,108.173.198.252,Mozilla/5.0 (Macintosh; Intel Mac OS X 10.15; rv:87.0) Gecko/20100101 Firefox/87.0,Macintosh,Firefox,87,OS X,10.15
18,1,1249,"""",html-button-response,258,511168,0.0-258.0,"""","<img src='jspsych/CFDfaces/CFD-WM-207-048-N.jpg' height=""250px"">,</br><b>James</b>",0,256,IntactOrRearranged,Test,"""","""","""","""",CFD-AF-237-223-N.jpg,Sara,1,0,"""","""",1,4/18/2021 21:49,108.173.198.252,Mozilla/5.0 (Macintosh; Intel Mac OS X 10.15; rv:87.0) Gecko/20100101 Firefox/87.0,Macintosh,Firefox,87,OS X,10.15
18,1,1903,"""",html-slider-response,259,513073,0.0-259.0,"""","<img src='jspsych/CFDfaces/CFD-WM-207-048-N.jpg' height=""250px"">,</br><b>James</b>","""",256,ConfidenceQuery,Test,"""","""","""","""",CFD-AF-237-223-N.jpg,Sara,1,"""",0,62,1,4/18/2021 21:49,108.173.198.252,Mozilla/5.0 (Macintosh; Intel Mac OS X 10.15; rv:87.0) Gecko/20100101 Firefox/87.0,Macintosh,Firefox,87,OS X,10.15
18,1,null,"""",html-keyboard-response,260,514086,0.0-260.0,"""","<div style=""font-size:60px;"">+</div>","""",256,ITI,Test,null,1000,"""","""","""","""","""","""","""","""",1,4/18/2021 21:49,108.173.198.252,Mozilla/5.0 (Macintosh; Intel Mac OS X 10.15; rv:87.0) Gecko/20100101 Firefox/87.0,Macintosh,Firefox,87,OS X,10.15
18,1,null,"""",image-keyboard-response,261,514341,0.0-261.0,"""",jspsych/scrambledDisgustFaces/scrambledAM07DIS.JPG,"""",256,forwardMask,Test,null,250,"""",d,"""","""","""","""","""","""",1,4/18/2021 21:49,108.173.198.252,Mozilla/5.0 (Macintosh; Intel Mac OS X 10.15; rv:87.0) Gecko/20100101 Firefox/87.0,Macintosh,Firefox,87,OS X,10.15
18,1,null,"""",image-keyboard-response,262,514363,0.0-262.0,"""",jspsych/disgustFaces/AM07DIS.JPG,"""",256,Cue,Test,null,16,"""","""","""","""","""","""","""","""",1,4/18/2021 21:49,108.173.198.252,Mozilla/5.0 (Macintosh; Intel Mac OS X 10.15; rv:87.0) Gecko/20100101 Firefox/87.0,Macintosh,Firefox,87,OS X,10.15
18,1,null,"""",image-keyboard-response,263,514471,0.0-263.0,"""",jspsych/neutralFaces/AM10NES.JPG,"""",256,backwardMask,Test,null,100,"""","""","""","""","""","""","""","""",1,4/18/2021 21:49,108.173.198.252,Mozilla/5.0 (Macintosh; Intel Mac OS X 10.15; rv:87.0) Gecko/20100101 Firefox/87.0,Macintosh,Firefox,87,OS X,10.15
18,1,null,"""",html-keyboard-response,264,515473,0.0-264.0,"""","<div style=""font-size:60px;"">+</div>","""",256,fixationBtwnNeutralMaskAndPrompt,Test,null,1000,"""","""","""","""","""","""","""","""",1,4/18/2021 21:49,108.173.198.252,Mozilla/5.0 (Macintosh; Intel Mac OS X 10.15; rv:87.0) Gecko/20100101 Firefox/87.0,Macintosh,Firefox,87,OS X,10.15
18,1,2158,"""",html-button-response,265,517639,0.0-265.0,"""","<img src='jspsych/CFDfaces/CFD-BM-205-001-N.jpg' height=""250px"">,</br><b>Ian</b>",1,256,IntactOrRearranged,Test,"""","""","""","""",CFD-AM-205-153-N.jpg,Travis,0,1,"""","""",1,4/18/2021 21:49,108.173.198.252,Mozilla/5.0 (Macintosh; Intel Mac OS X 10.15; rv:87.0) Gecko/20100101 Firefox/87.0,Macintosh,Firefox,87,OS X,10.15
18,1,2124,"""",html-slider-response,266,519768,0.0-266.0,"""","<img src='jspsych/CFDfaces/CFD-BM-205-001-N.jpg' height=""250px"">,</br><b>Ian</b>","""",256,ConfidenceQuery,Test,"""","""","""","""",CFD-AM-205-153-N.jpg,Travis,0,"""",0,5,1,4/18/2021 21:49,108.173.198.252,Mozilla/5.0 (Macintosh; Intel Mac OS X 10.15; rv:87.0) Gecko/20100101 Firefox/87.0,Macintosh,Firefox,87,OS X,10.15
18,1,null,"""",html-keyboard-response,267,520784,0.0-267.0,"""","<div style=""font-size:60px;"">+</div>","""",256,ITI,Test,null,1000,"""","""","""","""","""","""","""","""",1,4/18/2021 21:49,108.173.198.252,Mozilla/5.0 (Macintosh; Intel Mac OS X 10.15; rv:87.0) Gecko/20100101 Firefox/87.0,Macintosh,Firefox,87,OS X,10.15
18,1,null,"""",image-keyboard-response,268,521044,0.0-268.0,"""",jspsych/scrambledDisgustFaces/scrambledAF19DIS.JPG,"""",256,forwardMask,Test,null,250,"""",d,"""","""","""","""","""","""",1,4/18/2021 21:49,108.173.198.252,Mozilla/5.0 (Macintosh; Intel Mac OS X 10.15; rv:87.0) Gecko/20100101 Firefox/87.0,Macintosh,Firefox,87,OS X,10.15
18,1,null,"""",image-keyboard-response,269,521069,0.0-269.0,"""",jspsych/disgustFaces/AF19DIS.JPG,"""",256,Cue,Test,null,16,"""","""","""","""","""","""","""","""",1,4/18/2021 21:49,108.173.198.252,Mozilla/5.0 (Macintosh; Intel Mac OS X 10.15; rv:87.0) Gecko/20100101 Firefox/87.0,Macintosh,Firefox,87,OS X,10.15
18,1,null,"""",image-keyboard-response,270,521177,0.0-270.0,"""",jspsych/neutralFaces/BF25NES.JPG,"""",256,backwardMask,Test,null,100,"""","""","""","""","""","""","""","""",1,4/18/2021 21:49,108.173.198.252,Mozilla/5.0 (Macintosh; Intel Mac OS X 10.15; rv:87.0) Gecko/20100101 Firefox/87.0,Macintosh,Firefox,87,OS X,10.15
18,1,null,"""",html-keyboard-response,271,522180,0.0-271.0,"""","<div style=""font-size:60px;"">+</div>","""",256,fixationBtwnNeutralMaskAndPrompt,Test,null,1000,"""","""","""","""","""","""","""","""",1,4/18/2021 21:49,108.173.198.252,Mozilla/5.0 (Macintosh; Intel Mac OS X 10.15; rv:87.0) Gecko/20100101 Firefox/87.0,Macintosh,Firefox,87,OS X,10.15
18,1,1333,"""",html-button-response,272,523524,0.0-272.0,"""","<img src='jspsych/CFDfaces/CFD-LF-239-148-N.jpg' height=""250px"">,</br><b>Ashley</b>",0,256,IntactOrRearranged,Test,"""","""","""","""",CFD-LF-215-157-N.jpg,Angela,1,0,"""","""",1,4/18/2021 21:49,108.173.198.252,Mozilla/5.0 (Macintosh; Intel Mac OS X 10.15; rv:87.0) Gecko/20100101 Firefox/87.0,Macintosh,Firefox,87,OS X,10.15
18,1,1674,"""",html-slider-response,273,525200,0.0-273.0,"""","<img src='jspsych/CFDfaces/CFD-LF-239-148-N.jpg' height=""250px"">,</br><b>Ashley</b>","""",256,ConfidenceQuery,Test,"""","""","""","""",CFD-LF-215-157-N.jpg,Angela,1,"""",0,37,1,4/18/2021 21:49,108.173.198.252,Mozilla/5.0 (Macintosh; Intel Mac OS X 10.15; rv:87.0) Gecko/20100101 Firefox/87.0,Macintosh,Firefox,87,OS X,10.15
18,1,null,"""",html-keyboard-response,274,526207,0.0-274.0,"""","<div style=""font-size:60px;"">+</div>","""",256,ITI,Test,null,1000,"""","""","""","""","""","""","""","""",1,4/18/2021 21:49,108.173.198.252,Mozilla/5.0 (Macintosh; Intel Mac OS X 10.15; rv:87.0) Gecko/20100101 Firefox/87.0,Macintosh,Firefox,87,OS X,10.15
18,1,null,"""",image-keyboard-response,275,526468,0.0-275.0,"""",jspsych/scrambledNeutralFaces/scrambledBM10NES.JPG,"""",256,forwardMask,Test,null,250,"""",n,"""","""","""","""","""","""",1,4/18/2021 21:49,108.173.198.252,Mozilla/5.0 (Macintosh; Intel Mac OS X 10.15; rv:87.0) Gecko/20100101 Firefox/87.0,Macintosh,Firefox,87,OS X,10.15
18,1,null,"""",image-keyboard-response,276,526490,0.0-276.0,"""",jspsych/neutralFaces/BM10NES.JPG,"""",256,Cue,Test,null,16,"""","""","""","""","""","""","""","""",1,4/18/2021 21:49,108.173.198.252,Mozilla/5.0 (Macintosh; Intel Mac OS X 10.15; rv:87.0) Gecko/20100101 Firefox/87.0,Macintosh,Firefox,87,OS X,10.15
18,1,null,"""",image-keyboard-response,277,526597,0.0-277.0,"""",jspsych/neutralFaces/BM22NES.JPG,"""",256,backwardMask,Test,null,100,"""","""","""","""","""","""","""","""",1,4/18/2021 21:49,108.173.198.252,Mozilla/5.0 (Macintosh; Intel Mac OS X 10.15; rv:87.0) Gecko/20100101 Firefox/87.0,Macintosh,Firefox,87,OS X,10.15
18,1,null,"""",html-keyboard-response,278,527598,0.0-278.0,"""","<div style=""font-size:60px;"">+</div>","""",256,fixationBtwnNeutralMaskAndPrompt,Test,null,1000,"""","""","""","""","""","""","""","""",1,4/18/2021 21:49,108.173.198.252,Mozilla/5.0 (Macintosh; Intel Mac OS X 10.15; rv:87.0) Gecko/20100101 Firefox/87.0,Macintosh,Firefox,87,OS X,10.15
18,1,3235,"""",html-button-response,279,530834,0.0-279.0,"""","<img src='jspsych/CFDfaces/CFD-BM-207-024-N.jpg' height=""250px"">,</br><b>Brian</b>",1,256,IntactOrRearranged,Test,"""","""","""","""",CFD-WM-017-002-N.jpg,Austin,0,1,"""","""",1,4/18/2021 21:49,108.173.198.252,Mozilla/5.0 (Macintosh; Intel Mac OS X 10.15; rv:87.0) Gecko/20100101 Firefox/87.0,Macintosh,Firefox,87,OS X,10.15
18,1,1687,"""",html-slider-response,280,532523,0.0-280.0,"""","<img src='jspsych/CFDfaces/CFD-BM-207-024-N.jpg' height=""250px"">,</br><b>Brian</b>","""",256,ConfidenceQuery,Test,"""","""","""","""",CFD-WM-017-002-N.jpg,Austin,0,"""",0,34,1,4/18/2021 21:49,108.173.198.252,Mozilla/5.0 (Macintosh; Intel Mac OS X 10.15; rv:87.0) Gecko/20100101 Firefox/87.0,Macintosh,Firefox,87,OS X,10.15
18,1,null,"""",html-keyboard-response,281,533532,0.0-281.0,"""","<div style=""font-size:60px;"">+</div>","""",256,ITI,Test,null,1000,"""","""","""","""","""","""","""","""",1,4/18/2021 21:49,108.173.198.252,Mozilla/5.0 (Macintosh; Intel Mac OS X 10.15; rv:87.0) Gecko/20100101 Firefox/87.0,Macintosh,Firefox,87,OS X,10.15
18,1,null,"""",image-keyboard-response,282,533788,0.0-282.0,"""",jspsych/scrambledNeutralFaces/scrambledBM16NES.JPG,"""",256,forwardMask,Test,null,250,"""",n,"""","""","""","""","""","""",1,4/18/2021 21:49,108.173.198.252,Mozilla/5.0 (Macintosh; Intel Mac OS X 10.15; rv:87.0) Gecko/20100101 Firefox/87.0,Macintosh,Firefox,87,OS X,10.15
18,1,null,"""",image-keyboard-response,283,533820,0.0-283.0,"""",jspsych/neutralFaces/BM16NES.JPG,"""",256,Cue,Test,null,16,"""","""","""","""","""","""","""","""",1,4/18/2021 21:49,108.173.198.252,Mozilla/5.0 (Macintosh; Intel Mac OS X 10.15; rv:87.0) Gecko/20100101 Firefox/87.0,Macintosh,Firefox,87,OS X,10.15
