run_id,condition,rt,responses,trial_type,trial_index,time_elapsed,internal_node_id,question_order,stimulus,button_pressed,iTrial,Phase,ExperimentPhase,key_press,StimulusDurationSetting,CharacterResponse,correctResponse,Face,Name,rearranged,slider_start,response,didSubjectEnterRearranged,Block,recorded_at,ip,user_agent,device,browser,browser_version,platform,platform_version
101,1,17098,"{""Q0"":""A35UPRWU1QWP2F""}",survey-text,0,17103,0.0-0.0,"""","""","""","""","""","""","""","""","""","""","""","""","""","""","""","""","""",4/23/2021 3:30,174.242.139.5,Mozilla/5.0 (Windows NT 10.0; Win64; x64; rv:88.0) Gecko/20100101 Firefox/88.0,,Firefox,88,Windows,10
101,1,6016,"{""Q0"":""64""}",survey-text,1,23127,0.0-1.0,"""","""","""","""","""","""","""","""","""","""","""","""","""","""","""","""","""",4/23/2021 3:30,174.242.139.5,Mozilla/5.0 (Windows NT 10.0; Win64; x64; rv:88.0) Gecko/20100101 Firefox/88.0,,Firefox,88,Windows,10
101,1,6245,"{""Q0"":""male"",""Q1"":""Not Hispanic/Latino"",""Q2"":""White or Caucasian""}",survey-multi-choice,2,29373,0.0-2.0,"[0,1,2]","""","""","""","""","""","""","""","""","""","""","""","""","""","""","""","""",4/23/2021 3:30,174.242.139.5,Mozilla/5.0 (Windows NT 10.0; Win64; x64; rv:88.0) Gecko/20100101 Firefox/88.0,,Firefox,88,Windows,10
101,1,23225,"""",image-button-response,3,52610,0.0-3.0,"""",directionsMemoryAssociation1.JPG,0,1,IntroDirections1,break,"""","""","""","""","""","""","""","""","""","""","""",4/23/2021 3:30,174.242.139.5,Mozilla/5.0 (Windows NT 10.0; Win64; x64; rv:88.0) Gecko/20100101 Firefox/88.0,,Firefox,88,Windows,10
101,1,34737,"""",image-button-response,4,87353,0.0-4.0,"""",directionsMemoryAssociation2.JPG,0,1,IntroDirections2,break,"""","""","""","""","""","""","""","""","""","""","""",4/23/2021 3:30,174.242.139.5,Mozilla/5.0 (Windows NT 10.0; Win64; x64; rv:88.0) Gecko/20100101 Firefox/88.0,,Firefox,88,Windows,10
101,1,null,"""",html-keyboard-response,5,92370,0.0-5.0,"""","<img src='jspsych/CFDfaces/CFD-WF-019-005-N.jpg' height=""250px"">,</br><b>Tara</b>","""",1,IntactFace,Practice,null,5000,"""","""","""","""","""","""","""","""","""",4/23/2021 3:30,174.242.139.5,Mozilla/5.0 (Windows NT 10.0; Win64; x64; rv:88.0) Gecko/20100101 Firefox/88.0,,Firefox,88,Windows,10
101,1,null,"""",html-keyboard-response,6,92889,0.0-6.0,"""","<div style=""font-size:60px;"">+</div>","""",1,ITI,Practice,null,1000,"""","""","""","""","""","""","""","""","""",4/23/2021 3:30,174.242.139.5,Mozilla/5.0 (Windows NT 10.0; Win64; x64; rv:88.0) Gecko/20100101 Firefox/88.0,,Firefox,88,Windows,10
101,1,null,"""",html-keyboard-response,7,97907,0.0-7.0,"""","<img src='jspsych/CFDfaces/CFD-WF-218-087-N.jpg' height=""250px"">,</br><b>Cassandra</b>","""",2,IntactFace,Practice,null,5000,"""","""","""","""","""","""","""","""","""",4/23/2021 3:30,174.242.139.5,Mozilla/5.0 (Windows NT 10.0; Win64; x64; rv:88.0) Gecko/20100101 Firefox/88.0,,Firefox,88,Windows,10
101,1,null,"""",html-keyboard-response,8,98419,0.0-8.0,"""","<div style=""font-size:60px;"">+</div>","""",2,ITI,Practice,null,1000,"""","""","""","""","""","""","""","""","""",4/23/2021 3:30,174.242.139.5,Mozilla/5.0 (Windows NT 10.0; Win64; x64; rv:88.0) Gecko/20100101 Firefox/88.0,,Firefox,88,Windows,10
101,1,1894,"""",html-keyboard-response,9,103432,0.0-9.0,"""","<img src='jspsych/CFDfaces/CFD-BM-203-001-N.jpg' height=""250px"">,</br><b>Carlos</b>","""",3,IntactFace,Practice,70,5000,f,"""","""","""","""","""","""","""","""",4/23/2021 3:30,174.242.139.5,Mozilla/5.0 (Windows NT 10.0; Win64; x64; rv:88.0) Gecko/20100101 Firefox/88.0,,Firefox,88,Windows,10
101,1,null,"""",html-keyboard-response,10,103941,0.0-10.0,"""","<div style=""font-size:60px;"">+</div>","""",3,ITI,Practice,null,1000,"""","""","""","""","""","""","""","""","""",4/23/2021 3:30,174.242.139.5,Mozilla/5.0 (Windows NT 10.0; Win64; x64; rv:88.0) Gecko/20100101 Firefox/88.0,,Firefox,88,Windows,10
101,1,3986,"""",html-keyboard-response,11,108947,0.0-11.0,"""","<img src='jspsych/CFDfaces/CFD-BF-010-001-N.jpg' height=""250px"">,</br><b>Katelyn</b>","""",4,IntactFace,Practice,70,5000,f,"""","""","""","""","""","""","""","""",4/23/2021 3:30,174.242.139.5,Mozilla/5.0 (Windows NT 10.0; Win64; x64; rv:88.0) Gecko/20100101 Firefox/88.0,,Firefox,88,Windows,10
101,1,null,"""",html-keyboard-response,12,109457,0.0-12.0,"""","<div style=""font-size:60px;"">+</div>","""",4,ITI,Practice,null,1000,"""","""","""","""","""","""","""","""","""",4/23/2021 3:30,174.242.139.5,Mozilla/5.0 (Windows NT 10.0; Win64; x64; rv:88.0) Gecko/20100101 Firefox/88.0,,Firefox,88,Windows,10
101,1,2568,"""",html-keyboard-response,13,114469,0.0-13.0,"""","<img src='jspsych/CFDfaces/CFD-AM-246-184-N.jpg' height=""250px"">,</br><b>Samuel</b>","""",5,IntactFace,Practice,70,5000,f,"""","""","""","""","""","""","""","""",4/23/2021 3:30,174.242.139.5,Mozilla/5.0 (Windows NT 10.0; Win64; x64; rv:88.0) Gecko/20100101 Firefox/88.0,,Firefox,88,Windows,10
101,1,null,"""",html-keyboard-response,14,114989,0.0-14.0,"""","<div style=""font-size:60px;"">+</div>","""",5,ITI,Practice,null,1000,"""","""","""","""","""","""","""","""","""",4/23/2021 3:30,174.242.139.5,Mozilla/5.0 (Windows NT 10.0; Win64; x64; rv:88.0) Gecko/20100101 Firefox/88.0,,Firefox,88,Windows,10
101,1,1947,"""",html-keyboard-response,15,120017,0.0-15.0,"""","<img src='jspsych/CFDfaces/CFD-AM-207-108-N.jpg' height=""250px"">,</br><b>Marcus</b>","""",6,IntactFace,Practice,70,5000,f,"""","""","""","""","""","""","""","""",4/23/2021 3:30,174.242.139.5,Mozilla/5.0 (Windows NT 10.0; Win64; x64; rv:88.0) Gecko/20100101 Firefox/88.0,,Firefox,88,Windows,10
101,1,null,"""",html-keyboard-response,16,120536,0.0-16.0,"""","<div style=""font-size:60px;"">+</div>","""",6,ITI,Practice,null,1000,"""","""","""","""","""","""","""","""","""",4/23/2021 3:30,174.242.139.5,Mozilla/5.0 (Windows NT 10.0; Win64; x64; rv:88.0) Gecko/20100101 Firefox/88.0,,Firefox,88,Windows,10
101,1,3096,"""",html-keyboard-response,17,125546,0.0-17.0,"""","<img src='jspsych/CFDfaces/CFD-LM-209-111-N.jpg' height=""250px"">,</br><b>Patrick</b>","""",7,IntactFace,Practice,78,5000,n,"""","""","""","""","""","""","""","""",4/23/2021 3:30,174.242.139.5,Mozilla/5.0 (Windows NT 10.0; Win64; x64; rv:88.0) Gecko/20100101 Firefox/88.0,,Firefox,88,Windows,10
101,1,null,"""",html-keyboard-response,18,126067,0.0-18.0,"""","<div style=""font-size:60px;"">+</div>","""",7,ITI,Practice,null,1000,"""","""","""","""","""","""","""","""","""",4/23/2021 3:30,174.242.139.5,Mozilla/5.0 (Windows NT 10.0; Win64; x64; rv:88.0) Gecko/20100101 Firefox/88.0,,Firefox,88,Windows,10
101,1,2230,"""",html-keyboard-response,19,131085,0.0-19.0,"""","<img src='jspsych/CFDfaces/CFD-BF-005-001-N.jpg' height=""250px"">,</br><b>Shannon</b>","""",8,IntactFace,Practice,78,5000,n,"""","""","""","""","""","""","""","""",4/23/2021 3:30,174.242.139.5,Mozilla/5.0 (Windows NT 10.0; Win64; x64; rv:88.0) Gecko/20100101 Firefox/88.0,,Firefox,88,Windows,10
101,1,null,"""",html-keyboard-response,20,131596,0.0-20.0,"""","<div style=""font-size:60px;"">+</div>","""",8,ITI,Practice,null,1000,"""","""","""","""","""","""","""","""","""",4/23/2021 3:30,174.242.139.5,Mozilla/5.0 (Windows NT 10.0; Win64; x64; rv:88.0) Gecko/20100101 Firefox/88.0,,Firefox,88,Windows,10
101,1,5947,"""",image-button-response,21,137560,0.0-21.0,"""",directionsForTest.JPG,0,1,directionsForTest,break,"""","""","""","""","""","""","""","""","""","""","""",4/23/2021 3:30,174.242.139.5,Mozilla/5.0 (Windows NT 10.0; Win64; x64; rv:88.0) Gecko/20100101 Firefox/88.0,,Firefox,88,Windows,10
101,1,30319,"""",image-button-response,22,167882,0.0-22.0,"""",directionsForTest2.JPG,0,1,directionsForTest2,break,"""","""","""","""","""","""","""","""","""","""","""",4/23/2021 3:30,174.242.139.5,Mozilla/5.0 (Windows NT 10.0; Win64; x64; rv:88.0) Gecko/20100101 Firefox/88.0,,Firefox,88,Windows,10
101,1,null,"""",html-keyboard-response,23,168902,0.0-23.0,"""","<div style=""font-size:60px;"">+</div>","""",1,ITI,Practice,null,1000,"""","""","""","""","""","""","""","""","""",4/23/2021 3:30,174.242.139.5,Mozilla/5.0 (Windows NT 10.0; Win64; x64; rv:88.0) Gecko/20100101 Firefox/88.0,,Firefox,88,Windows,10
101,1,null,"""",image-keyboard-response,24,169163,0.0-24.0,"""",jspsych/scrambledNeutralFaces/scrambledAM35NES.JPG,"""",1,forwardMask,Practice,null,250,"""",n,"""","""","""","""","""","""","""",4/23/2021 3:30,174.242.139.5,Mozilla/5.0 (Windows NT 10.0; Win64; x64; rv:88.0) Gecko/20100101 Firefox/88.0,,Firefox,88,Windows,10
101,1,null,"""",image-keyboard-response,25,169203,0.0-25.0,"""",jspsych/neutralFaces/AM35NES.JPG,"""",1,Cue,Practice,null,16,"""","""","""","""","""","""","""","""","""",4/23/2021 3:30,174.242.139.5,Mozilla/5.0 (Windows NT 10.0; Win64; x64; rv:88.0) Gecko/20100101 Firefox/88.0,,Firefox,88,Windows,10
101,1,null,"""",image-keyboard-response,26,169313,0.0-26.0,"""",jspsych/neutralFaces/AM23NES.JPG,"""",1,backwardMask,Practice,null,100,"""","""","""","""","""","""","""","""","""",4/23/2021 3:30,174.242.139.5,Mozilla/5.0 (Windows NT 10.0; Win64; x64; rv:88.0) Gecko/20100101 Firefox/88.0,,Firefox,88,Windows,10
101,1,null,"""",html-keyboard-response,27,170322,0.0-27.0,"""","<div style=""font-size:60px;"">+</div>","""",1,fixationBtwnNeutralMaskAndPrompt,Practice,null,1000,"""","""","""","""","""","""","""","""","""",4/23/2021 3:30,174.242.139.5,Mozilla/5.0 (Windows NT 10.0; Win64; x64; rv:88.0) Gecko/20100101 Firefox/88.0,,Firefox,88,Windows,10
101,1,null,"""",html-button-response,28,175342,0.0-28.0,"""","<img src='jspsych/CFDfaces/CFD-LM-209-111-N.jpg'height=""250px""></br><b>Patrick</b>",null,1,IntactOrRearranged,Practice,"""","""","""","""",CFD-LM-209-111-N.jpg,Patrick,0,"""","""","""","""",4/23/2021 3:30,174.242.139.5,Mozilla/5.0 (Windows NT 10.0; Win64; x64; rv:88.0) Gecko/20100101 Firefox/88.0,,Firefox,88,Windows,10
101,1,null,"""",html-slider-response,29,180351,0.0-29.0,"""","<img src='jspsych/CFDfaces/CFD-LM-209-111-N.jpg'height=""250px""></br><b>Patrick</b>","""",1,ConfidenceQuery,Practice,"""","""","""","""",CFD-LM-217-162-N.jpg,Austin,0,0,null,"""","""",4/23/2021 3:30,174.242.139.5,Mozilla/5.0 (Windows NT 10.0; Win64; x64; rv:88.0) Gecko/20100101 Firefox/88.0,,Firefox,88,Windows,10
101,1,3776,"""",html-button-response,30,184130,0.0-30.0,"""",<p>Please click either button: REARRANGED or INTACT before the 5-second time limit.</p>,0,1,feedback,Practice,"""","""","""","""","""","""","""","""","""","""","""",4/23/2021 3:30,174.242.139.5,Mozilla/5.0 (Windows NT 10.0; Win64; x64; rv:88.0) Gecko/20100101 Firefox/88.0,,Firefox,88,Windows,10
101,1,null,"""",html-keyboard-response,31,185151,0.0-31.0,"""","<div style=""font-size:60px;"">+</div>","""",2,ITI,Practice,null,1000,"""","""","""","""","""","""","""","""","""",4/23/2021 3:30,174.242.139.5,Mozilla/5.0 (Windows NT 10.0; Win64; x64; rv:88.0) Gecko/20100101 Firefox/88.0,,Firefox,88,Windows,10
101,1,null,"""",image-keyboard-response,32,185422,0.0-32.0,"""",jspsych/scrambledNeutralFaces/scrambledAM11NES.JPG,"""",2,forwardMask,Practice,null,250,"""",n,"""","""","""","""","""","""","""",4/23/2021 3:30,174.242.139.5,Mozilla/5.0 (Windows NT 10.0; Win64; x64; rv:88.0) Gecko/20100101 Firefox/88.0,,Firefox,88,Windows,10
101,1,null,"""",image-keyboard-response,33,185461,0.0-33.0,"""",jspsych/neutralFaces/AM11NES.JPG,"""",2,Cue,Practice,null,16,"""","""","""","""","""","""","""","""","""",4/23/2021 3:30,174.242.139.5,Mozilla/5.0 (Windows NT 10.0; Win64; x64; rv:88.0) Gecko/20100101 Firefox/88.0,,Firefox,88,Windows,10
101,1,null,"""",image-keyboard-response,34,185581,0.0-34.0,"""",jspsych/neutralFaces/BM28NES.JPG,"""",2,backwardMask,Practice,null,100,"""","""","""","""","""","""","""","""","""",4/23/2021 3:30,174.242.139.5,Mozilla/5.0 (Windows NT 10.0; Win64; x64; rv:88.0) Gecko/20100101 Firefox/88.0,,Firefox,88,Windows,10
101,1,null,"""",html-keyboard-response,35,186601,0.0-35.0,"""","<div style=""font-size:60px;"">+</div>","""",2,fixationBtwnNeutralMaskAndPrompt,Practice,null,1000,"""","""","""","""","""","""","""","""","""",4/23/2021 3:30,174.242.139.5,Mozilla/5.0 (Windows NT 10.0; Win64; x64; rv:88.0) Gecko/20100101 Firefox/88.0,,Firefox,88,Windows,10
101,1,2037,"""",html-button-response,36,188639,0.0-36.0,"""","<img src='jspsych/CFDfaces/CFD-BM-203-001-N.jpg'height=""250px""></br><b>Marcus</b>",0,2,IntactOrRearranged,Practice,"""","""","""","""",CFD-BM-203-001-N.jpg,Marcus,1,"""","""",0,"""",4/23/2021 3:30,174.242.139.5,Mozilla/5.0 (Windows NT 10.0; Win64; x64; rv:88.0) Gecko/20100101 Firefox/88.0,,Firefox,88,Windows,10
101,1,3194,"""",html-slider-response,37,191835,0.0-37.0,"""","<img src='jspsych/CFDfaces/CFD-BM-203-001-N.jpg'height=""250px""></br><b>Marcus</b>","""",2,ConfidenceQuery,Practice,"""","""","""","""",CFD-LM-217-162-N.jpg,Austin,1,0,100,"""","""",4/23/2021 3:30,174.242.139.5,Mozilla/5.0 (Windows NT 10.0; Win64; x64; rv:88.0) Gecko/20100101 Firefox/88.0,,Firefox,88,Windows,10
101,1,7346,"""",html-button-response,38,199183,0.0-38.0,"""",You are Incorrect. You called a Rearranged Pair Intact,0,2,feedback,Practice,"""","""","""","""","""","""","""","""","""","""","""",4/23/2021 3:30,174.242.139.5,Mozilla/5.0 (Windows NT 10.0; Win64; x64; rv:88.0) Gecko/20100101 Firefox/88.0,,Firefox,88,Windows,10
101,1,null,"""",html-keyboard-response,39,200200,0.0-39.0,"""","<div style=""font-size:60px;"">+</div>","""",3,ITI,Practice,null,1000,"""","""","""","""","""","""","""","""","""",4/23/2021 3:30,174.242.139.5,Mozilla/5.0 (Windows NT 10.0; Win64; x64; rv:88.0) Gecko/20100101 Firefox/88.0,,Firefox,88,Windows,10
101,1,null,"""",image-keyboard-response,40,200459,0.0-40.0,"""",jspsych/scrambledNeutralFaces/scrambledBF19NES.JPG,"""",3,forwardMask,Practice,null,250,"""",n,"""","""","""","""","""","""","""",4/23/2021 3:30,174.242.139.5,Mozilla/5.0 (Windows NT 10.0; Win64; x64; rv:88.0) Gecko/20100101 Firefox/88.0,,Firefox,88,Windows,10
101,1,null,"""",image-keyboard-response,41,200479,0.0-41.0,"""",jspsych/neutralFaces/BF19NES.JPG,"""",3,Cue,Practice,null,16,"""","""","""","""","""","""","""","""","""",4/23/2021 3:30,174.242.139.5,Mozilla/5.0 (Windows NT 10.0; Win64; x64; rv:88.0) Gecko/20100101 Firefox/88.0,,Firefox,88,Windows,10
101,1,null,"""",image-keyboard-response,42,200600,0.0-42.0,"""",jspsych/neutralFaces/BF06NES.JPG,"""",3,backwardMask,Practice,null,100,"""","""","""","""","""","""","""","""","""",4/23/2021 3:30,174.242.139.5,Mozilla/5.0 (Windows NT 10.0; Win64; x64; rv:88.0) Gecko/20100101 Firefox/88.0,,Firefox,88,Windows,10
101,1,null,"""",html-keyboard-response,43,201609,0.0-43.0,"""","<div style=""font-size:60px;"">+</div>","""",3,fixationBtwnNeutralMaskAndPrompt,Practice,null,1000,"""","""","""","""","""","""","""","""","""",4/23/2021 3:30,174.242.139.5,Mozilla/5.0 (Windows NT 10.0; Win64; x64; rv:88.0) Gecko/20100101 Firefox/88.0,,Firefox,88,Windows,10
101,1,null,"""",html-button-response,44,206630,0.0-44.0,"""","<img src='jspsych/CFDfaces/CFD-BF-010-001-N.jpg'height=""250px""></br><b>Cassandra</b>",null,3,IntactOrRearranged,Practice,"""","""","""","""",CFD-BF-010-001-N.jpg,Cassandra,1,"""","""","""","""",4/23/2021 3:30,174.242.139.5,Mozilla/5.0 (Windows NT 10.0; Win64; x64; rv:88.0) Gecko/20100101 Firefox/88.0,,Firefox,88,Windows,10
101,1,3250,"""",html-slider-response,45,209886,0.0-45.0,"""","<img src='jspsych/CFDfaces/CFD-BF-010-001-N.jpg'height=""250px""></br><b>Cassandra</b>","""",3,ConfidenceQuery,Practice,"""","""","""","""",CFD-LM-217-162-N.jpg,Austin,1,0,100,"""","""",4/23/2021 3:30,174.242.139.5,Mozilla/5.0 (Windows NT 10.0; Win64; x64; rv:88.0) Gecko/20100101 Firefox/88.0,,Firefox,88,Windows,10
101,1,4806,"""",html-button-response,46,214693,0.0-46.0,"""",<p>Please click either button: REARRANGED or INTACT before the 5-second time limit.</p>,0,3,feedback,Practice,"""","""","""","""","""","""","""","""","""","""","""",4/23/2021 3:30,174.242.139.5,Mozilla/5.0 (Windows NT 10.0; Win64; x64; rv:88.0) Gecko/20100101 Firefox/88.0,,Firefox,88,Windows,10
101,1,null,"""",html-keyboard-response,47,215699,0.0-47.0,"""","<div style=""font-size:60px;"">+</div>","""",4,ITI,Practice,null,1000,"""","""","""","""","""","""","""","""","""",4/23/2021 3:30,174.242.139.5,Mozilla/5.0 (Windows NT 10.0; Win64; x64; rv:88.0) Gecko/20100101 Firefox/88.0,,Firefox,88,Windows,10
101,1,null,"""",image-keyboard-response,48,215958,0.0-48.0,"""",jspsych/scrambledDisgustFaces/scrambledBM34DIS.JPG,"""",4,forwardMask,Practice,null,250,"""",d,"""","""","""","""","""","""","""",4/23/2021 3:30,174.242.139.5,Mozilla/5.0 (Windows NT 10.0; Win64; x64; rv:88.0) Gecko/20100101 Firefox/88.0,,Firefox,88,Windows,10
101,1,null,"""",image-keyboard-response,49,215999,0.0-49.0,"""",jspsych/disgustFaces/BM35DIS.JPG,"""",4,Cue,Practice,null,16,"""","""","""","""","""","""","""","""","""",4/23/2021 3:30,174.242.139.5,Mozilla/5.0 (Windows NT 10.0; Win64; x64; rv:88.0) Gecko/20100101 Firefox/88.0,,Firefox,88,Windows,10
101,1,null,"""",image-keyboard-response,50,216119,0.0-50.0,"""",jspsych/neutralFaces/BM25NES.JPG,"""",4,backwardMask,Practice,null,100,"""","""","""","""","""","""","""","""","""",4/23/2021 3:30,174.242.139.5,Mozilla/5.0 (Windows NT 10.0; Win64; x64; rv:88.0) Gecko/20100101 Firefox/88.0,,Firefox,88,Windows,10
101,1,null,"""",html-keyboard-response,51,217123,0.0-51.0,"""","<div style=""font-size:60px;"">+</div>","""",4,fixationBtwnNeutralMaskAndPrompt,Practice,null,1000,"""","""","""","""","""","""","""","""","""",4/23/2021 3:30,174.242.139.5,Mozilla/5.0 (Windows NT 10.0; Win64; x64; rv:88.0) Gecko/20100101 Firefox/88.0,,Firefox,88,Windows,10
101,1,1954,"""",html-button-response,52,219077,0.0-52.0,"""","<img src='jspsych/CFDfaces/CFD-BF-005-001-N.jpg'height=""250px""></br><b>Shannon</b>",0,4,IntactOrRearranged,Practice,"""","""","""","""",CFD-BF-005-001-N.jpg,Shannon,0,"""","""",0,"""",4/23/2021 3:30,174.242.139.5,Mozilla/5.0 (Windows NT 10.0; Win64; x64; rv:88.0) Gecko/20100101 Firefox/88.0,,Firefox,88,Windows,10
101,1,null,"""",html-slider-response,53,224097,0.0-53.0,"""","<img src='jspsych/CFDfaces/CFD-BF-005-001-N.jpg'height=""250px""></br><b>Shannon</b>","""",4,ConfidenceQuery,Practice,"""","""","""","""",CFD-LM-217-162-N.jpg,Austin,0,0,null,"""","""",4/23/2021 3:30,174.242.139.5,Mozilla/5.0 (Windows NT 10.0; Win64; x64; rv:88.0) Gecko/20100101 Firefox/88.0,,Firefox,88,Windows,10
101,1,11325,"""",html-button-response,54,235426,0.0-54.0,"""",You are Correct. You called an Intact Pair Intact,0,4,feedback,Practice,"""","""","""","""","""","""","""","""","""","""","""",4/23/2021 3:30,174.242.139.5,Mozilla/5.0 (Windows NT 10.0; Win64; x64; rv:88.0) Gecko/20100101 Firefox/88.0,,Firefox,88,Windows,10
101,1,null,"""",html-keyboard-response,55,236431,0.0-55.0,"""","<div style=""font-size:60px;"">+</div>","""",5,ITI,Practice,null,1000,"""","""","""","""","""","""","""","""","""",4/23/2021 3:30,174.242.139.5,Mozilla/5.0 (Windows NT 10.0; Win64; x64; rv:88.0) Gecko/20100101 Firefox/88.0,,Firefox,88,Windows,10
101,1,null,"""",image-keyboard-response,56,236696,0.0-56.0,"""",jspsych/scrambledDisgustFaces/scrambledAM35DIS.JPG,"""",5,forwardMask,Practice,null,250,"""",d,"""","""","""","""","""","""","""",4/23/2021 3:30,174.242.139.5,Mozilla/5.0 (Windows NT 10.0; Win64; x64; rv:88.0) Gecko/20100101 Firefox/88.0,,Firefox,88,Windows,10
101,1,null,"""",image-keyboard-response,57,236727,0.0-57.0,"""",jspsych/disgustFaces/AM35DIS.JPG,"""",5,Cue,Practice,null,16,"""","""","""","""","""","""","""","""","""",4/23/2021 3:30,174.242.139.5,Mozilla/5.0 (Windows NT 10.0; Win64; x64; rv:88.0) Gecko/20100101 Firefox/88.0,,Firefox,88,Windows,10
101,1,null,"""",image-keyboard-response,58,236838,0.0-58.0,"""",jspsych/neutralFaces/AM15NES.JPG,"""",5,backwardMask,Practice,null,100,"""","""","""","""","""","""","""","""","""",4/23/2021 3:30,174.242.139.5,Mozilla/5.0 (Windows NT 10.0; Win64; x64; rv:88.0) Gecko/20100101 Firefox/88.0,,Firefox,88,Windows,10
101,1,null,"""",html-keyboard-response,59,237847,0.0-59.0,"""","<div style=""font-size:60px;"">+</div>","""",5,fixationBtwnNeutralMaskAndPrompt,Practice,null,1000,"""","""","""","""","""","""","""","""","""",4/23/2021 3:30,174.242.139.5,Mozilla/5.0 (Windows NT 10.0; Win64; x64; rv:88.0) Gecko/20100101 Firefox/88.0,,Firefox,88,Windows,10
101,1,3512,"""",html-button-response,60,241361,0.0-60.0,"""","<img src='jspsych/CFDfaces/CFD-WF-218-087-N.jpg'height=""250px""></br><b>Katelyn</b>",1,5,IntactOrRearranged,Practice,"""","""","""","""",CFD-WF-218-087-N.jpg,Katelyn,1,"""","""",1,"""",4/23/2021 3:30,174.242.139.5,Mozilla/5.0 (Windows NT 10.0; Win64; x64; rv:88.0) Gecko/20100101 Firefox/88.0,,Firefox,88,Windows,10
101,1,3269,"""",html-slider-response,61,244632,0.0-61.0,"""","<img src='jspsych/CFDfaces/CFD-WF-218-087-N.jpg'height=""250px""></br><b>Katelyn</b>","""",5,ConfidenceQuery,Practice,"""","""","""","""",CFD-LM-217-162-N.jpg,Austin,1,0,48,"""","""",4/23/2021 3:30,174.242.139.5,Mozilla/5.0 (Windows NT 10.0; Win64; x64; rv:88.0) Gecko/20100101 Firefox/88.0,,Firefox,88,Windows,10
101,1,2254,"""",html-button-response,62,246889,0.0-62.0,"""",You are Correct. You Called A Rearranged Pair Rearranged,0,5,feedback,Practice,"""","""","""","""","""","""","""","""","""","""","""",4/23/2021 3:30,174.242.139.5,Mozilla/5.0 (Windows NT 10.0; Win64; x64; rv:88.0) Gecko/20100101 Firefox/88.0,,Firefox,88,Windows,10
101,1,null,"""",html-keyboard-response,63,247896,0.0-63.0,"""","<div style=""font-size:60px;"">+</div>","""",6,ITI,Practice,null,1000,"""","""","""","""","""","""","""","""","""",4/23/2021 3:30,174.242.139.5,Mozilla/5.0 (Windows NT 10.0; Win64; x64; rv:88.0) Gecko/20100101 Firefox/88.0,,Firefox,88,Windows,10
101,1,null,"""",image-keyboard-response,64,248155,0.0-64.0,"""",jspsych/scrambledDisgustFaces/scrambledAM25DIS.JPG,"""",6,forwardMask,Practice,null,250,"""",d,"""","""","""","""","""","""","""",4/23/2021 3:30,174.242.139.5,Mozilla/5.0 (Windows NT 10.0; Win64; x64; rv:88.0) Gecko/20100101 Firefox/88.0,,Firefox,88,Windows,10
101,1,null,"""",image-keyboard-response,65,248175,0.0-65.0,"""",jspsych/disgustFaces/AM25DIS.JPG,"""",6,Cue,Practice,null,16,"""","""","""","""","""","""","""","""","""",4/23/2021 3:30,174.242.139.5,Mozilla/5.0 (Windows NT 10.0; Win64; x64; rv:88.0) Gecko/20100101 Firefox/88.0,,Firefox,88,Windows,10
101,1,null,"""",image-keyboard-response,66,248282,0.0-66.0,"""",jspsych/neutralFaces/AM05NES.JPG,"""",6,backwardMask,Practice,null,100,"""","""","""","""","""","""","""","""","""",4/23/2021 3:30,174.242.139.5,Mozilla/5.0 (Windows NT 10.0; Win64; x64; rv:88.0) Gecko/20100101 Firefox/88.0,,Firefox,88,Windows,10
101,1,null,"""",html-keyboard-response,67,249296,0.0-67.0,"""","<div style=""font-size:60px;"">+</div>","""",6,fixationBtwnNeutralMaskAndPrompt,Practice,null,1000,"""","""","""","""","""","""","""","""","""",4/23/2021 3:30,174.242.139.5,Mozilla/5.0 (Windows NT 10.0; Win64; x64; rv:88.0) Gecko/20100101 Firefox/88.0,,Firefox,88,Windows,10
101,1,4241,"""",html-button-response,68,253539,0.0-68.0,"""","<img src='jspsych/CFDfaces/CFD-AM-207-108-N.jpg'height=""250px""></br><b>Carlos</b>",0,6,IntactOrRearranged,Practice,"""","""","""","""",CFD-AM-207-108-N.jpg,Carlos,1,"""","""",0,"""",4/23/2021 3:30,174.242.139.5,Mozilla/5.0 (Windows NT 10.0; Win64; x64; rv:88.0) Gecko/20100101 Firefox/88.0,,Firefox,88,Windows,10
101,1,3458,"""",html-slider-response,69,257001,0.0-69.0,"""","<img src='jspsych/CFDfaces/CFD-AM-207-108-N.jpg'height=""250px""></br><b>Carlos</b>","""",6,ConfidenceQuery,Practice,"""","""","""","""",CFD-LM-217-162-N.jpg,Austin,1,0,100,"""","""",4/23/2021 3:30,174.242.139.5,Mozilla/5.0 (Windows NT 10.0; Win64; x64; rv:88.0) Gecko/20100101 Firefox/88.0,,Firefox,88,Windows,10
101,1,2320,"""",html-button-response,70,259321,0.0-70.0,"""",You are Incorrect. You called a Rearranged Pair Intact,0,6,feedback,Practice,"""","""","""","""","""","""","""","""","""","""","""",4/23/2021 3:30,174.242.139.5,Mozilla/5.0 (Windows NT 10.0; Win64; x64; rv:88.0) Gecko/20100101 Firefox/88.0,,Firefox,88,Windows,10
101,1,null,"""",html-keyboard-response,71,260335,0.0-71.0,"""","<div style=""font-size:60px;"">+</div>","""",7,ITI,Practice,null,1000,"""","""","""","""","""","""","""","""","""",4/23/2021 3:30,174.242.139.5,Mozilla/5.0 (Windows NT 10.0; Win64; x64; rv:88.0) Gecko/20100101 Firefox/88.0,,Firefox,88,Windows,10
101,1,null,"""",image-keyboard-response,72,260595,0.0-72.0,"""",jspsych/scrambledDisgustFaces/scrambledAF23DIS.JPG,"""",7,forwardMask,Practice,null,250,"""",d,"""","""","""","""","""","""","""",4/23/2021 3:30,174.242.139.5,Mozilla/5.0 (Windows NT 10.0; Win64; x64; rv:88.0) Gecko/20100101 Firefox/88.0,,Firefox,88,Windows,10
101,1,null,"""",image-keyboard-response,73,260615,0.0-73.0,"""",jspsych/disgustFaces/AF23DIS.JPG,"""",7,Cue,Practice,null,16,"""","""","""","""","""","""","""","""","""",4/23/2021 3:30,174.242.139.5,Mozilla/5.0 (Windows NT 10.0; Win64; x64; rv:88.0) Gecko/20100101 Firefox/88.0,,Firefox,88,Windows,10
101,1,null,"""",image-keyboard-response,74,260734,0.0-74.0,"""",jspsych/neutralFaces/AF29NES.JPG,"""",7,backwardMask,Practice,null,100,"""","""","""","""","""","""","""","""","""",4/23/2021 3:30,174.242.139.5,Mozilla/5.0 (Windows NT 10.0; Win64; x64; rv:88.0) Gecko/20100101 Firefox/88.0,,Firefox,88,Windows,10
101,1,null,"""",html-keyboard-response,75,261744,0.0-75.0,"""","<div style=""font-size:60px;"">+</div>","""",7,fixationBtwnNeutralMaskAndPrompt,Practice,null,1000,"""","""","""","""","""","""","""","""","""",4/23/2021 3:30,174.242.139.5,Mozilla/5.0 (Windows NT 10.0; Win64; x64; rv:88.0) Gecko/20100101 Firefox/88.0,,Firefox,88,Windows,10
101,1,1965,"""",html-button-response,76,263711,0.0-76.0,"""","<img src='jspsych/CFDfaces/CFD-AM-246-184-N.jpg'height=""250px""></br><b>Samuel</b>",0,7,IntactOrRearranged,Practice,"""","""","""","""",CFD-AM-246-184-N.jpg,Samuel,0,"""","""",0,"""",4/23/2021 3:30,174.242.139.5,Mozilla/5.0 (Windows NT 10.0; Win64; x64; rv:88.0) Gecko/20100101 Firefox/88.0,,Firefox,88,Windows,10
101,1,3748,"""",html-slider-response,77,267461,0.0-77.0,"""","<img src='jspsych/CFDfaces/CFD-AM-246-184-N.jpg'height=""250px""></br><b>Samuel</b>","""",7,ConfidenceQuery,Practice,"""","""","""","""",CFD-LM-217-162-N.jpg,Austin,0,0,100,"""","""",4/23/2021 3:30,174.242.139.5,Mozilla/5.0 (Windows NT 10.0; Win64; x64; rv:88.0) Gecko/20100101 Firefox/88.0,,Firefox,88,Windows,10
101,1,1469,"""",html-button-response,78,268935,0.0-78.0,"""",You are Correct. You called an Intact Pair Intact,0,7,feedback,Practice,"""","""","""","""","""","""","""","""","""","""","""",4/23/2021 3:30,174.242.139.5,Mozilla/5.0 (Windows NT 10.0; Win64; x64; rv:88.0) Gecko/20100101 Firefox/88.0,,Firefox,88,Windows,10
101,1,null,"""",html-keyboard-response,79,269944,0.0-79.0,"""","<div style=""font-size:60px;"">+</div>","""",8,ITI,Practice,null,1000,"""","""","""","""","""","""","""","""","""",4/23/2021 3:30,174.242.139.5,Mozilla/5.0 (Windows NT 10.0; Win64; x64; rv:88.0) Gecko/20100101 Firefox/88.0,,Firefox,88,Windows,10
101,1,null,"""",image-keyboard-response,80,270206,0.0-80.0,"""",jspsych/scrambledNeutralFaces/scrambledAF05NES.JPG,"""",8,forwardMask,Practice,null,250,"""",n,"""","""","""","""","""","""","""",4/23/2021 3:30,174.242.139.5,Mozilla/5.0 (Windows NT 10.0; Win64; x64; rv:88.0) Gecko/20100101 Firefox/88.0,,Firefox,88,Windows,10
101,1,null,"""",image-keyboard-response,81,270244,0.0-81.0,"""",jspsych/neutralFaces/AF05NES.JPG,"""",8,Cue,Practice,null,16,"""","""","""","""","""","""","""","""","""",4/23/2021 3:30,174.242.139.5,Mozilla/5.0 (Windows NT 10.0; Win64; x64; rv:88.0) Gecko/20100101 Firefox/88.0,,Firefox,88,Windows,10
101,1,null,"""",image-keyboard-response,82,270365,0.0-82.0,"""",jspsych/neutralFaces/BF35NES.JPG,"""",8,backwardMask,Practice,null,100,"""","""","""","""","""","""","""","""","""",4/23/2021 3:30,174.242.139.5,Mozilla/5.0 (Windows NT 10.0; Win64; x64; rv:88.0) Gecko/20100101 Firefox/88.0,,Firefox,88,Windows,10
101,1,null,"""",html-keyboard-response,83,271383,0.0-83.0,"""","<div style=""font-size:60px;"">+</div>","""",8,fixationBtwnNeutralMaskAndPrompt,Practice,null,1000,"""","""","""","""","""","""","""","""","""",4/23/2021 3:30,174.242.139.5,Mozilla/5.0 (Windows NT 10.0; Win64; x64; rv:88.0) Gecko/20100101 Firefox/88.0,,Firefox,88,Windows,10
101,1,2070,"""",html-button-response,84,273455,0.0-84.0,"""","<img src='jspsych/CFDfaces/CFD-WF-019-005-N.jpg'height=""250px""></br><b>Tara</b>",0,8,IntactOrRearranged,Practice,"""","""","""","""",CFD-WF-019-005-N.jpg,Tara,0,"""","""",0,"""",4/23/2021 3:30,174.242.139.5,Mozilla/5.0 (Windows NT 10.0; Win64; x64; rv:88.0) Gecko/20100101 Firefox/88.0,,Firefox,88,Windows,10
101,1,3207,"""",html-slider-response,85,276666,0.0-85.0,"""","<img src='jspsych/CFDfaces/CFD-WF-019-005-N.jpg'height=""250px""></br><b>Tara</b>","""",8,ConfidenceQuery,Practice,"""","""","""","""",CFD-LM-217-162-N.jpg,Austin,0,0,100,"""","""",4/23/2021 3:30,174.242.139.5,Mozilla/5.0 (Windows NT 10.0; Win64; x64; rv:88.0) Gecko/20100101 Firefox/88.0,,Firefox,88,Windows,10
101,1,3373,"""",html-button-response,86,280040,0.0-86.0,"""",You are Correct. You called an Intact Pair Intact,0,8,feedback,Practice,"""","""","""","""","""","""","""","""","""","""","""",4/23/2021 3:30,174.242.139.5,Mozilla/5.0 (Windows NT 10.0; Win64; x64; rv:88.0) Gecko/20100101 Firefox/88.0,,Firefox,88,Windows,10
101,1,4439,"""",image-button-response,87,284488,0.0-87.0,"""",directionsMemoryAssociation3.JPG,0,128,DirectionsBeforeActualTEst,Break,"""","""","""","""","""","""","""","""","""","""","""",4/23/2021 3:30,174.242.139.5,Mozilla/5.0 (Windows NT 10.0; Win64; x64; rv:88.0) Gecko/20100101 Firefox/88.0,,Firefox,88,Windows,10
101,1,5693,"""",image-button-response,88,290185,0.0-88.0,"""",directionsForTest2.JPG,0,1,directionsForTest2,break,"""","""","""","""","""","""","""","""","""","""","""",4/23/2021 3:30,174.242.139.5,Mozilla/5.0 (Windows NT 10.0; Win64; x64; rv:88.0) Gecko/20100101 Firefox/88.0,,Firefox,88,Windows,10
101,1,13554,"""",html-button-response,89,303742,0.0-89.0,"""","<p>You will be asked to memorize and then recall four sets of face-name pairs. </p> <p> Each set will have 32 pairs. </p> <p>After the fourth set, there will be a brief follow-up experiment (<40 min alltogether)</p>",0,"""","""","""","""","""","""","""","""","""","""","""","""","""","""",4/23/2021 3:30,174.242.139.5,Mozilla/5.0 (Windows NT 10.0; Win64; x64; rv:88.0) Gecko/20100101 Firefox/88.0,,Firefox,88,Windows,10
101,1,null,"""",html-keyboard-response,90,308761,0.0-90.0,"""","<img src='jspsych/CFDfaces/CFD-BM-022-022-N.jpg' height=""250px""></br><b>Daniel</b>","""",256,IntactFace,Memorization,null,5000,"""","""",CFD-AF-222-134-N.jpg,Sara,0,"""","""","""",1,4/23/2021 3:30,174.242.139.5,Mozilla/5.0 (Windows NT 10.0; Win64; x64; rv:88.0) Gecko/20100101 Firefox/88.0,,Firefox,88,Windows,10
101,1,null,"""",html-keyboard-response,91,309281,0.0-91.0,"""","<div style=""font-size:60px;"">+</div>","""",256,fixation,Memorization,null,500,"""","""","""","""","""","""","""","""",1,4/23/2021 3:30,174.242.139.5,Mozilla/5.0 (Windows NT 10.0; Win64; x64; rv:88.0) Gecko/20100101 Firefox/88.0,,Firefox,88,Windows,10
101,1,2949,"""",html-keyboard-response,92,314295,0.0-92.0,"""","<img src='jspsych/CFDfaces/CFD-LM-201-057-N.jpg' height=""250px""></br><b>Juan</b>","""",256,IntactFace,Memorization,78,5000,n,"""",CFD-LF-203-066-N.jpg,Tiffany,0,"""","""","""",1,4/23/2021 3:30,174.242.139.5,Mozilla/5.0 (Windows NT 10.0; Win64; x64; rv:88.0) Gecko/20100101 Firefox/88.0,,Firefox,88,Windows,10
101,1,null,"""",html-keyboard-response,93,314808,0.0-93.0,"""","<div style=""font-size:60px;"">+</div>","""",256,fixation,Memorization,null,500,"""","""","""","""","""","""","""","""",1,4/23/2021 3:30,174.242.139.5,Mozilla/5.0 (Windows NT 10.0; Win64; x64; rv:88.0) Gecko/20100101 Firefox/88.0,,Firefox,88,Windows,10
101,1,2588,"""",html-keyboard-response,94,319821,0.0-94.0,"""","<img src='jspsych/CFDfaces/CFD-LF-200-058-N.jpg' height=""250px""></br><b>Ashley</b>","""",256,IntactFace,Memorization,70,5000,f,"""",CFD-AM-211-052-N.jpg,Mark,0,"""","""","""",1,4/23/2021 3:30,174.242.139.5,Mozilla/5.0 (Windows NT 10.0; Win64; x64; rv:88.0) Gecko/20100101 Firefox/88.0,,Firefox,88,Windows,10
101,1,null,"""",html-keyboard-response,95,320339,0.0-95.0,"""","<div style=""font-size:60px;"">+</div>","""",256,fixation,Memorization,null,500,"""","""","""","""","""","""","""","""",1,4/23/2021 3:30,174.242.139.5,Mozilla/5.0 (Windows NT 10.0; Win64; x64; rv:88.0) Gecko/20100101 Firefox/88.0,,Firefox,88,Windows,10
101,1,2598,"""",html-keyboard-response,96,325361,0.0-96.0,"""","<img src='jspsych/CFDfaces/CFD-BF-023-010-N.jpg' height=""250px""></br><b>Michelle</b>","""",256,IntactFace,Memorization,78,5000,n,"""",CFD-BM-029-024-N.jpg,Travis,0,"""","""","""",1,4/23/2021 3:30,174.242.139.5,Mozilla/5.0 (Windows NT 10.0; Win64; x64; rv:88.0) Gecko/20100101 Firefox/88.0,,Firefox,88,Windows,10
101,1,null,"""",html-keyboard-response,97,325880,0.0-97.0,"""","<div style=""font-size:60px;"">+</div>","""",256,fixation,Memorization,null,500,"""","""","""","""","""","""","""","""",1,4/23/2021 3:30,174.242.139.5,Mozilla/5.0 (Windows NT 10.0; Win64; x64; rv:88.0) Gecko/20100101 Firefox/88.0,,Firefox,88,Windows,10
101,1,3104,"""",html-keyboard-response,98,330894,0.0-98.0,"""","<img src='jspsych/CFDfaces/CFD-AM-238-269-N.jpg' height=""250px""></br><b>Joshua</b>","""",256,IntactFace,Memorization,78,5000,n,"""",CFD-LF-231-260-N.jpg,Jenna,0,"""","""","""",1,4/23/2021 3:30,174.242.139.5,Mozilla/5.0 (Windows NT 10.0; Win64; x64; rv:88.0) Gecko/20100101 Firefox/88.0,,Firefox,88,Windows,10
101,1,null,"""",html-keyboard-response,99,331409,0.0-99.0,"""","<div style=""font-size:60px;"">+</div>","""",256,fixation,Memorization,null,500,"""","""","""","""","""","""","""","""",1,4/23/2021 3:30,174.242.139.5,Mozilla/5.0 (Windows NT 10.0; Win64; x64; rv:88.0) Gecko/20100101 Firefox/88.0,,Firefox,88,Windows,10
101,1,1982,"""",html-keyboard-response,100,336423,0.0-100.0,"""","<img src='jspsych/CFDfaces/CFD-WM-212-097-N.jpg' height=""250px""></br><b>Christian</b>","""",256,IntactFace,Memorization,70,5000,f,"""",CFD-BM-001-014-N.jpg,Jesse,0,"""","""","""",1,4/23/2021 3:30,174.242.139.5,Mozilla/5.0 (Windows NT 10.0; Win64; x64; rv:88.0) Gecko/20100101 Firefox/88.0,,Firefox,88,Windows,10
101,1,null,"""",html-keyboard-response,101,336931,0.0-101.0,"""","<div style=""font-size:60px;"">+</div>","""",256,fixation,Memorization,null,500,"""","""","""","""","""","""","""","""",1,4/23/2021 3:30,174.242.139.5,Mozilla/5.0 (Windows NT 10.0; Win64; x64; rv:88.0) Gecko/20100101 Firefox/88.0,,Firefox,88,Windows,10
101,1,2114,"""",html-keyboard-response,102,341940,0.0-102.0,"""","<img src='jspsych/CFDfaces/CFD-WM-213-076-N.jpg' height=""250px""></br><b>Jeffrey</b>","""",256,IntactFace,Memorization,70,5000,f,"""",CFD-AM-237-154-N.jpg,Vincent,0,"""","""","""",1,4/23/2021 3:30,174.242.139.5,Mozilla/5.0 (Windows NT 10.0; Win64; x64; rv:88.0) Gecko/20100101 Firefox/88.0,,Firefox,88,Windows,10
101,1,null,"""",html-keyboard-response,103,342446,0.0-103.0,"""","<div style=""font-size:60px;"">+</div>","""",256,fixation,Memorization,null,500,"""","""","""","""","""","""","""","""",1,4/23/2021 3:30,174.242.139.5,Mozilla/5.0 (Windows NT 10.0; Win64; x64; rv:88.0) Gecko/20100101 Firefox/88.0,,Firefox,88,Windows,10
101,1,2283,"""",html-keyboard-response,104,347469,0.0-104.0,"""","<img src='jspsych/CFDfaces/CFD-LF-204-133-N.jpg' height=""250px""></br><b>Andrea</b>","""",256,IntactFace,Memorization,78,5000,n,"""",CFD-BF-021-013-N.jpg,Lindsey,0,"""","""","""",1,4/23/2021 3:30,174.242.139.5,Mozilla/5.0 (Windows NT 10.0; Win64; x64; rv:88.0) Gecko/20100101 Firefox/88.0,,Firefox,88,Windows,10
101,1,null,"""",html-keyboard-response,105,347980,0.0-105.0,"""","<div style=""font-size:60px;"">+</div>","""",256,fixation,Memorization,null,500,"""","""","""","""","""","""","""","""",1,4/23/2021 3:30,174.242.139.5,Mozilla/5.0 (Windows NT 10.0; Win64; x64; rv:88.0) Gecko/20100101 Firefox/88.0,,Firefox,88,Windows,10
101,1,4065,"""",html-keyboard-response,106,352989,0.0-106.0,"""","<img src='jspsych/CFDfaces/CFD-LF-205-100-N.jpg' height=""250px""></br><b>Meghan</b>","""",256,IntactFace,Memorization,78,5000,n,"""",CFD-BF-218-207-N.jpg,Whitney,0,"""","""","""",1,4/23/2021 3:30,174.242.139.5,Mozilla/5.0 (Windows NT 10.0; Win64; x64; rv:88.0) Gecko/20100101 Firefox/88.0,,Firefox,88,Windows,10
101,1,null,"""",html-keyboard-response,107,353509,0.0-107.0,"""","<div style=""font-size:60px;"">+</div>","""",256,fixation,Memorization,null,500,"""","""","""","""","""","""","""","""",1,4/23/2021 3:30,174.242.139.5,Mozilla/5.0 (Windows NT 10.0; Win64; x64; rv:88.0) Gecko/20100101 Firefox/88.0,,Firefox,88,Windows,10
101,1,2311,"""",html-keyboard-response,108,358523,0.0-108.0,"""","<img src='jspsych/CFDfaces/CFD-LF-218-072-N.jpg' height=""250px""></br><b>Samantha</b>","""",256,IntactFace,Memorization,78,5000,n,"""",CFD-AM-205-153-N.jpg,Sean,0,"""","""","""",1,4/23/2021 3:30,174.242.139.5,Mozilla/5.0 (Windows NT 10.0; Win64; x64; rv:88.0) Gecko/20100101 Firefox/88.0,,Firefox,88,Windows,10
101,1,null,"""",html-keyboard-response,109,359029,0.0-109.0,"""","<div style=""font-size:60px;"">+</div>","""",256,fixation,Memorization,null,500,"""","""","""","""","""","""","""","""",1,4/23/2021 3:30,174.242.139.5,Mozilla/5.0 (Windows NT 10.0; Win64; x64; rv:88.0) Gecko/20100101 Firefox/88.0,,Firefox,88,Windows,10
101,1,2617,"""",html-keyboard-response,110,364048,0.0-110.0,"""","<img src='jspsych/CFDfaces/CFD-BF-201-080-N.jpg' height=""250px""></br><b>Kayla</b>","""",256,IntactFace,Memorization,70,5000,f,"""",CFD-LF-243-175-N.jpg,Melissa,0,"""","""","""",1,4/23/2021 3:30,174.242.139.5,Mozilla/5.0 (Windows NT 10.0; Win64; x64; rv:88.0) Gecko/20100101 Firefox/88.0,,Firefox,88,Windows,10
101,1,null,"""",html-keyboard-response,111,364559,0.0-111.0,"""","<div style=""font-size:60px;"">+</div>","""",256,fixation,Memorization,null,500,"""","""","""","""","""","""","""","""",1,4/23/2021 3:30,174.242.139.5,Mozilla/5.0 (Windows NT 10.0; Win64; x64; rv:88.0) Gecko/20100101 Firefox/88.0,,Firefox,88,Windows,10
101,1,2025,"""",html-keyboard-response,112,369578,0.0-112.0,"""","<img src='jspsych/CFDfaces/CFD-AF-230-193-N.jpg' height=""250px""></br><b>Julie</b>","""",256,IntactFace,Memorization,70,5000,f,"""",CFD-AM-231-136-N.jpg,Cameron,0,"""","""","""",1,4/23/2021 3:30,174.242.139.5,Mozilla/5.0 (Windows NT 10.0; Win64; x64; rv:88.0) Gecko/20100101 Firefox/88.0,,Firefox,88,Windows,10
101,1,null,"""",html-keyboard-response,113,370098,0.0-113.0,"""","<div style=""font-size:60px;"">+</div>","""",256,fixation,Memorization,null,500,"""","""","""","""","""","""","""","""",1,4/23/2021 3:30,174.242.139.5,Mozilla/5.0 (Windows NT 10.0; Win64; x64; rv:88.0) Gecko/20100101 Firefox/88.0,,Firefox,88,Windows,10
101,1,1621,"""",html-keyboard-response,114,375119,0.0-114.0,"""","<img src='jspsych/CFDfaces/CFD-AF-242-158-N.jpg' height=""250px""></br><b>Victoria</b>","""",256,IntactFace,Memorization,70,5000,f,"""",CFD-AF-235-170-N.jpg,Erin,0,"""","""","""",1,4/23/2021 3:30,174.242.139.5,Mozilla/5.0 (Windows NT 10.0; Win64; x64; rv:88.0) Gecko/20100101 Firefox/88.0,,Firefox,88,Windows,10
101,1,null,"""",html-keyboard-response,115,375639,0.0-115.0,"""","<div style=""font-size:60px;"">+</div>","""",256,fixation,Memorization,null,500,"""","""","""","""","""","""","""","""",1,4/23/2021 3:30,174.242.139.5,Mozilla/5.0 (Windows NT 10.0; Win64; x64; rv:88.0) Gecko/20100101 Firefox/88.0,,Firefox,88,Windows,10
101,1,2254,"""",html-keyboard-response,116,380659,0.0-116.0,"""","<img src='jspsych/CFDfaces/CFD-WF-204-038-N.jpg' height=""250px""></br><b>Kimberly</b>","""",256,IntactFace,Memorization,78,5000,n,"""",CFD-LM-225-130-N.jpg,Jeremy,0,"""","""","""",1,4/23/2021 3:30,174.242.139.5,Mozilla/5.0 (Windows NT 10.0; Win64; x64; rv:88.0) Gecko/20100101 Firefox/88.0,,Firefox,88,Windows,10
101,1,null,"""",html-keyboard-response,117,381168,0.0-117.0,"""","<div style=""font-size:60px;"">+</div>","""",256,fixation,Memorization,null,500,"""","""","""","""","""","""","""","""",1,4/23/2021 3:30,174.242.139.5,Mozilla/5.0 (Windows NT 10.0; Win64; x64; rv:88.0) Gecko/20100101 Firefox/88.0,,Firefox,88,Windows,10
101,1,1756,"""",html-keyboard-response,118,386188,0.0-118.0,"""","<img src='jspsych/CFDfaces/CFD-AF-228-173-N.jpg' height=""250px""></br><b>Brittany</b>","""",256,IntactFace,Memorization,78,5000,n,"""",CFD-BF-025-002-N.jpg,Angela,0,"""","""","""",1,4/23/2021 3:30,174.242.139.5,Mozilla/5.0 (Windows NT 10.0; Win64; x64; rv:88.0) Gecko/20100101 Firefox/88.0,,Firefox,88,Windows,10
101,1,null,"""",html-keyboard-response,119,386697,0.0-119.0,"""","<div style=""font-size:60px;"">+</div>","""",256,fixation,Memorization,null,500,"""","""","""","""","""","""","""","""",1,4/23/2021 3:30,174.242.139.5,Mozilla/5.0 (Windows NT 10.0; Win64; x64; rv:88.0) Gecko/20100101 Firefox/88.0,,Firefox,88,Windows,10
101,1,1678,"""",html-keyboard-response,120,391707,0.0-120.0,"""","<img src='jspsych/CFDfaces/CFD-AF-209-006-N.jpg' height=""250px""></br><b>Amanda</b>","""",256,IntactFace,Memorization,78,5000,n,"""",CFD-WM-237-052-N.jpg,Dustin,0,"""","""","""",1,4/23/2021 3:30,174.242.139.5,Mozilla/5.0 (Windows NT 10.0; Win64; x64; rv:88.0) Gecko/20100101 Firefox/88.0,,Firefox,88,Windows,10
101,1,null,"""",html-keyboard-response,121,392225,0.0-121.0,"""","<div style=""font-size:60px;"">+</div>","""",256,fixation,Memorization,null,500,"""","""","""","""","""","""","""","""",1,4/23/2021 3:30,174.242.139.5,Mozilla/5.0 (Windows NT 10.0; Win64; x64; rv:88.0) Gecko/20100101 Firefox/88.0,,Firefox,88,Windows,10
101,1,2457,"""",html-keyboard-response,122,397227,0.0-122.0,"""","<img src='jspsych/CFDfaces/CFD-LM-213-061-N.jpg' height=""250px""></br><b>Brandon</b>","""",256,IntactFace,Memorization,78,5000,n,"""",CFD-AM-229-224-N.jpg,Austin,0,"""","""","""",1,4/23/2021 3:30,174.242.139.5,Mozilla/5.0 (Windows NT 10.0; Win64; x64; rv:88.0) Gecko/20100101 Firefox/88.0,,Firefox,88,Windows,10
101,1,null,"""",html-keyboard-response,123,397747,0.0-123.0,"""","<div style=""font-size:60px;"">+</div>","""",256,fixation,Memorization,null,500,"""","""","""","""","""","""","""","""",1,4/23/2021 3:30,174.242.139.5,Mozilla/5.0 (Windows NT 10.0; Win64; x64; rv:88.0) Gecko/20100101 Firefox/88.0,,Firefox,88,Windows,10
101,1,2418,"""",html-keyboard-response,124,402767,0.0-124.0,"""","<img src='jspsych/CFDfaces/CFD-BM-039-029-N.jpg' height=""250px""></br><b>Robert</b>","""",256,IntactFace,Memorization,70,5000,f,"""",CFD-LF-208-127-N.jpg,Jordan,0,"""","""","""",1,4/23/2021 3:30,174.242.139.5,Mozilla/5.0 (Windows NT 10.0; Win64; x64; rv:88.0) Gecko/20100101 Firefox/88.0,,Firefox,88,Windows,10
101,1,null,"""",html-keyboard-response,125,403286,0.0-125.0,"""","<div style=""font-size:60px;"">+</div>","""",256,fixation,Memorization,null,500,"""","""","""","""","""","""","""","""",1,4/23/2021 3:30,174.242.139.5,Mozilla/5.0 (Windows NT 10.0; Win64; x64; rv:88.0) Gecko/20100101 Firefox/88.0,,Firefox,88,Windows,10
101,1,1628,"""",html-keyboard-response,126,408303,0.0-126.0,"""","<img src='jspsych/CFDfaces/CFD-AF-237-223-N.jpg' height=""250px""></br><b>Elizabeth</b>","""",256,IntactFace,Memorization,70,5000,f,"""",CFD-AF-214-139-N.jpg,Lauren,0,"""","""","""",1,4/23/2021 3:30,174.242.139.5,Mozilla/5.0 (Windows NT 10.0; Win64; x64; rv:88.0) Gecko/20100101 Firefox/88.0,,Firefox,88,Windows,10
101,1,null,"""",html-keyboard-response,127,408816,0.0-127.0,"""","<div style=""font-size:60px;"">+</div>","""",256,fixation,Memorization,null,500,"""","""","""","""","""","""","""","""",1,4/23/2021 3:30,174.242.139.5,Mozilla/5.0 (Windows NT 10.0; Win64; x64; rv:88.0) Gecko/20100101 Firefox/88.0,,Firefox,88,Windows,10
101,1,1917,"""",html-keyboard-response,128,413837,0.0-128.0,"""","<img src='jspsych/CFDfaces/CFD-WM-015-002-N.jpg' height=""250px""></br><b>Ian</b>","""",256,IntactFace,Memorization,70,5000,f,"""",CFD-BM-032-024-N.jpg,Ryan,0,"""","""","""",1,4/23/2021 3:30,174.242.139.5,Mozilla/5.0 (Windows NT 10.0; Win64; x64; rv:88.0) Gecko/20100101 Firefox/88.0,,Firefox,88,Windows,10
101,1,null,"""",html-keyboard-response,129,414356,0.0-129.0,"""","<div style=""font-size:60px;"">+</div>","""",256,fixation,Memorization,null,500,"""","""","""","""","""","""","""","""",1,4/23/2021 3:30,174.242.139.5,Mozilla/5.0 (Windows NT 10.0; Win64; x64; rv:88.0) Gecko/20100101 Firefox/88.0,,Firefox,88,Windows,10
101,1,3313,"""",html-keyboard-response,130,419377,0.0-130.0,"""","<img src='jspsych/CFDfaces/CFD-LF-215-157-N.jpg' height=""250px""></br><b>Stephanie</b>","""",256,IntactFace,Memorization,78,5000,n,"""",CFD-WF-220-101-N.jpg,Laura,0,"""","""","""",1,4/23/2021 3:30,174.242.139.5,Mozilla/5.0 (Windows NT 10.0; Win64; x64; rv:88.0) Gecko/20100101 Firefox/88.0,,Firefox,88,Windows,10
101,1,null,"""",html-keyboard-response,131,419896,0.0-131.0,"""","<div style=""font-size:60px;"">+</div>","""",256,fixation,Memorization,null,500,"""","""","""","""","""","""","""","""",1,4/23/2021 3:30,174.242.139.5,Mozilla/5.0 (Windows NT 10.0; Win64; x64; rv:88.0) Gecko/20100101 Firefox/88.0,,Firefox,88,Windows,10
101,1,1760,"""",html-keyboard-response,132,424917,0.0-132.0,"""","<img src='jspsych/CFDfaces/CFD-AM-248-104-N.jpg' height=""250px""></br><b>Richard</b>","""",256,IntactFace,Memorization,70,5000,f,"""",CFD-LM-217-162-N.jpg,Timothy,0,"""","""","""",1,4/23/2021 3:30,174.242.139.5,Mozilla/5.0 (Windows NT 10.0; Win64; x64; rv:88.0) Gecko/20100101 Firefox/88.0,,Firefox,88,Windows,10
101,1,null,"""",html-keyboard-response,133,425436,0.0-133.0,"""","<div style=""font-size:60px;"">+</div>","""",256,fixation,Memorization,null,500,"""","""","""","""","""","""","""","""",1,4/23/2021 3:30,174.242.139.5,Mozilla/5.0 (Windows NT 10.0; Win64; x64; rv:88.0) Gecko/20100101 Firefox/88.0,,Firefox,88,Windows,10
101,1,2488,"""",html-keyboard-response,134,430456,0.0-134.0,"""","<img src='jspsych/CFDfaces/CFD-WM-019-003-N.jpg' height=""250px""></br><b>Peter</b>","""",256,IntactFace,Memorization,70,5000,f,"""",CFD-AF-243-170-N.jpg,Jasmine,0,"""","""","""",1,4/23/2021 3:30,174.242.139.5,Mozilla/5.0 (Windows NT 10.0; Win64; x64; rv:88.0) Gecko/20100101 Firefox/88.0,,Firefox,88,Windows,10
101,1,null,"""",html-keyboard-response,135,430976,0.0-135.0,"""","<div style=""font-size:60px;"">+</div>","""",256,fixation,Memorization,null,500,"""","""","""","""","""","""","""","""",1,4/23/2021 3:30,174.242.139.5,Mozilla/5.0 (Windows NT 10.0; Win64; x64; rv:88.0) Gecko/20100101 Firefox/88.0,,Firefox,88,Windows,10
101,1,3809,"""",html-keyboard-response,136,436006,0.0-136.0,"""","<img src='jspsych/CFDfaces/CFD-WM-032-001-N.jpg' height=""250px""></br><b>Gregory</b>","""",256,IntactFace,Memorization,78,5000,n,"""",CFD-BF-221-223-N.jpg,Heather,0,"""","""","""",1,4/23/2021 3:30,174.242.139.5,Mozilla/5.0 (Windows NT 10.0; Win64; x64; rv:88.0) Gecko/20100101 Firefox/88.0,,Firefox,88,Windows,10
101,1,null,"""",html-keyboard-response,137,436525,0.0-137.0,"""","<div style=""font-size:60px;"">+</div>","""",256,fixation,Memorization,null,500,"""","""","""","""","""","""","""","""",1,4/23/2021 3:30,174.242.139.5,Mozilla/5.0 (Windows NT 10.0; Win64; x64; rv:88.0) Gecko/20100101 Firefox/88.0,,Firefox,88,Windows,10
101,1,1981,"""",html-keyboard-response,138,441536,0.0-138.0,"""","<img src='jspsych/CFDfaces/CFD-BF-226-119-N.jpg' height=""250px""></br><b>Vanessa</b>","""",256,IntactFace,Memorization,70,5000,f,"""",CFD-AM-221-184-N.jpg,Jacob,0,"""","""","""",1,4/23/2021 3:30,174.242.139.5,Mozilla/5.0 (Windows NT 10.0; Win64; x64; rv:88.0) Gecko/20100101 Firefox/88.0,,Firefox,88,Windows,10
101,1,null,"""",html-keyboard-response,139,442056,0.0-139.0,"""","<div style=""font-size:60px;"">+</div>","""",256,fixation,Memorization,null,500,"""","""","""","""","""","""","""","""",1,4/23/2021 3:30,174.242.139.5,Mozilla/5.0 (Windows NT 10.0; Win64; x64; rv:88.0) Gecko/20100101 Firefox/88.0,,Firefox,88,Windows,10
101,1,1733,"""",html-keyboard-response,140,447076,0.0-140.0,"""","<img src='jspsych/CFDfaces/CFD-WM-020-001-N.jpg' height=""250px""></br><b>James</b>","""",256,IntactFace,Memorization,70,5000,f,"""",CFD-BM-207-024-N.jpg,Kenneth,0,"""","""","""",1,4/23/2021 3:30,174.242.139.5,Mozilla/5.0 (Windows NT 10.0; Win64; x64; rv:88.0) Gecko/20100101 Firefox/88.0,,Firefox,88,Windows,10
101,1,null,"""",html-keyboard-response,141,447595,0.0-141.0,"""","<div style=""font-size:60px;"">+</div>","""",256,fixation,Memorization,null,500,"""","""","""","""","""","""","""","""",1,4/23/2021 3:30,174.242.139.5,Mozilla/5.0 (Windows NT 10.0; Win64; x64; rv:88.0) Gecko/20100101 Firefox/88.0,,Firefox,88,Windows,10
101,1,3310,"""",html-keyboard-response,142,452605,0.0-142.0,"""","<img src='jspsych/CFDfaces/CFD-BM-211-174-N.jpg' height=""250px""></br><b>Eric</b>","""",256,IntactFace,Memorization,70,5000,f,"""",CFD-WF-038-021-N.jpg,Amy,0,"""","""","""",1,4/23/2021 3:30,174.242.139.5,Mozilla/5.0 (Windows NT 10.0; Win64; x64; rv:88.0) Gecko/20100101 Firefox/88.0,,Firefox,88,Windows,10
101,1,null,"""",html-keyboard-response,143,453116,0.0-143.0,"""","<div style=""font-size:60px;"">+</div>","""",256,fixation,Memorization,null,500,"""","""","""","""","""","""","""","""",1,4/23/2021 3:30,174.242.139.5,Mozilla/5.0 (Windows NT 10.0; Win64; x64; rv:88.0) Gecko/20100101 Firefox/88.0,,Firefox,88,Windows,10
101,1,1971,"""",html-keyboard-response,144,458125,0.0-144.0,"""","<img src='jspsych/CFDfaces/CFD-WM-017-002-N.jpg' height=""250px""></br><b>Nicholas</b>","""",256,IntactFace,Memorization,70,5000,f,"""",CFD-BM-026-002-N.jpg,Luis,0,"""","""","""",1,4/23/2021 3:30,174.242.139.5,Mozilla/5.0 (Windows NT 10.0; Win64; x64; rv:88.0) Gecko/20100101 Firefox/88.0,,Firefox,88,Windows,10
101,1,null,"""",html-keyboard-response,145,458637,0.0-145.0,"""","<div style=""font-size:60px;"">+</div>","""",256,fixation,Memorization,null,500,"""","""","""","""","""","""","""","""",1,4/23/2021 3:30,174.242.139.5,Mozilla/5.0 (Windows NT 10.0; Win64; x64; rv:88.0) Gecko/20100101 Firefox/88.0,,Firefox,88,Windows,10
101,1,1773,"""",html-keyboard-response,146,463646,0.0-146.0,"""","<img src='jspsych/CFDfaces/CFD-BF-004-014-N.jpg' height=""250px""></br><b>Emily</b>","""",256,IntactFace,Memorization,78,5000,n,"""",CFD-AF-226-251-N.jpg,Taylor,0,"""","""","""",1,4/23/2021 3:30,174.242.139.5,Mozilla/5.0 (Windows NT 10.0; Win64; x64; rv:88.0) Gecko/20100101 Firefox/88.0,,Firefox,88,Windows,10
101,1,null,"""",html-keyboard-response,147,464165,0.0-147.0,"""","<div style=""font-size:60px;"">+</div>","""",256,fixation,Memorization,null,500,"""","""","""","""","""","""","""","""",1,4/23/2021 3:30,174.242.139.5,Mozilla/5.0 (Windows NT 10.0; Win64; x64; rv:88.0) Gecko/20100101 Firefox/88.0,,Firefox,88,Windows,10
101,1,2375,"""",html-keyboard-response,148,469174,0.0-148.0,"""","<img src='jspsych/CFDfaces/CFD-AM-242-176-N.jpg' height=""250px""></br><b>Brian</b>","""",256,IntactFace,Memorization,70,5000,f,"""",CFD-BM-018-001-N.jpg,Steven,0,"""","""","""",1,4/23/2021 3:30,174.242.139.5,Mozilla/5.0 (Windows NT 10.0; Win64; x64; rv:88.0) Gecko/20100101 Firefox/88.0,,Firefox,88,Windows,10
101,1,null,"""",html-keyboard-response,149,469694,0.0-149.0,"""","<div style=""font-size:60px;"">+</div>","""",256,fixation,Memorization,null,500,"""","""","""","""","""","""","""","""",1,4/23/2021 3:30,174.242.139.5,Mozilla/5.0 (Windows NT 10.0; Win64; x64; rv:88.0) Gecko/20100101 Firefox/88.0,,Firefox,88,Windows,10
101,1,1924,"""",html-keyboard-response,150,474715,0.0-150.0,"""","<img src='jspsych/CFDfaces/CFD-AF-241-141-N.jpg' height=""250px""></br><b>Christina</b>","""",256,IntactFace,Memorization,78,5000,n,"""",CFD-LF-236-221-N.jpg,Rebecca,0,"""","""","""",1,4/23/2021 3:30,174.242.139.5,Mozilla/5.0 (Windows NT 10.0; Win64; x64; rv:88.0) Gecko/20100101 Firefox/88.0,,Firefox,88,Windows,10
101,1,null,"""",html-keyboard-response,151,475234,0.0-151.0,"""","<div style=""font-size:60px;"">+</div>","""",256,fixation,Memorization,null,500,"""","""","""","""","""","""","""","""",1,4/23/2021 3:30,174.242.139.5,Mozilla/5.0 (Windows NT 10.0; Win64; x64; rv:88.0) Gecko/20100101 Firefox/88.0,,Firefox,88,Windows,10
101,1,4380,"""",html-keyboard-response,152,480251,0.0-152.0,"""","<img src='jspsych/CFDfaces/CFD-AM-243-212-N.jpg' height=""250px""></br><b>Jason</b>","""",256,IntactFace,Memorization,78,5000,n,"""",CFD-AM-230-150-N.jpg,Justin,0,"""","""","""",1,4/23/2021 3:30,174.242.139.5,Mozilla/5.0 (Windows NT 10.0; Win64; x64; rv:88.0) Gecko/20100101 Firefox/88.0,,Firefox,88,Windows,10
101,1,null,"""",html-keyboard-response,153,480760,0.0-153.0,"""","<div style=""font-size:60px;"">+</div>","""",256,fixation,Memorization,null,500,"""","""","""","""","""","""","""","""",1,4/23/2021 3:30,174.242.139.5,Mozilla/5.0 (Windows NT 10.0; Win64; x64; rv:88.0) Gecko/20100101 Firefox/88.0,,Firefox,88,Windows,10
101,1,3319,"""",html-keyboard-response,154,484081,0.0-154.0,"""",Press Any Key to Begin Memory Test,"""",1,welcomeScreen,Break,70,"""","""","""","""","""","""","""","""","""",1,4/23/2021 3:30,174.242.139.5,Mozilla/5.0 (Windows NT 10.0; Win64; x64; rv:88.0) Gecko/20100101 Firefox/88.0,,Firefox,88,Windows,10
101,1,null,"""",html-keyboard-response,155,485084,0.0-155.0,"""","<div style=""font-size:60px;"">+</div>","""",256,ITI,Test,null,1000,"""","""","""","""","""","""","""","""",1,4/23/2021 3:30,174.242.139.5,Mozilla/5.0 (Windows NT 10.0; Win64; x64; rv:88.0) Gecko/20100101 Firefox/88.0,,Firefox,88,Windows,10
101,1,null,"""",image-keyboard-response,156,485344,0.0-156.0,"""",jspsych/scrambledNeutralFaces/scrambledAM35NES.JPG,"""",256,forwardMask,Test,null,250,"""",n,"""","""","""","""","""","""",1,4/23/2021 3:30,174.242.139.5,Mozilla/5.0 (Windows NT 10.0; Win64; x64; rv:88.0) Gecko/20100101 Firefox/88.0,,Firefox,88,Windows,10
101,1,null,"""",image-keyboard-response,157,485363,0.0-157.0,"""",jspsych/neutralFaces/AM35NES.JPG,"""",256,Cue,Test,null,16,"""","""","""","""","""","""","""","""",1,4/23/2021 3:30,174.242.139.5,Mozilla/5.0 (Windows NT 10.0; Win64; x64; rv:88.0) Gecko/20100101 Firefox/88.0,,Firefox,88,Windows,10
101,1,null,"""",image-keyboard-response,158,485484,0.0-158.0,"""",jspsych/neutralFaces/AM23NES.JPG,"""",256,backwardMask,Test,null,100,"""","""","""","""","""","""","""","""",1,4/23/2021 3:30,174.242.139.5,Mozilla/5.0 (Windows NT 10.0; Win64; x64; rv:88.0) Gecko/20100101 Firefox/88.0,,Firefox,88,Windows,10
101,1,null,"""",html-keyboard-response,159,486492,0.0-159.0,"""","<div style=""font-size:60px;"">+</div>","""",256,fixationBtwnNeutralMaskAndPrompt,Test,null,1000,"""","""","""","""","""","""","""","""",1,4/23/2021 3:30,174.242.139.5,Mozilla/5.0 (Windows NT 10.0; Win64; x64; rv:88.0) Gecko/20100101 Firefox/88.0,,Firefox,88,Windows,10
101,1,2436,"""",html-button-response,160,488936,0.0-160.0,"""","<img src='jspsych/CFDfaces/CFD-AF-237-223-N.jpg' height=""250px"">,</br><b>Kimberly</b>",0,256,IntactOrRearranged,Test,"""","""","""","""",CFD-AF-235-170-N.jpg,Laura,1,"""","""",0,1,4/23/2021 3:30,174.242.139.5,Mozilla/5.0 (Windows NT 10.0; Win64; x64; rv:88.0) Gecko/20100101 Firefox/88.0,,Firefox,88,Windows,10
101,1,3677,"""",html-slider-response,161,492614,0.0-161.0,"""","<img src='jspsych/CFDfaces/CFD-AF-237-223-N.jpg' height=""250px"">,</br><b>Kimberly</b>","""",256,ConfidenceQuery,Test,"""","""","""","""",CFD-AF-235-170-N.jpg,Laura,1,0,46,"""",1,4/23/2021 3:30,174.242.139.5,Mozilla/5.0 (Windows NT 10.0; Win64; x64; rv:88.0) Gecko/20100101 Firefox/88.0,,Firefox,88,Windows,10
101,1,null,"""",html-keyboard-response,162,493623,0.0-162.0,"""","<div style=""font-size:60px;"">+</div>","""",256,ITI,Test,null,1000,"""","""","""","""","""","""","""","""",1,4/23/2021 3:30,174.242.139.5,Mozilla/5.0 (Windows NT 10.0; Win64; x64; rv:88.0) Gecko/20100101 Firefox/88.0,,Firefox,88,Windows,10
101,1,null,"""",image-keyboard-response,163,493878,0.0-163.0,"""",jspsych/scrambledNeutralFaces/scrambledAM11NES.JPG,"""",256,forwardMask,Test,null,250,"""",n,"""","""","""","""","""","""",1,4/23/2021 3:30,174.242.139.5,Mozilla/5.0 (Windows NT 10.0; Win64; x64; rv:88.0) Gecko/20100101 Firefox/88.0,,Firefox,88,Windows,10
101,1,null,"""",image-keyboard-response,164,493903,0.0-164.0,"""",jspsych/neutralFaces/AM11NES.JPG,"""",256,Cue,Test,null,16,"""","""","""","""","""","""","""","""",1,4/23/2021 3:30,174.242.139.5,Mozilla/5.0 (Windows NT 10.0; Win64; x64; rv:88.0) Gecko/20100101 Firefox/88.0,,Firefox,88,Windows,10
101,1,null,"""",image-keyboard-response,165,494011,0.0-165.0,"""",jspsych/neutralFaces/BM28NES.JPG,"""",256,backwardMask,Test,null,100,"""","""","""","""","""","""","""","""",1,4/23/2021 3:30,174.242.139.5,Mozilla/5.0 (Windows NT 10.0; Win64; x64; rv:88.0) Gecko/20100101 Firefox/88.0,,Firefox,88,Windows,10
101,1,null,"""",html-keyboard-response,166,495023,0.0-166.0,"""","<div style=""font-size:60px;"">+</div>","""",256,fixationBtwnNeutralMaskAndPrompt,Test,null,1000,"""","""","""","""","""","""","""","""",1,4/23/2021 3:30,174.242.139.5,Mozilla/5.0 (Windows NT 10.0; Win64; x64; rv:88.0) Gecko/20100101 Firefox/88.0,,Firefox,88,Windows,10
101,1,2611,"""",html-button-response,167,497636,0.0-167.0,"""","<img src='jspsych/CFDfaces/CFD-BF-004-014-N.jpg' height=""250px"">,</br><b>Andrea</b>",1,256,IntactOrRearranged,Test,"""","""","""","""",CFD-BM-029-024-N.jpg,Travis,1,"""","""",1,1,4/23/2021 3:30,174.242.139.5,Mozilla/5.0 (Windows NT 10.0; Win64; x64; rv:88.0) Gecko/20100101 Firefox/88.0,,Firefox,88,Windows,10
101,1,4292,"""",html-slider-response,168,501930,0.0-168.0,"""","<img src='jspsych/CFDfaces/CFD-BF-004-014-N.jpg' height=""250px"">,</br><b>Andrea</b>","""",256,ConfidenceQuery,Test,"""","""","""","""",CFD-BM-029-024-N.jpg,Travis,1,0,62,"""",1,4/23/2021 3:30,174.242.139.5,Mozilla/5.0 (Windows NT 10.0; Win64; x64; rv:88.0) Gecko/20100101 Firefox/88.0,,Firefox,88,Windows,10
101,1,null,"""",html-keyboard-response,169,502954,0.0-169.0,"""","<div style=""font-size:60px;"">+</div>","""",256,ITI,Test,null,1000,"""","""","""","""","""","""","""","""",1,4/23/2021 3:30,174.242.139.5,Mozilla/5.0 (Windows NT 10.0; Win64; x64; rv:88.0) Gecko/20100101 Firefox/88.0,,Firefox,88,Windows,10
101,1,null,"""",image-keyboard-response,170,503213,0.0-170.0,"""",jspsych/scrambledNeutralFaces/scrambledBF19NES.JPG,"""",256,forwardMask,Test,null,250,"""",n,"""","""","""","""","""","""",1,4/23/2021 3:30,174.242.139.5,Mozilla/5.0 (Windows NT 10.0; Win64; x64; rv:88.0) Gecko/20100101 Firefox/88.0,,Firefox,88,Windows,10
101,1,null,"""",image-keyboard-response,171,503247,0.0-171.0,"""",jspsych/neutralFaces/BF19NES.JPG,"""",256,Cue,Test,null,16,"""","""","""","""","""","""","""","""",1,4/23/2021 3:30,174.242.139.5,Mozilla/5.0 (Windows NT 10.0; Win64; x64; rv:88.0) Gecko/20100101 Firefox/88.0,,Firefox,88,Windows,10
101,1,null,"""",image-keyboard-response,172,503353,0.0-172.0,"""",jspsych/neutralFaces/BF06NES.JPG,"""",256,backwardMask,Test,null,100,"""","""","""","""","""","""","""","""",1,4/23/2021 3:30,174.242.139.5,Mozilla/5.0 (Windows NT 10.0; Win64; x64; rv:88.0) Gecko/20100101 Firefox/88.0,,Firefox,88,Windows,10
101,1,null,"""",html-keyboard-response,173,504365,0.0-173.0,"""","<div style=""font-size:60px;"">+</div>","""",256,fixationBtwnNeutralMaskAndPrompt,Test,null,1000,"""","""","""","""","""","""","""","""",1,4/23/2021 3:30,174.242.139.5,Mozilla/5.0 (Windows NT 10.0; Win64; x64; rv:88.0) Gecko/20100101 Firefox/88.0,,Firefox,88,Windows,10
101,1,2321,"""",html-button-response,174,506687,0.0-174.0,"""","<img src='jspsych/CFDfaces/CFD-WM-020-001-N.jpg' height=""250px"">,</br><b>Jeffrey</b>",1,256,IntactOrRearranged,Test,"""","""","""","""",CFD-AM-205-153-N.jpg,Sean,1,"""","""",1,1,4/23/2021 3:30,174.242.139.5,Mozilla/5.0 (Windows NT 10.0; Win64; x64; rv:88.0) Gecko/20100101 Firefox/88.0,,Firefox,88,Windows,10
101,1,2890,"""",html-slider-response,175,509580,0.0-175.0,"""","<img src='jspsych/CFDfaces/CFD-WM-020-001-N.jpg' height=""250px"">,</br><b>Jeffrey</b>","""",256,ConfidenceQuery,Test,"""","""","""","""",CFD-AM-205-153-N.jpg,Sean,1,0,38,"""",1,4/23/2021 3:30,174.242.139.5,Mozilla/5.0 (Windows NT 10.0; Win64; x64; rv:88.0) Gecko/20100101 Firefox/88.0,,Firefox,88,Windows,10
101,1,null,"""",html-keyboard-response,176,510603,0.0-176.0,"""","<div style=""font-size:60px;"">+</div>","""",256,ITI,Test,null,1000,"""","""","""","""","""","""","""","""",1,4/23/2021 3:30,174.242.139.5,Mozilla/5.0 (Windows NT 10.0; Win64; x64; rv:88.0) Gecko/20100101 Firefox/88.0,,Firefox,88,Windows,10
101,1,null,"""",image-keyboard-response,177,510863,0.0-177.0,"""",jspsych/scrambledDisgustFaces/scrambledBM34DIS.JPG,"""",256,forwardMask,Test,null,250,"""",d,"""","""","""","""","""","""",1,4/23/2021 3:30,174.242.139.5,Mozilla/5.0 (Windows NT 10.0; Win64; x64; rv:88.0) Gecko/20100101 Firefox/88.0,,Firefox,88,Windows,10
101,1,null,"""",image-keyboard-response,178,510883,0.0-178.0,"""",jspsych/disgustFaces/BM35DIS.JPG,"""",256,Cue,Test,null,16,"""","""","""","""","""","""","""","""",1,4/23/2021 3:30,174.242.139.5,Mozilla/5.0 (Windows NT 10.0; Win64; x64; rv:88.0) Gecko/20100101 Firefox/88.0,,Firefox,88,Windows,10
101,1,null,"""",image-keyboard-response,179,511003,0.0-179.0,"""",jspsych/neutralFaces/BM25NES.JPG,"""",256,backwardMask,Test,null,100,"""","""","""","""","""","""","""","""",1,4/23/2021 3:30,174.242.139.5,Mozilla/5.0 (Windows NT 10.0; Win64; x64; rv:88.0) Gecko/20100101 Firefox/88.0,,Firefox,88,Windows,10
101,1,null,"""",html-keyboard-response,180,512023,0.0-180.0,"""","<div style=""font-size:60px;"">+</div>","""",256,fixationBtwnNeutralMaskAndPrompt,Test,null,1000,"""","""","""","""","""","""","""","""",1,4/23/2021 3:30,174.242.139.5,Mozilla/5.0 (Windows NT 10.0; Win64; x64; rv:88.0) Gecko/20100101 Firefox/88.0,,Firefox,88,Windows,10
101,1,2669,"""",html-button-response,181,514694,0.0-181.0,"""","<img src='jspsych/CFDfaces/CFD-WF-204-038-N.jpg' height=""250px"">,</br><b>Emily</b>",1,256,IntactOrRearranged,Test,"""","""","""","""",CFD-AM-237-154-N.jpg,Vincent,1,"""","""",1,1,4/23/2021 3:30,174.242.139.5,Mozilla/5.0 (Windows NT 10.0; Win64; x64; rv:88.0) Gecko/20100101 Firefox/88.0,,Firefox,88,Windows,10
101,1,4554,"""",html-slider-response,182,519252,0.0-182.0,"""","<img src='jspsych/CFDfaces/CFD-WF-204-038-N.jpg' height=""250px"">,</br><b>Emily</b>","""",256,ConfidenceQuery,Test,"""","""","""","""",CFD-AM-237-154-N.jpg,Vincent,1,0,17,"""",1,4/23/2021 3:30,174.242.139.5,Mozilla/5.0 (Windows NT 10.0; Win64; x64; rv:88.0) Gecko/20100101 Firefox/88.0,,Firefox,88,Windows,10
101,1,null,"""",html-keyboard-response,183,520273,0.0-183.0,"""","<div style=""font-size:60px;"">+</div>","""",256,ITI,Test,null,1000,"""","""","""","""","""","""","""","""",1,4/23/2021 3:30,174.242.139.5,Mozilla/5.0 (Windows NT 10.0; Win64; x64; rv:88.0) Gecko/20100101 Firefox/88.0,,Firefox,88,Windows,10
101,1,null,"""",image-keyboard-response,184,520532,0.0-184.0,"""",jspsych/scrambledDisgustFaces/scrambledAM35DIS.JPG,"""",256,forwardMask,Test,null,250,"""",d,"""","""","""","""","""","""",1,4/23/2021 3:30,174.242.139.5,Mozilla/5.0 (Windows NT 10.0; Win64; x64; rv:88.0) Gecko/20100101 Firefox/88.0,,Firefox,88,Windows,10
101,1,null,"""",image-keyboard-response,185,520573,0.0-185.0,"""",jspsych/disgustFaces/AM35DIS.JPG,"""",256,Cue,Test,null,16,"""","""","""","""","""","""","""","""",1,4/23/2021 3:30,174.242.139.5,Mozilla/5.0 (Windows NT 10.0; Win64; x64; rv:88.0) Gecko/20100101 Firefox/88.0,,Firefox,88,Windows,10
101,1,null,"""",image-keyboard-response,186,520692,0.0-186.0,"""",jspsych/neutralFaces/AM15NES.JPG,"""",256,backwardMask,Test,null,100,"""","""","""","""","""","""","""","""",1,4/23/2021 3:30,174.242.139.5,Mozilla/5.0 (Windows NT 10.0; Win64; x64; rv:88.0) Gecko/20100101 Firefox/88.0,,Firefox,88,Windows,10
101,1,null,"""",html-keyboard-response,187,521713,0.0-187.0,"""","<div style=""font-size:60px;"">+</div>","""",256,fixationBtwnNeutralMaskAndPrompt,Test,null,1000,"""","""","""","""","""","""","""","""",1,4/23/2021 3:30,174.242.139.5,Mozilla/5.0 (Windows NT 10.0; Win64; x64; rv:88.0) Gecko/20100101 Firefox/88.0,,Firefox,88,Windows,10
101,1,3549,"""",html-button-response,188,525263,0.0-188.0,"""","<img src='jspsych/CFDfaces/CFD-LF-204-133-N.jpg' height=""250px"">,</br><b>Amanda</b>",0,256,IntactOrRearranged,Test,"""","""","""","""",CFD-AF-243-170-N.jpg,Angela,1,"""","""",0,1,4/23/2021 3:30,174.242.139.5,Mozilla/5.0 (Windows NT 10.0; Win64; x64; rv:88.0) Gecko/20100101 Firefox/88.0,,Firefox,88,Windows,10
101,1,2730,"""",html-slider-response,189,527995,0.0-189.0,"""","<img src='jspsych/CFDfaces/CFD-LF-204-133-N.jpg' height=""250px"">,</br><b>Amanda</b>","""",256,ConfidenceQuery,Test,"""","""","""","""",CFD-AF-243-170-N.jpg,Angela,1,0,21,"""",1,4/23/2021 3:30,174.242.139.5,Mozilla/5.0 (Windows NT 10.0; Win64; x64; rv:88.0) Gecko/20100101 Firefox/88.0,,Firefox,88,Windows,10
101,1,null,"""",html-keyboard-response,190,529002,0.0-190.0,"""","<div style=""font-size:60px;"">+</div>","""",256,ITI,Test,null,1000,"""","""","""","""","""","""","""","""",1,4/23/2021 3:30,174.242.139.5,Mozilla/5.0 (Windows NT 10.0; Win64; x64; rv:88.0) Gecko/20100101 Firefox/88.0,,Firefox,88,Windows,10
101,1,null,"""",image-keyboard-response,191,529262,0.0-191.0,"""",jspsych/scrambledDisgustFaces/scrambledAM25DIS.JPG,"""",256,forwardMask,Test,null,250,"""",d,"""","""","""","""","""","""",1,4/23/2021 3:30,174.242.139.5,Mozilla/5.0 (Windows NT 10.0; Win64; x64; rv:88.0) Gecko/20100101 Firefox/88.0,,Firefox,88,Windows,10
101,1,null,"""",image-keyboard-response,192,529282,0.0-192.0,"""",jspsych/disgustFaces/AM25DIS.JPG,"""",256,Cue,Test,null,16,"""","""","""","""","""","""","""","""",1,4/23/2021 3:30,174.242.139.5,Mozilla/5.0 (Windows NT 10.0; Win64; x64; rv:88.0) Gecko/20100101 Firefox/88.0,,Firefox,88,Windows,10
101,1,null,"""",image-keyboard-response,193,529402,0.0-193.0,"""",jspsych/neutralFaces/AM05NES.JPG,"""",256,backwardMask,Test,null,100,"""","""","""","""","""","""","""","""",1,4/23/2021 3:30,174.242.139.5,Mozilla/5.0 (Windows NT 10.0; Win64; x64; rv:88.0) Gecko/20100101 Firefox/88.0,,Firefox,88,Windows,10
101,1,null,"""",html-keyboard-response,194,530422,0.0-194.0,"""","<div style=""font-size:60px;"">+</div>","""",256,fixationBtwnNeutralMaskAndPrompt,Test,null,1000,"""","""","""","""","""","""","""","""",1,4/23/2021 3:30,174.242.139.5,Mozilla/5.0 (Windows NT 10.0; Win64; x64; rv:88.0) Gecko/20100101 Firefox/88.0,,Firefox,88,Windows,10
101,1,3405,"""",html-button-response,195,533828,0.0-195.0,"""","<img src='jspsych/CFDfaces/CFD-BF-201-080-N.jpg' height=""250px"">,</br><b>Kayla</b>",0,256,IntactOrRearranged,Test,"""","""","""","""",CFD-BM-026-002-N.jpg,Luis,0,"""","""",0,1,4/23/2021 3:30,174.242.139.5,Mozilla/5.0 (Windows NT 10.0; Win64; x64; rv:88.0) Gecko/20100101 Firefox/88.0,,Firefox,88,Windows,10
101,1,2970,"""",html-slider-response,196,536800,0.0-196.0,"""","<img src='jspsych/CFDfaces/CFD-BF-201-080-N.jpg' height=""250px"">,</br><b>Kayla</b>","""",256,ConfidenceQuery,Test,"""","""","""","""",CFD-BM-026-002-N.jpg,Luis,0,0,100,"""",1,4/23/2021 3:30,174.242.139.5,Mozilla/5.0 (Windows NT 10.0; Win64; x64; rv:88.0) Gecko/20100101 Firefox/88.0,,Firefox,88,Windows,10
101,1,null,"""",html-keyboard-response,197,537823,0.0-197.0,"""","<div style=""font-size:60px;"">+</div>","""",256,ITI,Test,null,1000,"""","""","""","""","""","""","""","""",1,4/23/2021 3:30,174.242.139.5,Mozilla/5.0 (Windows NT 10.0; Win64; x64; rv:88.0) Gecko/20100101 Firefox/88.0,,Firefox,88,Windows,10
101,1,null,"""",image-keyboard-response,198,538082,0.0-198.0,"""",jspsych/scrambledDisgustFaces/scrambledAF23DIS.JPG,"""",256,forwardMask,Test,null,250,"""",d,"""","""","""","""","""","""",1,4/23/2021 3:30,174.242.139.5,Mozilla/5.0 (Windows NT 10.0; Win64; x64; rv:88.0) Gecko/20100101 Firefox/88.0,,Firefox,88,Windows,10
101,1,null,"""",image-keyboard-response,199,538112,0.0-199.0,"""",jspsych/disgustFaces/AF23DIS.JPG,"""",256,Cue,Test,null,16,"""","""","""","""","""","""","""","""",1,4/23/2021 3:30,174.242.139.5,Mozilla/5.0 (Windows NT 10.0; Win64; x64; rv:88.0) Gecko/20100101 Firefox/88.0,,Firefox,88,Windows,10
101,1,null,"""",image-keyboard-response,200,538221,0.0-200.0,"""",jspsych/neutralFaces/AF29NES.JPG,"""",256,backwardMask,Test,null,100,"""","""","""","""","""","""","""","""",1,4/23/2021 3:30,174.242.139.5,Mozilla/5.0 (Windows NT 10.0; Win64; x64; rv:88.0) Gecko/20100101 Firefox/88.0,,Firefox,88,Windows,10
101,1,null,"""",html-keyboard-response,201,539242,0.0-201.0,"""","<div style=""font-size:60px;"">+</div>","""",256,fixationBtwnNeutralMaskAndPrompt,Test,null,1000,"""","""","""","""","""","""","""","""",1,4/23/2021 3:30,174.242.139.5,Mozilla/5.0 (Windows NT 10.0; Win64; x64; rv:88.0) Gecko/20100101 Firefox/88.0,,Firefox,88,Windows,10
101,1,2342,"""",html-button-response,202,541586,0.0-202.0,"""","<img src='jspsych/CFDfaces/CFD-AF-209-006-N.jpg' height=""250px"">,</br><b>Christina</b>",1,256,IntactOrRearranged,Test,"""","""","""","""",CFD-LM-225-130-N.jpg,Ryan,1,"""","""",1,1,4/23/2021 3:30,174.242.139.5,Mozilla/5.0 (Windows NT 10.0; Win64; x64; rv:88.0) Gecko/20100101 Firefox/88.0,,Firefox,88,Windows,10
101,1,2467,"""",html-slider-response,203,544055,0.0-203.0,"""","<img src='jspsych/CFDfaces/CFD-AF-209-006-N.jpg' height=""250px"">,</br><b>Christina</b>","""",256,ConfidenceQuery,Test,"""","""","""","""",CFD-LM-225-130-N.jpg,Ryan,1,0,23,"""",1,4/23/2021 3:30,174.242.139.5,Mozilla/5.0 (Windows NT 10.0; Win64; x64; rv:88.0) Gecko/20100101 Firefox/88.0,,Firefox,88,Windows,10
101,1,null,"""",html-keyboard-response,204,545062,0.0-204.0,"""","<div style=""font-size:60px;"">+</div>","""",256,ITI,Test,null,1000,"""","""","""","""","""","""","""","""",1,4/23/2021 3:30,174.242.139.5,Mozilla/5.0 (Windows NT 10.0; Win64; x64; rv:88.0) Gecko/20100101 Firefox/88.0,,Firefox,88,Windows,10
101,1,null,"""",image-keyboard-response,205,545322,0.0-205.0,"""",jspsych/scrambledNeutralFaces/scrambledAF05NES.JPG,"""",256,forwardMask,Test,null,250,"""",n,"""","""","""","""","""","""",1,4/23/2021 3:30,174.242.139.5,Mozilla/5.0 (Windows NT 10.0; Win64; x64; rv:88.0) Gecko/20100101 Firefox/88.0,,Firefox,88,Windows,10
101,1,null,"""",image-keyboard-response,206,545362,0.0-206.0,"""",jspsych/neutralFaces/AF05NES.JPG,"""",256,Cue,Test,null,16,"""","""","""","""","""","""","""","""",1,4/23/2021 3:30,174.242.139.5,Mozilla/5.0 (Windows NT 10.0; Win64; x64; rv:88.0) Gecko/20100101 Firefox/88.0,,Firefox,88,Windows,10
101,1,null,"""",image-keyboard-response,207,545481,0.0-207.0,"""",jspsych/neutralFaces/BF35NES.JPG,"""",256,backwardMask,Test,null,100,"""","""","""","""","""","""","""","""",1,4/23/2021 3:30,174.242.139.5,Mozilla/5.0 (Windows NT 10.0; Win64; x64; rv:88.0) Gecko/20100101 Firefox/88.0,,Firefox,88,Windows,10
101,1,null,"""",html-keyboard-response,208,546502,0.0-208.0,"""","<div style=""font-size:60px;"">+</div>","""",256,fixationBtwnNeutralMaskAndPrompt,Test,null,1000,"""","""","""","""","""","""","""","""",1,4/23/2021 3:30,174.242.139.5,Mozilla/5.0 (Windows NT 10.0; Win64; x64; rv:88.0) Gecko/20100101 Firefox/88.0,,Firefox,88,Windows,10
101,1,3410,"""",html-button-response,209,549913,0.0-209.0,"""","<img src='jspsych/CFDfaces/CFD-LF-205-100-N.jpg' height=""250px"">,</br><b>Meghan</b>",1,256,IntactOrRearranged,Test,"""","""","""","""",CFD-BM-018-001-N.jpg,Steven,0,"""","""",1,1,4/23/2021 3:30,174.242.139.5,Mozilla/5.0 (Windows NT 10.0; Win64; x64; rv:88.0) Gecko/20100101 Firefox/88.0,,Firefox,88,Windows,10
101,1,2664,"""",html-slider-response,210,552578,0.0-210.0,"""","<img src='jspsych/CFDfaces/CFD-LF-205-100-N.jpg' height=""250px"">,</br><b>Meghan</b>","""",256,ConfidenceQuery,Test,"""","""","""","""",CFD-BM-018-001-N.jpg,Steven,0,0,22,"""",1,4/23/2021 3:30,174.242.139.5,Mozilla/5.0 (Windows NT 10.0; Win64; x64; rv:88.0) Gecko/20100101 Firefox/88.0,,Firefox,88,Windows,10
101,1,null,"""",html-keyboard-response,211,553602,0.0-211.0,"""","<div style=""font-size:60px;"">+</div>","""",256,ITI,Test,null,1000,"""","""","""","""","""","""","""","""",1,4/23/2021 3:30,174.242.139.5,Mozilla/5.0 (Windows NT 10.0; Win64; x64; rv:88.0) Gecko/20100101 Firefox/88.0,,Firefox,88,Windows,10
101,1,null,"""",image-keyboard-response,212,553861,0.0-212.0,"""",jspsych/scrambledNeutralFaces/scrambledAF18NES.JPG,"""",256,forwardMask,Test,null,250,"""",n,"""","""","""","""","""","""",1,4/23/2021 3:30,174.242.139.5,Mozilla/5.0 (Windows NT 10.0; Win64; x64; rv:88.0) Gecko/20100101 Firefox/88.0,,Firefox,88,Windows,10
101,1,null,"""",image-keyboard-response,213,553882,0.0-213.0,"""",jspsych/neutralFaces/AF18NES.JPG,"""",256,Cue,Test,null,16,"""","""","""","""","""","""","""","""",1,4/23/2021 3:30,174.242.139.5,Mozilla/5.0 (Windows NT 10.0; Win64; x64; rv:88.0) Gecko/20100101 Firefox/88.0,,Firefox,88,Windows,10
101,1,null,"""",image-keyboard-response,214,554001,0.0-214.0,"""",jspsych/neutralFaces/BF15NES.JPG,"""",256,backwardMask,Test,null,100,"""","""","""","""","""","""","""","""",1,4/23/2021 3:30,174.242.139.5,Mozilla/5.0 (Windows NT 10.0; Win64; x64; rv:88.0) Gecko/20100101 Firefox/88.0,,Firefox,88,Windows,10
101,1,null,"""",html-keyboard-response,215,555012,0.0-215.0,"""","<div style=""font-size:60px;"">+</div>","""",256,fixationBtwnNeutralMaskAndPrompt,Test,null,1000,"""","""","""","""","""","""","""","""",1,4/23/2021 3:30,174.242.139.5,Mozilla/5.0 (Windows NT 10.0; Win64; x64; rv:88.0) Gecko/20100101 Firefox/88.0,,Firefox,88,Windows,10
101,1,2799,"""",html-button-response,216,557812,0.0-216.0,"""","<img src='jspsych/CFDfaces/CFD-BF-226-119-N.jpg' height=""250px"">,</br><b>Vanessa</b>",0,256,IntactOrRearranged,Test,"""","""","""","""",CFD-WM-237-052-N.jpg,Dustin,0,"""","""",0,1,4/23/2021 3:30,174.242.139.5,Mozilla/5.0 (Windows NT 10.0; Win64; x64; rv:88.0) Gecko/20100101 Firefox/88.0,,Firefox,88,Windows,10
101,1,3034,"""",html-slider-response,217,560848,0.0-217.0,"""","<img src='jspsych/CFDfaces/CFD-BF-226-119-N.jpg' height=""250px"">,</br><b>Vanessa</b>","""",256,ConfidenceQuery,Test,"""","""","""","""",CFD-WM-237-052-N.jpg,Dustin,0,0,19,"""",1,4/23/2021 3:30,174.242.139.5,Mozilla/5.0 (Windows NT 10.0; Win64; x64; rv:88.0) Gecko/20100101 Firefox/88.0,,Firefox,88,Windows,10
101,1,null,"""",html-keyboard-response,218,561862,0.0-218.0,"""","<div style=""font-size:60px;"">+</div>","""",256,ITI,Test,null,1000,"""","""","""","""","""","""","""","""",1,4/23/2021 3:30,174.242.139.5,Mozilla/5.0 (Windows NT 10.0; Win64; x64; rv:88.0) Gecko/20100101 Firefox/88.0,,Firefox,88,Windows,10
101,1,null,"""",image-keyboard-response,219,562121,0.0-219.0,"""",jspsych/scrambledDisgustFaces/scrambledBM14DIS.JPG,"""",256,forwardMask,Test,null,250,"""",d,"""","""","""","""","""","""",1,4/23/2021 3:30,174.242.139.5,Mozilla/5.0 (Windows NT 10.0; Win64; x64; rv:88.0) Gecko/20100101 Firefox/88.0,,Firefox,88,Windows,10
101,1,null,"""",image-keyboard-response,220,562161,0.0-220.0,"""",jspsych/disgustFaces/BM15DIS.JPG,"""",256,Cue,Test,null,16,"""","""","""","""","""","""","""","""",1,4/23/2021 3:30,174.242.139.5,Mozilla/5.0 (Windows NT 10.0; Win64; x64; rv:88.0) Gecko/20100101 Firefox/88.0,,Firefox,88,Windows,10
101,1,null,"""",image-keyboard-response,221,562271,0.0-221.0,"""",jspsych/neutralFaces/AM17NES.JPG,"""",256,backwardMask,Test,null,100,"""","""","""","""","""","""","""","""",1,4/23/2021 3:30,174.242.139.5,Mozilla/5.0 (Windows NT 10.0; Win64; x64; rv:88.0) Gecko/20100101 Firefox/88.0,,Firefox,88,Windows,10
101,1,null,"""",html-keyboard-response,222,563291,0.0-222.0,"""","<div style=""font-size:60px;"">+</div>","""",256,fixationBtwnNeutralMaskAndPrompt,Test,null,1000,"""","""","""","""","""","""","""","""",1,4/23/2021 3:30,174.242.139.5,Mozilla/5.0 (Windows NT 10.0; Win64; x64; rv:88.0) Gecko/20100101 Firefox/88.0,,Firefox,88,Windows,10
101,1,2996,"""",html-button-response,223,566289,0.0-223.0,"""","<img src='jspsych/CFDfaces/CFD-BF-023-010-N.jpg' height=""250px"">,</br><b>Michelle</b>",0,256,IntactOrRearranged,Test,"""","""","""","""",CFD-BM-207-024-N.jpg,Jeremy,0,"""","""",0,1,4/23/2021 3:30,174.242.139.5,Mozilla/5.0 (Windows NT 10.0; Win64; x64; rv:88.0) Gecko/20100101 Firefox/88.0,,Firefox,88,Windows,10
101,1,2746,"""",html-slider-response,224,569037,0.0-224.0,"""","<img src='jspsych/CFDfaces/CFD-BF-023-010-N.jpg' height=""250px"">,</br><b>Michelle</b>","""",256,ConfidenceQuery,Test,"""","""","""","""",CFD-BM-207-024-N.jpg,Jeremy,0,0,100,"""",1,4/23/2021 3:30,174.242.139.5,Mozilla/5.0 (Windows NT 10.0; Win64; x64; rv:88.0) Gecko/20100101 Firefox/88.0,,Firefox,88,Windows,10
101,1,null,"""",html-keyboard-response,225,570061,0.0-225.0,"""","<div style=""font-size:60px;"">+</div>","""",256,ITI,Test,null,1000,"""","""","""","""","""","""","""","""",1,4/23/2021 3:30,174.242.139.5,Mozilla/5.0 (Windows NT 10.0; Win64; x64; rv:88.0) Gecko/20100101 Firefox/88.0,,Firefox,88,Windows,10
101,1,null,"""",image-keyboard-response,226,570321,0.0-226.0,"""",jspsych/scrambledDisgustFaces/scrambledAM17DIS.JPG,"""",256,forwardMask,Test,null,250,"""",d,"""","""","""","""","""","""",1,4/23/2021 3:30,174.242.139.5,Mozilla/5.0 (Windows NT 10.0; Win64; x64; rv:88.0) Gecko/20100101 Firefox/88.0,,Firefox,88,Windows,10
101,1,null,"""",image-keyboard-response,227,570340,0.0-227.0,"""",jspsych/disgustFaces/AM17DIS.JPG,"""",256,Cue,Test,null,16,"""","""","""","""","""","""","""","""",1,4/23/2021 3:30,174.242.139.5,Mozilla/5.0 (Windows NT 10.0; Win64; x64; rv:88.0) Gecko/20100101 Firefox/88.0,,Firefox,88,Windows,10
101,1,null,"""",image-keyboard-response,228,570462,0.0-228.0,"""",jspsych/neutralFaces/BM14NES.JPG,"""",256,backwardMask,Test,null,100,"""","""","""","""","""","""","""","""",1,4/23/2021 3:30,174.242.139.5,Mozilla/5.0 (Windows NT 10.0; Win64; x64; rv:88.0) Gecko/20100101 Firefox/88.0,,Firefox,88,Windows,10
101,1,null,"""",html-keyboard-response,229,571480,0.0-229.0,"""","<div style=""font-size:60px;"">+</div>","""",256,fixationBtwnNeutralMaskAndPrompt,Test,null,1000,"""","""","""","""","""","""","""","""",1,4/23/2021 3:30,174.242.139.5,Mozilla/5.0 (Windows NT 10.0; Win64; x64; rv:88.0) Gecko/20100101 Firefox/88.0,,Firefox,88,Windows,10
101,1,2029,"""",html-button-response,230,573511,0.0-230.0,"""","<img src='jspsych/CFDfaces/CFD-AM-243-212-N.jpg' height=""250px"">,</br><b>Jason</b>",0,256,IntactOrRearranged,Test,"""","""","""","""",CFD-BF-021-013-N.jpg,Lindsey,0,"""","""",0,1,4/23/2021 3:30,174.242.139.5,Mozilla/5.0 (Windows NT 10.0; Win64; x64; rv:88.0) Gecko/20100101 Firefox/88.0,,Firefox,88,Windows,10
101,1,2576,"""",html-slider-response,231,576089,0.0-231.0,"""","<img src='jspsych/CFDfaces/CFD-AM-243-212-N.jpg' height=""250px"">,</br><b>Jason</b>","""",256,ConfidenceQuery,Test,"""","""","""","""",CFD-BF-021-013-N.jpg,Lindsey,0,0,100,"""",1,4/23/2021 3:30,174.242.139.5,Mozilla/5.0 (Windows NT 10.0; Win64; x64; rv:88.0) Gecko/20100101 Firefox/88.0,,Firefox,88,Windows,10
101,1,null,"""",html-keyboard-response,232,577100,0.0-232.0,"""","<div style=""font-size:60px;"">+</div>","""",256,ITI,Test,null,1000,"""","""","""","""","""","""","""","""",1,4/23/2021 3:30,174.242.139.5,Mozilla/5.0 (Windows NT 10.0; Win64; x64; rv:88.0) Gecko/20100101 Firefox/88.0,,Firefox,88,Windows,10
101,1,null,"""",image-keyboard-response,233,577361,0.0-233.0,"""",jspsych/scrambledDisgustFaces/scrambledAF17DIS.JPG,"""",256,forwardMask,Test,null,250,"""",d,"""","""","""","""","""","""",1,4/23/2021 3:30,174.242.139.5,Mozilla/5.0 (Windows NT 10.0; Win64; x64; rv:88.0) Gecko/20100101 Firefox/88.0,,Firefox,88,Windows,10
101,1,null,"""",image-keyboard-response,234,577380,0.0-234.0,"""",jspsych/disgustFaces/AF17DIS.JPG,"""",256,Cue,Test,null,16,"""","""","""","""","""","""","""","""",1,4/23/2021 3:30,174.242.139.5,Mozilla/5.0 (Windows NT 10.0; Win64; x64; rv:88.0) Gecko/20100101 Firefox/88.0,,Firefox,88,Windows,10
101,1,null,"""",image-keyboard-response,235,577500,0.0-235.0,"""",jspsych/neutralFaces/AF18NES.JPG,"""",256,backwardMask,Test,null,100,"""","""","""","""","""","""","""","""",1,4/23/2021 3:30,174.242.139.5,Mozilla/5.0 (Windows NT 10.0; Win64; x64; rv:88.0) Gecko/20100101 Firefox/88.0,,Firefox,88,Windows,10
101,1,null,"""",html-keyboard-response,236,578514,0.0-236.0,"""","<div style=""font-size:60px;"">+</div>","""",256,fixationBtwnNeutralMaskAndPrompt,Test,null,1000,"""","""","""","""","""","""","""","""",1,4/23/2021 3:30,174.242.139.5,Mozilla/5.0 (Windows NT 10.0; Win64; x64; rv:88.0) Gecko/20100101 Firefox/88.0,,Firefox,88,Windows,10
101,1,3769,"""",html-button-response,237,582284,0.0-237.0,"""","<img src='jspsych/CFDfaces/CFD-WM-213-076-N.jpg' height=""250px"">,</br><b>Richard</b>",1,256,IntactOrRearranged,Test,"""","""","""","""",CFD-BM-032-024-N.jpg,Cameron,1,"""","""",1,1,4/23/2021 3:30,174.242.139.5,Mozilla/5.0 (Windows NT 10.0; Win64; x64; rv:88.0) Gecko/20100101 Firefox/88.0,,Firefox,88,Windows,10
101,1,3146,"""",html-slider-response,238,585432,0.0-238.0,"""","<img src='jspsych/CFDfaces/CFD-WM-213-076-N.jpg' height=""250px"">,</br><b>Richard</b>","""",256,ConfidenceQuery,Test,"""","""","""","""",CFD-BM-032-024-N.jpg,Cameron,1,0,30,"""",1,4/23/2021 3:30,174.242.139.5,Mozilla/5.0 (Windows NT 10.0; Win64; x64; rv:88.0) Gecko/20100101 Firefox/88.0,,Firefox,88,Windows,10
101,1,null,"""",html-keyboard-response,239,586440,0.0-239.0,"""","<div style=""font-size:60px;"">+</div>","""",256,ITI,Test,null,1000,"""","""","""","""","""","""","""","""",1,4/23/2021 3:30,174.242.139.5,Mozilla/5.0 (Windows NT 10.0; Win64; x64; rv:88.0) Gecko/20100101 Firefox/88.0,,Firefox,88,Windows,10
101,1,null,"""",image-keyboard-response,240,586700,0.0-240.0,"""",jspsych/scrambledNeutralFaces/scrambledBF32NES.JPG,"""",256,forwardMask,Test,null,250,"""",n,"""","""","""","""","""","""",1,4/23/2021 3:30,174.242.139.5,Mozilla/5.0 (Windows NT 10.0; Win64; x64; rv:88.0) Gecko/20100101 Firefox/88.0,,Firefox,88,Windows,10
101,1,null,"""",image-keyboard-response,241,586721,0.0-241.0,"""",jspsych/neutralFaces/BF32NES.JPG,"""",256,Cue,Test,null,16,"""","""","""","""","""","""","""","""",1,4/23/2021 3:30,174.242.139.5,Mozilla/5.0 (Windows NT 10.0; Win64; x64; rv:88.0) Gecko/20100101 Firefox/88.0,,Firefox,88,Windows,10
101,1,null,"""",image-keyboard-response,242,586840,0.0-242.0,"""",jspsych/neutralFaces/AF30NES.JPG,"""",256,backwardMask,Test,null,100,"""","""","""","""","""","""","""","""",1,4/23/2021 3:30,174.242.139.5,Mozilla/5.0 (Windows NT 10.0; Win64; x64; rv:88.0) Gecko/20100101 Firefox/88.0,,Firefox,88,Windows,10
101,1,null,"""",html-keyboard-response,243,587850,0.0-243.0,"""","<div style=""font-size:60px;"">+</div>","""",256,fixationBtwnNeutralMaskAndPrompt,Test,null,1000,"""","""","""","""","""","""","""","""",1,4/23/2021 3:30,174.242.139.5,Mozilla/5.0 (Windows NT 10.0; Win64; x64; rv:88.0) Gecko/20100101 Firefox/88.0,,Firefox,88,Windows,10
101,1,2224,"""",html-button-response,244,590075,0.0-244.0,"""","<img src='jspsych/CFDfaces/CFD-LF-200-058-N.jpg' height=""250px"">,</br><b>Elizabeth</b>",0,256,IntactOrRearranged,Test,"""","""","""","""",CFD-AF-214-139-N.jpg,Jordan,1,"""","""",0,1,4/23/2021 3:30,174.242.139.5,Mozilla/5.0 (Windows NT 10.0; Win64; x64; rv:88.0) Gecko/20100101 Firefox/88.0,,Firefox,88,Windows,10
101,1,2152,"""",html-slider-response,245,592229,0.0-245.0,"""","<img src='jspsych/CFDfaces/CFD-LF-200-058-N.jpg' height=""250px"">,</br><b>Elizabeth</b>","""",256,ConfidenceQuery,Test,"""","""","""","""",CFD-AF-214-139-N.jpg,Jordan,1,0,9,"""",1,4/23/2021 3:30,174.242.139.5,Mozilla/5.0 (Windows NT 10.0; Win64; x64; rv:88.0) Gecko/20100101 Firefox/88.0,,Firefox,88,Windows,10
101,1,null,"""",html-keyboard-response,246,593249,0.0-246.0,"""","<div style=""font-size:60px;"">+</div>","""",256,ITI,Test,null,1000,"""","""","""","""","""","""","""","""",1,4/23/2021 3:30,174.242.139.5,Mozilla/5.0 (Windows NT 10.0; Win64; x64; rv:88.0) Gecko/20100101 Firefox/88.0,,Firefox,88,Windows,10
101,1,null,"""",image-keyboard-response,247,593510,0.0-247.0,"""",jspsych/scrambledNeutralFaces/scrambledAF34NES.JPG,"""",256,forwardMask,Test,null,250,"""",n,"""","""","""","""","""","""",1,4/23/2021 3:30,174.242.139.5,Mozilla/5.0 (Windows NT 10.0; Win64; x64; rv:88.0) Gecko/20100101 Firefox/88.0,,Firefox,88,Windows,10
101,1,null,"""",image-keyboard-response,248,593550,0.0-248.0,"""",jspsych/neutralFaces/AF34NES.JPG,"""",256,Cue,Test,null,16,"""","""","""","""","""","""","""","""",1,4/23/2021 3:30,174.242.139.5,Mozilla/5.0 (Windows NT 10.0; Win64; x64; rv:88.0) Gecko/20100101 Firefox/88.0,,Firefox,88,Windows,10
101,1,null,"""",image-keyboard-response,249,593670,0.0-249.0,"""",jspsych/neutralFaces/AF08NES.JPG,"""",256,backwardMask,Test,null,100,"""","""","""","""","""","""","""","""",1,4/23/2021 3:30,174.242.139.5,Mozilla/5.0 (Windows NT 10.0; Win64; x64; rv:88.0) Gecko/20100101 Firefox/88.0,,Firefox,88,Windows,10
101,1,null,"""",html-keyboard-response,250,594677,0.0-250.0,"""","<div style=""font-size:60px;"">+</div>","""",256,fixationBtwnNeutralMaskAndPrompt,Test,null,1000,"""","""","""","""","""","""","""","""",1,4/23/2021 3:30,174.242.139.5,Mozilla/5.0 (Windows NT 10.0; Win64; x64; rv:88.0) Gecko/20100101 Firefox/88.0,,Firefox,88,Windows,10
101,1,2407,"""",html-button-response,251,597085,0.0-251.0,"""","<img src='jspsych/CFDfaces/CFD-AF-242-158-N.jpg' height=""250px"">,</br><b>Ashley</b>",0,256,IntactOrRearranged,Test,"""","""","""","""",CFD-AM-231-136-N.jpg,Timothy,1,"""","""",0,1,4/23/2021 3:30,174.242.139.5,Mozilla/5.0 (Windows NT 10.0; Win64; x64; rv:88.0) Gecko/20100101 Firefox/88.0,,Firefox,88,Windows,10
101,1,3355,"""",html-slider-response,252,600442,0.0-252.0,"""","<img src='jspsych/CFDfaces/CFD-AF-242-158-N.jpg' height=""250px"">,</br><b>Ashley</b>","""",256,ConfidenceQuery,Test,"""","""","""","""",CFD-AM-231-136-N.jpg,Timothy,1,0,43,"""",1,4/23/2021 3:30,174.242.139.5,Mozilla/5.0 (Windows NT 10.0; Win64; x64; rv:88.0) Gecko/20100101 Firefox/88.0,,Firefox,88,Windows,10
101,1,null,"""",html-keyboard-response,253,601451,0.0-253.0,"""","<div style=""font-size:60px;"">+</div>","""",256,ITI,Test,null,1000,"""","""","""","""","""","""","""","""",1,4/23/2021 3:30,174.242.139.5,Mozilla/5.0 (Windows NT 10.0; Win64; x64; rv:88.0) Gecko/20100101 Firefox/88.0,,Firefox,88,Windows,10
101,1,null,"""",image-keyboard-response,254,601710,0.0-254.0,"""",jspsych/scrambledDisgustFaces/scrambledAM15DIS.JPG,"""",256,forwardMask,Test,null,250,"""",d,"""","""","""","""","""","""",1,4/23/2021 3:30,174.242.139.5,Mozilla/5.0 (Windows NT 10.0; Win64; x64; rv:88.0) Gecko/20100101 Firefox/88.0,,Firefox,88,Windows,10
101,1,null,"""",image-keyboard-response,255,601750,0.0-255.0,"""",jspsych/disgustFaces/AM15DIS.JPG,"""",256,Cue,Test,null,16,"""","""","""","""","""","""","""","""",1,4/23/2021 3:30,174.242.139.5,Mozilla/5.0 (Windows NT 10.0; Win64; x64; rv:88.0) Gecko/20100101 Firefox/88.0,,Firefox,88,Windows,10
101,1,null,"""",image-keyboard-response,256,601871,0.0-256.0,"""",jspsych/neutralFaces/AM29NES.JPG,"""",256,backwardMask,Test,null,100,"""","""","""","""","""","""","""","""",1,4/23/2021 3:30,174.242.139.5,Mozilla/5.0 (Windows NT 10.0; Win64; x64; rv:88.0) Gecko/20100101 Firefox/88.0,,Firefox,88,Windows,10
101,1,null,"""",html-keyboard-response,257,602874,0.0-257.0,"""","<div style=""font-size:60px;"">+</div>","""",256,fixationBtwnNeutralMaskAndPrompt,Test,null,1000,"""","""","""","""","""","""","""","""",1,4/23/2021 3:30,174.242.139.5,Mozilla/5.0 (Windows NT 10.0; Win64; x64; rv:88.0) Gecko/20100101 Firefox/88.0,,Firefox,88,Windows,10
101,1,2969,"""",html-button-response,258,605844,0.0-258.0,"""","<img src='jspsych/CFDfaces/CFD-AF-230-193-N.jpg' height=""250px"">,</br><b>Julie</b>",0,256,IntactOrRearranged,Test,"""","""","""","""",CFD-BF-221-223-N.jpg,Heather,0,"""","""",0,1,4/23/2021 3:30,174.242.139.5,Mozilla/5.0 (Windows NT 10.0; Win64; x64; rv:88.0) Gecko/20100101 Firefox/88.0,,Firefox,88,Windows,10
101,1,4260,"""",html-slider-response,259,610106,0.0-259.0,"""","<img src='jspsych/CFDfaces/CFD-AF-230-193-N.jpg' height=""250px"">,</br><b>Julie</b>","""",256,ConfidenceQuery,Test,"""","""","""","""",CFD-BF-221-223-N.jpg,Heather,0,0,94,"""",1,4/23/2021 3:30,174.242.139.5,Mozilla/5.0 (Windows NT 10.0; Win64; x64; rv:88.0) Gecko/20100101 Firefox/88.0,,Firefox,88,Windows,10
101,1,null,"""",html-keyboard-response,260,611120,0.0-260.0,"""","<div style=""font-size:60px;"">+</div>","""",256,ITI,Test,null,1000,"""","""","""","""","""","""","""","""",1,4/23/2021 3:30,174.242.139.5,Mozilla/5.0 (Windows NT 10.0; Win64; x64; rv:88.0) Gecko/20100101 Firefox/88.0,,Firefox,88,Windows,10
101,1,null,"""",image-keyboard-response,261,611379,0.0-261.0,"""",jspsych/scrambledNeutralFaces/scrambledAM29NES.JPG,"""",256,forwardMask,Test,null,250,"""",n,"""","""","""","""","""","""",1,4/23/2021 3:30,174.242.139.5,Mozilla/5.0 (Windows NT 10.0; Win64; x64; rv:88.0) Gecko/20100101 Firefox/88.0,,Firefox,88,Windows,10
101,1,null,"""",image-keyboard-response,262,611399,0.0-262.0,"""",jspsych/neutralFaces/AM29NES.JPG,"""",256,Cue,Test,null,16,"""","""","""","""","""","""","""","""",1,4/23/2021 3:30,174.242.139.5,Mozilla/5.0 (Windows NT 10.0; Win64; x64; rv:88.0) Gecko/20100101 Firefox/88.0,,Firefox,88,Windows,10
101,1,null,"""",image-keyboard-response,263,611519,0.0-263.0,"""",jspsych/neutralFaces/BM24NES.JPG,"""",256,backwardMask,Test,null,100,"""","""","""","""","""","""","""","""",1,4/23/2021 3:30,174.242.139.5,Mozilla/5.0 (Windows NT 10.0; Win64; x64; rv:88.0) Gecko/20100101 Firefox/88.0,,Firefox,88,Windows,10
101,1,null,"""",html-keyboard-response,264,612529,0.0-264.0,"""","<div style=""font-size:60px;"">+</div>","""",256,fixationBtwnNeutralMaskAndPrompt,Test,null,1000,"""","""","""","""","""","""","""","""",1,4/23/2021 3:30,174.242.139.5,Mozilla/5.0 (Windows NT 10.0; Win64; x64; rv:88.0) Gecko/20100101 Firefox/88.0,,Firefox,88,Windows,10
101,1,2432,"""",html-button-response,265,614961,0.0-265.0,"""","<img src='jspsych/CFDfaces/CFD-LF-215-157-N.jpg' height=""250px"">,</br><b>Stephanie</b>",1,256,IntactOrRearranged,Test,"""","""","""","""",CFD-AM-230-150-N.jpg,Justin,0,"""","""",1,1,4/23/2021 3:30,174.242.139.5,Mozilla/5.0 (Windows NT 10.0; Win64; x64; rv:88.0) Gecko/20100101 Firefox/88.0,,Firefox,88,Windows,10
101,1,2610,"""",html-slider-response,266,617574,0.0-266.0,"""","<img src='jspsych/CFDfaces/CFD-LF-215-157-N.jpg' height=""250px"">,</br><b>Stephanie</b>","""",256,ConfidenceQuery,Test,"""","""","""","""",CFD-AM-230-150-N.jpg,Justin,0,0,21,"""",1,4/23/2021 3:30,174.242.139.5,Mozilla/5.0 (Windows NT 10.0; Win64; x64; rv:88.0) Gecko/20100101 Firefox/88.0,,Firefox,88,Windows,10
101,1,null,"""",html-keyboard-response,267,618595,0.0-267.0,"""","<div style=""font-size:60px;"">+</div>","""",256,ITI,Test,null,1000,"""","""","""","""","""","""","""","""",1,4/23/2021 3:30,174.242.139.5,Mozilla/5.0 (Windows NT 10.0; Win64; x64; rv:88.0) Gecko/20100101 Firefox/88.0,,Firefox,88,Windows,10
101,1,null,"""",image-keyboard-response,268,618857,0.0-268.0,"""",jspsych/scrambledNeutralFaces/scrambledAF02NES.JPG,"""",256,forwardMask,Test,null,250,"""",n,"""","""","""","""","""","""",1,4/23/2021 3:30,174.242.139.5,Mozilla/5.0 (Windows NT 10.0; Win64; x64; rv:88.0) Gecko/20100101 Firefox/88.0,,Firefox,88,Windows,10
101,1,null,"""",image-keyboard-response,269,618886,0.0-269.0,"""",jspsych/neutralFaces/AF02NES.JPG,"""",256,Cue,Test,null,16,"""","""","""","""","""","""","""","""",1,4/23/2021 3:30,174.242.139.5,Mozilla/5.0 (Windows NT 10.0; Win64; x64; rv:88.0) Gecko/20100101 Firefox/88.0,,Firefox,88,Windows,10
101,1,null,"""",image-keyboard-response,270,618999,0.0-270.0,"""",jspsych/neutralFaces/AF23NES.JPG,"""",256,backwardMask,Test,null,100,"""","""","""","""","""","""","""","""",1,4/23/2021 3:30,174.242.139.5,Mozilla/5.0 (Windows NT 10.0; Win64; x64; rv:88.0) Gecko/20100101 Firefox/88.0,,Firefox,88,Windows,10
101,1,null,"""",html-keyboard-response,271,620004,0.0-271.0,"""","<div style=""font-size:60px;"">+</div>","""",256,fixationBtwnNeutralMaskAndPrompt,Test,null,1000,"""","""","""","""","""","""","""","""",1,4/23/2021 3:30,174.242.139.5,Mozilla/5.0 (Windows NT 10.0; Win64; x64; rv:88.0) Gecko/20100101 Firefox/88.0,,Firefox,88,Windows,10
101,1,1599,"""",html-button-response,272,621604,0.0-272.0,"""","<img src='jspsych/CFDfaces/CFD-WM-017-002-N.jpg' height=""250px"">,</br><b>Nicholas</b>",0,256,IntactOrRearranged,Test,"""","""","""","""",CFD-BM-001-014-N.jpg,Kenneth,0,"""","""",0,1,4/23/2021 3:30,174.242.139.5,Mozilla/5.0 (Windows NT 10.0; Win64; x64; rv:88.0) Gecko/20100101 Firefox/88.0,,Firefox,88,Windows,10
101,1,null,"""",html-slider-response,273,626606,0.0-273.0,"""","<img src='jspsych/CFDfaces/CFD-WM-017-002-N.jpg' height=""250px"">,</br><b>Nicholas</b>","""",256,ConfidenceQuery,Test,"""","""","""","""",CFD-BM-001-014-N.jpg,Kenneth,0,0,null,"""",1,4/23/2021 3:30,174.242.139.5,Mozilla/5.0 (Windows NT 10.0; Win64; x64; rv:88.0) Gecko/20100101 Firefox/88.0,,Firefox,88,Windows,10
101,1,null,"""",html-keyboard-response,274,627620,0.0-274.0,"""","<div style=""font-size:60px;"">+</div>","""",256,ITI,Test,null,1000,"""","""","""","""","""","""","""","""",1,4/23/2021 3:30,174.242.139.5,Mozilla/5.0 (Windows NT 10.0; Win64; x64; rv:88.0) Gecko/20100101 Firefox/88.0,,Firefox,88,Windows,10
101,1,null,"""",image-keyboard-response,275,627878,0.0-275.0,"""",jspsych/scrambledNeutralFaces/scrambledAM28NES.JPG,"""",256,forwardMask,Test,null,250,"""",n,"""","""","""","""","""","""",1,4/23/2021 3:30,174.242.139.5,Mozilla/5.0 (Windows NT 10.0; Win64; x64; rv:88.0) Gecko/20100101 Firefox/88.0,,Firefox,88,Windows,10
101,1,null,"""",image-keyboard-response,276,627899,0.0-276.0,"""",jspsych/neutralFaces/AM28NES.JPG,"""",256,Cue,Test,null,16,"""","""","""","""","""","""","""","""",1,4/23/2021 3:30,174.242.139.5,Mozilla/5.0 (Windows NT 10.0; Win64; x64; rv:88.0) Gecko/20100101 Firefox/88.0,,Firefox,88,Windows,10
101,1,null,"""",image-keyboard-response,277,628020,0.0-277.0,"""",jspsych/neutralFaces/AM11NES.JPG,"""",256,backwardMask,Test,null,100,"""","""","""","""","""","""","""","""",1,4/23/2021 3:30,174.242.139.5,Mozilla/5.0 (Windows NT 10.0; Win64; x64; rv:88.0) Gecko/20100101 Firefox/88.0,,Firefox,88,Windows,10
101,1,null,"""",html-keyboard-response,278,629038,0.0-278.0,"""","<div style=""font-size:60px;"">+</div>","""",256,fixationBtwnNeutralMaskAndPrompt,Test,null,1000,"""","""","""","""","""","""","""","""",1,4/23/2021 3:30,174.242.139.5,Mozilla/5.0 (Windows NT 10.0; Win64; x64; rv:88.0) Gecko/20100101 Firefox/88.0,,Firefox,88,Windows,10
101,1,2211,"""",html-button-response,279,631250,0.0-279.0,"""","<img src='jspsych/CFDfaces/CFD-AM-242-176-N.jpg' height=""250px"">,</br><b>Brian</b>",0,256,IntactOrRearranged,Test,"""","""","""","""",CFD-WF-220-101-N.jpg,Sara,0,"""","""",0,1,4/23/2021 3:30,174.242.139.5,Mozilla/5.0 (Windows NT 10.0; Win64; x64; rv:88.0) Gecko/20100101 Firefox/88.0,,Firefox,88,Windows,10
101,1,4891,"""",html-slider-response,280,636143,0.0-280.0,"""","<img src='jspsych/CFDfaces/CFD-AM-242-176-N.jpg' height=""250px"">,</br><b>Brian</b>","""",256,ConfidenceQuery,Test,"""","""","""","""",CFD-WF-220-101-N.jpg,Sara,0,0,100,"""",1,4/23/2021 3:30,174.242.139.5,Mozilla/5.0 (Windows NT 10.0; Win64; x64; rv:88.0) Gecko/20100101 Firefox/88.0,,Firefox,88,Windows,10
101,1,null,"""",html-keyboard-response,281,637158,0.0-281.0,"""","<div style=""font-size:60px;"">+</div>","""",256,ITI,Test,null,1000,"""","""","""","""","""","""","""","""",1,4/23/2021 3:30,174.242.139.5,Mozilla/5.0 (Windows NT 10.0; Win64; x64; rv:88.0) Gecko/20100101 Firefox/88.0,,Firefox,88,Windows,10
101,1,null,"""",image-keyboard-response,282,637418,0.0-282.0,"""",jspsych/scrambledDisgustFaces/scrambledBM04DIS.JPG,"""",256,forwardMask,Test,null,250,"""",d,"""","""","""","""","""","""",1,4/23/2021 3:30,174.242.139.5,Mozilla/5.0 (Windows NT 10.0; Win64; x64; rv:88.0) Gecko/20100101 Firefox/88.0,,Firefox,88,Windows,10
101,1,null,"""",image-keyboard-response,283,637438,0.0-283.0,"""",jspsych/disgustFaces/BM05DIS.JPG,"""",256,Cue,Test,null,16,"""","""","""","""","""","""","""","""",1,4/23/2021 3:30,174.242.139.5,Mozilla/5.0 (Windows NT 10.0; Win64; x64; rv:88.0) Gecko/20100101 Firefox/88.0,,Firefox,88,Windows,10
101,1,null,"""",image-keyboard-response,284,637543,0.0-284.0,"""",jspsych/neutralFaces/AM27NES.JPG,"""",256,backwardMask,Test,null,100,"""","""","""","""","""","""","""","""",1,4/23/2021 3:30,174.242.139.5,Mozilla/5.0 (Windows NT 10.0; Win64; x64; rv:88.0) Gecko/20100101 Firefox/88.0,,Firefox,88,Windows,10
101,1,null,"""",html-keyboard-response,285,638558,0.0-285.0,"""","<div style=""font-size:60px;"">+</div>","""",256,fixationBtwnNeutralMaskAndPrompt,Test,null,1000,"""","""","""","""","""","""","""","""",1,4/23/2021 3:30,174.242.139.5,Mozilla/5.0 (Windows NT 10.0; Win64; x64; rv:88.0) Gecko/20100101 Firefox/88.0,,Firefox,88,Windows,10
101,1,2246,"""",html-button-response,286,640804,0.0-286.0,"""","<img src='jspsych/CFDfaces/CFD-BM-211-174-N.jpg' height=""250px"">,</br><b>Gregory</b>",0,256,IntactOrRearranged,Test,"""","""","""","""",CFD-AM-221-184-N.jpg,Jacob,1,"""","""",0,1,4/23/2021 3:30,174.242.139.5,Mozilla/5.0 (Windows NT 10.0; Win64; x64; rv:88.0) Gecko/20100101 Firefox/88.0,,Firefox,88,Windows,10
101,1,1961,"""",html-slider-response,287,642770,0.0-287.0,"""","<img src='jspsych/CFDfaces/CFD-BM-211-174-N.jpg' height=""250px"">,</br><b>Gregory</b>","""",256,ConfidenceQuery,Test,"""","""","""","""",CFD-AM-221-184-N.jpg,Jacob,1,0,75,"""",1,4/23/2021 3:30,174.242.139.5,Mozilla/5.0 (Windows NT 10.0; Win64; x64; rv:88.0) Gecko/20100101 Firefox/88.0,,Firefox,88,Windows,10
101,1,null,"""",html-keyboard-response,288,643778,0.0-288.0,"""","<div style=""font-size:60px;"">+</div>","""",256,ITI,Test,null,1000,"""","""","""","""","""","""","""","""",1,4/23/2021 3:30,174.242.139.5,Mozilla/5.0 (Windows NT 10.0; Win64; x64; rv:88.0) Gecko/20100101 Firefox/88.0,,Firefox,88,Windows,10
101,1,null,"""",image-keyboard-response,289,644044,0.0-289.0,"""",jspsych/scrambledDisgustFaces/scrambledAM10DIS.JPG,"""",256,forwardMask,Test,null,250,"""",d,"""","""","""","""","""","""",1,4/23/2021 3:30,174.242.139.5,Mozilla/5.0 (Windows NT 10.0; Win64; x64; rv:88.0) Gecko/20100101 Firefox/88.0,,Firefox,88,Windows,10
101,1,null,"""",image-keyboard-response,290,644067,0.0-290.0,"""",jspsych/disgustFaces/AM10DIS.JPG,"""",256,Cue,Test,null,16,"""","""","""","""","""","""","""","""",1,4/23/2021 3:30,174.242.139.5,Mozilla/5.0 (Windows NT 10.0; Win64; x64; rv:88.0) Gecko/20100101 Firefox/88.0,,Firefox,88,Windows,10
101,1,null,"""",image-keyboard-response,291,644178,0.0-291.0,"""",jspsych/neutralFaces/BM26NES.JPG,"""",256,backwardMask,Test,null,100,"""","""","""","""","""","""","""","""",1,4/23/2021 3:30,174.242.139.5,Mozilla/5.0 (Windows NT 10.0; Win64; x64; rv:88.0) Gecko/20100101 Firefox/88.0,,Firefox,88,Windows,10
101,1,null,"""",html-keyboard-response,292,645180,0.0-292.0,"""","<div style=""font-size:60px;"">+</div>","""",256,fixationBtwnNeutralMaskAndPrompt,Test,null,1000,"""","""","""","""","""","""","""","""",1,4/23/2021 3:30,174.242.139.5,Mozilla/5.0 (Windows NT 10.0; Win64; x64; rv:88.0) Gecko/20100101 Firefox/88.0,,Firefox,88,Windows,10
101,1,2040,"""",html-button-response,293,647220,0.0-293.0,"""","<img src='jspsych/CFDfaces/CFD-AF-228-173-N.jpg' height=""250px"">,</br><b>Brittany</b>",1,256,IntactOrRearranged,Test,"""","""","""","""",CFD-AM-211-052-N.jpg,Jesse,0,"""","""",1,1,4/23/2021 3:30,174.242.139.5,Mozilla/5.0 (Windows NT 10.0; Win64; x64; rv:88.0) Gecko/20100101 Firefox/88.0,,Firefox,88,Windows,10
101,1,2306,"""",html-slider-response,294,649530,0.0-294.0,"""","<img src='jspsych/CFDfaces/CFD-AF-228-173-N.jpg' height=""250px"">,</br><b>Brittany</b>","""",256,ConfidenceQuery,Test,"""","""","""","""",CFD-AM-211-052-N.jpg,Jesse,0,0,19,"""",1,4/23/2021 3:30,174.242.139.5,Mozilla/5.0 (Windows NT 10.0; Win64; x64; rv:88.0) Gecko/20100101 Firefox/88.0,,Firefox,88,Windows,10
101,1,null,"""",html-keyboard-response,295,650559,0.0-295.0,"""","<div style=""font-size:60px;"">+</div>","""",256,ITI,Test,null,1000,"""","""","""","""","""","""","""","""",1,4/23/2021 3:30,174.242.139.5,Mozilla/5.0 (Windows NT 10.0; Win64; x64; rv:88.0) Gecko/20100101 Firefox/88.0,,Firefox,88,Windows,10
