run_id,condition,rt,responses,trial_type,trial_index,time_elapsed,internal_node_id,question_order,stimulus,button_pressed,iTrial,Phase,ExperimentPhase,key_press,StimulusDurationSetting,CharacterResponse,correctResponse,Face,Name,rearranged,slider_start,response,didSubjectEnterRearranged,Block,recorded_at,ip,user_agent,device,browser,browser_version,platform,platform_version
19,1,8088,"{""Q0"":""A2K40U9Q0YRVYJ""}",survey-text,0,8091,0.0-0.0,"""","""","""","""","""","""","""","""","""","""","""","""","""","""","""","""","""",4/19/2021 0:35,71.238.78.78,Mozilla/5.0 (Macintosh; Intel Mac OS X 10.15; rv:87.0) Gecko/20100101 Firefox/87.0,Macintosh,Firefox,87,OS X,10.15
19,1,4023,"{""Q0"":""56""}",survey-text,1,12118,0.0-1.0,"""","""","""","""","""","""","""","""","""","""","""","""","""","""","""","""","""",4/19/2021 0:35,71.238.78.78,Mozilla/5.0 (Macintosh; Intel Mac OS X 10.15; rv:87.0) Gecko/20100101 Firefox/87.0,Macintosh,Firefox,87,OS X,10.15
19,1,5116,"{""Q0"":""female"",""Q1"":""Not Hispanic/Latino"",""Q2"":""White or Caucasian""}",survey-multi-choice,2,17237,0.0-2.0,"[0,1,2]","""","""","""","""","""","""","""","""","""","""","""","""","""","""","""","""",4/19/2021 0:35,71.238.78.78,Mozilla/5.0 (Macintosh; Intel Mac OS X 10.15; rv:87.0) Gecko/20100101 Firefox/87.0,Macintosh,Firefox,87,OS X,10.15
19,1,29984,"""",image-button-response,3,47228,0.0-3.0,"""",directionsMemoryAssociation1.JPG,0,1,IntroDirections1,break,"""","""","""","""","""","""","""","""","""","""","""",4/19/2021 0:35,71.238.78.78,Mozilla/5.0 (Macintosh; Intel Mac OS X 10.15; rv:87.0) Gecko/20100101 Firefox/87.0,Macintosh,Firefox,87,OS X,10.15
19,1,16948,"""",image-button-response,4,64183,0.0-4.0,"""",directionsMemoryAssociation2.JPG,0,1,IntroDirections2,break,"""","""","""","""","""","""","""","""","""","""","""",4/19/2021 0:35,71.238.78.78,Mozilla/5.0 (Macintosh; Intel Mac OS X 10.15; rv:87.0) Gecko/20100101 Firefox/87.0,Macintosh,Firefox,87,OS X,10.15
19,1,null,"""",html-keyboard-response,5,69187,0.0-5.0,"""","<img src='jspsych/CFDfaces/CFD-WF-024-003-N.jpg' height=""250px"">,</br><b>Tara</b>","""",1,IntactFace,Practice,null,5000,"""","""","""","""","""","""","""","""","""",4/19/2021 0:35,71.238.78.78,Mozilla/5.0 (Macintosh; Intel Mac OS X 10.15; rv:87.0) Gecko/20100101 Firefox/87.0,Macintosh,Firefox,87,OS X,10.15
19,1,null,"""",html-keyboard-response,6,69692,0.0-6.0,"""","<div style=""font-size:60px;"">+</div>","""",1,ITI,Practice,null,1000,"""","""","""","""","""","""","""","""","""",4/19/2021 0:35,71.238.78.78,Mozilla/5.0 (Macintosh; Intel Mac OS X 10.15; rv:87.0) Gecko/20100101 Firefox/87.0,Macintosh,Firefox,87,OS X,10.15
19,1,null,"""",html-keyboard-response,7,74696,0.0-7.0,"""","<img src='jspsych/CFDfaces/CFD-WF-217-085-N.jpg' height=""250px"">,</br><b>Cassandra</b>","""",2,IntactFace,Practice,null,5000,"""","""","""","""","""","""","""","""","""",4/19/2021 0:35,71.238.78.78,Mozilla/5.0 (Macintosh; Intel Mac OS X 10.15; rv:87.0) Gecko/20100101 Firefox/87.0,Macintosh,Firefox,87,OS X,10.15
19,1,null,"""",html-keyboard-response,8,75197,0.0-8.0,"""","<div style=""font-size:60px;"">+</div>","""",2,ITI,Practice,null,1000,"""","""","""","""","""","""","""","""","""",4/19/2021 0:35,71.238.78.78,Mozilla/5.0 (Macintosh; Intel Mac OS X 10.15; rv:87.0) Gecko/20100101 Firefox/87.0,Macintosh,Firefox,87,OS X,10.15
19,1,2845,"""",html-keyboard-response,9,80201,0.0-9.0,"""","<img src='jspsych/CFDfaces/CFD-LM-248-089-N.jpg' height=""250px"">,</br><b>Samuel</b>","""",3,IntactFace,Practice,70,5000,f,"""","""","""","""","""","""","""","""",4/19/2021 0:35,71.238.78.78,Mozilla/5.0 (Macintosh; Intel Mac OS X 10.15; rv:87.0) Gecko/20100101 Firefox/87.0,Macintosh,Firefox,87,OS X,10.15
19,1,null,"""",html-keyboard-response,10,80704,0.0-10.0,"""","<div style=""font-size:60px;"">+</div>","""",3,ITI,Practice,null,1000,"""","""","""","""","""","""","""","""","""",4/19/2021 0:35,71.238.78.78,Mozilla/5.0 (Macintosh; Intel Mac OS X 10.15; rv:87.0) Gecko/20100101 Firefox/87.0,Macintosh,Firefox,87,OS X,10.15
19,1,2009,"""",html-keyboard-response,11,85708,0.0-11.0,"""","<img src='jspsych/CFDfaces/CFD-BM-029-024-N.jpg' height=""250px"">,</br><b>Marcus</b>","""",4,IntactFace,Practice,70,5000,f,"""","""","""","""","""","""","""","""",4/19/2021 0:35,71.238.78.78,Mozilla/5.0 (Macintosh; Intel Mac OS X 10.15; rv:87.0) Gecko/20100101 Firefox/87.0,Macintosh,Firefox,87,OS X,10.15
19,1,null,"""",html-keyboard-response,12,86213,0.0-12.0,"""","<div style=""font-size:60px;"">+</div>","""",4,ITI,Practice,null,1000,"""","""","""","""","""","""","""","""","""",4/19/2021 0:35,71.238.78.78,Mozilla/5.0 (Macintosh; Intel Mac OS X 10.15; rv:87.0) Gecko/20100101 Firefox/87.0,Macintosh,Firefox,87,OS X,10.15
19,1,2357,"""",html-keyboard-response,13,91217,0.0-13.0,"""","<img src='jspsych/CFDfaces/CFD-LM-233-171-N.jpg' height=""250px"">,</br><b>Patrick</b>","""",5,IntactFace,Practice,78,5000,n,"""","""","""","""","""","""","""","""",4/19/2021 0:35,71.238.78.78,Mozilla/5.0 (Macintosh; Intel Mac OS X 10.15; rv:87.0) Gecko/20100101 Firefox/87.0,Macintosh,Firefox,87,OS X,10.15
19,1,null,"""",html-keyboard-response,14,91720,0.0-14.0,"""","<div style=""font-size:60px;"">+</div>","""",5,ITI,Practice,null,1000,"""","""","""","""","""","""","""","""","""",4/19/2021 0:35,71.238.78.78,Mozilla/5.0 (Macintosh; Intel Mac OS X 10.15; rv:87.0) Gecko/20100101 Firefox/87.0,Macintosh,Firefox,87,OS X,10.15
19,1,2274,"""",html-keyboard-response,15,96723,0.0-15.0,"""","<img src='jspsych/CFDfaces/CFD-WF-223-133-N.jpg' height=""250px"">,</br><b>Katelyn</b>","""",6,IntactFace,Practice,70,5000,f,"""","""","""","""","""","""","""","""",4/19/2021 0:35,71.238.78.78,Mozilla/5.0 (Macintosh; Intel Mac OS X 10.15; rv:87.0) Gecko/20100101 Firefox/87.0,Macintosh,Firefox,87,OS X,10.15
19,1,null,"""",html-keyboard-response,16,97226,0.0-16.0,"""","<div style=""font-size:60px;"">+</div>","""",6,ITI,Practice,null,1000,"""","""","""","""","""","""","""","""","""",4/19/2021 0:35,71.238.78.78,Mozilla/5.0 (Macintosh; Intel Mac OS X 10.15; rv:87.0) Gecko/20100101 Firefox/87.0,Macintosh,Firefox,87,OS X,10.15
19,1,2390,"""",html-keyboard-response,17,102232,0.0-17.0,"""","<img src='jspsych/CFDfaces/CFD-WF-204-038-N.jpg' height=""250px"">,</br><b>Shannon</b>","""",7,IntactFace,Practice,70,5000,f,"""","""","""","""","""","""","""","""",4/19/2021 0:35,71.238.78.78,Mozilla/5.0 (Macintosh; Intel Mac OS X 10.15; rv:87.0) Gecko/20100101 Firefox/87.0,Macintosh,Firefox,87,OS X,10.15
19,1,null,"""",html-keyboard-response,18,102735,0.0-18.0,"""","<div style=""font-size:60px;"">+</div>","""",7,ITI,Practice,null,1000,"""","""","""","""","""","""","""","""","""",4/19/2021 0:35,71.238.78.78,Mozilla/5.0 (Macintosh; Intel Mac OS X 10.15; rv:87.0) Gecko/20100101 Firefox/87.0,Macintosh,Firefox,87,OS X,10.15
19,1,2251,"""",html-keyboard-response,19,107738,0.0-19.0,"""","<img src='jspsych/CFDfaces/CFD-LM-221-216-N.jpg' height=""250px"">,</br><b>Carlos</b>","""",8,IntactFace,Practice,70,5000,f,"""","""","""","""","""","""","""","""",4/19/2021 0:35,71.238.78.78,Mozilla/5.0 (Macintosh; Intel Mac OS X 10.15; rv:87.0) Gecko/20100101 Firefox/87.0,Macintosh,Firefox,87,OS X,10.15
19,1,null,"""",html-keyboard-response,20,108240,0.0-20.0,"""","<div style=""font-size:60px;"">+</div>","""",8,ITI,Practice,null,1000,"""","""","""","""","""","""","""","""","""",4/19/2021 0:35,71.238.78.78,Mozilla/5.0 (Macintosh; Intel Mac OS X 10.15; rv:87.0) Gecko/20100101 Firefox/87.0,Macintosh,Firefox,87,OS X,10.15
19,1,39028,"""",image-button-response,21,147275,0.0-21.0,"""",directionsForTest.JPG,0,1,directionsForTest,break,"""","""","""","""","""","""","""","""","""","""","""",4/19/2021 0:35,71.238.78.78,Mozilla/5.0 (Macintosh; Intel Mac OS X 10.15; rv:87.0) Gecko/20100101 Firefox/87.0,Macintosh,Firefox,87,OS X,10.15
19,1,21460,"""",image-button-response,22,168741,0.0-22.0,"""",directionsForTest2.JPG,0,1,directionsForTest2,break,"""","""","""","""","""","""","""","""","""","""","""",4/19/2021 0:35,71.238.78.78,Mozilla/5.0 (Macintosh; Intel Mac OS X 10.15; rv:87.0) Gecko/20100101 Firefox/87.0,Macintosh,Firefox,87,OS X,10.15
19,1,null,"""",html-keyboard-response,23,169743,0.0-23.0,"""","<div style=""font-size:60px;"">+</div>","""",1,ITI,Practice,null,1000,"""","""","""","""","""","""","""","""","""",4/19/2021 0:35,71.238.78.78,Mozilla/5.0 (Macintosh; Intel Mac OS X 10.15; rv:87.0) Gecko/20100101 Firefox/87.0,Macintosh,Firefox,87,OS X,10.15
19,1,null,"""",image-keyboard-response,24,169996,0.0-24.0,"""",jspsych/scrambledDisgustFaces/scrambledBF09DIS.JPG,"""",1,forwardMask,Practice,null,250,"""",d,"""","""","""","""","""","""","""",4/19/2021 0:35,71.238.78.78,Mozilla/5.0 (Macintosh; Intel Mac OS X 10.15; rv:87.0) Gecko/20100101 Firefox/87.0,Macintosh,Firefox,87,OS X,10.15
19,1,null,"""",image-keyboard-response,25,170015,0.0-25.0,"""",jspsych/disgustFaces/BF09DIS.JPG,"""",1,Cue,Practice,null,16,"""","""","""","""","""","""","""","""","""",4/19/2021 0:35,71.238.78.78,Mozilla/5.0 (Macintosh; Intel Mac OS X 10.15; rv:87.0) Gecko/20100101 Firefox/87.0,Macintosh,Firefox,87,OS X,10.15
19,1,null,"""",image-keyboard-response,26,170118,0.0-26.0,"""",jspsych/neutralFaces/AF32NES.JPG,"""",1,backwardMask,Practice,null,100,"""","""","""","""","""","""","""","""","""",4/19/2021 0:35,71.238.78.78,Mozilla/5.0 (Macintosh; Intel Mac OS X 10.15; rv:87.0) Gecko/20100101 Firefox/87.0,Macintosh,Firefox,87,OS X,10.15
19,1,null,"""",html-keyboard-response,27,171119,0.0-27.0,"""","<div style=""font-size:60px;"">+</div>","""",1,fixationBtwnNeutralMaskAndPrompt,Practice,null,1000,"""","""","""","""","""","""","""","""","""",4/19/2021 0:35,71.238.78.78,Mozilla/5.0 (Macintosh; Intel Mac OS X 10.15; rv:87.0) Gecko/20100101 Firefox/87.0,Macintosh,Firefox,87,OS X,10.15
19,1,null,"""",html-button-response,28,176121,0.0-28.0,"""","<img src='jspsych/CFDfaces/CFD-LM-221-216-N.jpg'height=""250px""></br><b>Marcus</b>",null,1,IntactOrRearranged,Practice,"""","""","""","""",CFD-LM-221-216-N.jpg,Marcus,1,"""","""","""","""",4/19/2021 0:35,71.238.78.78,Mozilla/5.0 (Macintosh; Intel Mac OS X 10.15; rv:87.0) Gecko/20100101 Firefox/87.0,Macintosh,Firefox,87,OS X,10.15
19,1,null,"""",html-slider-response,29,181127,0.0-29.0,"""","<img src='jspsych/CFDfaces/CFD-LM-221-216-N.jpg'height=""250px""></br><b>Marcus</b>","""",1,ConfidenceQuery,Practice,"""","""","""","""",CFD-LM-225-130-N.jpg,Timothy,1,0,null,"""","""",4/19/2021 0:35,71.238.78.78,Mozilla/5.0 (Macintosh; Intel Mac OS X 10.15; rv:87.0) Gecko/20100101 Firefox/87.0,Macintosh,Firefox,87,OS X,10.15
19,1,2596,"""",html-button-response,30,183725,0.0-30.0,"""",<p>Please click either button: REARRANGED or INTACT before the 5-second time limit.</p>,0,1,feedback,Practice,"""","""","""","""","""","""","""","""","""","""","""",4/19/2021 0:35,71.238.78.78,Mozilla/5.0 (Macintosh; Intel Mac OS X 10.15; rv:87.0) Gecko/20100101 Firefox/87.0,Macintosh,Firefox,87,OS X,10.15
19,1,null,"""",html-keyboard-response,31,184729,0.0-31.0,"""","<div style=""font-size:60px;"">+</div>","""",2,ITI,Practice,null,1000,"""","""","""","""","""","""","""","""","""",4/19/2021 0:35,71.238.78.78,Mozilla/5.0 (Macintosh; Intel Mac OS X 10.15; rv:87.0) Gecko/20100101 Firefox/87.0,Macintosh,Firefox,87,OS X,10.15
19,1,null,"""",image-keyboard-response,32,184982,0.0-32.0,"""",jspsych/scrambledNeutralFaces/scrambledAM23NES.JPG,"""",2,forwardMask,Practice,null,250,"""",n,"""","""","""","""","""","""","""",4/19/2021 0:35,71.238.78.78,Mozilla/5.0 (Macintosh; Intel Mac OS X 10.15; rv:87.0) Gecko/20100101 Firefox/87.0,Macintosh,Firefox,87,OS X,10.15
19,1,null,"""",image-keyboard-response,33,185001,0.0-33.0,"""",jspsych/neutralFaces/AM23NES.JPG,"""",2,Cue,Practice,null,16,"""","""","""","""","""","""","""","""","""",4/19/2021 0:35,71.238.78.78,Mozilla/5.0 (Macintosh; Intel Mac OS X 10.15; rv:87.0) Gecko/20100101 Firefox/87.0,Macintosh,Firefox,87,OS X,10.15
19,1,null,"""",image-keyboard-response,34,185107,0.0-34.0,"""",jspsych/neutralFaces/AM18NES.JPG,"""",2,backwardMask,Practice,null,100,"""","""","""","""","""","""","""","""","""",4/19/2021 0:35,71.238.78.78,Mozilla/5.0 (Macintosh; Intel Mac OS X 10.15; rv:87.0) Gecko/20100101 Firefox/87.0,Macintosh,Firefox,87,OS X,10.15
19,1,null,"""",html-keyboard-response,35,186108,0.0-35.0,"""","<div style=""font-size:60px;"">+</div>","""",2,fixationBtwnNeutralMaskAndPrompt,Practice,null,1000,"""","""","""","""","""","""","""","""","""",4/19/2021 0:35,71.238.78.78,Mozilla/5.0 (Macintosh; Intel Mac OS X 10.15; rv:87.0) Gecko/20100101 Firefox/87.0,Macintosh,Firefox,87,OS X,10.15
19,1,2982,"""",html-button-response,36,189091,0.0-36.0,"""","<img src='jspsych/CFDfaces/CFD-WF-024-003-N.jpg'height=""250px""></br><b>Tara</b>",0,2,IntactOrRearranged,Practice,"""","""","""","""",CFD-WF-024-003-N.jpg,Tara,0,"""","""",0,"""",4/19/2021 0:35,71.238.78.78,Mozilla/5.0 (Macintosh; Intel Mac OS X 10.15; rv:87.0) Gecko/20100101 Firefox/87.0,Macintosh,Firefox,87,OS X,10.15
19,1,4384,"""",html-slider-response,37,193479,0.0-37.0,"""","<img src='jspsych/CFDfaces/CFD-WF-024-003-N.jpg'height=""250px""></br><b>Tara</b>","""",2,ConfidenceQuery,Practice,"""","""","""","""",CFD-LM-225-130-N.jpg,Timothy,0,0,100,"""","""",4/19/2021 0:35,71.238.78.78,Mozilla/5.0 (Macintosh; Intel Mac OS X 10.15; rv:87.0) Gecko/20100101 Firefox/87.0,Macintosh,Firefox,87,OS X,10.15
19,1,4702,"""",html-button-response,38,198182,0.0-38.0,"""",You are Correct. You called an Intact Pair Intact,0,2,feedback,Practice,"""","""","""","""","""","""","""","""","""","""","""",4/19/2021 0:35,71.238.78.78,Mozilla/5.0 (Macintosh; Intel Mac OS X 10.15; rv:87.0) Gecko/20100101 Firefox/87.0,Macintosh,Firefox,87,OS X,10.15
19,1,null,"""",html-keyboard-response,39,199187,0.0-39.0,"""","<div style=""font-size:60px;"">+</div>","""",3,ITI,Practice,null,1000,"""","""","""","""","""","""","""","""","""",4/19/2021 0:35,71.238.78.78,Mozilla/5.0 (Macintosh; Intel Mac OS X 10.15; rv:87.0) Gecko/20100101 Firefox/87.0,Macintosh,Firefox,87,OS X,10.15
19,1,null,"""",image-keyboard-response,40,199440,0.0-40.0,"""",jspsych/scrambledNeutralFaces/scrambledBM13NES.JPG,"""",3,forwardMask,Practice,null,250,"""",n,"""","""","""","""","""","""","""",4/19/2021 0:35,71.238.78.78,Mozilla/5.0 (Macintosh; Intel Mac OS X 10.15; rv:87.0) Gecko/20100101 Firefox/87.0,Macintosh,Firefox,87,OS X,10.15
19,1,null,"""",image-keyboard-response,41,199460,0.0-41.0,"""",jspsych/neutralFaces/BM13NES.JPG,"""",3,Cue,Practice,null,16,"""","""","""","""","""","""","""","""","""",4/19/2021 0:35,71.238.78.78,Mozilla/5.0 (Macintosh; Intel Mac OS X 10.15; rv:87.0) Gecko/20100101 Firefox/87.0,Macintosh,Firefox,87,OS X,10.15
19,1,null,"""",image-keyboard-response,42,199563,0.0-42.0,"""",jspsych/neutralFaces/BM05NES.JPG,"""",3,backwardMask,Practice,null,100,"""","""","""","""","""","""","""","""","""",4/19/2021 0:35,71.238.78.78,Mozilla/5.0 (Macintosh; Intel Mac OS X 10.15; rv:87.0) Gecko/20100101 Firefox/87.0,Macintosh,Firefox,87,OS X,10.15
19,1,null,"""",html-keyboard-response,43,200564,0.0-43.0,"""","<div style=""font-size:60px;"">+</div>","""",3,fixationBtwnNeutralMaskAndPrompt,Practice,null,1000,"""","""","""","""","""","""","""","""","""",4/19/2021 0:35,71.238.78.78,Mozilla/5.0 (Macintosh; Intel Mac OS X 10.15; rv:87.0) Gecko/20100101 Firefox/87.0,Macintosh,Firefox,87,OS X,10.15
19,1,null,"""",html-button-response,44,205567,0.0-44.0,"""","<img src='jspsych/CFDfaces/CFD-BM-029-024-N.jpg'height=""250px""></br><b>Carlos</b>",null,3,IntactOrRearranged,Practice,"""","""","""","""",CFD-BM-029-024-N.jpg,Carlos,1,"""","""","""","""",4/19/2021 0:35,71.238.78.78,Mozilla/5.0 (Macintosh; Intel Mac OS X 10.15; rv:87.0) Gecko/20100101 Firefox/87.0,Macintosh,Firefox,87,OS X,10.15
19,1,null,"""",html-slider-response,45,210572,0.0-45.0,"""","<img src='jspsych/CFDfaces/CFD-BM-029-024-N.jpg'height=""250px""></br><b>Carlos</b>","""",3,ConfidenceQuery,Practice,"""","""","""","""",CFD-LM-225-130-N.jpg,Timothy,1,0,null,"""","""",4/19/2021 0:35,71.238.78.78,Mozilla/5.0 (Macintosh; Intel Mac OS X 10.15; rv:87.0) Gecko/20100101 Firefox/87.0,Macintosh,Firefox,87,OS X,10.15
19,1,3044,"""",html-button-response,46,213617,0.0-46.0,"""",<p>Please click either button: REARRANGED or INTACT before the 5-second time limit.</p>,0,3,feedback,Practice,"""","""","""","""","""","""","""","""","""","""","""",4/19/2021 0:35,71.238.78.78,Mozilla/5.0 (Macintosh; Intel Mac OS X 10.15; rv:87.0) Gecko/20100101 Firefox/87.0,Macintosh,Firefox,87,OS X,10.15
19,1,null,"""",html-keyboard-response,47,214620,0.0-47.0,"""","<div style=""font-size:60px;"">+</div>","""",4,ITI,Practice,null,1000,"""","""","""","""","""","""","""","""","""",4/19/2021 0:35,71.238.78.78,Mozilla/5.0 (Macintosh; Intel Mac OS X 10.15; rv:87.0) Gecko/20100101 Firefox/87.0,Macintosh,Firefox,87,OS X,10.15
19,1,null,"""",image-keyboard-response,48,214872,0.0-48.0,"""",jspsych/scrambledNeutralFaces/scrambledBF32NES.JPG,"""",4,forwardMask,Practice,null,250,"""",n,"""","""","""","""","""","""","""",4/19/2021 0:35,71.238.78.78,Mozilla/5.0 (Macintosh; Intel Mac OS X 10.15; rv:87.0) Gecko/20100101 Firefox/87.0,Macintosh,Firefox,87,OS X,10.15
19,1,null,"""",image-keyboard-response,49,214892,0.0-49.0,"""",jspsych/neutralFaces/BF32NES.JPG,"""",4,Cue,Practice,null,16,"""","""","""","""","""","""","""","""","""",4/19/2021 0:35,71.238.78.78,Mozilla/5.0 (Macintosh; Intel Mac OS X 10.15; rv:87.0) Gecko/20100101 Firefox/87.0,Macintosh,Firefox,87,OS X,10.15
19,1,null,"""",image-keyboard-response,50,214994,0.0-50.0,"""",jspsych/neutralFaces/AF03NES.JPG,"""",4,backwardMask,Practice,null,100,"""","""","""","""","""","""","""","""","""",4/19/2021 0:35,71.238.78.78,Mozilla/5.0 (Macintosh; Intel Mac OS X 10.15; rv:87.0) Gecko/20100101 Firefox/87.0,Macintosh,Firefox,87,OS X,10.15
19,1,null,"""",html-keyboard-response,51,215996,0.0-51.0,"""","<div style=""font-size:60px;"">+</div>","""",4,fixationBtwnNeutralMaskAndPrompt,Practice,null,1000,"""","""","""","""","""","""","""","""","""",4/19/2021 0:35,71.238.78.78,Mozilla/5.0 (Macintosh; Intel Mac OS X 10.15; rv:87.0) Gecko/20100101 Firefox/87.0,Macintosh,Firefox,87,OS X,10.15
19,1,2695,"""",html-button-response,52,218692,0.0-52.0,"""","<img src='jspsych/CFDfaces/CFD-LM-233-171-N.jpg'height=""250px""></br><b>Patrick</b>",0,4,IntactOrRearranged,Practice,"""","""","""","""",CFD-LM-233-171-N.jpg,Patrick,0,"""","""",0,"""",4/19/2021 0:35,71.238.78.78,Mozilla/5.0 (Macintosh; Intel Mac OS X 10.15; rv:87.0) Gecko/20100101 Firefox/87.0,Macintosh,Firefox,87,OS X,10.15
19,1,3372,"""",html-slider-response,53,222065,0.0-53.0,"""","<img src='jspsych/CFDfaces/CFD-LM-233-171-N.jpg'height=""250px""></br><b>Patrick</b>","""",4,ConfidenceQuery,Practice,"""","""","""","""",CFD-LM-225-130-N.jpg,Timothy,0,0,100,"""","""",4/19/2021 0:35,71.238.78.78,Mozilla/5.0 (Macintosh; Intel Mac OS X 10.15; rv:87.0) Gecko/20100101 Firefox/87.0,Macintosh,Firefox,87,OS X,10.15
19,1,1540,"""",html-button-response,54,223607,0.0-54.0,"""",You are Correct. You called an Intact Pair Intact,0,4,feedback,Practice,"""","""","""","""","""","""","""","""","""","""","""",4/19/2021 0:35,71.238.78.78,Mozilla/5.0 (Macintosh; Intel Mac OS X 10.15; rv:87.0) Gecko/20100101 Firefox/87.0,Macintosh,Firefox,87,OS X,10.15
19,1,null,"""",html-keyboard-response,55,224611,0.0-55.0,"""","<div style=""font-size:60px;"">+</div>","""",5,ITI,Practice,null,1000,"""","""","""","""","""","""","""","""","""",4/19/2021 0:35,71.238.78.78,Mozilla/5.0 (Macintosh; Intel Mac OS X 10.15; rv:87.0) Gecko/20100101 Firefox/87.0,Macintosh,Firefox,87,OS X,10.15
19,1,null,"""",image-keyboard-response,56,224863,0.0-56.0,"""",jspsych/scrambledDisgustFaces/scrambledBM02DIS.JPG,"""",5,forwardMask,Practice,null,250,"""",d,"""","""","""","""","""","""","""",4/19/2021 0:35,71.238.78.78,Mozilla/5.0 (Macintosh; Intel Mac OS X 10.15; rv:87.0) Gecko/20100101 Firefox/87.0,Macintosh,Firefox,87,OS X,10.15
19,1,null,"""",image-keyboard-response,57,224884,0.0-57.0,"""",jspsych/disgustFaces/BM03DIS.JPG,"""",5,Cue,Practice,null,16,"""","""","""","""","""","""","""","""","""",4/19/2021 0:35,71.238.78.78,Mozilla/5.0 (Macintosh; Intel Mac OS X 10.15; rv:87.0) Gecko/20100101 Firefox/87.0,Macintosh,Firefox,87,OS X,10.15
19,1,null,"""",image-keyboard-response,58,224988,0.0-58.0,"""",jspsych/neutralFaces/AM26NES.JPG,"""",5,backwardMask,Practice,null,100,"""","""","""","""","""","""","""","""","""",4/19/2021 0:35,71.238.78.78,Mozilla/5.0 (Macintosh; Intel Mac OS X 10.15; rv:87.0) Gecko/20100101 Firefox/87.0,Macintosh,Firefox,87,OS X,10.15
19,1,null,"""",html-keyboard-response,59,225990,0.0-59.0,"""","<div style=""font-size:60px;"">+</div>","""",5,fixationBtwnNeutralMaskAndPrompt,Practice,null,1000,"""","""","""","""","""","""","""","""","""",4/19/2021 0:35,71.238.78.78,Mozilla/5.0 (Macintosh; Intel Mac OS X 10.15; rv:87.0) Gecko/20100101 Firefox/87.0,Macintosh,Firefox,87,OS X,10.15
19,1,3826,"""",html-button-response,60,229817,0.0-60.0,"""","<img src='jspsych/CFDfaces/CFD-LM-248-089-N.jpg'height=""250px""></br><b>Samuel</b>",1,5,IntactOrRearranged,Practice,"""","""","""","""",CFD-LM-248-089-N.jpg,Samuel,0,"""","""",1,"""",4/19/2021 0:35,71.238.78.78,Mozilla/5.0 (Macintosh; Intel Mac OS X 10.15; rv:87.0) Gecko/20100101 Firefox/87.0,Macintosh,Firefox,87,OS X,10.15
19,1,3080,"""",html-slider-response,61,232899,0.0-61.0,"""","<img src='jspsych/CFDfaces/CFD-LM-248-089-N.jpg'height=""250px""></br><b>Samuel</b>","""",5,ConfidenceQuery,Practice,"""","""","""","""",CFD-LM-225-130-N.jpg,Timothy,0,0,50,"""","""",4/19/2021 0:35,71.238.78.78,Mozilla/5.0 (Macintosh; Intel Mac OS X 10.15; rv:87.0) Gecko/20100101 Firefox/87.0,Macintosh,Firefox,87,OS X,10.15
19,1,3250,"""",html-button-response,62,236152,0.0-62.0,"""",You are Incorrect. You Called an Intact Pair Rearranged,0,5,feedback,Practice,"""","""","""","""","""","""","""","""","""","""","""",4/19/2021 0:35,71.238.78.78,Mozilla/5.0 (Macintosh; Intel Mac OS X 10.15; rv:87.0) Gecko/20100101 Firefox/87.0,Macintosh,Firefox,87,OS X,10.15
19,1,null,"""",html-keyboard-response,63,237160,0.0-63.0,"""","<div style=""font-size:60px;"">+</div>","""",6,ITI,Practice,null,1000,"""","""","""","""","""","""","""","""","""",4/19/2021 0:35,71.238.78.78,Mozilla/5.0 (Macintosh; Intel Mac OS X 10.15; rv:87.0) Gecko/20100101 Firefox/87.0,Macintosh,Firefox,87,OS X,10.15
19,1,null,"""",image-keyboard-response,64,237411,0.0-64.0,"""",jspsych/scrambledDisgustFaces/scrambledAF25DIS.JPG,"""",6,forwardMask,Practice,null,250,"""",d,"""","""","""","""","""","""","""",4/19/2021 0:35,71.238.78.78,Mozilla/5.0 (Macintosh; Intel Mac OS X 10.15; rv:87.0) Gecko/20100101 Firefox/87.0,Macintosh,Firefox,87,OS X,10.15
19,1,null,"""",image-keyboard-response,65,237431,0.0-65.0,"""",jspsych/disgustFaces/AF25DIS.JPG,"""",6,Cue,Practice,null,16,"""","""","""","""","""","""","""","""","""",4/19/2021 0:35,71.238.78.78,Mozilla/5.0 (Macintosh; Intel Mac OS X 10.15; rv:87.0) Gecko/20100101 Firefox/87.0,Macintosh,Firefox,87,OS X,10.15
19,1,null,"""",image-keyboard-response,66,237536,0.0-66.0,"""",jspsych/neutralFaces/AF35NES.JPG,"""",6,backwardMask,Practice,null,100,"""","""","""","""","""","""","""","""","""",4/19/2021 0:35,71.238.78.78,Mozilla/5.0 (Macintosh; Intel Mac OS X 10.15; rv:87.0) Gecko/20100101 Firefox/87.0,Macintosh,Firefox,87,OS X,10.15
19,1,null,"""",html-keyboard-response,67,238540,0.0-67.0,"""","<div style=""font-size:60px;"">+</div>","""",6,fixationBtwnNeutralMaskAndPrompt,Practice,null,1000,"""","""","""","""","""","""","""","""","""",4/19/2021 0:35,71.238.78.78,Mozilla/5.0 (Macintosh; Intel Mac OS X 10.15; rv:87.0) Gecko/20100101 Firefox/87.0,Macintosh,Firefox,87,OS X,10.15
19,1,1874,"""",html-button-response,68,240415,0.0-68.0,"""","<img src='jspsych/CFDfaces/CFD-WF-204-038-N.jpg'height=""250px""></br><b>Shannon</b>",0,6,IntactOrRearranged,Practice,"""","""","""","""",CFD-WF-204-038-N.jpg,Shannon,0,"""","""",0,"""",4/19/2021 0:35,71.238.78.78,Mozilla/5.0 (Macintosh; Intel Mac OS X 10.15; rv:87.0) Gecko/20100101 Firefox/87.0,Macintosh,Firefox,87,OS X,10.15
19,1,4633,"""",html-slider-response,69,245050,0.0-69.0,"""","<img src='jspsych/CFDfaces/CFD-WF-204-038-N.jpg'height=""250px""></br><b>Shannon</b>","""",6,ConfidenceQuery,Practice,"""","""","""","""",CFD-LM-225-130-N.jpg,Timothy,0,0,100,"""","""",4/19/2021 0:35,71.238.78.78,Mozilla/5.0 (Macintosh; Intel Mac OS X 10.15; rv:87.0) Gecko/20100101 Firefox/87.0,Macintosh,Firefox,87,OS X,10.15
19,1,1303,"""",html-button-response,70,246354,0.0-70.0,"""",You are Correct. You called an Intact Pair Intact,0,6,feedback,Practice,"""","""","""","""","""","""","""","""","""","""","""",4/19/2021 0:35,71.238.78.78,Mozilla/5.0 (Macintosh; Intel Mac OS X 10.15; rv:87.0) Gecko/20100101 Firefox/87.0,Macintosh,Firefox,87,OS X,10.15
19,1,null,"""",html-keyboard-response,71,247355,0.0-71.0,"""","<div style=""font-size:60px;"">+</div>","""",7,ITI,Practice,null,1000,"""","""","""","""","""","""","""","""","""",4/19/2021 0:35,71.238.78.78,Mozilla/5.0 (Macintosh; Intel Mac OS X 10.15; rv:87.0) Gecko/20100101 Firefox/87.0,Macintosh,Firefox,87,OS X,10.15
19,1,null,"""",image-keyboard-response,72,247611,0.0-72.0,"""",jspsych/scrambledNeutralFaces/scrambledAM32NES.JPG,"""",7,forwardMask,Practice,null,250,"""",n,"""","""","""","""","""","""","""",4/19/2021 0:35,71.238.78.78,Mozilla/5.0 (Macintosh; Intel Mac OS X 10.15; rv:87.0) Gecko/20100101 Firefox/87.0,Macintosh,Firefox,87,OS X,10.15
19,1,null,"""",image-keyboard-response,73,247631,0.0-73.0,"""",jspsych/neutralFaces/AM32NES.JPG,"""",7,Cue,Practice,null,16,"""","""","""","""","""","""","""","""","""",4/19/2021 0:35,71.238.78.78,Mozilla/5.0 (Macintosh; Intel Mac OS X 10.15; rv:87.0) Gecko/20100101 Firefox/87.0,Macintosh,Firefox,87,OS X,10.15
19,1,null,"""",image-keyboard-response,74,247736,0.0-74.0,"""",jspsych/neutralFaces/BM28NES.JPG,"""",7,backwardMask,Practice,null,100,"""","""","""","""","""","""","""","""","""",4/19/2021 0:35,71.238.78.78,Mozilla/5.0 (Macintosh; Intel Mac OS X 10.15; rv:87.0) Gecko/20100101 Firefox/87.0,Macintosh,Firefox,87,OS X,10.15
19,1,null,"""",html-keyboard-response,75,248740,0.0-75.0,"""","<div style=""font-size:60px;"">+</div>","""",7,fixationBtwnNeutralMaskAndPrompt,Practice,null,1000,"""","""","""","""","""","""","""","""","""",4/19/2021 0:35,71.238.78.78,Mozilla/5.0 (Macintosh; Intel Mac OS X 10.15; rv:87.0) Gecko/20100101 Firefox/87.0,Macintosh,Firefox,87,OS X,10.15
19,1,2823,"""",html-button-response,76,251564,0.0-76.0,"""","<img src='jspsych/CFDfaces/CFD-WF-217-085-N.jpg'height=""250px""></br><b>Katelyn</b>",1,7,IntactOrRearranged,Practice,"""","""","""","""",CFD-WF-217-085-N.jpg,Katelyn,1,"""","""",1,"""",4/19/2021 0:35,71.238.78.78,Mozilla/5.0 (Macintosh; Intel Mac OS X 10.15; rv:87.0) Gecko/20100101 Firefox/87.0,Macintosh,Firefox,87,OS X,10.15
19,1,3394,"""",html-slider-response,77,254962,0.0-77.0,"""","<img src='jspsych/CFDfaces/CFD-WF-217-085-N.jpg'height=""250px""></br><b>Katelyn</b>","""",7,ConfidenceQuery,Practice,"""","""","""","""",CFD-LM-225-130-N.jpg,Timothy,1,0,100,"""","""",4/19/2021 0:35,71.238.78.78,Mozilla/5.0 (Macintosh; Intel Mac OS X 10.15; rv:87.0) Gecko/20100101 Firefox/87.0,Macintosh,Firefox,87,OS X,10.15
19,1,1776,"""",html-button-response,78,256738,0.0-78.0,"""",You are Correct. You Called A Rearranged Pair Rearranged,0,7,feedback,Practice,"""","""","""","""","""","""","""","""","""","""","""",4/19/2021 0:35,71.238.78.78,Mozilla/5.0 (Macintosh; Intel Mac OS X 10.15; rv:87.0) Gecko/20100101 Firefox/87.0,Macintosh,Firefox,87,OS X,10.15
19,1,null,"""",html-keyboard-response,79,257741,0.0-79.0,"""","<div style=""font-size:60px;"">+</div>","""",8,ITI,Practice,null,1000,"""","""","""","""","""","""","""","""","""",4/19/2021 0:35,71.238.78.78,Mozilla/5.0 (Macintosh; Intel Mac OS X 10.15; rv:87.0) Gecko/20100101 Firefox/87.0,Macintosh,Firefox,87,OS X,10.15
19,1,null,"""",image-keyboard-response,80,257996,0.0-80.0,"""",jspsych/scrambledNeutralFaces/scrambledBM10NES.JPG,"""",8,forwardMask,Practice,null,250,"""",n,"""","""","""","""","""","""","""",4/19/2021 0:35,71.238.78.78,Mozilla/5.0 (Macintosh; Intel Mac OS X 10.15; rv:87.0) Gecko/20100101 Firefox/87.0,Macintosh,Firefox,87,OS X,10.15
19,1,null,"""",image-keyboard-response,81,258017,0.0-81.0,"""",jspsych/neutralFaces/BM10NES.JPG,"""",8,Cue,Practice,null,16,"""","""","""","""","""","""","""","""","""",4/19/2021 0:35,71.238.78.78,Mozilla/5.0 (Macintosh; Intel Mac OS X 10.15; rv:87.0) Gecko/20100101 Firefox/87.0,Macintosh,Firefox,87,OS X,10.15
19,1,null,"""",image-keyboard-response,82,258119,0.0-82.0,"""",jspsych/neutralFaces/AM10NES.JPG,"""",8,backwardMask,Practice,null,100,"""","""","""","""","""","""","""","""","""",4/19/2021 0:35,71.238.78.78,Mozilla/5.0 (Macintosh; Intel Mac OS X 10.15; rv:87.0) Gecko/20100101 Firefox/87.0,Macintosh,Firefox,87,OS X,10.15
19,1,null,"""",html-keyboard-response,83,259121,0.0-83.0,"""","<div style=""font-size:60px;"">+</div>","""",8,fixationBtwnNeutralMaskAndPrompt,Practice,null,1000,"""","""","""","""","""","""","""","""","""",4/19/2021 0:35,71.238.78.78,Mozilla/5.0 (Macintosh; Intel Mac OS X 10.15; rv:87.0) Gecko/20100101 Firefox/87.0,Macintosh,Firefox,87,OS X,10.15
19,1,4873,"""",html-button-response,84,263994,0.0-84.0,"""","<img src='jspsych/CFDfaces/CFD-WF-223-133-N.jpg'height=""250px""></br><b>Cassandra</b>",0,8,IntactOrRearranged,Practice,"""","""","""","""",CFD-WF-223-133-N.jpg,Cassandra,1,"""","""",0,"""",4/19/2021 0:35,71.238.78.78,Mozilla/5.0 (Macintosh; Intel Mac OS X 10.15; rv:87.0) Gecko/20100101 Firefox/87.0,Macintosh,Firefox,87,OS X,10.15
19,1,3383,"""",html-slider-response,85,267380,0.0-85.0,"""","<img src='jspsych/CFDfaces/CFD-WF-223-133-N.jpg'height=""250px""></br><b>Cassandra</b>","""",8,ConfidenceQuery,Practice,"""","""","""","""",CFD-LM-225-130-N.jpg,Timothy,1,0,51,"""","""",4/19/2021 0:35,71.238.78.78,Mozilla/5.0 (Macintosh; Intel Mac OS X 10.15; rv:87.0) Gecko/20100101 Firefox/87.0,Macintosh,Firefox,87,OS X,10.15
19,1,3126,"""",html-button-response,86,270508,0.0-86.0,"""",You are Incorrect. You called a Rearranged Pair Intact,0,8,feedback,Practice,"""","""","""","""","""","""","""","""","""","""","""",4/19/2021 0:35,71.238.78.78,Mozilla/5.0 (Macintosh; Intel Mac OS X 10.15; rv:87.0) Gecko/20100101 Firefox/87.0,Macintosh,Firefox,87,OS X,10.15
19,1,6688,"""",image-button-response,87,277203,0.0-87.0,"""",directionsMemoryAssociation3.JPG,0,128,DirectionsBeforeActualTEst,Break,"""","""","""","""","""","""","""","""","""","""","""",4/19/2021 0:35,71.238.78.78,Mozilla/5.0 (Macintosh; Intel Mac OS X 10.15; rv:87.0) Gecko/20100101 Firefox/87.0,Macintosh,Firefox,87,OS X,10.15
19,1,4619,"""",image-button-response,88,281826,0.0-88.0,"""",directionsForTest2.JPG,0,1,directionsForTest2,break,"""","""","""","""","""","""","""","""","""","""","""",4/19/2021 0:35,71.238.78.78,Mozilla/5.0 (Macintosh; Intel Mac OS X 10.15; rv:87.0) Gecko/20100101 Firefox/87.0,Macintosh,Firefox,87,OS X,10.15
19,1,16546,"""",html-button-response,89,298374,0.0-89.0,"""","<p>You will be asked to memorize and then recall four sets of face-name pairs. </p> <p> Each set will have 32 pairs. </p> <p>After the fourth set, there will be a brief follow-up experiment (<40 min alltogether)</p>",0,"""","""","""","""","""","""","""","""","""","""","""","""","""","""",4/19/2021 0:35,71.238.78.78,Mozilla/5.0 (Macintosh; Intel Mac OS X 10.15; rv:87.0) Gecko/20100101 Firefox/87.0,Macintosh,Firefox,87,OS X,10.15
19,1,3035,"""",html-keyboard-response,90,303377,0.0-90.0,"""","<img src='jspsych/CFDfaces/CFD-AF-226-251-N.jpg' height=""250px""></br><b>Samantha</b>","""",256,IntactFace,Memorization,70,5000,f,"""",CFD-WM-022-001-N.jpg,Steven,0,"""","""","""",1,4/19/2021 0:35,71.238.78.78,Mozilla/5.0 (Macintosh; Intel Mac OS X 10.15; rv:87.0) Gecko/20100101 Firefox/87.0,Macintosh,Firefox,87,OS X,10.15
19,1,null,"""",html-keyboard-response,91,303883,0.0-91.0,"""","<div style=""font-size:60px;"">+</div>","""",256,fixation,Memorization,null,500,"""","""","""","""","""","""","""","""",1,4/19/2021 0:35,71.238.78.78,Mozilla/5.0 (Macintosh; Intel Mac OS X 10.15; rv:87.0) Gecko/20100101 Firefox/87.0,Macintosh,Firefox,87,OS X,10.15
19,1,1837,"""",html-keyboard-response,92,308884,0.0-92.0,"""","<img src='jspsych/CFDfaces/CFD-AM-238-269-N.jpg' height=""250px""></br><b>Christian</b>","""",256,IntactFace,Memorization,78,5000,n,"""",CFD-AM-246-184-N.jpg,Jesse,0,"""","""","""",1,4/19/2021 0:35,71.238.78.78,Mozilla/5.0 (Macintosh; Intel Mac OS X 10.15; rv:87.0) Gecko/20100101 Firefox/87.0,Macintosh,Firefox,87,OS X,10.15
19,1,null,"""",html-keyboard-response,93,309387,0.0-93.0,"""","<div style=""font-size:60px;"">+</div>","""",256,fixation,Memorization,null,500,"""","""","""","""","""","""","""","""",1,4/19/2021 0:35,71.238.78.78,Mozilla/5.0 (Macintosh; Intel Mac OS X 10.15; rv:87.0) Gecko/20100101 Firefox/87.0,Macintosh,Firefox,87,OS X,10.15
19,1,2125,"""",html-keyboard-response,94,314390,0.0-94.0,"""","<img src='jspsych/CFDfaces/CFD-BF-218-207-N.jpg' height=""250px""></br><b>Ashley</b>","""",256,IntactFace,Memorization,70,5000,f,"""",CFD-LF-203-066-N.jpg,Jordan,0,"""","""","""",1,4/19/2021 0:35,71.238.78.78,Mozilla/5.0 (Macintosh; Intel Mac OS X 10.15; rv:87.0) Gecko/20100101 Firefox/87.0,Macintosh,Firefox,87,OS X,10.15
19,1,null,"""",html-keyboard-response,95,314893,0.0-95.0,"""","<div style=""font-size:60px;"">+</div>","""",256,fixation,Memorization,null,500,"""","""","""","""","""","""","""","""",1,4/19/2021 0:35,71.238.78.78,Mozilla/5.0 (Macintosh; Intel Mac OS X 10.15; rv:87.0) Gecko/20100101 Firefox/87.0,Macintosh,Firefox,87,OS X,10.15
19,1,1979,"""",html-keyboard-response,96,319896,0.0-96.0,"""","<img src='jspsych/CFDfaces/CFD-WM-232-070-N.jpg' height=""250px""></br><b>James</b>","""",256,IntactFace,Memorization,70,5000,f,"""",CFD-LM-209-111-N.jpg,Austin,0,"""","""","""",1,4/19/2021 0:35,71.238.78.78,Mozilla/5.0 (Macintosh; Intel Mac OS X 10.15; rv:87.0) Gecko/20100101 Firefox/87.0,Macintosh,Firefox,87,OS X,10.15
19,1,null,"""",html-keyboard-response,97,320399,0.0-97.0,"""","<div style=""font-size:60px;"">+</div>","""",256,fixation,Memorization,null,500,"""","""","""","""","""","""","""","""",1,4/19/2021 0:35,71.238.78.78,Mozilla/5.0 (Macintosh; Intel Mac OS X 10.15; rv:87.0) Gecko/20100101 Firefox/87.0,Macintosh,Firefox,87,OS X,10.15
19,1,1842,"""",html-keyboard-response,98,325399,0.0-98.0,"""","<img src='jspsych/CFDfaces/CFD-BF-047-003-N.jpg' height=""250px""></br><b>Kayla</b>","""",256,IntactFace,Memorization,78,5000,n,"""",CFD-WF-218-087-N.jpg,Jenna,0,"""","""","""",1,4/19/2021 0:35,71.238.78.78,Mozilla/5.0 (Macintosh; Intel Mac OS X 10.15; rv:87.0) Gecko/20100101 Firefox/87.0,Macintosh,Firefox,87,OS X,10.15
19,1,null,"""",html-keyboard-response,99,325904,0.0-99.0,"""","<div style=""font-size:60px;"">+</div>","""",256,fixation,Memorization,null,500,"""","""","""","""","""","""","""","""",1,4/19/2021 0:35,71.238.78.78,Mozilla/5.0 (Macintosh; Intel Mac OS X 10.15; rv:87.0) Gecko/20100101 Firefox/87.0,Macintosh,Firefox,87,OS X,10.15
19,1,2184,"""",html-keyboard-response,100,330906,0.0-100.0,"""","<img src='jspsych/CFDfaces/CFD-WM-207-048-N.jpg' height=""250px""></br><b>Brian</b>","""",256,IntactFace,Memorization,70,5000,f,"""",CFD-WF-003-003-N.jpg,Jasmine,0,"""","""","""",1,4/19/2021 0:35,71.238.78.78,Mozilla/5.0 (Macintosh; Intel Mac OS X 10.15; rv:87.0) Gecko/20100101 Firefox/87.0,Macintosh,Firefox,87,OS X,10.15
19,1,null,"""",html-keyboard-response,101,331408,0.0-101.0,"""","<div style=""font-size:60px;"">+</div>","""",256,fixation,Memorization,null,500,"""","""","""","""","""","""","""","""",1,4/19/2021 0:35,71.238.78.78,Mozilla/5.0 (Macintosh; Intel Mac OS X 10.15; rv:87.0) Gecko/20100101 Firefox/87.0,Macintosh,Firefox,87,OS X,10.15
19,1,2850,"""",html-keyboard-response,102,336409,0.0-102.0,"""","<img src='jspsych/CFDfaces/CFD-LM-246-087-N.jpg' height=""250px""></br><b>Peter</b>","""",256,IntactFace,Memorization,78,5000,n,"""",CFD-LF-244-096-N.jpg,Heather,0,"""","""","""",1,4/19/2021 0:35,71.238.78.78,Mozilla/5.0 (Macintosh; Intel Mac OS X 10.15; rv:87.0) Gecko/20100101 Firefox/87.0,Macintosh,Firefox,87,OS X,10.15
19,1,null,"""",html-keyboard-response,103,336914,0.0-103.0,"""","<div style=""font-size:60px;"">+</div>","""",256,fixation,Memorization,null,500,"""","""","""","""","""","""","""","""",1,4/19/2021 0:35,71.238.78.78,Mozilla/5.0 (Macintosh; Intel Mac OS X 10.15; rv:87.0) Gecko/20100101 Firefox/87.0,Macintosh,Firefox,87,OS X,10.15
19,1,2239,"""",html-keyboard-response,104,341915,0.0-104.0,"""","<img src='jspsych/CFDfaces/CFD-AF-200-228-N.jpg' height=""250px""></br><b>Vanessa</b>","""",256,IntactFace,Memorization,70,5000,f,"""",CFD-AF-233-190-N.jpg,Angela,0,"""","""","""",1,4/19/2021 0:35,71.238.78.78,Mozilla/5.0 (Macintosh; Intel Mac OS X 10.15; rv:87.0) Gecko/20100101 Firefox/87.0,Macintosh,Firefox,87,OS X,10.15
19,1,null,"""",html-keyboard-response,105,342418,0.0-105.0,"""","<div style=""font-size:60px;"">+</div>","""",256,fixation,Memorization,null,500,"""","""","""","""","""","""","""","""",1,4/19/2021 0:35,71.238.78.78,Mozilla/5.0 (Macintosh; Intel Mac OS X 10.15; rv:87.0) Gecko/20100101 Firefox/87.0,Macintosh,Firefox,87,OS X,10.15
19,1,2056,"""",html-keyboard-response,106,347419,0.0-106.0,"""","<img src='jspsych/CFDfaces/CFD-WF-220-101-N.jpg' height=""250px""></br><b>Julie</b>","""",256,IntactFace,Memorization,70,5000,f,"""",CFD-WF-200-099-N.jpg,Laura,0,"""","""","""",1,4/19/2021 0:35,71.238.78.78,Mozilla/5.0 (Macintosh; Intel Mac OS X 10.15; rv:87.0) Gecko/20100101 Firefox/87.0,Macintosh,Firefox,87,OS X,10.15
19,1,null,"""",html-keyboard-response,107,347921,0.0-107.0,"""","<div style=""font-size:60px;"">+</div>","""",256,fixation,Memorization,null,500,"""","""","""","""","""","""","""","""",1,4/19/2021 0:35,71.238.78.78,Mozilla/5.0 (Macintosh; Intel Mac OS X 10.15; rv:87.0) Gecko/20100101 Firefox/87.0,Macintosh,Firefox,87,OS X,10.15
19,1,2441,"""",html-keyboard-response,108,352922,0.0-108.0,"""","<img src='jspsych/CFDfaces/CFD-WM-212-097-N.jpg' height=""250px""></br><b>Jason</b>","""",256,IntactFace,Memorization,70,5000,f,"""",CFD-AF-239-171-N.jpg,Rebecca,0,"""","""","""",1,4/19/2021 0:35,71.238.78.78,Mozilla/5.0 (Macintosh; Intel Mac OS X 10.15; rv:87.0) Gecko/20100101 Firefox/87.0,Macintosh,Firefox,87,OS X,10.15
19,1,null,"""",html-keyboard-response,109,353425,0.0-109.0,"""","<div style=""font-size:60px;"">+</div>","""",256,fixation,Memorization,null,500,"""","""","""","""","""","""","""","""",1,4/19/2021 0:35,71.238.78.78,Mozilla/5.0 (Macintosh; Intel Mac OS X 10.15; rv:87.0) Gecko/20100101 Firefox/87.0,Macintosh,Firefox,87,OS X,10.15
19,1,3224,"""",html-keyboard-response,110,358431,0.0-110.0,"""","<img src='jspsych/CFDfaces/CFD-WF-019-005-N.jpg' height=""250px""></br><b>Amanda</b>","""",256,IntactFace,Memorization,70,5000,f,"""",CFD-LF-218-072-N.jpg,Taylor,0,"""","""","""",1,4/19/2021 0:35,71.238.78.78,Mozilla/5.0 (Macintosh; Intel Mac OS X 10.15; rv:87.0) Gecko/20100101 Firefox/87.0,Macintosh,Firefox,87,OS X,10.15
19,1,null,"""",html-keyboard-response,111,358933,0.0-111.0,"""","<div style=""font-size:60px;"">+</div>","""",256,fixation,Memorization,null,500,"""","""","""","""","""","""","""","""",1,4/19/2021 0:35,71.238.78.78,Mozilla/5.0 (Macintosh; Intel Mac OS X 10.15; rv:87.0) Gecko/20100101 Firefox/87.0,Macintosh,Firefox,87,OS X,10.15
19,1,2604,"""",html-keyboard-response,112,363937,0.0-112.0,"""","<img src='jspsych/CFDfaces/CFD-BF-212-315-N.jpg' height=""250px""></br><b>Stephanie</b>","""",256,IntactFace,Memorization,78,5000,n,"""",CFD-BM-203-001-N.jpg,Ryan,0,"""","""","""",1,4/19/2021 0:35,71.238.78.78,Mozilla/5.0 (Macintosh; Intel Mac OS X 10.15; rv:87.0) Gecko/20100101 Firefox/87.0,Macintosh,Firefox,87,OS X,10.15
19,1,null,"""",html-keyboard-response,113,364443,0.0-113.0,"""","<div style=""font-size:60px;"">+</div>","""",256,fixation,Memorization,null,500,"""","""","""","""","""","""","""","""",1,4/19/2021 0:35,71.238.78.78,Mozilla/5.0 (Macintosh; Intel Mac OS X 10.15; rv:87.0) Gecko/20100101 Firefox/87.0,Macintosh,Firefox,87,OS X,10.15
19,1,2295,"""",html-keyboard-response,114,369447,0.0-114.0,"""","<img src='jspsych/CFDfaces/CFD-LM-223-175-N.jpg' height=""250px""></br><b>Joshua</b>","""",256,IntactFace,Memorization,78,5000,n,"""",CFD-WF-029-002-N.jpg,Amy,0,"""","""","""",1,4/19/2021 0:35,71.238.78.78,Mozilla/5.0 (Macintosh; Intel Mac OS X 10.15; rv:87.0) Gecko/20100101 Firefox/87.0,Macintosh,Firefox,87,OS X,10.15
19,1,null,"""",html-keyboard-response,115,369948,0.0-115.0,"""","<div style=""font-size:60px;"">+</div>","""",256,fixation,Memorization,null,500,"""","""","""","""","""","""","""","""",1,4/19/2021 0:35,71.238.78.78,Mozilla/5.0 (Macintosh; Intel Mac OS X 10.15; rv:87.0) Gecko/20100101 Firefox/87.0,Macintosh,Firefox,87,OS X,10.15
19,1,1959,"""",html-keyboard-response,116,374950,0.0-116.0,"""","<img src='jspsych/CFDfaces/CFD-LM-213-061-N.jpg' height=""250px""></br><b>Richard</b>","""",256,IntactFace,Memorization,70,5000,f,"""",CFD-AM-234-355-N.jpg,Travis,0,"""","""","""",1,4/19/2021 0:35,71.238.78.78,Mozilla/5.0 (Macintosh; Intel Mac OS X 10.15; rv:87.0) Gecko/20100101 Firefox/87.0,Macintosh,Firefox,87,OS X,10.15
19,1,null,"""",html-keyboard-response,117,375455,0.0-117.0,"""","<div style=""font-size:60px;"">+</div>","""",256,fixation,Memorization,null,500,"""","""","""","""","""","""","""","""",1,4/19/2021 0:35,71.238.78.78,Mozilla/5.0 (Macintosh; Intel Mac OS X 10.15; rv:87.0) Gecko/20100101 Firefox/87.0,Macintosh,Firefox,87,OS X,10.15
19,1,2332,"""",html-keyboard-response,118,380456,0.0-118.0,"""","<img src='jspsych/CFDfaces/CFD-WF-006-002-N.jpg' height=""250px""></br><b>Elizabeth</b>","""",256,IntactFace,Memorization,70,5000,f,"""",CFD-BM-011-016-N.jpg,Jeremy,0,"""","""","""",1,4/19/2021 0:35,71.238.78.78,Mozilla/5.0 (Macintosh; Intel Mac OS X 10.15; rv:87.0) Gecko/20100101 Firefox/87.0,Macintosh,Firefox,87,OS X,10.15
19,1,null,"""",html-keyboard-response,119,380956,0.0-119.0,"""","<div style=""font-size:60px;"">+</div>","""",256,fixation,Memorization,null,500,"""","""","""","""","""","""","""","""",1,4/19/2021 0:35,71.238.78.78,Mozilla/5.0 (Macintosh; Intel Mac OS X 10.15; rv:87.0) Gecko/20100101 Firefox/87.0,Macintosh,Firefox,87,OS X,10.15
19,1,2188,"""",html-keyboard-response,120,385959,0.0-120.0,"""","<img src='jspsych/CFDfaces/CFD-AF-240-206-N.jpg' height=""250px""></br><b>Michelle</b>","""",256,IntactFace,Memorization,70,5000,f,"""",CFD-LM-239-075-N.jpg,Luis,0,"""","""","""",1,4/19/2021 0:35,71.238.78.78,Mozilla/5.0 (Macintosh; Intel Mac OS X 10.15; rv:87.0) Gecko/20100101 Firefox/87.0,Macintosh,Firefox,87,OS X,10.15
19,1,null,"""",html-keyboard-response,121,386461,0.0-121.0,"""","<div style=""font-size:60px;"">+</div>","""",256,fixation,Memorization,null,500,"""","""","""","""","""","""","""","""",1,4/19/2021 0:35,71.238.78.78,Mozilla/5.0 (Macintosh; Intel Mac OS X 10.15; rv:87.0) Gecko/20100101 Firefox/87.0,Macintosh,Firefox,87,OS X,10.15
19,1,1918,"""",html-keyboard-response,122,391463,0.0-122.0,"""","<img src='jspsych/CFDfaces/CFD-WM-011-002-N.jpg' height=""250px""></br><b>Daniel</b>","""",256,IntactFace,Memorization,70,5000,f,"""",CFD-LM-225-130-N.jpg,Cameron,0,"""","""","""",1,4/19/2021 0:35,71.238.78.78,Mozilla/5.0 (Macintosh; Intel Mac OS X 10.15; rv:87.0) Gecko/20100101 Firefox/87.0,Macintosh,Firefox,87,OS X,10.15
19,1,null,"""",html-keyboard-response,123,391967,0.0-123.0,"""","<div style=""font-size:60px;"">+</div>","""",256,fixation,Memorization,null,500,"""","""","""","""","""","""","""","""",1,4/19/2021 0:35,71.238.78.78,Mozilla/5.0 (Macintosh; Intel Mac OS X 10.15; rv:87.0) Gecko/20100101 Firefox/87.0,Macintosh,Firefox,87,OS X,10.15
19,1,1771,"""",html-keyboard-response,124,396969,0.0-124.0,"""","<img src='jspsych/CFDfaces/CFD-AF-230-193-N.jpg' height=""250px""></br><b>Christina</b>","""",256,IntactFace,Memorization,70,5000,f,"""",CFD-WM-222-057-N.jpg,Justin,0,"""","""","""",1,4/19/2021 0:35,71.238.78.78,Mozilla/5.0 (Macintosh; Intel Mac OS X 10.15; rv:87.0) Gecko/20100101 Firefox/87.0,Macintosh,Firefox,87,OS X,10.15
19,1,null,"""",html-keyboard-response,125,397470,0.0-125.0,"""","<div style=""font-size:60px;"">+</div>","""",256,fixation,Memorization,null,500,"""","""","""","""","""","""","""","""",1,4/19/2021 0:35,71.238.78.78,Mozilla/5.0 (Macintosh; Intel Mac OS X 10.15; rv:87.0) Gecko/20100101 Firefox/87.0,Macintosh,Firefox,87,OS X,10.15
19,1,2491,"""",html-keyboard-response,126,402475,0.0-126.0,"""","<img src='jspsych/CFDfaces/CFD-WM-017-002-N.jpg' height=""250px""></br><b>Brandon</b>","""",256,IntactFace,Memorization,78,5000,n,"""",CFD-BF-021-013-N.jpg,Erin,0,"""","""","""",1,4/19/2021 0:35,71.238.78.78,Mozilla/5.0 (Macintosh; Intel Mac OS X 10.15; rv:87.0) Gecko/20100101 Firefox/87.0,Macintosh,Firefox,87,OS X,10.15
19,1,null,"""",html-keyboard-response,127,402977,0.0-127.0,"""","<div style=""font-size:60px;"">+</div>","""",256,fixation,Memorization,null,500,"""","""","""","""","""","""","""","""",1,4/19/2021 0:35,71.238.78.78,Mozilla/5.0 (Macintosh; Intel Mac OS X 10.15; rv:87.0) Gecko/20100101 Firefox/87.0,Macintosh,Firefox,87,OS X,10.15
19,1,2353,"""",html-keyboard-response,128,407981,0.0-128.0,"""","<img src='jspsych/CFDfaces/CFD-BF-019-001-N.jpg' height=""250px""></br><b>Brittany</b>","""",256,IntactFace,Memorization,78,5000,n,"""",CFD-LM-252-076-N.jpg,Vincent,0,"""","""","""",1,4/19/2021 0:35,71.238.78.78,Mozilla/5.0 (Macintosh; Intel Mac OS X 10.15; rv:87.0) Gecko/20100101 Firefox/87.0,Macintosh,Firefox,87,OS X,10.15
19,1,null,"""",html-keyboard-response,129,408483,0.0-129.0,"""","<div style=""font-size:60px;"">+</div>","""",256,fixation,Memorization,null,500,"""","""","""","""","""","""","""","""",1,4/19/2021 0:35,71.238.78.78,Mozilla/5.0 (Macintosh; Intel Mac OS X 10.15; rv:87.0) Gecko/20100101 Firefox/87.0,Macintosh,Firefox,87,OS X,10.15
19,1,1575,"""",html-keyboard-response,130,413487,0.0-130.0,"""","<img src='jspsych/CFDfaces/CFD-BF-039-031-N.jpg' height=""250px""></br><b>Emily</b>","""",256,IntactFace,Memorization,78,5000,n,"""",CFD-BF-201-080-N.jpg,Tiffany,0,"""","""","""",1,4/19/2021 0:35,71.238.78.78,Mozilla/5.0 (Macintosh; Intel Mac OS X 10.15; rv:87.0) Gecko/20100101 Firefox/87.0,Macintosh,Firefox,87,OS X,10.15
19,1,null,"""",html-keyboard-response,131,413989,0.0-131.0,"""","<div style=""font-size:60px;"">+</div>","""",256,fixation,Memorization,null,500,"""","""","""","""","""","""","""","""",1,4/19/2021 0:35,71.238.78.78,Mozilla/5.0 (Macintosh; Intel Mac OS X 10.15; rv:87.0) Gecko/20100101 Firefox/87.0,Macintosh,Firefox,87,OS X,10.15
19,1,1652,"""",html-keyboard-response,132,418993,0.0-132.0,"""","<img src='jspsych/CFDfaces/CFD-WF-038-021-N.jpg' height=""250px""></br><b>Meghan</b>","""",256,IntactFace,Memorization,70,5000,f,"""",CFD-LM-201-057-N.jpg,Mark,0,"""","""","""",1,4/19/2021 0:35,71.238.78.78,Mozilla/5.0 (Macintosh; Intel Mac OS X 10.15; rv:87.0) Gecko/20100101 Firefox/87.0,Macintosh,Firefox,87,OS X,10.15
19,1,null,"""",html-keyboard-response,133,419495,0.0-133.0,"""","<div style=""font-size:60px;"">+</div>","""",256,fixation,Memorization,null,500,"""","""","""","""","""","""","""","""",1,4/19/2021 0:35,71.238.78.78,Mozilla/5.0 (Macintosh; Intel Mac OS X 10.15; rv:87.0) Gecko/20100101 Firefox/87.0,Macintosh,Firefox,87,OS X,10.15
19,1,1413,"""",html-keyboard-response,134,424497,0.0-134.0,"""","<img src='jspsych/CFDfaces/CFD-WM-020-001-N.jpg' height=""250px""></br><b>Nicholas</b>","""",256,IntactFace,Memorization,70,5000,f,"""",CFD-BM-211-174-N.jpg,Sean,0,"""","""","""",1,4/19/2021 0:35,71.238.78.78,Mozilla/5.0 (Macintosh; Intel Mac OS X 10.15; rv:87.0) Gecko/20100101 Firefox/87.0,Macintosh,Firefox,87,OS X,10.15
19,1,null,"""",html-keyboard-response,135,425001,0.0-135.0,"""","<div style=""font-size:60px;"">+</div>","""",256,fixation,Memorization,null,500,"""","""","""","""","""","""","""","""",1,4/19/2021 0:35,71.238.78.78,Mozilla/5.0 (Macintosh; Intel Mac OS X 10.15; rv:87.0) Gecko/20100101 Firefox/87.0,Macintosh,Firefox,87,OS X,10.15
19,1,2202,"""",html-keyboard-response,136,430003,0.0-136.0,"""","<img src='jspsych/CFDfaces/CFD-AM-220-134-N.jpg' height=""250px""></br><b>Jeffrey</b>","""",256,IntactFace,Memorization,78,5000,n,"""",CFD-LF-201-035-N.jpg,Melissa,0,"""","""","""",1,4/19/2021 0:35,71.238.78.78,Mozilla/5.0 (Macintosh; Intel Mac OS X 10.15; rv:87.0) Gecko/20100101 Firefox/87.0,Macintosh,Firefox,87,OS X,10.15
19,1,null,"""",html-keyboard-response,137,430504,0.0-137.0,"""","<div style=""font-size:60px;"">+</div>","""",256,fixation,Memorization,null,500,"""","""","""","""","""","""","""","""",1,4/19/2021 0:35,71.238.78.78,Mozilla/5.0 (Macintosh; Intel Mac OS X 10.15; rv:87.0) Gecko/20100101 Firefox/87.0,Macintosh,Firefox,87,OS X,10.15
19,1,2164,"""",html-keyboard-response,138,435506,0.0-138.0,"""","<img src='jspsych/CFDfaces/CFD-BM-026-002-N.jpg' height=""250px""></br><b>Gregory</b>","""",256,IntactFace,Memorization,78,5000,n,"""",CFD-LM-217-162-N.jpg,Kenneth,0,"""","""","""",1,4/19/2021 0:35,71.238.78.78,Mozilla/5.0 (Macintosh; Intel Mac OS X 10.15; rv:87.0) Gecko/20100101 Firefox/87.0,Macintosh,Firefox,87,OS X,10.15
19,1,null,"""",html-keyboard-response,139,436011,0.0-139.0,"""","<div style=""font-size:60px;"">+</div>","""",256,fixation,Memorization,null,500,"""","""","""","""","""","""","""","""",1,4/19/2021 0:35,71.238.78.78,Mozilla/5.0 (Macintosh; Intel Mac OS X 10.15; rv:87.0) Gecko/20100101 Firefox/87.0,Macintosh,Firefox,87,OS X,10.15
19,1,2257,"""",html-keyboard-response,140,441012,0.0-140.0,"""","<img src='jspsych/CFDfaces/CFD-BF-222-240-N.jpg' height=""250px""></br><b>Victoria</b>","""",256,IntactFace,Memorization,70,5000,f,"""",CFD-AM-214-168-N.jpg,Timothy,0,"""","""","""",1,4/19/2021 0:35,71.238.78.78,Mozilla/5.0 (Macintosh; Intel Mac OS X 10.15; rv:87.0) Gecko/20100101 Firefox/87.0,Macintosh,Firefox,87,OS X,10.15
19,1,null,"""",html-keyboard-response,141,441519,0.0-141.0,"""","<div style=""font-size:60px;"">+</div>","""",256,fixation,Memorization,null,500,"""","""","""","""","""","""","""","""",1,4/19/2021 0:35,71.238.78.78,Mozilla/5.0 (Macintosh; Intel Mac OS X 10.15; rv:87.0) Gecko/20100101 Firefox/87.0,Macintosh,Firefox,87,OS X,10.15
19,1,1437,"""",html-keyboard-response,142,446522,0.0-142.0,"""","<img src='jspsych/CFDfaces/CFD-AF-241-141-N.jpg' height=""250px""></br><b>Andrea</b>","""",256,IntactFace,Memorization,70,5000,f,"""",CFD-LF-243-175-N.jpg,Lauren,0,"""","""","""",1,4/19/2021 0:35,71.238.78.78,Mozilla/5.0 (Macintosh; Intel Mac OS X 10.15; rv:87.0) Gecko/20100101 Firefox/87.0,Macintosh,Firefox,87,OS X,10.15
19,1,null,"""",html-keyboard-response,143,447026,0.0-143.0,"""","<div style=""font-size:60px;"">+</div>","""",256,fixation,Memorization,null,500,"""","""","""","""","""","""","""","""",1,4/19/2021 0:35,71.238.78.78,Mozilla/5.0 (Macintosh; Intel Mac OS X 10.15; rv:87.0) Gecko/20100101 Firefox/87.0,Macintosh,Firefox,87,OS X,10.15
19,1,1642,"""",html-keyboard-response,144,452031,0.0-144.0,"""","<img src='jspsych/CFDfaces/CFD-LM-224-162-N.jpg' height=""250px""></br><b>Juan</b>","""",256,IntactFace,Memorization,70,5000,f,"""",CFD-BF-001-025-N.jpg,Whitney,0,"""","""","""",1,4/19/2021 0:35,71.238.78.78,Mozilla/5.0 (Macintosh; Intel Mac OS X 10.15; rv:87.0) Gecko/20100101 Firefox/87.0,Macintosh,Firefox,87,OS X,10.15
19,1,null,"""",html-keyboard-response,145,452534,0.0-145.0,"""","<div style=""font-size:60px;"">+</div>","""",256,fixation,Memorization,null,500,"""","""","""","""","""","""","""","""",1,4/19/2021 0:35,71.238.78.78,Mozilla/5.0 (Macintosh; Intel Mac OS X 10.15; rv:87.0) Gecko/20100101 Firefox/87.0,Macintosh,Firefox,87,OS X,10.15
19,1,1742,"""",html-keyboard-response,146,457535,0.0-146.0,"""","<img src='jspsych/CFDfaces/CFD-BM-032-024-N.jpg' height=""250px""></br><b>Ian</b>","""",256,IntactFace,Memorization,70,5000,f,"""",CFD-BM-022-022-N.jpg,Dustin,0,"""","""","""",1,4/19/2021 0:35,71.238.78.78,Mozilla/5.0 (Macintosh; Intel Mac OS X 10.15; rv:87.0) Gecko/20100101 Firefox/87.0,Macintosh,Firefox,87,OS X,10.15
19,1,null,"""",html-keyboard-response,147,458039,0.0-147.0,"""","<div style=""font-size:60px;"">+</div>","""",256,fixation,Memorization,null,500,"""","""","""","""","""","""","""","""",1,4/19/2021 0:35,71.238.78.78,Mozilla/5.0 (Macintosh; Intel Mac OS X 10.15; rv:87.0) Gecko/20100101 Firefox/87.0,Macintosh,Firefox,87,OS X,10.15
19,1,2133,"""",html-keyboard-response,148,463042,0.0-148.0,"""","<img src='jspsych/CFDfaces/CFD-WM-019-003-N.jpg' height=""250px""></br><b>Robert</b>","""",256,IntactFace,Memorization,70,5000,f,"""",CFD-AF-235-170-N.jpg,Lindsey,0,"""","""","""",1,4/19/2021 0:35,71.238.78.78,Mozilla/5.0 (Macintosh; Intel Mac OS X 10.15; rv:87.0) Gecko/20100101 Firefox/87.0,Macintosh,Firefox,87,OS X,10.15
19,1,null,"""",html-keyboard-response,149,463545,0.0-149.0,"""","<div style=""font-size:60px;"">+</div>","""",256,fixation,Memorization,null,500,"""","""","""","""","""","""","""","""",1,4/19/2021 0:35,71.238.78.78,Mozilla/5.0 (Macintosh; Intel Mac OS X 10.15; rv:87.0) Gecko/20100101 Firefox/87.0,Macintosh,Firefox,87,OS X,10.15
19,1,1549,"""",html-keyboard-response,150,468546,0.0-150.0,"""","<img src='jspsych/CFDfaces/CFD-LF-230-203-N.jpg' height=""250px""></br><b>Kimberly</b>","""",256,IntactFace,Memorization,70,5000,f,"""",CFD-WM-213-076-N.jpg,Jacob,0,"""","""","""",1,4/19/2021 0:35,71.238.78.78,Mozilla/5.0 (Macintosh; Intel Mac OS X 10.15; rv:87.0) Gecko/20100101 Firefox/87.0,Macintosh,Firefox,87,OS X,10.15
19,1,null,"""",html-keyboard-response,151,469052,0.0-151.0,"""","<div style=""font-size:60px;"">+</div>","""",256,fixation,Memorization,null,500,"""","""","""","""","""","""","""","""",1,4/19/2021 0:35,71.238.78.78,Mozilla/5.0 (Macintosh; Intel Mac OS X 10.15; rv:87.0) Gecko/20100101 Firefox/87.0,Macintosh,Firefox,87,OS X,10.15
19,1,1474,"""",html-keyboard-response,152,474052,0.0-152.0,"""","<img src='jspsych/CFDfaces/CFD-BM-027-001-N.jpg' height=""250px""></br><b>Eric</b>","""",256,IntactFace,Memorization,70,5000,f,"""",CFD-WF-023-003-N.jpg,Sara,0,"""","""","""",1,4/19/2021 0:35,71.238.78.78,Mozilla/5.0 (Macintosh; Intel Mac OS X 10.15; rv:87.0) Gecko/20100101 Firefox/87.0,Macintosh,Firefox,87,OS X,10.15
19,1,null,"""",html-keyboard-response,153,474557,0.0-153.0,"""","<div style=""font-size:60px;"">+</div>","""",256,fixation,Memorization,null,500,"""","""","""","""","""","""","""","""",1,4/19/2021 0:35,71.238.78.78,Mozilla/5.0 (Macintosh; Intel Mac OS X 10.15; rv:87.0) Gecko/20100101 Firefox/87.0,Macintosh,Firefox,87,OS X,10.15
19,1,2839,"""",html-keyboard-response,154,477398,0.0-154.0,"""",Press Any Key to Begin Memory Test,"""",1,welcomeScreen,Break,13,"""","""","""","""","""","""","""","""","""",1,4/19/2021 0:35,71.238.78.78,Mozilla/5.0 (Macintosh; Intel Mac OS X 10.15; rv:87.0) Gecko/20100101 Firefox/87.0,Macintosh,Firefox,87,OS X,10.15
19,1,null,"""",html-keyboard-response,155,478400,0.0-155.0,"""","<div style=""font-size:60px;"">+</div>","""",256,ITI,Test,null,1000,"""","""","""","""","""","""","""","""",1,4/19/2021 0:35,71.238.78.78,Mozilla/5.0 (Macintosh; Intel Mac OS X 10.15; rv:87.0) Gecko/20100101 Firefox/87.0,Macintosh,Firefox,87,OS X,10.15
19,1,null,"""",image-keyboard-response,156,478653,0.0-156.0,"""",jspsych/scrambledDisgustFaces/scrambledBF09DIS.JPG,"""",256,forwardMask,Test,null,250,"""",d,"""","""","""","""","""","""",1,4/19/2021 0:35,71.238.78.78,Mozilla/5.0 (Macintosh; Intel Mac OS X 10.15; rv:87.0) Gecko/20100101 Firefox/87.0,Macintosh,Firefox,87,OS X,10.15
19,1,null,"""",image-keyboard-response,157,478673,0.0-157.0,"""",jspsych/disgustFaces/BF09DIS.JPG,"""",256,Cue,Test,null,16,"""","""","""","""","""","""","""","""",1,4/19/2021 0:35,71.238.78.78,Mozilla/5.0 (Macintosh; Intel Mac OS X 10.15; rv:87.0) Gecko/20100101 Firefox/87.0,Macintosh,Firefox,87,OS X,10.15
19,1,null,"""",image-keyboard-response,158,478777,0.0-158.0,"""",jspsych/neutralFaces/AF32NES.JPG,"""",256,backwardMask,Test,null,100,"""","""","""","""","""","""","""","""",1,4/19/2021 0:35,71.238.78.78,Mozilla/5.0 (Macintosh; Intel Mac OS X 10.15; rv:87.0) Gecko/20100101 Firefox/87.0,Macintosh,Firefox,87,OS X,10.15
19,1,null,"""",html-keyboard-response,159,479779,0.0-159.0,"""","<div style=""font-size:60px;"">+</div>","""",256,fixationBtwnNeutralMaskAndPrompt,Test,null,1000,"""","""","""","""","""","""","""","""",1,4/19/2021 0:35,71.238.78.78,Mozilla/5.0 (Macintosh; Intel Mac OS X 10.15; rv:87.0) Gecko/20100101 Firefox/87.0,Macintosh,Firefox,87,OS X,10.15
19,1,3074,"""",html-button-response,160,482854,0.0-160.0,"""","<img src='jspsych/CFDfaces/CFD-BF-039-031-N.jpg' height=""250px"">,</br><b>Andrea</b>",1,256,IntactOrRearranged,Test,"""","""","""","""",CFD-LF-203-066-N.jpg,Jenna,1,"""","""",1,1,4/19/2021 0:35,71.238.78.78,Mozilla/5.0 (Macintosh; Intel Mac OS X 10.15; rv:87.0) Gecko/20100101 Firefox/87.0,Macintosh,Firefox,87,OS X,10.15
19,1,3304,"""",html-slider-response,161,486160,0.0-161.0,"""","<img src='jspsych/CFDfaces/CFD-BF-039-031-N.jpg' height=""250px"">,</br><b>Andrea</b>","""",256,ConfidenceQuery,Test,"""","""","""","""",CFD-LF-203-066-N.jpg,Jenna,1,0,48,"""",1,4/19/2021 0:35,71.238.78.78,Mozilla/5.0 (Macintosh; Intel Mac OS X 10.15; rv:87.0) Gecko/20100101 Firefox/87.0,Macintosh,Firefox,87,OS X,10.15
19,1,null,"""",html-keyboard-response,162,487162,0.0-162.0,"""","<div style=""font-size:60px;"">+</div>","""",256,ITI,Test,null,1000,"""","""","""","""","""","""","""","""",1,4/19/2021 0:35,71.238.78.78,Mozilla/5.0 (Macintosh; Intel Mac OS X 10.15; rv:87.0) Gecko/20100101 Firefox/87.0,Macintosh,Firefox,87,OS X,10.15
19,1,null,"""",image-keyboard-response,163,487416,0.0-163.0,"""",jspsych/scrambledNeutralFaces/scrambledAM23NES.JPG,"""",256,forwardMask,Test,null,250,"""",n,"""","""","""","""","""","""",1,4/19/2021 0:35,71.238.78.78,Mozilla/5.0 (Macintosh; Intel Mac OS X 10.15; rv:87.0) Gecko/20100101 Firefox/87.0,Macintosh,Firefox,87,OS X,10.15
19,1,null,"""",image-keyboard-response,164,487437,0.0-164.0,"""",jspsych/neutralFaces/AM23NES.JPG,"""",256,Cue,Test,null,16,"""","""","""","""","""","""","""","""",1,4/19/2021 0:35,71.238.78.78,Mozilla/5.0 (Macintosh; Intel Mac OS X 10.15; rv:87.0) Gecko/20100101 Firefox/87.0,Macintosh,Firefox,87,OS X,10.15
19,1,null,"""",image-keyboard-response,165,487544,0.0-165.0,"""",jspsych/neutralFaces/AM18NES.JPG,"""",256,backwardMask,Test,null,100,"""","""","""","""","""","""","""","""",1,4/19/2021 0:35,71.238.78.78,Mozilla/5.0 (Macintosh; Intel Mac OS X 10.15; rv:87.0) Gecko/20100101 Firefox/87.0,Macintosh,Firefox,87,OS X,10.15
19,1,null,"""",html-keyboard-response,166,488545,0.0-166.0,"""","<div style=""font-size:60px;"">+</div>","""",256,fixationBtwnNeutralMaskAndPrompt,Test,null,1000,"""","""","""","""","""","""","""","""",1,4/19/2021 0:35,71.238.78.78,Mozilla/5.0 (Macintosh; Intel Mac OS X 10.15; rv:87.0) Gecko/20100101 Firefox/87.0,Macintosh,Firefox,87,OS X,10.15
19,1,3465,"""",html-button-response,167,492011,0.0-167.0,"""","<img src='jspsych/CFDfaces/CFD-WM-232-070-N.jpg' height=""250px"">,</br><b>Jeffrey</b>",0,256,IntactOrRearranged,Test,"""","""","""","""",CFD-WM-022-001-N.jpg,Steven,1,"""","""",0,1,4/19/2021 0:35,71.238.78.78,Mozilla/5.0 (Macintosh; Intel Mac OS X 10.15; rv:87.0) Gecko/20100101 Firefox/87.0,Macintosh,Firefox,87,OS X,10.15
19,1,2956,"""",html-slider-response,168,494969,0.0-168.0,"""","<img src='jspsych/CFDfaces/CFD-WM-232-070-N.jpg' height=""250px"">,</br><b>Jeffrey</b>","""",256,ConfidenceQuery,Test,"""","""","""","""",CFD-WM-022-001-N.jpg,Steven,1,0,49,"""",1,4/19/2021 0:35,71.238.78.78,Mozilla/5.0 (Macintosh; Intel Mac OS X 10.15; rv:87.0) Gecko/20100101 Firefox/87.0,Macintosh,Firefox,87,OS X,10.15
19,1,null,"""",html-keyboard-response,169,495973,0.0-169.0,"""","<div style=""font-size:60px;"">+</div>","""",256,ITI,Test,null,1000,"""","""","""","""","""","""","""","""",1,4/19/2021 0:35,71.238.78.78,Mozilla/5.0 (Macintosh; Intel Mac OS X 10.15; rv:87.0) Gecko/20100101 Firefox/87.0,Macintosh,Firefox,87,OS X,10.15
19,1,null,"""",image-keyboard-response,170,496225,0.0-170.0,"""",jspsych/scrambledNeutralFaces/scrambledBM13NES.JPG,"""",256,forwardMask,Test,null,250,"""",n,"""","""","""","""","""","""",1,4/19/2021 0:35,71.238.78.78,Mozilla/5.0 (Macintosh; Intel Mac OS X 10.15; rv:87.0) Gecko/20100101 Firefox/87.0,Macintosh,Firefox,87,OS X,10.15
19,1,null,"""",image-keyboard-response,171,496246,0.0-171.0,"""",jspsych/neutralFaces/BM13NES.JPG,"""",256,Cue,Test,null,16,"""","""","""","""","""","""","""","""",1,4/19/2021 0:35,71.238.78.78,Mozilla/5.0 (Macintosh; Intel Mac OS X 10.15; rv:87.0) Gecko/20100101 Firefox/87.0,Macintosh,Firefox,87,OS X,10.15
19,1,null,"""",image-keyboard-response,172,496350,0.0-172.0,"""",jspsych/neutralFaces/BM05NES.JPG,"""",256,backwardMask,Test,null,100,"""","""","""","""","""","""","""","""",1,4/19/2021 0:35,71.238.78.78,Mozilla/5.0 (Macintosh; Intel Mac OS X 10.15; rv:87.0) Gecko/20100101 Firefox/87.0,Macintosh,Firefox,87,OS X,10.15
19,1,null,"""",html-keyboard-response,173,497351,0.0-173.0,"""","<div style=""font-size:60px;"">+</div>","""",256,fixationBtwnNeutralMaskAndPrompt,Test,null,1000,"""","""","""","""","""","""","""","""",1,4/19/2021 0:35,71.238.78.78,Mozilla/5.0 (Macintosh; Intel Mac OS X 10.15; rv:87.0) Gecko/20100101 Firefox/87.0,Macintosh,Firefox,87,OS X,10.15
19,1,2274,"""",html-button-response,174,499627,0.0-174.0,"""","<img src='jspsych/CFDfaces/CFD-BM-026-002-N.jpg' height=""250px"">,</br><b>Daniel</b>",1,256,IntactOrRearranged,Test,"""","""","""","""",CFD-WM-213-076-N.jpg,Jacob,1,"""","""",1,1,4/19/2021 0:35,71.238.78.78,Mozilla/5.0 (Macintosh; Intel Mac OS X 10.15; rv:87.0) Gecko/20100101 Firefox/87.0,Macintosh,Firefox,87,OS X,10.15
19,1,3293,"""",html-slider-response,175,502923,0.0-175.0,"""","<img src='jspsych/CFDfaces/CFD-BM-026-002-N.jpg' height=""250px"">,</br><b>Daniel</b>","""",256,ConfidenceQuery,Test,"""","""","""","""",CFD-WM-213-076-N.jpg,Jacob,1,0,100,"""",1,4/19/2021 0:35,71.238.78.78,Mozilla/5.0 (Macintosh; Intel Mac OS X 10.15; rv:87.0) Gecko/20100101 Firefox/87.0,Macintosh,Firefox,87,OS X,10.15
19,1,null,"""",html-keyboard-response,176,503929,0.0-176.0,"""","<div style=""font-size:60px;"">+</div>","""",256,ITI,Test,null,1000,"""","""","""","""","""","""","""","""",1,4/19/2021 0:35,71.238.78.78,Mozilla/5.0 (Macintosh; Intel Mac OS X 10.15; rv:87.0) Gecko/20100101 Firefox/87.0,Macintosh,Firefox,87,OS X,10.15
19,1,null,"""",image-keyboard-response,177,504181,0.0-177.0,"""",jspsych/scrambledNeutralFaces/scrambledBF32NES.JPG,"""",256,forwardMask,Test,null,250,"""",n,"""","""","""","""","""","""",1,4/19/2021 0:35,71.238.78.78,Mozilla/5.0 (Macintosh; Intel Mac OS X 10.15; rv:87.0) Gecko/20100101 Firefox/87.0,Macintosh,Firefox,87,OS X,10.15
19,1,null,"""",image-keyboard-response,178,504200,0.0-178.0,"""",jspsych/neutralFaces/BF32NES.JPG,"""",256,Cue,Test,null,16,"""","""","""","""","""","""","""","""",1,4/19/2021 0:35,71.238.78.78,Mozilla/5.0 (Macintosh; Intel Mac OS X 10.15; rv:87.0) Gecko/20100101 Firefox/87.0,Macintosh,Firefox,87,OS X,10.15
19,1,null,"""",image-keyboard-response,179,504305,0.0-179.0,"""",jspsych/neutralFaces/AF03NES.JPG,"""",256,backwardMask,Test,null,100,"""","""","""","""","""","""","""","""",1,4/19/2021 0:35,71.238.78.78,Mozilla/5.0 (Macintosh; Intel Mac OS X 10.15; rv:87.0) Gecko/20100101 Firefox/87.0,Macintosh,Firefox,87,OS X,10.15
19,1,null,"""",html-keyboard-response,180,505310,0.0-180.0,"""","<div style=""font-size:60px;"">+</div>","""",256,fixationBtwnNeutralMaskAndPrompt,Test,null,1000,"""","""","""","""","""","""","""","""",1,4/19/2021 0:35,71.238.78.78,Mozilla/5.0 (Macintosh; Intel Mac OS X 10.15; rv:87.0) Gecko/20100101 Firefox/87.0,Macintosh,Firefox,87,OS X,10.15
19,1,2301,"""",html-button-response,181,507615,0.0-181.0,"""","<img src='jspsych/CFDfaces/CFD-BM-032-024-N.jpg' height=""250px"">,</br><b>Ian</b>",0,256,IntactOrRearranged,Test,"""","""","""","""",CFD-LM-201-057-N.jpg,Jesse,0,"""","""",0,1,4/19/2021 0:35,71.238.78.78,Mozilla/5.0 (Macintosh; Intel Mac OS X 10.15; rv:87.0) Gecko/20100101 Firefox/87.0,Macintosh,Firefox,87,OS X,10.15
19,1,2699,"""",html-slider-response,182,510314,0.0-182.0,"""","<img src='jspsych/CFDfaces/CFD-BM-032-024-N.jpg' height=""250px"">,</br><b>Ian</b>","""",256,ConfidenceQuery,Test,"""","""","""","""",CFD-LM-201-057-N.jpg,Jesse,0,0,100,"""",1,4/19/2021 0:35,71.238.78.78,Mozilla/5.0 (Macintosh; Intel Mac OS X 10.15; rv:87.0) Gecko/20100101 Firefox/87.0,Macintosh,Firefox,87,OS X,10.15
19,1,null,"""",html-keyboard-response,183,511315,0.0-183.0,"""","<div style=""font-size:60px;"">+</div>","""",256,ITI,Test,null,1000,"""","""","""","""","""","""","""","""",1,4/19/2021 0:35,71.238.78.78,Mozilla/5.0 (Macintosh; Intel Mac OS X 10.15; rv:87.0) Gecko/20100101 Firefox/87.0,Macintosh,Firefox,87,OS X,10.15
19,1,null,"""",image-keyboard-response,184,511570,0.0-184.0,"""",jspsych/scrambledDisgustFaces/scrambledBM02DIS.JPG,"""",256,forwardMask,Test,null,250,"""",d,"""","""","""","""","""","""",1,4/19/2021 0:35,71.238.78.78,Mozilla/5.0 (Macintosh; Intel Mac OS X 10.15; rv:87.0) Gecko/20100101 Firefox/87.0,Macintosh,Firefox,87,OS X,10.15
19,1,null,"""",image-keyboard-response,185,511589,0.0-185.0,"""",jspsych/disgustFaces/BM03DIS.JPG,"""",256,Cue,Test,null,16,"""","""","""","""","""","""","""","""",1,4/19/2021 0:35,71.238.78.78,Mozilla/5.0 (Macintosh; Intel Mac OS X 10.15; rv:87.0) Gecko/20100101 Firefox/87.0,Macintosh,Firefox,87,OS X,10.15
19,1,null,"""",image-keyboard-response,186,511693,0.0-186.0,"""",jspsych/neutralFaces/AM26NES.JPG,"""",256,backwardMask,Test,null,100,"""","""","""","""","""","""","""","""",1,4/19/2021 0:35,71.238.78.78,Mozilla/5.0 (Macintosh; Intel Mac OS X 10.15; rv:87.0) Gecko/20100101 Firefox/87.0,Macintosh,Firefox,87,OS X,10.15
19,1,null,"""",html-keyboard-response,187,512694,0.0-187.0,"""","<div style=""font-size:60px;"">+</div>","""",256,fixationBtwnNeutralMaskAndPrompt,Test,null,1000,"""","""","""","""","""","""","""","""",1,4/19/2021 0:35,71.238.78.78,Mozilla/5.0 (Macintosh; Intel Mac OS X 10.15; rv:87.0) Gecko/20100101 Firefox/87.0,Macintosh,Firefox,87,OS X,10.15
19,1,2007,"""",html-button-response,188,514703,0.0-188.0,"""","<img src='jspsych/CFDfaces/CFD-AF-240-206-N.jpg' height=""250px"">,</br><b>Michelle</b>",0,256,IntactOrRearranged,Test,"""","""","""","""",CFD-BF-021-013-N.jpg,Laura,0,"""","""",0,1,4/19/2021 0:35,71.238.78.78,Mozilla/5.0 (Macintosh; Intel Mac OS X 10.15; rv:87.0) Gecko/20100101 Firefox/87.0,Macintosh,Firefox,87,OS X,10.15
19,1,2687,"""",html-slider-response,189,517391,0.0-189.0,"""","<img src='jspsych/CFDfaces/CFD-AF-240-206-N.jpg' height=""250px"">,</br><b>Michelle</b>","""",256,ConfidenceQuery,Test,"""","""","""","""",CFD-BF-021-013-N.jpg,Laura,0,0,100,"""",1,4/19/2021 0:35,71.238.78.78,Mozilla/5.0 (Macintosh; Intel Mac OS X 10.15; rv:87.0) Gecko/20100101 Firefox/87.0,Macintosh,Firefox,87,OS X,10.15
19,1,null,"""",html-keyboard-response,190,518395,0.0-190.0,"""","<div style=""font-size:60px;"">+</div>","""",256,ITI,Test,null,1000,"""","""","""","""","""","""","""","""",1,4/19/2021 0:35,71.238.78.78,Mozilla/5.0 (Macintosh; Intel Mac OS X 10.15; rv:87.0) Gecko/20100101 Firefox/87.0,Macintosh,Firefox,87,OS X,10.15
19,1,null,"""",image-keyboard-response,191,518653,0.0-191.0,"""",jspsych/scrambledDisgustFaces/scrambledAF25DIS.JPG,"""",256,forwardMask,Test,null,250,"""",d,"""","""","""","""","""","""",1,4/19/2021 0:35,71.238.78.78,Mozilla/5.0 (Macintosh; Intel Mac OS X 10.15; rv:87.0) Gecko/20100101 Firefox/87.0,Macintosh,Firefox,87,OS X,10.15
19,1,null,"""",image-keyboard-response,192,518674,0.0-192.0,"""",jspsych/disgustFaces/AF25DIS.JPG,"""",256,Cue,Test,null,16,"""","""","""","""","""","""","""","""",1,4/19/2021 0:35,71.238.78.78,Mozilla/5.0 (Macintosh; Intel Mac OS X 10.15; rv:87.0) Gecko/20100101 Firefox/87.0,Macintosh,Firefox,87,OS X,10.15
19,1,null,"""",image-keyboard-response,193,518777,0.0-193.0,"""",jspsych/neutralFaces/AF35NES.JPG,"""",256,backwardMask,Test,null,100,"""","""","""","""","""","""","""","""",1,4/19/2021 0:35,71.238.78.78,Mozilla/5.0 (Macintosh; Intel Mac OS X 10.15; rv:87.0) Gecko/20100101 Firefox/87.0,Macintosh,Firefox,87,OS X,10.15
19,1,null,"""",html-keyboard-response,194,519779,0.0-194.0,"""","<div style=""font-size:60px;"">+</div>","""",256,fixationBtwnNeutralMaskAndPrompt,Test,null,1000,"""","""","""","""","""","""","""","""",1,4/19/2021 0:35,71.238.78.78,Mozilla/5.0 (Macintosh; Intel Mac OS X 10.15; rv:87.0) Gecko/20100101 Firefox/87.0,Macintosh,Firefox,87,OS X,10.15
19,1,1864,"""",html-button-response,195,521643,0.0-195.0,"""","<img src='jspsych/CFDfaces/CFD-WM-011-002-N.jpg' height=""250px"">,</br><b>James</b>",0,256,IntactOrRearranged,Test,"""","""","""","""",CFD-AF-239-171-N.jpg,Rebecca,1,"""","""",0,1,4/19/2021 0:35,71.238.78.78,Mozilla/5.0 (Macintosh; Intel Mac OS X 10.15; rv:87.0) Gecko/20100101 Firefox/87.0,Macintosh,Firefox,87,OS X,10.15
19,1,3025,"""",html-slider-response,196,524669,0.0-196.0,"""","<img src='jspsych/CFDfaces/CFD-WM-011-002-N.jpg' height=""250px"">,</br><b>James</b>","""",256,ConfidenceQuery,Test,"""","""","""","""",CFD-AF-239-171-N.jpg,Rebecca,1,0,100,"""",1,4/19/2021 0:35,71.238.78.78,Mozilla/5.0 (Macintosh; Intel Mac OS X 10.15; rv:87.0) Gecko/20100101 Firefox/87.0,Macintosh,Firefox,87,OS X,10.15
19,1,null,"""",html-keyboard-response,197,525674,0.0-197.0,"""","<div style=""font-size:60px;"">+</div>","""",256,ITI,Test,null,1000,"""","""","""","""","""","""","""","""",1,4/19/2021 0:35,71.238.78.78,Mozilla/5.0 (Macintosh; Intel Mac OS X 10.15; rv:87.0) Gecko/20100101 Firefox/87.0,Macintosh,Firefox,87,OS X,10.15
19,1,null,"""",image-keyboard-response,198,525929,0.0-198.0,"""",jspsych/scrambledNeutralFaces/scrambledAM32NES.JPG,"""",256,forwardMask,Test,null,250,"""",n,"""","""","""","""","""","""",1,4/19/2021 0:35,71.238.78.78,Mozilla/5.0 (Macintosh; Intel Mac OS X 10.15; rv:87.0) Gecko/20100101 Firefox/87.0,Macintosh,Firefox,87,OS X,10.15
19,1,null,"""",image-keyboard-response,199,525949,0.0-199.0,"""",jspsych/neutralFaces/AM32NES.JPG,"""",256,Cue,Test,null,16,"""","""","""","""","""","""","""","""",1,4/19/2021 0:35,71.238.78.78,Mozilla/5.0 (Macintosh; Intel Mac OS X 10.15; rv:87.0) Gecko/20100101 Firefox/87.0,Macintosh,Firefox,87,OS X,10.15
19,1,null,"""",image-keyboard-response,200,526055,0.0-200.0,"""",jspsych/neutralFaces/BM28NES.JPG,"""",256,backwardMask,Test,null,100,"""","""","""","""","""","""","""","""",1,4/19/2021 0:35,71.238.78.78,Mozilla/5.0 (Macintosh; Intel Mac OS X 10.15; rv:87.0) Gecko/20100101 Firefox/87.0,Macintosh,Firefox,87,OS X,10.15
19,1,null,"""",html-keyboard-response,201,527059,0.0-201.0,"""","<div style=""font-size:60px;"">+</div>","""",256,fixationBtwnNeutralMaskAndPrompt,Test,null,1000,"""","""","""","""","""","""","""","""",1,4/19/2021 0:35,71.238.78.78,Mozilla/5.0 (Macintosh; Intel Mac OS X 10.15; rv:87.0) Gecko/20100101 Firefox/87.0,Macintosh,Firefox,87,OS X,10.15
19,1,1795,"""",html-button-response,202,528854,0.0-202.0,"""","<img src='jspsych/CFDfaces/CFD-WM-207-048-N.jpg' height=""250px"">,</br><b>Brian</b>",0,256,IntactOrRearranged,Test,"""","""","""","""",CFD-AM-214-168-N.jpg,Austin,0,"""","""",0,1,4/19/2021 0:35,71.238.78.78,Mozilla/5.0 (Macintosh; Intel Mac OS X 10.15; rv:87.0) Gecko/20100101 Firefox/87.0,Macintosh,Firefox,87,OS X,10.15
19,1,2384,"""",html-slider-response,203,531240,0.0-203.0,"""","<img src='jspsych/CFDfaces/CFD-WM-207-048-N.jpg' height=""250px"">,</br><b>Brian</b>","""",256,ConfidenceQuery,Test,"""","""","""","""",CFD-AM-214-168-N.jpg,Austin,0,0,100,"""",1,4/19/2021 0:35,71.238.78.78,Mozilla/5.0 (Macintosh; Intel Mac OS X 10.15; rv:87.0) Gecko/20100101 Firefox/87.0,Macintosh,Firefox,87,OS X,10.15
19,1,null,"""",html-keyboard-response,204,532243,0.0-204.0,"""","<div style=""font-size:60px;"">+</div>","""",256,ITI,Test,null,1000,"""","""","""","""","""","""","""","""",1,4/19/2021 0:35,71.238.78.78,Mozilla/5.0 (Macintosh; Intel Mac OS X 10.15; rv:87.0) Gecko/20100101 Firefox/87.0,Macintosh,Firefox,87,OS X,10.15
19,1,null,"""",image-keyboard-response,205,532495,0.0-205.0,"""",jspsych/scrambledNeutralFaces/scrambledBM10NES.JPG,"""",256,forwardMask,Test,null,250,"""",n,"""","""","""","""","""","""",1,4/19/2021 0:35,71.238.78.78,Mozilla/5.0 (Macintosh; Intel Mac OS X 10.15; rv:87.0) Gecko/20100101 Firefox/87.0,Macintosh,Firefox,87,OS X,10.15
19,1,null,"""",image-keyboard-response,206,532516,0.0-206.0,"""",jspsych/neutralFaces/BM10NES.JPG,"""",256,Cue,Test,null,16,"""","""","""","""","""","""","""","""",1,4/19/2021 0:35,71.238.78.78,Mozilla/5.0 (Macintosh; Intel Mac OS X 10.15; rv:87.0) Gecko/20100101 Firefox/87.0,Macintosh,Firefox,87,OS X,10.15
19,1,null,"""",image-keyboard-response,207,532621,0.0-207.0,"""",jspsych/neutralFaces/AM10NES.JPG,"""",256,backwardMask,Test,null,100,"""","""","""","""","""","""","""","""",1,4/19/2021 0:35,71.238.78.78,Mozilla/5.0 (Macintosh; Intel Mac OS X 10.15; rv:87.0) Gecko/20100101 Firefox/87.0,Macintosh,Firefox,87,OS X,10.15
19,1,null,"""",html-keyboard-response,208,533622,0.0-208.0,"""","<div style=""font-size:60px;"">+</div>","""",256,fixationBtwnNeutralMaskAndPrompt,Test,null,1000,"""","""","""","""","""","""","""","""",1,4/19/2021 0:35,71.238.78.78,Mozilla/5.0 (Macintosh; Intel Mac OS X 10.15; rv:87.0) Gecko/20100101 Firefox/87.0,Macintosh,Firefox,87,OS X,10.15
19,1,null,"""",html-button-response,209,538626,0.0-209.0,"""","<img src='jspsych/CFDfaces/CFD-WF-006-002-N.jpg' height=""250px"">,</br><b>Kimberly</b>",null,256,IntactOrRearranged,Test,"""","""","""","""",CFD-WF-029-002-N.jpg,Amy,1,"""","""","""",1,4/19/2021 0:35,71.238.78.78,Mozilla/5.0 (Macintosh; Intel Mac OS X 10.15; rv:87.0) Gecko/20100101 Firefox/87.0,Macintosh,Firefox,87,OS X,10.15
19,1,3972,"""",html-slider-response,210,542602,0.0-210.0,"""","<img src='jspsych/CFDfaces/CFD-WF-006-002-N.jpg' height=""250px"">,</br><b>Kimberly</b>","""",256,ConfidenceQuery,Test,"""","""","""","""",CFD-WF-029-002-N.jpg,Amy,1,0,50,"""",1,4/19/2021 0:35,71.238.78.78,Mozilla/5.0 (Macintosh; Intel Mac OS X 10.15; rv:87.0) Gecko/20100101 Firefox/87.0,Macintosh,Firefox,87,OS X,10.15
19,1,null,"""",html-keyboard-response,211,543603,0.0-211.0,"""","<div style=""font-size:60px;"">+</div>","""",256,ITI,Test,null,1000,"""","""","""","""","""","""","""","""",1,4/19/2021 0:35,71.238.78.78,Mozilla/5.0 (Macintosh; Intel Mac OS X 10.15; rv:87.0) Gecko/20100101 Firefox/87.0,Macintosh,Firefox,87,OS X,10.15
19,1,null,"""",image-keyboard-response,212,543856,0.0-212.0,"""",jspsych/scrambledDisgustFaces/scrambledBM28DIS.JPG,"""",256,forwardMask,Test,null,250,"""",d,"""","""","""","""","""","""",1,4/19/2021 0:35,71.238.78.78,Mozilla/5.0 (Macintosh; Intel Mac OS X 10.15; rv:87.0) Gecko/20100101 Firefox/87.0,Macintosh,Firefox,87,OS X,10.15
19,1,null,"""",image-keyboard-response,213,543876,0.0-213.0,"""",jspsych/disgustFaces/BM29DIS.JPG,"""",256,Cue,Test,null,16,"""","""","""","""","""","""","""","""",1,4/19/2021 0:35,71.238.78.78,Mozilla/5.0 (Macintosh; Intel Mac OS X 10.15; rv:87.0) Gecko/20100101 Firefox/87.0,Macintosh,Firefox,87,OS X,10.15
19,1,null,"""",image-keyboard-response,214,543981,0.0-214.0,"""",jspsych/neutralFaces/BM04NES.JPG,"""",256,backwardMask,Test,null,100,"""","""","""","""","""","""","""","""",1,4/19/2021 0:35,71.238.78.78,Mozilla/5.0 (Macintosh; Intel Mac OS X 10.15; rv:87.0) Gecko/20100101 Firefox/87.0,Macintosh,Firefox,87,OS X,10.15
19,1,null,"""",html-keyboard-response,215,544982,0.0-215.0,"""","<div style=""font-size:60px;"">+</div>","""",256,fixationBtwnNeutralMaskAndPrompt,Test,null,1000,"""","""","""","""","""","""","""","""",1,4/19/2021 0:35,71.238.78.78,Mozilla/5.0 (Macintosh; Intel Mac OS X 10.15; rv:87.0) Gecko/20100101 Firefox/87.0,Macintosh,Firefox,87,OS X,10.15
19,1,2588,"""",html-button-response,216,547575,0.0-216.0,"""","<img src='jspsych/CFDfaces/CFD-AF-226-251-N.jpg' height=""250px"">,</br><b>Samantha</b>",0,256,IntactOrRearranged,Test,"""","""","""","""",CFD-BM-211-174-N.jpg,Sean,0,"""","""",0,1,4/19/2021 0:35,71.238.78.78,Mozilla/5.0 (Macintosh; Intel Mac OS X 10.15; rv:87.0) Gecko/20100101 Firefox/87.0,Macintosh,Firefox,87,OS X,10.15
19,1,2711,"""",html-slider-response,217,550285,0.0-217.0,"""","<img src='jspsych/CFDfaces/CFD-AF-226-251-N.jpg' height=""250px"">,</br><b>Samantha</b>","""",256,ConfidenceQuery,Test,"""","""","""","""",CFD-BM-211-174-N.jpg,Sean,0,0,100,"""",1,4/19/2021 0:35,71.238.78.78,Mozilla/5.0 (Macintosh; Intel Mac OS X 10.15; rv:87.0) Gecko/20100101 Firefox/87.0,Macintosh,Firefox,87,OS X,10.15
19,1,null,"""",html-keyboard-response,218,551286,0.0-218.0,"""","<div style=""font-size:60px;"">+</div>","""",256,ITI,Test,null,1000,"""","""","""","""","""","""","""","""",1,4/19/2021 0:35,71.238.78.78,Mozilla/5.0 (Macintosh; Intel Mac OS X 10.15; rv:87.0) Gecko/20100101 Firefox/87.0,Macintosh,Firefox,87,OS X,10.15
19,1,null,"""",image-keyboard-response,219,551543,0.0-219.0,"""",jspsych/scrambledDisgustFaces/scrambledBF14DIS.JPG,"""",256,forwardMask,Test,null,250,"""",d,"""","""","""","""","""","""",1,4/19/2021 0:35,71.238.78.78,Mozilla/5.0 (Macintosh; Intel Mac OS X 10.15; rv:87.0) Gecko/20100101 Firefox/87.0,Macintosh,Firefox,87,OS X,10.15
19,1,null,"""",image-keyboard-response,220,551561,0.0-220.0,"""",jspsych/disgustFaces/BF14DIS.JPG,"""",256,Cue,Test,null,16,"""","""","""","""","""","""","""","""",1,4/19/2021 0:35,71.238.78.78,Mozilla/5.0 (Macintosh; Intel Mac OS X 10.15; rv:87.0) Gecko/20100101 Firefox/87.0,Macintosh,Firefox,87,OS X,10.15
19,1,null,"""",image-keyboard-response,221,551664,0.0-221.0,"""",jspsych/neutralFaces/AF30NES.JPG,"""",256,backwardMask,Test,null,100,"""","""","""","""","""","""","""","""",1,4/19/2021 0:35,71.238.78.78,Mozilla/5.0 (Macintosh; Intel Mac OS X 10.15; rv:87.0) Gecko/20100101 Firefox/87.0,Macintosh,Firefox,87,OS X,10.15
19,1,null,"""",html-keyboard-response,222,552666,0.0-222.0,"""","<div style=""font-size:60px;"">+</div>","""",256,fixationBtwnNeutralMaskAndPrompt,Test,null,1000,"""","""","""","""","""","""","""","""",1,4/19/2021 0:35,71.238.78.78,Mozilla/5.0 (Macintosh; Intel Mac OS X 10.15; rv:87.0) Gecko/20100101 Firefox/87.0,Macintosh,Firefox,87,OS X,10.15
19,1,2715,"""",html-button-response,223,555381,0.0-223.0,"""","<img src='jspsych/CFDfaces/CFD-LM-246-087-N.jpg' height=""250px"">,</br><b>Peter</b>",0,256,IntactOrRearranged,Test,"""","""","""","""",CFD-LM-209-111-N.jpg,Mark,0,"""","""",0,1,4/19/2021 0:35,71.238.78.78,Mozilla/5.0 (Macintosh; Intel Mac OS X 10.15; rv:87.0) Gecko/20100101 Firefox/87.0,Macintosh,Firefox,87,OS X,10.15
19,1,3835,"""",html-slider-response,224,559218,0.0-224.0,"""","<img src='jspsych/CFDfaces/CFD-LM-246-087-N.jpg' height=""250px"">,</br><b>Peter</b>","""",256,ConfidenceQuery,Test,"""","""","""","""",CFD-LM-209-111-N.jpg,Mark,0,0,100,"""",1,4/19/2021 0:35,71.238.78.78,Mozilla/5.0 (Macintosh; Intel Mac OS X 10.15; rv:87.0) Gecko/20100101 Firefox/87.0,Macintosh,Firefox,87,OS X,10.15
19,1,null,"""",html-keyboard-response,225,560224,0.0-225.0,"""","<div style=""font-size:60px;"">+</div>","""",256,ITI,Test,null,1000,"""","""","""","""","""","""","""","""",1,4/19/2021 0:35,71.238.78.78,Mozilla/5.0 (Macintosh; Intel Mac OS X 10.15; rv:87.0) Gecko/20100101 Firefox/87.0,Macintosh,Firefox,87,OS X,10.15
19,1,null,"""",image-keyboard-response,226,560477,0.0-226.0,"""",jspsych/scrambledNeutralFaces/scrambledAF24NES.JPG,"""",256,forwardMask,Test,null,250,"""",n,"""","""","""","""","""","""",1,4/19/2021 0:35,71.238.78.78,Mozilla/5.0 (Macintosh; Intel Mac OS X 10.15; rv:87.0) Gecko/20100101 Firefox/87.0,Macintosh,Firefox,87,OS X,10.15
19,1,null,"""",image-keyboard-response,227,560496,0.0-227.0,"""",jspsych/neutralFaces/AF24NES.JPG,"""",256,Cue,Test,null,16,"""","""","""","""","""","""","""","""",1,4/19/2021 0:35,71.238.78.78,Mozilla/5.0 (Macintosh; Intel Mac OS X 10.15; rv:87.0) Gecko/20100101 Firefox/87.0,Macintosh,Firefox,87,OS X,10.15
19,1,null,"""",image-keyboard-response,228,560602,0.0-228.0,"""",jspsych/neutralFaces/AF16NES.JPG,"""",256,backwardMask,Test,null,100,"""","""","""","""","""","""","""","""",1,4/19/2021 0:35,71.238.78.78,Mozilla/5.0 (Macintosh; Intel Mac OS X 10.15; rv:87.0) Gecko/20100101 Firefox/87.0,Macintosh,Firefox,87,OS X,10.15
19,1,null,"""",html-keyboard-response,229,561602,0.0-229.0,"""","<div style=""font-size:60px;"">+</div>","""",256,fixationBtwnNeutralMaskAndPrompt,Test,null,1000,"""","""","""","""","""","""","""","""",1,4/19/2021 0:35,71.238.78.78,Mozilla/5.0 (Macintosh; Intel Mac OS X 10.15; rv:87.0) Gecko/20100101 Firefox/87.0,Macintosh,Firefox,87,OS X,10.15
19,1,2508,"""",html-button-response,230,564112,0.0-230.0,"""","<img src='jspsych/CFDfaces/CFD-WM-212-097-N.jpg' height=""250px"">,</br><b>Jason</b>",0,256,IntactOrRearranged,Test,"""","""","""","""",CFD-WF-200-099-N.jpg,Sara,0,"""","""",0,1,4/19/2021 0:35,71.238.78.78,Mozilla/5.0 (Macintosh; Intel Mac OS X 10.15; rv:87.0) Gecko/20100101 Firefox/87.0,Macintosh,Firefox,87,OS X,10.15
19,1,2620,"""",html-slider-response,231,566733,0.0-231.0,"""","<img src='jspsych/CFDfaces/CFD-WM-212-097-N.jpg' height=""250px"">,</br><b>Jason</b>","""",256,ConfidenceQuery,Test,"""","""","""","""",CFD-WF-200-099-N.jpg,Sara,0,0,100,"""",1,4/19/2021 0:35,71.238.78.78,Mozilla/5.0 (Macintosh; Intel Mac OS X 10.15; rv:87.0) Gecko/20100101 Firefox/87.0,Macintosh,Firefox,87,OS X,10.15
19,1,null,"""",html-keyboard-response,232,567742,0.0-232.0,"""","<div style=""font-size:60px;"">+</div>","""",256,ITI,Test,null,1000,"""","""","""","""","""","""","""","""",1,4/19/2021 0:35,71.238.78.78,Mozilla/5.0 (Macintosh; Intel Mac OS X 10.15; rv:87.0) Gecko/20100101 Firefox/87.0,Macintosh,Firefox,87,OS X,10.15
19,1,null,"""",image-keyboard-response,233,567994,0.0-233.0,"""",jspsych/scrambledDisgustFaces/scrambledAF21DIS.JPG,"""",256,forwardMask,Test,null,250,"""",d,"""","""","""","""","""","""",1,4/19/2021 0:35,71.238.78.78,Mozilla/5.0 (Macintosh; Intel Mac OS X 10.15; rv:87.0) Gecko/20100101 Firefox/87.0,Macintosh,Firefox,87,OS X,10.15
19,1,null,"""",image-keyboard-response,234,568013,0.0-234.0,"""",jspsych/disgustFaces/AF21DIS.JPG,"""",256,Cue,Test,null,16,"""","""","""","""","""","""","""","""",1,4/19/2021 0:35,71.238.78.78,Mozilla/5.0 (Macintosh; Intel Mac OS X 10.15; rv:87.0) Gecko/20100101 Firefox/87.0,Macintosh,Firefox,87,OS X,10.15
19,1,null,"""",image-keyboard-response,235,568116,0.0-235.0,"""",jspsych/neutralFaces/AF18NES.JPG,"""",256,backwardMask,Test,null,100,"""","""","""","""","""","""","""","""",1,4/19/2021 0:35,71.238.78.78,Mozilla/5.0 (Macintosh; Intel Mac OS X 10.15; rv:87.0) Gecko/20100101 Firefox/87.0,Macintosh,Firefox,87,OS X,10.15
19,1,null,"""",html-keyboard-response,236,569121,0.0-236.0,"""","<div style=""font-size:60px;"">+</div>","""",256,fixationBtwnNeutralMaskAndPrompt,Test,null,1000,"""","""","""","""","""","""","""","""",1,4/19/2021 0:35,71.238.78.78,Mozilla/5.0 (Macintosh; Intel Mac OS X 10.15; rv:87.0) Gecko/20100101 Firefox/87.0,Macintosh,Firefox,87,OS X,10.15
19,1,1708,"""",html-button-response,237,570828,0.0-237.0,"""","<img src='jspsych/CFDfaces/CFD-WM-019-003-N.jpg' height=""250px"">,</br><b>Robert</b>",0,256,IntactOrRearranged,Test,"""","""","""","""",CFD-WF-218-087-N.jpg,Jasmine,0,"""","""",0,1,4/19/2021 0:35,71.238.78.78,Mozilla/5.0 (Macintosh; Intel Mac OS X 10.15; rv:87.0) Gecko/20100101 Firefox/87.0,Macintosh,Firefox,87,OS X,10.15
19,1,2879,"""",html-slider-response,238,573708,0.0-238.0,"""","<img src='jspsych/CFDfaces/CFD-WM-019-003-N.jpg' height=""250px"">,</br><b>Robert</b>","""",256,ConfidenceQuery,Test,"""","""","""","""",CFD-WF-218-087-N.jpg,Jasmine,0,0,100,"""",1,4/19/2021 0:35,71.238.78.78,Mozilla/5.0 (Macintosh; Intel Mac OS X 10.15; rv:87.0) Gecko/20100101 Firefox/87.0,Macintosh,Firefox,87,OS X,10.15
19,1,null,"""",html-keyboard-response,239,574716,0.0-239.0,"""","<div style=""font-size:60px;"">+</div>","""",256,ITI,Test,null,1000,"""","""","""","""","""","""","""","""",1,4/19/2021 0:35,71.238.78.78,Mozilla/5.0 (Macintosh; Intel Mac OS X 10.15; rv:87.0) Gecko/20100101 Firefox/87.0,Macintosh,Firefox,87,OS X,10.15
19,1,null,"""",image-keyboard-response,240,574969,0.0-240.0,"""",jspsych/scrambledNeutralFaces/scrambledBM02NES.JPG,"""",256,forwardMask,Test,null,250,"""",n,"""","""","""","""","""","""",1,4/19/2021 0:35,71.238.78.78,Mozilla/5.0 (Macintosh; Intel Mac OS X 10.15; rv:87.0) Gecko/20100101 Firefox/87.0,Macintosh,Firefox,87,OS X,10.15
19,1,null,"""",image-keyboard-response,241,574987,0.0-241.0,"""",jspsych/neutralFaces/BM02NES.JPG,"""",256,Cue,Test,null,16,"""","""","""","""","""","""","""","""",1,4/19/2021 0:35,71.238.78.78,Mozilla/5.0 (Macintosh; Intel Mac OS X 10.15; rv:87.0) Gecko/20100101 Firefox/87.0,Macintosh,Firefox,87,OS X,10.15
19,1,null,"""",image-keyboard-response,242,575091,0.0-242.0,"""",jspsych/neutralFaces/BM05NES.JPG,"""",256,backwardMask,Test,null,100,"""","""","""","""","""","""","""","""",1,4/19/2021 0:35,71.238.78.78,Mozilla/5.0 (Macintosh; Intel Mac OS X 10.15; rv:87.0) Gecko/20100101 Firefox/87.0,Macintosh,Firefox,87,OS X,10.15
19,1,null,"""",html-keyboard-response,243,576096,0.0-243.0,"""","<div style=""font-size:60px;"">+</div>","""",256,fixationBtwnNeutralMaskAndPrompt,Test,null,1000,"""","""","""","""","""","""","""","""",1,4/19/2021 0:35,71.238.78.78,Mozilla/5.0 (Macintosh; Intel Mac OS X 10.15; rv:87.0) Gecko/20100101 Firefox/87.0,Macintosh,Firefox,87,OS X,10.15
19,1,2314,"""",html-button-response,244,578411,0.0-244.0,"""","<img src='jspsych/CFDfaces/CFD-WM-017-002-N.jpg' height=""250px"">,</br><b>Brandon</b>",0,256,IntactOrRearranged,Test,"""","""","""","""",CFD-AM-234-355-N.jpg,Travis,0,"""","""",0,1,4/19/2021 0:35,71.238.78.78,Mozilla/5.0 (Macintosh; Intel Mac OS X 10.15; rv:87.0) Gecko/20100101 Firefox/87.0,Macintosh,Firefox,87,OS X,10.15
19,1,2890,"""",html-slider-response,245,581302,0.0-245.0,"""","<img src='jspsych/CFDfaces/CFD-WM-017-002-N.jpg' height=""250px"">,</br><b>Brandon</b>","""",256,ConfidenceQuery,Test,"""","""","""","""",CFD-AM-234-355-N.jpg,Travis,0,0,100,"""",1,4/19/2021 0:35,71.238.78.78,Mozilla/5.0 (Macintosh; Intel Mac OS X 10.15; rv:87.0) Gecko/20100101 Firefox/87.0,Macintosh,Firefox,87,OS X,10.15
19,1,null,"""",html-keyboard-response,246,582307,0.0-246.0,"""","<div style=""font-size:60px;"">+</div>","""",256,ITI,Test,null,1000,"""","""","""","""","""","""","""","""",1,4/19/2021 0:35,71.238.78.78,Mozilla/5.0 (Macintosh; Intel Mac OS X 10.15; rv:87.0) Gecko/20100101 Firefox/87.0,Macintosh,Firefox,87,OS X,10.15
19,1,null,"""",image-keyboard-response,247,582559,0.0-247.0,"""",jspsych/scrambledNeutralFaces/scrambledAM31NES.JPG,"""",256,forwardMask,Test,null,250,"""",n,"""","""","""","""","""","""",1,4/19/2021 0:35,71.238.78.78,Mozilla/5.0 (Macintosh; Intel Mac OS X 10.15; rv:87.0) Gecko/20100101 Firefox/87.0,Macintosh,Firefox,87,OS X,10.15
19,1,null,"""",image-keyboard-response,248,582579,0.0-248.0,"""",jspsych/neutralFaces/AM31NES.JPG,"""",256,Cue,Test,null,16,"""","""","""","""","""","""","""","""",1,4/19/2021 0:35,71.238.78.78,Mozilla/5.0 (Macintosh; Intel Mac OS X 10.15; rv:87.0) Gecko/20100101 Firefox/87.0,Macintosh,Firefox,87,OS X,10.15
19,1,null,"""",image-keyboard-response,249,582681,0.0-249.0,"""",jspsych/neutralFaces/BM10NES.JPG,"""",256,backwardMask,Test,null,100,"""","""","""","""","""","""","""","""",1,4/19/2021 0:35,71.238.78.78,Mozilla/5.0 (Macintosh; Intel Mac OS X 10.15; rv:87.0) Gecko/20100101 Firefox/87.0,Macintosh,Firefox,87,OS X,10.15
19,1,null,"""",html-keyboard-response,250,583683,0.0-250.0,"""","<div style=""font-size:60px;"">+</div>","""",256,fixationBtwnNeutralMaskAndPrompt,Test,null,1000,"""","""","""","""","""","""","""","""",1,4/19/2021 0:35,71.238.78.78,Mozilla/5.0 (Macintosh; Intel Mac OS X 10.15; rv:87.0) Gecko/20100101 Firefox/87.0,Macintosh,Firefox,87,OS X,10.15
19,1,3536,"""",html-button-response,251,587219,0.0-251.0,"""","<img src='jspsych/CFDfaces/CFD-AM-238-269-N.jpg' height=""250px"">,</br><b>Joshua</b>",0,256,IntactOrRearranged,Test,"""","""","""","""",CFD-BM-011-016-N.jpg,Ryan,1,"""","""",0,1,4/19/2021 0:35,71.238.78.78,Mozilla/5.0 (Macintosh; Intel Mac OS X 10.15; rv:87.0) Gecko/20100101 Firefox/87.0,Macintosh,Firefox,87,OS X,10.15
19,1,2819,"""",html-slider-response,252,590043,0.0-252.0,"""","<img src='jspsych/CFDfaces/CFD-AM-238-269-N.jpg' height=""250px"">,</br><b>Joshua</b>","""",256,ConfidenceQuery,Test,"""","""","""","""",CFD-BM-011-016-N.jpg,Ryan,1,0,51,"""",1,4/19/2021 0:35,71.238.78.78,Mozilla/5.0 (Macintosh; Intel Mac OS X 10.15; rv:87.0) Gecko/20100101 Firefox/87.0,Macintosh,Firefox,87,OS X,10.15
19,1,null,"""",html-keyboard-response,253,591046,0.0-253.0,"""","<div style=""font-size:60px;"">+</div>","""",256,ITI,Test,null,1000,"""","""","""","""","""","""","""","""",1,4/19/2021 0:35,71.238.78.78,Mozilla/5.0 (Macintosh; Intel Mac OS X 10.15; rv:87.0) Gecko/20100101 Firefox/87.0,Macintosh,Firefox,87,OS X,10.15
19,1,null,"""",image-keyboard-response,254,591299,0.0-254.0,"""",jspsych/scrambledDisgustFaces/scrambledBF05DIS.JPG,"""",256,forwardMask,Test,null,250,"""",d,"""","""","""","""","""","""",1,4/19/2021 0:35,71.238.78.78,Mozilla/5.0 (Macintosh; Intel Mac OS X 10.15; rv:87.0) Gecko/20100101 Firefox/87.0,Macintosh,Firefox,87,OS X,10.15
19,1,null,"""",image-keyboard-response,255,591319,0.0-255.0,"""",jspsych/disgustFaces/BF05DIS.JPG,"""",256,Cue,Test,null,16,"""","""","""","""","""","""","""","""",1,4/19/2021 0:35,71.238.78.78,Mozilla/5.0 (Macintosh; Intel Mac OS X 10.15; rv:87.0) Gecko/20100101 Firefox/87.0,Macintosh,Firefox,87,OS X,10.15
19,1,null,"""",image-keyboard-response,256,591423,0.0-256.0,"""",jspsych/neutralFaces/AF21NES.JPG,"""",256,backwardMask,Test,null,100,"""","""","""","""","""","""","""","""",1,4/19/2021 0:35,71.238.78.78,Mozilla/5.0 (Macintosh; Intel Mac OS X 10.15; rv:87.0) Gecko/20100101 Firefox/87.0,Macintosh,Firefox,87,OS X,10.15
19,1,null,"""",html-keyboard-response,257,592425,0.0-257.0,"""","<div style=""font-size:60px;"">+</div>","""",256,fixationBtwnNeutralMaskAndPrompt,Test,null,1000,"""","""","""","""","""","""","""","""",1,4/19/2021 0:35,71.238.78.78,Mozilla/5.0 (Macintosh; Intel Mac OS X 10.15; rv:87.0) Gecko/20100101 Firefox/87.0,Macintosh,Firefox,87,OS X,10.15
19,1,3085,"""",html-button-response,258,595511,0.0-258.0,"""","<img src='jspsych/CFDfaces/CFD-LM-223-175-N.jpg' height=""250px"">,</br><b>Eric</b>",0,256,IntactOrRearranged,Test,"""","""","""","""",CFD-LF-243-175-N.jpg,Jordan,1,"""","""",0,1,4/19/2021 0:35,71.238.78.78,Mozilla/5.0 (Macintosh; Intel Mac OS X 10.15; rv:87.0) Gecko/20100101 Firefox/87.0,Macintosh,Firefox,87,OS X,10.15
19,1,2920,"""",html-slider-response,259,598436,0.0-259.0,"""","<img src='jspsych/CFDfaces/CFD-LM-223-175-N.jpg' height=""250px"">,</br><b>Eric</b>","""",256,ConfidenceQuery,Test,"""","""","""","""",CFD-LF-243-175-N.jpg,Jordan,1,0,62,"""",1,4/19/2021 0:35,71.238.78.78,Mozilla/5.0 (Macintosh; Intel Mac OS X 10.15; rv:87.0) Gecko/20100101 Firefox/87.0,Macintosh,Firefox,87,OS X,10.15
19,1,null,"""",html-keyboard-response,260,599438,0.0-260.0,"""","<div style=""font-size:60px;"">+</div>","""",256,ITI,Test,null,1000,"""","""","""","""","""","""","""","""",1,4/19/2021 0:35,71.238.78.78,Mozilla/5.0 (Macintosh; Intel Mac OS X 10.15; rv:87.0) Gecko/20100101 Firefox/87.0,Macintosh,Firefox,87,OS X,10.15
19,1,null,"""",image-keyboard-response,261,599693,0.0-261.0,"""",jspsych/scrambledDisgustFaces/scrambledAF16DIS.JPG,"""",256,forwardMask,Test,null,250,"""",d,"""","""","""","""","""","""",1,4/19/2021 0:35,71.238.78.78,Mozilla/5.0 (Macintosh; Intel Mac OS X 10.15; rv:87.0) Gecko/20100101 Firefox/87.0,Macintosh,Firefox,87,OS X,10.15
19,1,null,"""",image-keyboard-response,262,599714,0.0-262.0,"""",jspsych/disgustFaces/AF16DIS.JPG,"""",256,Cue,Test,null,16,"""","""","""","""","""","""","""","""",1,4/19/2021 0:35,71.238.78.78,Mozilla/5.0 (Macintosh; Intel Mac OS X 10.15; rv:87.0) Gecko/20100101 Firefox/87.0,Macintosh,Firefox,87,OS X,10.15
19,1,null,"""",image-keyboard-response,263,599817,0.0-263.0,"""",jspsych/neutralFaces/BF24NES.JPG,"""",256,backwardMask,Test,null,100,"""","""","""","""","""","""","""","""",1,4/19/2021 0:35,71.238.78.78,Mozilla/5.0 (Macintosh; Intel Mac OS X 10.15; rv:87.0) Gecko/20100101 Firefox/87.0,Macintosh,Firefox,87,OS X,10.15
19,1,null,"""",html-keyboard-response,264,600819,0.0-264.0,"""","<div style=""font-size:60px;"">+</div>","""",256,fixationBtwnNeutralMaskAndPrompt,Test,null,1000,"""","""","""","""","""","""","""","""",1,4/19/2021 0:35,71.238.78.78,Mozilla/5.0 (Macintosh; Intel Mac OS X 10.15; rv:87.0) Gecko/20100101 Firefox/87.0,Macintosh,Firefox,87,OS X,10.15
19,1,2275,"""",html-button-response,265,603094,0.0-265.0,"""","<img src='jspsych/CFDfaces/CFD-LM-213-061-N.jpg' height=""250px"">,</br><b>Christian</b>",0,256,IntactOrRearranged,Test,"""","""","""","""",CFD-LM-217-162-N.jpg,Jeremy,1,"""","""",0,1,4/19/2021 0:35,71.238.78.78,Mozilla/5.0 (Macintosh; Intel Mac OS X 10.15; rv:87.0) Gecko/20100101 Firefox/87.0,Macintosh,Firefox,87,OS X,10.15
19,1,2808,"""",html-slider-response,266,605906,0.0-266.0,"""","<img src='jspsych/CFDfaces/CFD-LM-213-061-N.jpg' height=""250px"">,</br><b>Christian</b>","""",256,ConfidenceQuery,Test,"""","""","""","""",CFD-LM-217-162-N.jpg,Jeremy,1,0,68,"""",1,4/19/2021 0:35,71.238.78.78,Mozilla/5.0 (Macintosh; Intel Mac OS X 10.15; rv:87.0) Gecko/20100101 Firefox/87.0,Macintosh,Firefox,87,OS X,10.15
19,1,null,"""",html-keyboard-response,267,606909,0.0-267.0,"""","<div style=""font-size:60px;"">+</div>","""",256,ITI,Test,null,1000,"""","""","""","""","""","""","""","""",1,4/19/2021 0:35,71.238.78.78,Mozilla/5.0 (Macintosh; Intel Mac OS X 10.15; rv:87.0) Gecko/20100101 Firefox/87.0,Macintosh,Firefox,87,OS X,10.15
19,1,null,"""",image-keyboard-response,268,607162,0.0-268.0,"""",jspsych/scrambledDisgustFaces/scrambledAF28DIS.JPG,"""",256,forwardMask,Test,null,250,"""",d,"""","""","""","""","""","""",1,4/19/2021 0:35,71.238.78.78,Mozilla/5.0 (Macintosh; Intel Mac OS X 10.15; rv:87.0) Gecko/20100101 Firefox/87.0,Macintosh,Firefox,87,OS X,10.15
19,1,null,"""",image-keyboard-response,269,607182,0.0-269.0,"""",jspsych/disgustFaces/AF28DIS.JPG,"""",256,Cue,Test,null,16,"""","""","""","""","""","""","""","""",1,4/19/2021 0:35,71.238.78.78,Mozilla/5.0 (Macintosh; Intel Mac OS X 10.15; rv:87.0) Gecko/20100101 Firefox/87.0,Macintosh,Firefox,87,OS X,10.15
19,1,null,"""",image-keyboard-response,270,607287,0.0-270.0,"""",jspsych/neutralFaces/BF04NES.JPG,"""",256,backwardMask,Test,null,100,"""","""","""","""","""","""","""","""",1,4/19/2021 0:35,71.238.78.78,Mozilla/5.0 (Macintosh; Intel Mac OS X 10.15; rv:87.0) Gecko/20100101 Firefox/87.0,Macintosh,Firefox,87,OS X,10.15
19,1,null,"""",html-keyboard-response,271,608291,0.0-271.0,"""","<div style=""font-size:60px;"">+</div>","""",256,fixationBtwnNeutralMaskAndPrompt,Test,null,1000,"""","""","""","""","""","""","""","""",1,4/19/2021 0:35,71.238.78.78,Mozilla/5.0 (Macintosh; Intel Mac OS X 10.15; rv:87.0) Gecko/20100101 Firefox/87.0,Macintosh,Firefox,87,OS X,10.15
19,1,2036,"""",html-button-response,272,610327,0.0-272.0,"""","<img src='jspsych/CFDfaces/CFD-BM-027-001-N.jpg' height=""250px"">,</br><b>Gregory</b>",0,256,IntactOrRearranged,Test,"""","""","""","""",CFD-LF-218-072-N.jpg,Taylor,1,"""","""",0,1,4/19/2021 0:35,71.238.78.78,Mozilla/5.0 (Macintosh; Intel Mac OS X 10.15; rv:87.0) Gecko/20100101 Firefox/87.0,Macintosh,Firefox,87,OS X,10.15
19,1,2482,"""",html-slider-response,273,612813,0.0-273.0,"""","<img src='jspsych/CFDfaces/CFD-BM-027-001-N.jpg' height=""250px"">,</br><b>Gregory</b>","""",256,ConfidenceQuery,Test,"""","""","""","""",CFD-LF-218-072-N.jpg,Taylor,1,0,58,"""",1,4/19/2021 0:35,71.238.78.78,Mozilla/5.0 (Macintosh; Intel Mac OS X 10.15; rv:87.0) Gecko/20100101 Firefox/87.0,Macintosh,Firefox,87,OS X,10.15
19,1,null,"""",html-keyboard-response,274,613817,0.0-274.0,"""","<div style=""font-size:60px;"">+</div>","""",256,ITI,Test,null,1000,"""","""","""","""","""","""","""","""",1,4/19/2021 0:35,71.238.78.78,Mozilla/5.0 (Macintosh; Intel Mac OS X 10.15; rv:87.0) Gecko/20100101 Firefox/87.0,Macintosh,Firefox,87,OS X,10.15
19,1,null,"""",image-keyboard-response,275,614070,0.0-275.0,"""",jspsych/scrambledNeutralFaces/scrambledBM04NES.JPG,"""",256,forwardMask,Test,null,250,"""",n,"""","""","""","""","""","""",1,4/19/2021 0:35,71.238.78.78,Mozilla/5.0 (Macintosh; Intel Mac OS X 10.15; rv:87.0) Gecko/20100101 Firefox/87.0,Macintosh,Firefox,87,OS X,10.15
19,1,null,"""",image-keyboard-response,276,614090,0.0-276.0,"""",jspsych/neutralFaces/BM04NES.JPG,"""",256,Cue,Test,null,16,"""","""","""","""","""","""","""","""",1,4/19/2021 0:35,71.238.78.78,Mozilla/5.0 (Macintosh; Intel Mac OS X 10.15; rv:87.0) Gecko/20100101 Firefox/87.0,Macintosh,Firefox,87,OS X,10.15
19,1,null,"""",image-keyboard-response,277,614195,0.0-277.0,"""",jspsych/neutralFaces/AM02NES.JPG,"""",256,backwardMask,Test,null,100,"""","""","""","""","""","""","""","""",1,4/19/2021 0:35,71.238.78.78,Mozilla/5.0 (Macintosh; Intel Mac OS X 10.15; rv:87.0) Gecko/20100101 Firefox/87.0,Macintosh,Firefox,87,OS X,10.15
19,1,null,"""",html-keyboard-response,278,615196,0.0-278.0,"""","<div style=""font-size:60px;"">+</div>","""",256,fixationBtwnNeutralMaskAndPrompt,Test,null,1000,"""","""","""","""","""","""","""","""",1,4/19/2021 0:35,71.238.78.78,Mozilla/5.0 (Macintosh; Intel Mac OS X 10.15; rv:87.0) Gecko/20100101 Firefox/87.0,Macintosh,Firefox,87,OS X,10.15
19,1,3894,"""",html-button-response,279,619092,0.0-279.0,"""","<img src='jspsych/CFDfaces/CFD-AF-230-193-N.jpg' height=""250px"">,</br><b>Victoria</b>",1,256,IntactOrRearranged,Test,"""","""","""","""",CFD-BF-001-025-N.jpg,Whitney,1,"""","""",1,1,4/19/2021 0:35,71.238.78.78,Mozilla/5.0 (Macintosh; Intel Mac OS X 10.15; rv:87.0) Gecko/20100101 Firefox/87.0,Macintosh,Firefox,87,OS X,10.15
19,1,3146,"""",html-slider-response,280,622242,0.0-280.0,"""","<img src='jspsych/CFDfaces/CFD-AF-230-193-N.jpg' height=""250px"">,</br><b>Victoria</b>","""",256,ConfidenceQuery,Test,"""","""","""","""",CFD-BF-001-025-N.jpg,Whitney,1,0,58,"""",1,4/19/2021 0:35,71.238.78.78,Mozilla/5.0 (Macintosh; Intel Mac OS X 10.15; rv:87.0) Gecko/20100101 Firefox/87.0,Macintosh,Firefox,87,OS X,10.15
19,1,null,"""",html-keyboard-response,281,623245,0.0-281.0,"""","<div style=""font-size:60px;"">+</div>","""",256,ITI,Test,null,1000,"""","""","""","""","""","""","""","""",1,4/19/2021 0:35,71.238.78.78,Mozilla/5.0 (Macintosh; Intel Mac OS X 10.15; rv:87.0) Gecko/20100101 Firefox/87.0,Macintosh,Firefox,87,OS X,10.15
19,1,null,"""",image-keyboard-response,282,623500,0.0-282.0,"""",jspsych/scrambledDisgustFaces/scrambledBM07DIS.JPG,"""",256,forwardMask,Test,null,250,"""",d,"""","""","""","""","""","""",1,4/19/2021 0:35,71.238.78.78,Mozilla/5.0 (Macintosh; Intel Mac OS X 10.15; rv:87.0) Gecko/20100101 Firefox/87.0,Macintosh,Firefox,87,OS X,10.15
19,1,null,"""",image-keyboard-response,283,623517,0.0-283.0,"""",jspsych/disgustFaces/BM08DIS.JPG,"""",256,Cue,Test,null,16,"""","""","""","""","""","""","""","""",1,4/19/2021 0:35,71.238.78.78,Mozilla/5.0 (Macintosh; Intel Mac OS X 10.15; rv:87.0) Gecko/20100101 Firefox/87.0,Macintosh,Firefox,87,OS X,10.15
19,1,null,"""",image-keyboard-response,284,623622,0.0-284.0,"""",jspsych/neutralFaces/AM34NES.JPG,"""",256,backwardMask,Test,null,100,"""","""","""","""","""","""","""","""",1,4/19/2021 0:35,71.238.78.78,Mozilla/5.0 (Macintosh; Intel Mac OS X 10.15; rv:87.0) Gecko/20100101 Firefox/87.0,Macintosh,Firefox,87,OS X,10.15
19,1,null,"""",html-keyboard-response,285,624623,0.0-285.0,"""","<div style=""font-size:60px;"">+</div>","""",256,fixationBtwnNeutralMaskAndPrompt,Test,null,1000,"""","""","""","""","""","""","""","""",1,4/19/2021 0:35,71.238.78.78,Mozilla/5.0 (Macintosh; Intel Mac OS X 10.15; rv:87.0) Gecko/20100101 Firefox/87.0,Macintosh,Firefox,87,OS X,10.15
19,1,3061,"""",html-button-response,286,627686,0.0-286.0,"""","<img src='jspsych/CFDfaces/CFD-WM-020-001-N.jpg' height=""250px"">,</br><b>Nicholas</b>",1,256,IntactOrRearranged,Test,"""","""","""","""",CFD-WM-222-057-N.jpg,Justin,0,"""","""",1,1,4/19/2021 0:35,71.238.78.78,Mozilla/5.0 (Macintosh; Intel Mac OS X 10.15; rv:87.0) Gecko/20100101 Firefox/87.0,Macintosh,Firefox,87,OS X,10.15
