run_id,condition,rt,responses,trial_type,trial_index,time_elapsed,internal_node_id,question_order,stimulus,button_pressed,iTrial,Phase,ExperimentPhase,key_press,StimulusDurationSetting,CharacterResponse,correctResponse,Face,Name,rearranged,didSubjectEnterRearranged,slider_start,response,Block,recorded_at,ip,user_agent,device,browser,browser_version,platform,platform_version
218,1,7399,"{""Q0"":""A1YX8VS4B8XNJN""}",survey-text,0,7403,0.0-0.0,"""","""","""","""","""","""","""","""","""","""","""","""","""","""","""","""","""",5/1/2021 19:06,24.35.47.62,Mozilla/5.0 (Windows NT 6.1; Win64; x64; rv:87.0) Gecko/20100101 Firefox/87.0,,Firefox,87,Windows,6.1
218,1,2943,"{""Q0"":""27""}",survey-text,1,10356,0.0-1.0,"""","""","""","""","""","""","""","""","""","""","""","""","""","""","""","""","""",5/1/2021 19:06,24.35.47.62,Mozilla/5.0 (Windows NT 6.1; Win64; x64; rv:87.0) Gecko/20100101 Firefox/87.0,,Firefox,87,Windows,6.1
218,1,4593,"{""Q0"":""other"",""Q1"":""Not Hispanic/Latino"",""Q2"":""White or Caucasian""}",survey-multi-choice,2,14958,0.0-2.0,"[0,1,2]","""","""","""","""","""","""","""","""","""","""","""","""","""","""","""","""",5/1/2021 19:06,24.35.47.62,Mozilla/5.0 (Windows NT 6.1; Win64; x64; rv:87.0) Gecko/20100101 Firefox/87.0,,Firefox,87,Windows,6.1
218,1,11672,"""",image-button-response,3,26643,0.0-3.0,"""",directionsMemoryAssociation1.JPG,0,1,IntroDirections1,break,"""","""","""","""","""","""","""","""","""","""","""",5/1/2021 19:06,24.35.47.62,Mozilla/5.0 (Windows NT 6.1; Win64; x64; rv:87.0) Gecko/20100101 Firefox/87.0,,Firefox,87,Windows,6.1
218,1,15123,"""",image-button-response,4,41778,0.0-4.0,"""",directionsMemoryAssociation2.JPG,0,1,IntroDirections2,break,"""","""","""","""","""","""","""","""","""","""","""",5/1/2021 19:06,24.35.47.62,Mozilla/5.0 (Windows NT 6.1; Win64; x64; rv:87.0) Gecko/20100101 Firefox/87.0,,Firefox,87,Windows,6.1
218,1,null,"""",html-keyboard-response,5,46792,0.0-5.0,"""","<img src='jspsych/CFDfaces/CFD-BF-218-207-N.jpg' height=""250px"">,</br><b>Shannon</b>","""",1,IntactFace,Practice,null,5000,"""","""","""","""","""","""","""","""","""",5/1/2021 19:06,24.35.47.62,Mozilla/5.0 (Windows NT 6.1; Win64; x64; rv:87.0) Gecko/20100101 Firefox/87.0,,Firefox,87,Windows,6.1
218,1,null,"""",html-keyboard-response,6,47296,0.0-6.0,"""","<div style=""font-size:60px;"">+</div>","""",1,ITI,Practice,null,1000,"""","""","""","""","""","""","""","""","""",5/1/2021 19:06,24.35.47.62,Mozilla/5.0 (Windows NT 6.1; Win64; x64; rv:87.0) Gecko/20100101 Firefox/87.0,,Firefox,87,Windows,6.1
218,1,3902,"""",html-keyboard-response,7,52302,0.0-7.0,"""","<img src='jspsych/CFDfaces/CFD-AF-208-003-N.jpg' height=""250px"">,</br><b>Katelyn</b>","""",2,IntactFace,Practice,78,5000,n,"""","""","""","""","""","""","""","""",5/1/2021 19:06,24.35.47.62,Mozilla/5.0 (Windows NT 6.1; Win64; x64; rv:87.0) Gecko/20100101 Firefox/87.0,,Firefox,87,Windows,6.1
218,1,null,"""",html-keyboard-response,8,52806,0.0-8.0,"""","<div style=""font-size:60px;"">+</div>","""",2,ITI,Practice,null,1000,"""","""","""","""","""","""","""","""","""",5/1/2021 19:06,24.35.47.62,Mozilla/5.0 (Windows NT 6.1; Win64; x64; rv:87.0) Gecko/20100101 Firefox/87.0,,Firefox,87,Windows,6.1
218,1,2807,"""",html-keyboard-response,9,57811,0.0-9.0,"""","<img src='jspsych/CFDfaces/CFD-BM-002-013-N.jpg' height=""250px"">,</br><b>Carlos</b>","""",3,IntactFace,Practice,70,5000,f,"""","""","""","""","""","""","""","""",5/1/2021 19:06,24.35.47.62,Mozilla/5.0 (Windows NT 6.1; Win64; x64; rv:87.0) Gecko/20100101 Firefox/87.0,,Firefox,87,Windows,6.1
218,1,null,"""",html-keyboard-response,10,58313,0.0-10.0,"""","<div style=""font-size:60px;"">+</div>","""",3,ITI,Practice,null,1000,"""","""","""","""","""","""","""","""","""",5/1/2021 19:06,24.35.47.62,Mozilla/5.0 (Windows NT 6.1; Win64; x64; rv:87.0) Gecko/20100101 Firefox/87.0,,Firefox,87,Windows,6.1
218,1,3375,"""",html-keyboard-response,11,63320,0.0-11.0,"""","<img src='jspsych/CFDfaces/CFD-LM-209-111-N.jpg' height=""250px"">,</br><b>Patrick</b>","""",4,IntactFace,Practice,70,5000,f,"""","""","""","""","""","""","""","""",5/1/2021 19:06,24.35.47.62,Mozilla/5.0 (Windows NT 6.1; Win64; x64; rv:87.0) Gecko/20100101 Firefox/87.0,,Firefox,87,Windows,6.1
218,1,null,"""",html-keyboard-response,12,63821,0.0-12.0,"""","<div style=""font-size:60px;"">+</div>","""",4,ITI,Practice,null,1000,"""","""","""","""","""","""","""","""","""",5/1/2021 19:06,24.35.47.62,Mozilla/5.0 (Windows NT 6.1; Win64; x64; rv:87.0) Gecko/20100101 Firefox/87.0,,Firefox,87,Windows,6.1
218,1,1973,"""",html-keyboard-response,13,68828,0.0-13.0,"""","<img src='jspsych/CFDfaces/CFD-AF-240-206-N.jpg' height=""250px"">,</br><b>Tara</b>","""",5,IntactFace,Practice,78,5000,n,"""","""","""","""","""","""","""","""",5/1/2021 19:06,24.35.47.62,Mozilla/5.0 (Windows NT 6.1; Win64; x64; rv:87.0) Gecko/20100101 Firefox/87.0,,Firefox,87,Windows,6.1
218,1,null,"""",html-keyboard-response,14,69329,0.0-14.0,"""","<div style=""font-size:60px;"">+</div>","""",5,ITI,Practice,null,1000,"""","""","""","""","""","""","""","""","""",5/1/2021 19:06,24.35.47.62,Mozilla/5.0 (Windows NT 6.1; Win64; x64; rv:87.0) Gecko/20100101 Firefox/87.0,,Firefox,87,Windows,6.1
218,1,1701,"""",html-keyboard-response,15,74334,0.0-15.0,"""","<img src='jspsych/CFDfaces/CFD-AM-202-079-N.jpg' height=""250px"">,</br><b>Samuel</b>","""",6,IntactFace,Practice,78,5000,n,"""","""","""","""","""","""","""","""",5/1/2021 19:06,24.35.47.62,Mozilla/5.0 (Windows NT 6.1; Win64; x64; rv:87.0) Gecko/20100101 Firefox/87.0,,Firefox,87,Windows,6.1
218,1,null,"""",html-keyboard-response,16,74836,0.0-16.0,"""","<div style=""font-size:60px;"">+</div>","""",6,ITI,Practice,null,1000,"""","""","""","""","""","""","""","""","""",5/1/2021 19:06,24.35.47.62,Mozilla/5.0 (Windows NT 6.1; Win64; x64; rv:87.0) Gecko/20100101 Firefox/87.0,,Firefox,87,Windows,6.1
218,1,2135,"""",html-keyboard-response,17,79842,0.0-17.0,"""","<img src='jspsych/CFDfaces/CFD-BF-212-315-N.jpg' height=""250px"">,</br><b>Cassandra</b>","""",7,IntactFace,Practice,70,5000,f,"""","""","""","""","""","""","""","""",5/1/2021 19:06,24.35.47.62,Mozilla/5.0 (Windows NT 6.1; Win64; x64; rv:87.0) Gecko/20100101 Firefox/87.0,,Firefox,87,Windows,6.1
218,1,null,"""",html-keyboard-response,18,80343,0.0-18.0,"""","<div style=""font-size:60px;"">+</div>","""",7,ITI,Practice,null,1000,"""","""","""","""","""","""","""","""","""",5/1/2021 19:06,24.35.47.62,Mozilla/5.0 (Windows NT 6.1; Win64; x64; rv:87.0) Gecko/20100101 Firefox/87.0,,Firefox,87,Windows,6.1
218,1,2111,"""",html-keyboard-response,19,85353,0.0-19.0,"""","<img src='jspsych/CFDfaces/CFD-LM-248-089-N.jpg' height=""250px"">,</br><b>Marcus</b>","""",8,IntactFace,Practice,78,5000,n,"""","""","""","""","""","""","""","""",5/1/2021 19:06,24.35.47.62,Mozilla/5.0 (Windows NT 6.1; Win64; x64; rv:87.0) Gecko/20100101 Firefox/87.0,,Firefox,87,Windows,6.1
218,1,null,"""",html-keyboard-response,20,85859,0.0-20.0,"""","<div style=""font-size:60px;"">+</div>","""",8,ITI,Practice,null,1000,"""","""","""","""","""","""","""","""","""",5/1/2021 19:06,24.35.47.62,Mozilla/5.0 (Windows NT 6.1; Win64; x64; rv:87.0) Gecko/20100101 Firefox/87.0,,Firefox,87,Windows,6.1
218,1,4176,"""",image-button-response,21,90052,0.0-21.0,"""",directionsForTest.JPG,0,1,directionsForTest,break,"""","""","""","""","""","""","""","""","""","""","""",5/1/2021 19:06,24.35.47.62,Mozilla/5.0 (Windows NT 6.1; Win64; x64; rv:87.0) Gecko/20100101 Firefox/87.0,,Firefox,87,Windows,6.1
218,1,13622,"""",image-button-response,22,103708,0.0-22.0,"""",directionsForTest2.JPG,0,1,directionsForTest2,break,"""","""","""","""","""","""","""","""","""","""","""",5/1/2021 19:06,24.35.47.62,Mozilla/5.0 (Windows NT 6.1; Win64; x64; rv:87.0) Gecko/20100101 Firefox/87.0,,Firefox,87,Windows,6.1
218,1,null,"""",html-keyboard-response,23,104712,0.0-23.0,"""","<div style=""font-size:60px;"">+</div>","""",1,ITI,Practice,null,1000,"""","""","""","""","""","""","""","""","""",5/1/2021 19:06,24.35.47.62,Mozilla/5.0 (Windows NT 6.1; Win64; x64; rv:87.0) Gecko/20100101 Firefox/87.0,,Firefox,87,Windows,6.1
218,1,null,"""",image-keyboard-response,24,104988,0.0-24.0,"""",jspsych/scrambledDisgustFaces/scrambledBM30DIS.JPG,"""",1,forwardMask,Practice,null,250,"""",d,"""","""","""","""","""","""","""",5/1/2021 19:06,24.35.47.62,Mozilla/5.0 (Windows NT 6.1; Win64; x64; rv:87.0) Gecko/20100101 Firefox/87.0,,Firefox,87,Windows,6.1
218,1,null,"""",image-keyboard-response,25,105008,0.0-25.0,"""",jspsych/disgustFaces/BM31DIS.JPG,"""",1,Cue,Practice,null,16,"""","""","""","""","""","""","""","""","""",5/1/2021 19:06,24.35.47.62,Mozilla/5.0 (Windows NT 6.1; Win64; x64; rv:87.0) Gecko/20100101 Firefox/87.0,,Firefox,87,Windows,6.1
218,1,null,"""",image-keyboard-response,26,105112,0.0-26.0,"""",jspsych/neutralFaces/BM06NES.JPG,"""",1,backwardMask,Practice,null,100,"""","""","""","""","""","""","""","""","""",5/1/2021 19:06,24.35.47.62,Mozilla/5.0 (Windows NT 6.1; Win64; x64; rv:87.0) Gecko/20100101 Firefox/87.0,,Firefox,87,Windows,6.1
218,1,null,"""",html-keyboard-response,27,106115,0.0-27.0,"""","<div style=""font-size:60px;"">+</div>","""",1,fixationBtwnNeutralMaskAndPrompt,Practice,null,1000,"""","""","""","""","""","""","""","""","""",5/1/2021 19:06,24.35.47.62,Mozilla/5.0 (Windows NT 6.1; Win64; x64; rv:87.0) Gecko/20100101 Firefox/87.0,,Firefox,87,Windows,6.1
218,1,2482,"""",html-button-response,28,108600,0.0-28.0,"""","<img src='jspsych/CFDfaces/CFD-BF-218-207-N.jpg'height=""250px""></br><b>Shannon</b>",0,1,IntactOrRearranged,Practice,"""","""","""","""",CFD-BF-218-207-N.jpg,Shannon,0,0,"""","""","""",5/1/2021 19:06,24.35.47.62,Mozilla/5.0 (Windows NT 6.1; Win64; x64; rv:87.0) Gecko/20100101 Firefox/87.0,,Firefox,87,Windows,6.1
218,1,3156,"""",html-slider-response,29,111761,0.0-29.0,"""","<img src='jspsych/CFDfaces/CFD-BF-218-207-N.jpg'height=""250px""></br><b>Shannon</b>","""",1,ConfidenceQuery,Practice,"""","""","""","""",CFD-WF-017-003-N.jpg,Rebecca,0,"""",0,100,"""",5/1/2021 19:06,24.35.47.62,Mozilla/5.0 (Windows NT 6.1; Win64; x64; rv:87.0) Gecko/20100101 Firefox/87.0,,Firefox,87,Windows,6.1
218,1,2016,"""",html-button-response,30,113795,0.0-30.0,"""",You are Correct. You called an Intact Pair Intact,0,1,feedback,Practice,"""","""","""","""","""","""","""","""","""","""","""",5/1/2021 19:06,24.35.47.62,Mozilla/5.0 (Windows NT 6.1; Win64; x64; rv:87.0) Gecko/20100101 Firefox/87.0,,Firefox,87,Windows,6.1
218,1,null,"""",html-keyboard-response,31,114798,0.0-31.0,"""","<div style=""font-size:60px;"">+</div>","""",2,ITI,Practice,null,1000,"""","""","""","""","""","""","""","""","""",5/1/2021 19:06,24.35.47.62,Mozilla/5.0 (Windows NT 6.1; Win64; x64; rv:87.0) Gecko/20100101 Firefox/87.0,,Firefox,87,Windows,6.1
218,1,null,"""",image-keyboard-response,32,115051,0.0-32.0,"""",jspsych/scrambledDisgustFaces/scrambledAM15DIS.JPG,"""",2,forwardMask,Practice,null,250,"""",d,"""","""","""","""","""","""","""",5/1/2021 19:06,24.35.47.62,Mozilla/5.0 (Windows NT 6.1; Win64; x64; rv:87.0) Gecko/20100101 Firefox/87.0,,Firefox,87,Windows,6.1
218,1,null,"""",image-keyboard-response,33,115072,0.0-33.0,"""",jspsych/disgustFaces/AM15DIS.JPG,"""",2,Cue,Practice,null,16,"""","""","""","""","""","""","""","""","""",5/1/2021 19:06,24.35.47.62,Mozilla/5.0 (Windows NT 6.1; Win64; x64; rv:87.0) Gecko/20100101 Firefox/87.0,,Firefox,87,Windows,6.1
218,1,null,"""",image-keyboard-response,34,115177,0.0-34.0,"""",jspsych/neutralFaces/AM10NES.JPG,"""",2,backwardMask,Practice,null,100,"""","""","""","""","""","""","""","""","""",5/1/2021 19:06,24.35.47.62,Mozilla/5.0 (Windows NT 6.1; Win64; x64; rv:87.0) Gecko/20100101 Firefox/87.0,,Firefox,87,Windows,6.1
218,1,null,"""",html-keyboard-response,35,116178,0.0-35.0,"""","<div style=""font-size:60px;"">+</div>","""",2,fixationBtwnNeutralMaskAndPrompt,Practice,null,1000,"""","""","""","""","""","""","""","""","""",5/1/2021 19:06,24.35.47.62,Mozilla/5.0 (Windows NT 6.1; Win64; x64; rv:87.0) Gecko/20100101 Firefox/87.0,,Firefox,87,Windows,6.1
218,1,2768,"""",html-button-response,36,118951,0.0-36.0,"""","<img src='jspsych/CFDfaces/CFD-AF-208-003-N.jpg'height=""250px""></br><b>Cassandra</b>",1,2,IntactOrRearranged,Practice,"""","""","""","""",CFD-AF-208-003-N.jpg,Cassandra,1,1,"""","""","""",5/1/2021 19:06,24.35.47.62,Mozilla/5.0 (Windows NT 6.1; Win64; x64; rv:87.0) Gecko/20100101 Firefox/87.0,,Firefox,87,Windows,6.1
218,1,3036,"""",html-slider-response,37,121998,0.0-37.0,"""","<img src='jspsych/CFDfaces/CFD-AF-208-003-N.jpg'height=""250px""></br><b>Cassandra</b>","""",2,ConfidenceQuery,Practice,"""","""","""","""",CFD-WF-017-003-N.jpg,Rebecca,1,"""",0,86,"""",5/1/2021 19:06,24.35.47.62,Mozilla/5.0 (Windows NT 6.1; Win64; x64; rv:87.0) Gecko/20100101 Firefox/87.0,,Firefox,87,Windows,6.1
218,1,1837,"""",html-button-response,38,123837,0.0-38.0,"""",You are Correct. You Called A Rearranged Pair Rearranged,0,2,feedback,Practice,"""","""","""","""","""","""","""","""","""","""","""",5/1/2021 19:06,24.35.47.62,Mozilla/5.0 (Windows NT 6.1; Win64; x64; rv:87.0) Gecko/20100101 Firefox/87.0,,Firefox,87,Windows,6.1
218,1,null,"""",html-keyboard-response,39,124857,0.0-39.0,"""","<div style=""font-size:60px;"">+</div>","""",3,ITI,Practice,null,1000,"""","""","""","""","""","""","""","""","""",5/1/2021 19:06,24.35.47.62,Mozilla/5.0 (Windows NT 6.1; Win64; x64; rv:87.0) Gecko/20100101 Firefox/87.0,,Firefox,87,Windows,6.1
218,1,null,"""",image-keyboard-response,40,125114,0.0-40.0,"""",jspsych/scrambledDisgustFaces/scrambledAF22DIS.JPG,"""",3,forwardMask,Practice,null,250,"""",d,"""","""","""","""","""","""","""",5/1/2021 19:06,24.35.47.62,Mozilla/5.0 (Windows NT 6.1; Win64; x64; rv:87.0) Gecko/20100101 Firefox/87.0,,Firefox,87,Windows,6.1
218,1,null,"""",image-keyboard-response,41,125137,0.0-41.0,"""",jspsych/disgustFaces/AF22DIS.JPG,"""",3,Cue,Practice,null,16,"""","""","""","""","""","""","""","""","""",5/1/2021 19:06,24.35.47.62,Mozilla/5.0 (Windows NT 6.1; Win64; x64; rv:87.0) Gecko/20100101 Firefox/87.0,,Firefox,87,Windows,6.1
218,1,null,"""",image-keyboard-response,42,125249,0.0-42.0,"""",jspsych/neutralFaces/AF35NES.JPG,"""",3,backwardMask,Practice,null,100,"""","""","""","""","""","""","""","""","""",5/1/2021 19:06,24.35.47.62,Mozilla/5.0 (Windows NT 6.1; Win64; x64; rv:87.0) Gecko/20100101 Firefox/87.0,,Firefox,87,Windows,6.1
218,1,null,"""",html-keyboard-response,43,126250,0.0-43.0,"""","<div style=""font-size:60px;"">+</div>","""",3,fixationBtwnNeutralMaskAndPrompt,Practice,null,1000,"""","""","""","""","""","""","""","""","""",5/1/2021 19:06,24.35.47.62,Mozilla/5.0 (Windows NT 6.1; Win64; x64; rv:87.0) Gecko/20100101 Firefox/87.0,,Firefox,87,Windows,6.1
218,1,2436,"""",html-button-response,44,128689,0.0-44.0,"""","<img src='jspsych/CFDfaces/CFD-BM-002-013-N.jpg'height=""250px""></br><b>Marcus</b>",1,3,IntactOrRearranged,Practice,"""","""","""","""",CFD-BM-002-013-N.jpg,Marcus,1,1,"""","""","""",5/1/2021 19:06,24.35.47.62,Mozilla/5.0 (Windows NT 6.1; Win64; x64; rv:87.0) Gecko/20100101 Firefox/87.0,,Firefox,87,Windows,6.1
218,1,2707,"""",html-slider-response,45,131405,0.0-45.0,"""","<img src='jspsych/CFDfaces/CFD-BM-002-013-N.jpg'height=""250px""></br><b>Marcus</b>","""",3,ConfidenceQuery,Practice,"""","""","""","""",CFD-WF-017-003-N.jpg,Rebecca,1,"""",0,100,"""",5/1/2021 19:06,24.35.47.62,Mozilla/5.0 (Windows NT 6.1; Win64; x64; rv:87.0) Gecko/20100101 Firefox/87.0,,Firefox,87,Windows,6.1
218,1,1367,"""",html-button-response,46,132784,0.0-46.0,"""",You are Correct. You Called A Rearranged Pair Rearranged,0,3,feedback,Practice,"""","""","""","""","""","""","""","""","""","""","""",5/1/2021 19:06,24.35.47.62,Mozilla/5.0 (Windows NT 6.1; Win64; x64; rv:87.0) Gecko/20100101 Firefox/87.0,,Firefox,87,Windows,6.1
218,1,null,"""",html-keyboard-response,47,133788,0.0-47.0,"""","<div style=""font-size:60px;"">+</div>","""",4,ITI,Practice,null,1000,"""","""","""","""","""","""","""","""","""",5/1/2021 19:06,24.35.47.62,Mozilla/5.0 (Windows NT 6.1; Win64; x64; rv:87.0) Gecko/20100101 Firefox/87.0,,Firefox,87,Windows,6.1
218,1,null,"""",image-keyboard-response,48,134041,0.0-48.0,"""",jspsych/scrambledDisgustFaces/scrambledBF30DIS.JPG,"""",4,forwardMask,Practice,null,250,"""",d,"""","""","""","""","""","""","""",5/1/2021 19:06,24.35.47.62,Mozilla/5.0 (Windows NT 6.1; Win64; x64; rv:87.0) Gecko/20100101 Firefox/87.0,,Firefox,87,Windows,6.1
218,1,null,"""",image-keyboard-response,49,134063,0.0-49.0,"""",jspsych/disgustFaces/BF30DIS.JPG,"""",4,Cue,Practice,null,16,"""","""","""","""","""","""","""","""","""",5/1/2021 19:06,24.35.47.62,Mozilla/5.0 (Windows NT 6.1; Win64; x64; rv:87.0) Gecko/20100101 Firefox/87.0,,Firefox,87,Windows,6.1
218,1,null,"""",image-keyboard-response,50,134169,0.0-50.0,"""",jspsych/neutralFaces/AF29NES.JPG,"""",4,backwardMask,Practice,null,100,"""","""","""","""","""","""","""","""","""",5/1/2021 19:06,24.35.47.62,Mozilla/5.0 (Windows NT 6.1; Win64; x64; rv:87.0) Gecko/20100101 Firefox/87.0,,Firefox,87,Windows,6.1
218,1,null,"""",html-keyboard-response,51,135170,0.0-51.0,"""","<div style=""font-size:60px;"">+</div>","""",4,fixationBtwnNeutralMaskAndPrompt,Practice,null,1000,"""","""","""","""","""","""","""","""","""",5/1/2021 19:06,24.35.47.62,Mozilla/5.0 (Windows NT 6.1; Win64; x64; rv:87.0) Gecko/20100101 Firefox/87.0,,Firefox,87,Windows,6.1
218,1,1761,"""",html-button-response,52,136933,0.0-52.0,"""","<img src='jspsych/CFDfaces/CFD-LM-248-089-N.jpg'height=""250px""></br><b>Carlos</b>",1,4,IntactOrRearranged,Practice,"""","""","""","""",CFD-LM-248-089-N.jpg,Carlos,1,1,"""","""","""",5/1/2021 19:06,24.35.47.62,Mozilla/5.0 (Windows NT 6.1; Win64; x64; rv:87.0) Gecko/20100101 Firefox/87.0,,Firefox,87,Windows,6.1
218,1,2710,"""",html-slider-response,53,139650,0.0-53.0,"""","<img src='jspsych/CFDfaces/CFD-LM-248-089-N.jpg'height=""250px""></br><b>Carlos</b>","""",4,ConfidenceQuery,Practice,"""","""","""","""",CFD-WF-017-003-N.jpg,Rebecca,1,"""",0,100,"""",5/1/2021 19:06,24.35.47.62,Mozilla/5.0 (Windows NT 6.1; Win64; x64; rv:87.0) Gecko/20100101 Firefox/87.0,,Firefox,87,Windows,6.1
218,1,1335,"""",html-button-response,54,140986,0.0-54.0,"""",You are Correct. You Called A Rearranged Pair Rearranged,0,4,feedback,Practice,"""","""","""","""","""","""","""","""","""","""","""",5/1/2021 19:06,24.35.47.62,Mozilla/5.0 (Windows NT 6.1; Win64; x64; rv:87.0) Gecko/20100101 Firefox/87.0,,Firefox,87,Windows,6.1
218,1,null,"""",html-keyboard-response,55,141989,0.0-55.0,"""","<div style=""font-size:60px;"">+</div>","""",5,ITI,Practice,null,1000,"""","""","""","""","""","""","""","""","""",5/1/2021 19:06,24.35.47.62,Mozilla/5.0 (Windows NT 6.1; Win64; x64; rv:87.0) Gecko/20100101 Firefox/87.0,,Firefox,87,Windows,6.1
218,1,null,"""",image-keyboard-response,56,142244,0.0-56.0,"""",jspsych/scrambledDisgustFaces/scrambledBF31DIS.JPG,"""",5,forwardMask,Practice,null,250,"""",d,"""","""","""","""","""","""","""",5/1/2021 19:06,24.35.47.62,Mozilla/5.0 (Windows NT 6.1; Win64; x64; rv:87.0) Gecko/20100101 Firefox/87.0,,Firefox,87,Windows,6.1
218,1,null,"""",image-keyboard-response,57,142266,0.0-57.0,"""",jspsych/disgustFaces/BF31DIS.JPG,"""",5,Cue,Practice,null,16,"""","""","""","""","""","""","""","""","""",5/1/2021 19:06,24.35.47.62,Mozilla/5.0 (Windows NT 6.1; Win64; x64; rv:87.0) Gecko/20100101 Firefox/87.0,,Firefox,87,Windows,6.1
218,1,null,"""",image-keyboard-response,58,142374,0.0-58.0,"""",jspsych/neutralFaces/BF32NES.JPG,"""",5,backwardMask,Practice,null,100,"""","""","""","""","""","""","""","""","""",5/1/2021 19:06,24.35.47.62,Mozilla/5.0 (Windows NT 6.1; Win64; x64; rv:87.0) Gecko/20100101 Firefox/87.0,,Firefox,87,Windows,6.1
218,1,null,"""",html-keyboard-response,59,143381,0.0-59.0,"""","<div style=""font-size:60px;"">+</div>","""",5,fixationBtwnNeutralMaskAndPrompt,Practice,null,1000,"""","""","""","""","""","""","""","""","""",5/1/2021 19:06,24.35.47.62,Mozilla/5.0 (Windows NT 6.1; Win64; x64; rv:87.0) Gecko/20100101 Firefox/87.0,,Firefox,87,Windows,6.1
218,1,1832,"""",html-button-response,60,145215,0.0-60.0,"""","<img src='jspsych/CFDfaces/CFD-AM-202-079-N.jpg'height=""250px""></br><b>Samuel</b>",0,5,IntactOrRearranged,Practice,"""","""","""","""",CFD-AM-202-079-N.jpg,Samuel,0,0,"""","""","""",5/1/2021 19:06,24.35.47.62,Mozilla/5.0 (Windows NT 6.1; Win64; x64; rv:87.0) Gecko/20100101 Firefox/87.0,,Firefox,87,Windows,6.1
218,1,2595,"""",html-slider-response,61,147813,0.0-61.0,"""","<img src='jspsych/CFDfaces/CFD-AM-202-079-N.jpg'height=""250px""></br><b>Samuel</b>","""",5,ConfidenceQuery,Practice,"""","""","""","""",CFD-WF-017-003-N.jpg,Rebecca,0,"""",0,100,"""",5/1/2021 19:06,24.35.47.62,Mozilla/5.0 (Windows NT 6.1; Win64; x64; rv:87.0) Gecko/20100101 Firefox/87.0,,Firefox,87,Windows,6.1
218,1,1225,"""",html-button-response,62,149043,0.0-62.0,"""",You are Correct. You called an Intact Pair Intact,0,5,feedback,Practice,"""","""","""","""","""","""","""","""","""","""","""",5/1/2021 19:06,24.35.47.62,Mozilla/5.0 (Windows NT 6.1; Win64; x64; rv:87.0) Gecko/20100101 Firefox/87.0,,Firefox,87,Windows,6.1
218,1,null,"""",html-keyboard-response,63,150044,0.0-63.0,"""","<div style=""font-size:60px;"">+</div>","""",6,ITI,Practice,null,1000,"""","""","""","""","""","""","""","""","""",5/1/2021 19:06,24.35.47.62,Mozilla/5.0 (Windows NT 6.1; Win64; x64; rv:87.0) Gecko/20100101 Firefox/87.0,,Firefox,87,Windows,6.1
218,1,null,"""",image-keyboard-response,64,150298,0.0-64.0,"""",jspsych/scrambledDisgustFaces/scrambledAF29DIS.JPG,"""",6,forwardMask,Practice,null,250,"""",d,"""","""","""","""","""","""","""",5/1/2021 19:06,24.35.47.62,Mozilla/5.0 (Windows NT 6.1; Win64; x64; rv:87.0) Gecko/20100101 Firefox/87.0,,Firefox,87,Windows,6.1
218,1,null,"""",image-keyboard-response,65,150318,0.0-65.0,"""",jspsych/disgustFaces/AF29DIS.JPG,"""",6,Cue,Practice,null,16,"""","""","""","""","""","""","""","""","""",5/1/2021 19:06,24.35.47.62,Mozilla/5.0 (Windows NT 6.1; Win64; x64; rv:87.0) Gecko/20100101 Firefox/87.0,,Firefox,87,Windows,6.1
218,1,null,"""",image-keyboard-response,66,150426,0.0-66.0,"""",jspsych/neutralFaces/BF17NES.JPG,"""",6,backwardMask,Practice,null,100,"""","""","""","""","""","""","""","""","""",5/1/2021 19:06,24.35.47.62,Mozilla/5.0 (Windows NT 6.1; Win64; x64; rv:87.0) Gecko/20100101 Firefox/87.0,,Firefox,87,Windows,6.1
218,1,null,"""",html-keyboard-response,67,151427,0.0-67.0,"""","<div style=""font-size:60px;"">+</div>","""",6,fixationBtwnNeutralMaskAndPrompt,Practice,null,1000,"""","""","""","""","""","""","""","""","""",5/1/2021 19:06,24.35.47.62,Mozilla/5.0 (Windows NT 6.1; Win64; x64; rv:87.0) Gecko/20100101 Firefox/87.0,,Firefox,87,Windows,6.1
218,1,1665,"""",html-button-response,68,153094,0.0-68.0,"""","<img src='jspsych/CFDfaces/CFD-LM-209-111-N.jpg'height=""250px""></br><b>Patrick</b>",0,6,IntactOrRearranged,Practice,"""","""","""","""",CFD-LM-209-111-N.jpg,Patrick,0,0,"""","""","""",5/1/2021 19:06,24.35.47.62,Mozilla/5.0 (Windows NT 6.1; Win64; x64; rv:87.0) Gecko/20100101 Firefox/87.0,,Firefox,87,Windows,6.1
218,1,2845,"""",html-slider-response,69,155943,0.0-69.0,"""","<img src='jspsych/CFDfaces/CFD-LM-209-111-N.jpg'height=""250px""></br><b>Patrick</b>","""",6,ConfidenceQuery,Practice,"""","""","""","""",CFD-WF-017-003-N.jpg,Rebecca,0,"""",0,100,"""",5/1/2021 19:06,24.35.47.62,Mozilla/5.0 (Windows NT 6.1; Win64; x64; rv:87.0) Gecko/20100101 Firefox/87.0,,Firefox,87,Windows,6.1
218,1,1311,"""",html-button-response,70,157257,0.0-70.0,"""",You are Correct. You called an Intact Pair Intact,0,6,feedback,Practice,"""","""","""","""","""","""","""","""","""","""","""",5/1/2021 19:06,24.35.47.62,Mozilla/5.0 (Windows NT 6.1; Win64; x64; rv:87.0) Gecko/20100101 Firefox/87.0,,Firefox,87,Windows,6.1
218,1,null,"""",html-keyboard-response,71,158259,0.0-71.0,"""","<div style=""font-size:60px;"">+</div>","""",7,ITI,Practice,null,1000,"""","""","""","""","""","""","""","""","""",5/1/2021 19:06,24.35.47.62,Mozilla/5.0 (Windows NT 6.1; Win64; x64; rv:87.0) Gecko/20100101 Firefox/87.0,,Firefox,87,Windows,6.1
218,1,null,"""",image-keyboard-response,72,158513,0.0-72.0,"""",jspsych/scrambledNeutralFaces/scrambledAF02NES.JPG,"""",7,forwardMask,Practice,null,250,"""",n,"""","""","""","""","""","""","""",5/1/2021 19:06,24.35.47.62,Mozilla/5.0 (Windows NT 6.1; Win64; x64; rv:87.0) Gecko/20100101 Firefox/87.0,,Firefox,87,Windows,6.1
218,1,null,"""",image-keyboard-response,73,158540,0.0-73.0,"""",jspsych/neutralFaces/AF02NES.JPG,"""",7,Cue,Practice,null,16,"""","""","""","""","""","""","""","""","""",5/1/2021 19:06,24.35.47.62,Mozilla/5.0 (Windows NT 6.1; Win64; x64; rv:87.0) Gecko/20100101 Firefox/87.0,,Firefox,87,Windows,6.1
218,1,null,"""",image-keyboard-response,74,158644,0.0-74.0,"""",jspsych/neutralFaces/BF14NES.JPG,"""",7,backwardMask,Practice,null,100,"""","""","""","""","""","""","""","""","""",5/1/2021 19:06,24.35.47.62,Mozilla/5.0 (Windows NT 6.1; Win64; x64; rv:87.0) Gecko/20100101 Firefox/87.0,,Firefox,87,Windows,6.1
218,1,null,"""",html-keyboard-response,75,159646,0.0-75.0,"""","<div style=""font-size:60px;"">+</div>","""",7,fixationBtwnNeutralMaskAndPrompt,Practice,null,1000,"""","""","""","""","""","""","""","""","""",5/1/2021 19:06,24.35.47.62,Mozilla/5.0 (Windows NT 6.1; Win64; x64; rv:87.0) Gecko/20100101 Firefox/87.0,,Firefox,87,Windows,6.1
218,1,1990,"""",html-button-response,76,161638,0.0-76.0,"""","<img src='jspsych/CFDfaces/CFD-AF-240-206-N.jpg'height=""250px""></br><b>Tara</b>",0,7,IntactOrRearranged,Practice,"""","""","""","""",CFD-AF-240-206-N.jpg,Tara,0,0,"""","""","""",5/1/2021 19:06,24.35.47.62,Mozilla/5.0 (Windows NT 6.1; Win64; x64; rv:87.0) Gecko/20100101 Firefox/87.0,,Firefox,87,Windows,6.1
218,1,2551,"""",html-slider-response,77,164191,0.0-77.0,"""","<img src='jspsych/CFDfaces/CFD-AF-240-206-N.jpg'height=""250px""></br><b>Tara</b>","""",7,ConfidenceQuery,Practice,"""","""","""","""",CFD-WF-017-003-N.jpg,Rebecca,0,"""",0,100,"""",5/1/2021 19:06,24.35.47.62,Mozilla/5.0 (Windows NT 6.1; Win64; x64; rv:87.0) Gecko/20100101 Firefox/87.0,,Firefox,87,Windows,6.1
218,1,1618,"""",html-button-response,78,165811,0.0-78.0,"""",You are Correct. You called an Intact Pair Intact,0,7,feedback,Practice,"""","""","""","""","""","""","""","""","""","""","""",5/1/2021 19:06,24.35.47.62,Mozilla/5.0 (Windows NT 6.1; Win64; x64; rv:87.0) Gecko/20100101 Firefox/87.0,,Firefox,87,Windows,6.1
218,1,null,"""",html-keyboard-response,79,166820,0.0-79.0,"""","<div style=""font-size:60px;"">+</div>","""",8,ITI,Practice,null,1000,"""","""","""","""","""","""","""","""","""",5/1/2021 19:06,24.35.47.62,Mozilla/5.0 (Windows NT 6.1; Win64; x64; rv:87.0) Gecko/20100101 Firefox/87.0,,Firefox,87,Windows,6.1
218,1,null,"""",image-keyboard-response,80,167075,0.0-80.0,"""",jspsych/scrambledDisgustFaces/scrambledAF03DIS.JPG,"""",8,forwardMask,Practice,null,250,"""",d,"""","""","""","""","""","""","""",5/1/2021 19:06,24.35.47.62,Mozilla/5.0 (Windows NT 6.1; Win64; x64; rv:87.0) Gecko/20100101 Firefox/87.0,,Firefox,87,Windows,6.1
218,1,null,"""",image-keyboard-response,81,167096,0.0-81.0,"""",jspsych/disgustFaces/AF03DIS.JPG,"""",8,Cue,Practice,null,16,"""","""","""","""","""","""","""","""","""",5/1/2021 19:06,24.35.47.62,Mozilla/5.0 (Windows NT 6.1; Win64; x64; rv:87.0) Gecko/20100101 Firefox/87.0,,Firefox,87,Windows,6.1
218,1,null,"""",image-keyboard-response,82,167200,0.0-82.0,"""",jspsych/neutralFaces/AF11NES.JPG,"""",8,backwardMask,Practice,null,100,"""","""","""","""","""","""","""","""","""",5/1/2021 19:06,24.35.47.62,Mozilla/5.0 (Windows NT 6.1; Win64; x64; rv:87.0) Gecko/20100101 Firefox/87.0,,Firefox,87,Windows,6.1
218,1,null,"""",html-keyboard-response,83,168203,0.0-83.0,"""","<div style=""font-size:60px;"">+</div>","""",8,fixationBtwnNeutralMaskAndPrompt,Practice,null,1000,"""","""","""","""","""","""","""","""","""",5/1/2021 19:06,24.35.47.62,Mozilla/5.0 (Windows NT 6.1; Win64; x64; rv:87.0) Gecko/20100101 Firefox/87.0,,Firefox,87,Windows,6.1
218,1,1530,"""",html-button-response,84,169736,0.0-84.0,"""","<img src='jspsych/CFDfaces/CFD-BF-212-315-N.jpg'height=""250px""></br><b>Katelyn</b>",1,8,IntactOrRearranged,Practice,"""","""","""","""",CFD-BF-212-315-N.jpg,Katelyn,1,1,"""","""","""",5/1/2021 19:06,24.35.47.62,Mozilla/5.0 (Windows NT 6.1; Win64; x64; rv:87.0) Gecko/20100101 Firefox/87.0,,Firefox,87,Windows,6.1
218,1,3126,"""",html-slider-response,85,172863,0.0-85.0,"""","<img src='jspsych/CFDfaces/CFD-BF-212-315-N.jpg'height=""250px""></br><b>Katelyn</b>","""",8,ConfidenceQuery,Practice,"""","""","""","""",CFD-WF-017-003-N.jpg,Rebecca,1,"""",0,100,"""",5/1/2021 19:06,24.35.47.62,Mozilla/5.0 (Windows NT 6.1; Win64; x64; rv:87.0) Gecko/20100101 Firefox/87.0,,Firefox,87,Windows,6.1
218,1,1168,"""",html-button-response,86,174032,0.0-86.0,"""",You are Correct. You Called A Rearranged Pair Rearranged,0,8,feedback,Practice,"""","""","""","""","""","""","""","""","""","""","""",5/1/2021 19:06,24.35.47.62,Mozilla/5.0 (Windows NT 6.1; Win64; x64; rv:87.0) Gecko/20100101 Firefox/87.0,,Firefox,87,Windows,6.1
218,1,4172,"""",image-button-response,87,178212,0.0-87.0,"""",directionsMemoryAssociation3.JPG,0,128,DirectionsBeforeActualTEst,Break,"""","""","""","""","""","""","""","""","""","""","""",5/1/2021 19:06,24.35.47.62,Mozilla/5.0 (Windows NT 6.1; Win64; x64; rv:87.0) Gecko/20100101 Firefox/87.0,,Firefox,87,Windows,6.1
218,1,1528,"""",image-button-response,88,179743,0.0-88.0,"""",directionsForTest2.JPG,0,1,directionsForTest2,break,"""","""","""","""","""","""","""","""","""","""","""",5/1/2021 19:06,24.35.47.62,Mozilla/5.0 (Windows NT 6.1; Win64; x64; rv:87.0) Gecko/20100101 Firefox/87.0,,Firefox,87,Windows,6.1
218,1,4821,"""",html-button-response,89,184566,0.0-89.0,"""","<p>You will be asked to memorize and then recall four sets of face-name pairs. </p> <p> Each set will have 32 pairs. </p> <p>After the fourth set, there will be a brief follow-up experiment (<40 min alltogether)</p>",0,"""","""","""","""","""","""","""","""","""","""","""","""","""","""",5/1/2021 19:06,24.35.47.62,Mozilla/5.0 (Windows NT 6.1; Win64; x64; rv:87.0) Gecko/20100101 Firefox/87.0,,Firefox,87,Windows,6.1
218,1,2818,"""",html-keyboard-response,90,189568,0.0-90.0,"""","<img src='jspsych/CFDfaces/CFD-WM-009-002-N.jpg' height=""250px""></br><b>Jeffrey</b>","""",256,IntactFace,Memorization,70,5000,f,"""",CFD-WF-019-005-N.jpg,Erin,0,"""","""","""",1,5/1/2021 19:06,24.35.47.62,Mozilla/5.0 (Windows NT 6.1; Win64; x64; rv:87.0) Gecko/20100101 Firefox/87.0,,Firefox,87,Windows,6.1
218,1,null,"""",html-keyboard-response,91,190073,0.0-91.0,"""","<div style=""font-size:60px;"">+</div>","""",256,fixation,Memorization,null,500,"""","""","""","""","""","""","""","""",1,5/1/2021 19:06,24.35.47.62,Mozilla/5.0 (Windows NT 6.1; Win64; x64; rv:87.0) Gecko/20100101 Firefox/87.0,,Firefox,87,Windows,6.1
218,1,4679,"""",html-keyboard-response,92,195076,0.0-92.0,"""","<img src='jspsych/CFDfaces/CFD-LF-213-079-N.jpg' height=""250px""></br><b>Meghan</b>","""",256,IntactFace,Memorization,78,5000,n,"""",CFD-WM-015-002-N.jpg,Ryan,0,"""","""","""",1,5/1/2021 19:06,24.35.47.62,Mozilla/5.0 (Windows NT 6.1; Win64; x64; rv:87.0) Gecko/20100101 Firefox/87.0,,Firefox,87,Windows,6.1
218,1,null,"""",html-keyboard-response,93,195577,0.0-93.0,"""","<div style=""font-size:60px;"">+</div>","""",256,fixation,Memorization,null,500,"""","""","""","""","""","""","""","""",1,5/1/2021 19:06,24.35.47.62,Mozilla/5.0 (Windows NT 6.1; Win64; x64; rv:87.0) Gecko/20100101 Firefox/87.0,,Firefox,87,Windows,6.1
218,1,3123,"""",html-keyboard-response,94,200583,0.0-94.0,"""","<img src='jspsych/CFDfaces/CFD-WM-011-002-N.jpg' height=""250px""></br><b>Jason</b>","""",256,IntactFace,Memorization,70,5000,f,"""",CFD-LF-200-058-N.jpg,Angela,0,"""","""","""",1,5/1/2021 19:06,24.35.47.62,Mozilla/5.0 (Windows NT 6.1; Win64; x64; rv:87.0) Gecko/20100101 Firefox/87.0,,Firefox,87,Windows,6.1
218,1,null,"""",html-keyboard-response,95,201085,0.0-95.0,"""","<div style=""font-size:60px;"">+</div>","""",256,fixation,Memorization,null,500,"""","""","""","""","""","""","""","""",1,5/1/2021 19:06,24.35.47.62,Mozilla/5.0 (Windows NT 6.1; Win64; x64; rv:87.0) Gecko/20100101 Firefox/87.0,,Firefox,87,Windows,6.1
218,1,1950,"""",html-keyboard-response,96,206088,0.0-96.0,"""","<img src='jspsych/CFDfaces/CFD-AM-230-150-N.jpg' height=""250px""></br><b>Peter</b>","""",256,IntactFace,Memorization,78,5000,n,"""",CFD-WF-205-006-N.jpg,Sara,0,"""","""","""",1,5/1/2021 19:06,24.35.47.62,Mozilla/5.0 (Windows NT 6.1; Win64; x64; rv:87.0) Gecko/20100101 Firefox/87.0,,Firefox,87,Windows,6.1
218,1,null,"""",html-keyboard-response,97,206597,0.0-97.0,"""","<div style=""font-size:60px;"">+</div>","""",256,fixation,Memorization,null,500,"""","""","""","""","""","""","""","""",1,5/1/2021 19:06,24.35.47.62,Mozilla/5.0 (Windows NT 6.1; Win64; x64; rv:87.0) Gecko/20100101 Firefox/87.0,,Firefox,87,Windows,6.1
218,1,3638,"""",html-keyboard-response,98,211602,0.0-98.0,"""","<img src='jspsych/CFDfaces/CFD-AM-214-168-N.jpg' height=""250px""></br><b>Richard</b>","""",256,IntactFace,Memorization,70,5000,f,"""",CFD-LM-217-162-N.jpg,Timothy,0,"""","""","""",1,5/1/2021 19:06,24.35.47.62,Mozilla/5.0 (Windows NT 6.1; Win64; x64; rv:87.0) Gecko/20100101 Firefox/87.0,,Firefox,87,Windows,6.1
218,1,null,"""",html-keyboard-response,99,212110,0.0-99.0,"""","<div style=""font-size:60px;"">+</div>","""",256,fixation,Memorization,null,500,"""","""","""","""","""","""","""","""",1,5/1/2021 19:06,24.35.47.62,Mozilla/5.0 (Windows NT 6.1; Win64; x64; rv:87.0) Gecko/20100101 Firefox/87.0,,Firefox,87,Windows,6.1
218,1,1996,"""",html-keyboard-response,100,217112,0.0-100.0,"""","<img src='jspsych/CFDfaces/CFD-LF-205-100-N.jpg' height=""250px""></br><b>Samantha</b>","""",256,IntactFace,Memorization,70,5000,f,"""",CFD-AM-238-269-N.jpg,Kenneth,0,"""","""","""",1,5/1/2021 19:06,24.35.47.62,Mozilla/5.0 (Windows NT 6.1; Win64; x64; rv:87.0) Gecko/20100101 Firefox/87.0,,Firefox,87,Windows,6.1
218,1,null,"""",html-keyboard-response,101,217619,0.0-101.0,"""","<div style=""font-size:60px;"">+</div>","""",256,fixation,Memorization,null,500,"""","""","""","""","""","""","""","""",1,5/1/2021 19:06,24.35.47.62,Mozilla/5.0 (Windows NT 6.1; Win64; x64; rv:87.0) Gecko/20100101 Firefox/87.0,,Firefox,87,Windows,6.1
218,1,2751,"""",html-keyboard-response,102,222621,0.0-102.0,"""","<img src='jspsych/CFDfaces/CFD-AF-200-228-N.jpg' height=""250px""></br><b>Victoria</b>","""",256,IntactFace,Memorization,78,5000,n,"""",CFD-LM-225-130-N.jpg,Jesse,0,"""","""","""",1,5/1/2021 19:06,24.35.47.62,Mozilla/5.0 (Windows NT 6.1; Win64; x64; rv:87.0) Gecko/20100101 Firefox/87.0,,Firefox,87,Windows,6.1
218,1,null,"""",html-keyboard-response,103,223131,0.0-103.0,"""","<div style=""font-size:60px;"">+</div>","""",256,fixation,Memorization,null,500,"""","""","""","""","""","""","""","""",1,5/1/2021 19:06,24.35.47.62,Mozilla/5.0 (Windows NT 6.1; Win64; x64; rv:87.0) Gecko/20100101 Firefox/87.0,,Firefox,87,Windows,6.1
218,1,1939,"""",html-keyboard-response,104,228134,0.0-104.0,"""","<img src='jspsych/CFDfaces/CFD-LF-208-127-N.jpg' height=""250px""></br><b>Kayla</b>","""",256,IntactFace,Memorization,70,5000,f,"""",CFD-LF-236-221-N.jpg,Lauren,0,"""","""","""",1,5/1/2021 19:06,24.35.47.62,Mozilla/5.0 (Windows NT 6.1; Win64; x64; rv:87.0) Gecko/20100101 Firefox/87.0,,Firefox,87,Windows,6.1
218,1,null,"""",html-keyboard-response,105,228641,0.0-105.0,"""","<div style=""font-size:60px;"">+</div>","""",256,fixation,Memorization,null,500,"""","""","""","""","""","""","""","""",1,5/1/2021 19:06,24.35.47.62,Mozilla/5.0 (Windows NT 6.1; Win64; x64; rv:87.0) Gecko/20100101 Firefox/87.0,,Firefox,87,Windows,6.1
218,1,2104,"""",html-keyboard-response,106,233645,0.0-106.0,"""","<img src='jspsych/CFDfaces/CFD-AM-248-104-N.jpg' height=""250px""></br><b>Juan</b>","""",256,IntactFace,Memorization,70,5000,f,"""",CFD-AF-214-139-N.jpg,Jordan,0,"""","""","""",1,5/1/2021 19:06,24.35.47.62,Mozilla/5.0 (Windows NT 6.1; Win64; x64; rv:87.0) Gecko/20100101 Firefox/87.0,,Firefox,87,Windows,6.1
218,1,null,"""",html-keyboard-response,107,234146,0.0-107.0,"""","<div style=""font-size:60px;"">+</div>","""",256,fixation,Memorization,null,500,"""","""","""","""","""","""","""","""",1,5/1/2021 19:06,24.35.47.62,Mozilla/5.0 (Windows NT 6.1; Win64; x64; rv:87.0) Gecko/20100101 Firefox/87.0,,Firefox,87,Windows,6.1
218,1,2076,"""",html-keyboard-response,108,239156,0.0-108.0,"""","<img src='jspsych/CFDfaces/CFD-WM-041-021-N.jpg' height=""250px""></br><b>Brian</b>","""",256,IntactFace,Memorization,70,5000,f,"""",CFD-BM-211-174-N.jpg,Justin,0,"""","""","""",1,5/1/2021 19:06,24.35.47.62,Mozilla/5.0 (Windows NT 6.1; Win64; x64; rv:87.0) Gecko/20100101 Firefox/87.0,,Firefox,87,Windows,6.1
218,1,null,"""",html-keyboard-response,109,239660,0.0-109.0,"""","<div style=""font-size:60px;"">+</div>","""",256,fixation,Memorization,null,500,"""","""","""","""","""","""","""","""",1,5/1/2021 19:06,24.35.47.62,Mozilla/5.0 (Windows NT 6.1; Win64; x64; rv:87.0) Gecko/20100101 Firefox/87.0,,Firefox,87,Windows,6.1
218,1,2902,"""",html-keyboard-response,110,244662,0.0-110.0,"""","<img src='jspsych/CFDfaces/CFD-AM-246-184-N.jpg' height=""250px""></br><b>Brandon</b>","""",256,IntactFace,Memorization,78,5000,n,"""",CFD-LM-220-329-N.jpg,Luis,0,"""","""","""",1,5/1/2021 19:06,24.35.47.62,Mozilla/5.0 (Windows NT 6.1; Win64; x64; rv:87.0) Gecko/20100101 Firefox/87.0,,Firefox,87,Windows,6.1
218,1,null,"""",html-keyboard-response,111,245167,0.0-111.0,"""","<div style=""font-size:60px;"">+</div>","""",256,fixation,Memorization,null,500,"""","""","""","""","""","""","""","""",1,5/1/2021 19:06,24.35.47.62,Mozilla/5.0 (Windows NT 6.1; Win64; x64; rv:87.0) Gecko/20100101 Firefox/87.0,,Firefox,87,Windows,6.1
218,1,2748,"""",html-keyboard-response,112,250171,0.0-112.0,"""","<img src='jspsych/CFDfaces/CFD-LF-231-260-N.jpg' height=""250px""></br><b>Emily</b>","""",256,IntactFace,Memorization,70,5000,f,"""",CFD-WM-222-057-N.jpg,Dustin,0,"""","""","""",1,5/1/2021 19:06,24.35.47.62,Mozilla/5.0 (Windows NT 6.1; Win64; x64; rv:87.0) Gecko/20100101 Firefox/87.0,,Firefox,87,Windows,6.1
218,1,null,"""",html-keyboard-response,113,250673,0.0-113.0,"""","<div style=""font-size:60px;"">+</div>","""",256,fixation,Memorization,null,500,"""","""","""","""","""","""","""","""",1,5/1/2021 19:06,24.35.47.62,Mozilla/5.0 (Windows NT 6.1; Win64; x64; rv:87.0) Gecko/20100101 Firefox/87.0,,Firefox,87,Windows,6.1
218,1,3117,"""",html-keyboard-response,114,255680,0.0-114.0,"""","<img src='jspsych/CFDfaces/CFD-AM-228-214-N.jpg' height=""250px""></br><b>Joshua</b>","""",256,IntactFace,Memorization,78,5000,n,"""",CFD-AM-220-134-N.jpg,Steven,0,"""","""","""",1,5/1/2021 19:06,24.35.47.62,Mozilla/5.0 (Windows NT 6.1; Win64; x64; rv:87.0) Gecko/20100101 Firefox/87.0,,Firefox,87,Windows,6.1
218,1,null,"""",html-keyboard-response,115,256181,0.0-115.0,"""","<div style=""font-size:60px;"">+</div>","""",256,fixation,Memorization,null,500,"""","""","""","""","""","""","""","""",1,5/1/2021 19:06,24.35.47.62,Mozilla/5.0 (Windows NT 6.1; Win64; x64; rv:87.0) Gecko/20100101 Firefox/87.0,,Firefox,87,Windows,6.1
218,1,1900,"""",html-keyboard-response,116,261185,0.0-116.0,"""","<img src='jspsych/CFDfaces/CFD-AF-235-170-N.jpg' height=""250px""></br><b>Julie</b>","""",256,IntactFace,Memorization,78,5000,n,"""",CFD-WM-034-030-N.jpg,Sean,0,"""","""","""",1,5/1/2021 19:06,24.35.47.62,Mozilla/5.0 (Windows NT 6.1; Win64; x64; rv:87.0) Gecko/20100101 Firefox/87.0,,Firefox,87,Windows,6.1
218,1,null,"""",html-keyboard-response,117,261695,0.0-117.0,"""","<div style=""font-size:60px;"">+</div>","""",256,fixation,Memorization,null,500,"""","""","""","""","""","""","""","""",1,5/1/2021 19:06,24.35.47.62,Mozilla/5.0 (Windows NT 6.1; Win64; x64; rv:87.0) Gecko/20100101 Firefox/87.0,,Firefox,87,Windows,6.1
218,1,1950,"""",html-keyboard-response,118,266698,0.0-118.0,"""","<img src='jspsych/CFDfaces/CFD-WM-017-002-N.jpg' height=""250px""></br><b>Nicholas</b>","""",256,IntactFace,Memorization,70,5000,f,"""",CFD-LF-232-199-N.jpg,Jenna,0,"""","""","""",1,5/1/2021 19:06,24.35.47.62,Mozilla/5.0 (Windows NT 6.1; Win64; x64; rv:87.0) Gecko/20100101 Firefox/87.0,,Firefox,87,Windows,6.1
218,1,null,"""",html-keyboard-response,119,267201,0.0-119.0,"""","<div style=""font-size:60px;"">+</div>","""",256,fixation,Memorization,null,500,"""","""","""","""","""","""","""","""",1,5/1/2021 19:06,24.35.47.62,Mozilla/5.0 (Windows NT 6.1; Win64; x64; rv:87.0) Gecko/20100101 Firefox/87.0,,Firefox,87,Windows,6.1
218,1,3028,"""",html-keyboard-response,120,272214,0.0-120.0,"""","<img src='jspsych/CFDfaces/CFD-LM-246-087-N.jpg' height=""250px""></br><b>Daniel</b>","""",256,IntactFace,Memorization,70,5000,f,"""",CFD-AF-220-107-N.jpg,Jasmine,0,"""","""","""",1,5/1/2021 19:06,24.35.47.62,Mozilla/5.0 (Windows NT 6.1; Win64; x64; rv:87.0) Gecko/20100101 Firefox/87.0,,Firefox,87,Windows,6.1
218,1,null,"""",html-keyboard-response,121,272715,0.0-121.0,"""","<div style=""font-size:60px;"">+</div>","""",256,fixation,Memorization,null,500,"""","""","""","""","""","""","""","""",1,5/1/2021 19:06,24.35.47.62,Mozilla/5.0 (Windows NT 6.1; Win64; x64; rv:87.0) Gecko/20100101 Firefox/87.0,,Firefox,87,Windows,6.1
218,1,2451,"""",html-keyboard-response,122,277723,0.0-122.0,"""","<img src='jspsych/CFDfaces/CFD-BM-029-024-N.jpg' height=""250px""></br><b>Robert</b>","""",256,IntactFace,Memorization,70,5000,f,"""",CFD-LF-202-065-N.jpg,Melissa,0,"""","""","""",1,5/1/2021 19:06,24.35.47.62,Mozilla/5.0 (Windows NT 6.1; Win64; x64; rv:87.0) Gecko/20100101 Firefox/87.0,,Firefox,87,Windows,6.1
218,1,null,"""",html-keyboard-response,123,278225,0.0-123.0,"""","<div style=""font-size:60px;"">+</div>","""",256,fixation,Memorization,null,500,"""","""","""","""","""","""","""","""",1,5/1/2021 19:06,24.35.47.62,Mozilla/5.0 (Windows NT 6.1; Win64; x64; rv:87.0) Gecko/20100101 Firefox/87.0,,Firefox,87,Windows,6.1
218,1,1742,"""",html-keyboard-response,124,283231,0.0-124.0,"""","<img src='jspsych/CFDfaces/CFD-AF-233-190-N.jpg' height=""250px""></br><b>Stephanie</b>","""",256,IntactFace,Memorization,70,5000,f,"""",CFD-WM-006-002-N.jpg,Travis,0,"""","""","""",1,5/1/2021 19:06,24.35.47.62,Mozilla/5.0 (Windows NT 6.1; Win64; x64; rv:87.0) Gecko/20100101 Firefox/87.0,,Firefox,87,Windows,6.1
218,1,null,"""",html-keyboard-response,125,283733,0.0-125.0,"""","<div style=""font-size:60px;"">+</div>","""",256,fixation,Memorization,null,500,"""","""","""","""","""","""","""","""",1,5/1/2021 19:06,24.35.47.62,Mozilla/5.0 (Windows NT 6.1; Win64; x64; rv:87.0) Gecko/20100101 Firefox/87.0,,Firefox,87,Windows,6.1
218,1,2007,"""",html-keyboard-response,126,288746,0.0-126.0,"""","<img src='jspsych/CFDfaces/CFD-AF-228-173-N.jpg' height=""250px""></br><b>Kimberly</b>","""",256,IntactFace,Memorization,70,5000,f,"""",CFD-BF-025-002-N.jpg,Lindsey,0,"""","""","""",1,5/1/2021 19:06,24.35.47.62,Mozilla/5.0 (Windows NT 6.1; Win64; x64; rv:87.0) Gecko/20100101 Firefox/87.0,,Firefox,87,Windows,6.1
218,1,null,"""",html-keyboard-response,127,289250,0.0-127.0,"""","<div style=""font-size:60px;"">+</div>","""",256,fixation,Memorization,null,500,"""","""","""","""","""","""","""","""",1,5/1/2021 19:06,24.35.47.62,Mozilla/5.0 (Windows NT 6.1; Win64; x64; rv:87.0) Gecko/20100101 Firefox/87.0,,Firefox,87,Windows,6.1
218,1,2836,"""",html-keyboard-response,128,294258,0.0-128.0,"""","<img src='jspsych/CFDfaces/CFD-AM-205-153-N.jpg' height=""250px""></br><b>Gregory</b>","""",256,IntactFace,Memorization,78,5000,n,"""",CFD-LF-220-120-N.jpg,Amy,0,"""","""","""",1,5/1/2021 19:06,24.35.47.62,Mozilla/5.0 (Windows NT 6.1; Win64; x64; rv:87.0) Gecko/20100101 Firefox/87.0,,Firefox,87,Windows,6.1
218,1,null,"""",html-keyboard-response,129,294760,0.0-129.0,"""","<div style=""font-size:60px;"">+</div>","""",256,fixation,Memorization,null,500,"""","""","""","""","""","""","""","""",1,5/1/2021 19:06,24.35.47.62,Mozilla/5.0 (Windows NT 6.1; Win64; x64; rv:87.0) Gecko/20100101 Firefox/87.0,,Firefox,87,Windows,6.1
218,1,1728,"""",html-keyboard-response,130,299762,0.0-130.0,"""","<img src='jspsych/CFDfaces/CFD-LF-239-148-N.jpg' height=""250px""></br><b>Vanessa</b>","""",256,IntactFace,Memorization,70,5000,f,"""",CFD-BM-043-071-N.jpg,Vincent,0,"""","""","""",1,5/1/2021 19:06,24.35.47.62,Mozilla/5.0 (Windows NT 6.1; Win64; x64; rv:87.0) Gecko/20100101 Firefox/87.0,,Firefox,87,Windows,6.1
218,1,null,"""",html-keyboard-response,131,300271,0.0-131.0,"""","<div style=""font-size:60px;"">+</div>","""",256,fixation,Memorization,null,500,"""","""","""","""","""","""","""","""",1,5/1/2021 19:06,24.35.47.62,Mozilla/5.0 (Windows NT 6.1; Win64; x64; rv:87.0) Gecko/20100101 Firefox/87.0,,Firefox,87,Windows,6.1
218,1,1635,"""",html-keyboard-response,132,305274,0.0-132.0,"""","<img src='jspsych/CFDfaces/CFD-LM-224-162-N.jpg' height=""250px""></br><b>James</b>","""",256,IntactFace,Memorization,78,5000,n,"""",CFD-WF-017-003-N.jpg,Rebecca,0,"""","""","""",1,5/1/2021 19:06,24.35.47.62,Mozilla/5.0 (Windows NT 6.1; Win64; x64; rv:87.0) Gecko/20100101 Firefox/87.0,,Firefox,87,Windows,6.1
218,1,null,"""",html-keyboard-response,133,305776,0.0-133.0,"""","<div style=""font-size:60px;"">+</div>","""",256,fixation,Memorization,null,500,"""","""","""","""","""","""","""","""",1,5/1/2021 19:06,24.35.47.62,Mozilla/5.0 (Windows NT 6.1; Win64; x64; rv:87.0) Gecko/20100101 Firefox/87.0,,Firefox,87,Windows,6.1
218,1,4886,"""",html-keyboard-response,134,310784,0.0-134.0,"""","<img src='jspsych/CFDfaces/CFD-BF-019-001-N.jpg' height=""250px""></br><b>Ashley</b>","""",256,IntactFace,Memorization,70,5000,f,"""",CFD-LM-234-176-N.jpg,Austin,0,"""","""","""",1,5/1/2021 19:06,24.35.47.62,Mozilla/5.0 (Windows NT 6.1; Win64; x64; rv:87.0) Gecko/20100101 Firefox/87.0,,Firefox,87,Windows,6.1
218,1,null,"""",html-keyboard-response,135,311287,0.0-135.0,"""","<div style=""font-size:60px;"">+</div>","""",256,fixation,Memorization,null,500,"""","""","""","""","""","""","""","""",1,5/1/2021 19:06,24.35.47.62,Mozilla/5.0 (Windows NT 6.1; Win64; x64; rv:87.0) Gecko/20100101 Firefox/87.0,,Firefox,87,Windows,6.1
218,1,2191,"""",html-keyboard-response,136,316290,0.0-136.0,"""","<img src='jspsych/CFDfaces/CFD-WF-207-014-N.jpg' height=""250px""></br><b>Brittany</b>","""",256,IntactFace,Memorization,70,5000,f,"""",CFD-BM-018-001-N.jpg,Cameron,0,"""","""","""",1,5/1/2021 19:06,24.35.47.62,Mozilla/5.0 (Windows NT 6.1; Win64; x64; rv:87.0) Gecko/20100101 Firefox/87.0,,Firefox,87,Windows,6.1
218,1,null,"""",html-keyboard-response,137,316792,0.0-137.0,"""","<div style=""font-size:60px;"">+</div>","""",256,fixation,Memorization,null,500,"""","""","""","""","""","""","""","""",1,5/1/2021 19:06,24.35.47.62,Mozilla/5.0 (Windows NT 6.1; Win64; x64; rv:87.0) Gecko/20100101 Firefox/87.0,,Firefox,87,Windows,6.1
218,1,1212,"""",html-keyboard-response,138,321795,0.0-138.0,"""","<img src='jspsych/CFDfaces/CFD-BF-221-223-N.jpg' height=""250px""></br><b>Michelle</b>","""",256,IntactFace,Memorization,70,5000,f,"""",CFD-LF-204-133-N.jpg,Taylor,0,"""","""","""",1,5/1/2021 19:06,24.35.47.62,Mozilla/5.0 (Windows NT 6.1; Win64; x64; rv:87.0) Gecko/20100101 Firefox/87.0,,Firefox,87,Windows,6.1
218,1,null,"""",html-keyboard-response,139,322303,0.0-139.0,"""","<div style=""font-size:60px;"">+</div>","""",256,fixation,Memorization,null,500,"""","""","""","""","""","""","""","""",1,5/1/2021 19:06,24.35.47.62,Mozilla/5.0 (Windows NT 6.1; Win64; x64; rv:87.0) Gecko/20100101 Firefox/87.0,,Firefox,87,Windows,6.1
218,1,2850,"""",html-keyboard-response,140,327307,0.0-140.0,"""","<img src='jspsych/CFDfaces/CFD-AM-231-136-N.jpg' height=""250px""></br><b>Eric</b>","""",256,IntactFace,Memorization,78,5000,n,"""",CFD-WF-003-003-N.jpg,Tiffany,0,"""","""","""",1,5/1/2021 19:06,24.35.47.62,Mozilla/5.0 (Windows NT 6.1; Win64; x64; rv:87.0) Gecko/20100101 Firefox/87.0,,Firefox,87,Windows,6.1
218,1,null,"""",html-keyboard-response,141,327809,0.0-141.0,"""","<div style=""font-size:60px;"">+</div>","""",256,fixation,Memorization,null,500,"""","""","""","""","""","""","""","""",1,5/1/2021 19:06,24.35.47.62,Mozilla/5.0 (Windows NT 6.1; Win64; x64; rv:87.0) Gecko/20100101 Firefox/87.0,,Firefox,87,Windows,6.1
218,1,1155,"""",html-keyboard-response,142,332813,0.0-142.0,"""","<img src='jspsych/CFDfaces/CFD-LF-230-203-N.jpg' height=""250px""></br><b>Andrea</b>","""",256,IntactFace,Memorization,70,5000,f,"""",CFD-BM-027-001-N.jpg,Jeremy,0,"""","""","""",1,5/1/2021 19:06,24.35.47.62,Mozilla/5.0 (Windows NT 6.1; Win64; x64; rv:87.0) Gecko/20100101 Firefox/87.0,,Firefox,87,Windows,6.1
218,1,null,"""",html-keyboard-response,143,333322,0.0-143.0,"""","<div style=""font-size:60px;"">+</div>","""",256,fixation,Memorization,null,500,"""","""","""","""","""","""","""","""",1,5/1/2021 19:06,24.35.47.62,Mozilla/5.0 (Windows NT 6.1; Win64; x64; rv:87.0) Gecko/20100101 Firefox/87.0,,Firefox,87,Windows,6.1
218,1,1725,"""",html-keyboard-response,144,338325,0.0-144.0,"""","<img src='jspsych/CFDfaces/CFD-AM-212-050-N.jpg' height=""250px""></br><b>Christian</b>","""",256,IntactFace,Memorization,78,5000,n,"""",CFD-AF-215-70-N.jpg,Laura,0,"""","""","""",1,5/1/2021 19:06,24.35.47.62,Mozilla/5.0 (Windows NT 6.1; Win64; x64; rv:87.0) Gecko/20100101 Firefox/87.0,,Firefox,87,Windows,6.1
218,1,null,"""",html-keyboard-response,145,338827,0.0-145.0,"""","<div style=""font-size:60px;"">+</div>","""",256,fixation,Memorization,null,500,"""","""","""","""","""","""","""","""",1,5/1/2021 19:06,24.35.47.62,Mozilla/5.0 (Windows NT 6.1; Win64; x64; rv:87.0) Gecko/20100101 Firefox/87.0,,Firefox,87,Windows,6.1
218,1,2371,"""",html-keyboard-response,146,343836,0.0-146.0,"""","<img src='jspsych/CFDfaces/CFD-BM-026-002-N.jpg' height=""250px""></br><b>Ian</b>","""",256,IntactFace,Memorization,78,5000,n,"""",CFD-LF-210-220-N.jpg,Whitney,0,"""","""","""",1,5/1/2021 19:06,24.35.47.62,Mozilla/5.0 (Windows NT 6.1; Win64; x64; rv:87.0) Gecko/20100101 Firefox/87.0,,Firefox,87,Windows,6.1
218,1,null,"""",html-keyboard-response,147,344338,0.0-147.0,"""","<div style=""font-size:60px;"">+</div>","""",256,fixation,Memorization,null,500,"""","""","""","""","""","""","""","""",1,5/1/2021 19:06,24.35.47.62,Mozilla/5.0 (Windows NT 6.1; Win64; x64; rv:87.0) Gecko/20100101 Firefox/87.0,,Firefox,87,Windows,6.1
218,1,1915,"""",html-keyboard-response,148,349342,0.0-148.0,"""","<img src='jspsych/CFDfaces/CFD-AF-226-251-N.jpg' height=""250px""></br><b>Elizabeth</b>","""",256,IntactFace,Memorization,78,5000,n,"""",CFD-LM-233-171-N.jpg,Jacob,0,"""","""","""",1,5/1/2021 19:06,24.35.47.62,Mozilla/5.0 (Windows NT 6.1; Win64; x64; rv:87.0) Gecko/20100101 Firefox/87.0,,Firefox,87,Windows,6.1
218,1,null,"""",html-keyboard-response,149,349860,0.0-149.0,"""","<div style=""font-size:60px;"">+</div>","""",256,fixation,Memorization,null,500,"""","""","""","""","""","""","""","""",1,5/1/2021 19:06,24.35.47.62,Mozilla/5.0 (Windows NT 6.1; Win64; x64; rv:87.0) Gecko/20100101 Firefox/87.0,,Firefox,87,Windows,6.1
218,1,1493,"""",html-keyboard-response,150,354862,0.0-150.0,"""","<img src='jspsych/CFDfaces/CFD-WF-018-017-N.jpg' height=""250px""></br><b>Amanda</b>","""",256,IntactFace,Memorization,70,5000,f,"""",CFD-BM-210-148-N.jpg,Mark,0,"""","""","""",1,5/1/2021 19:06,24.35.47.62,Mozilla/5.0 (Windows NT 6.1; Win64; x64; rv:87.0) Gecko/20100101 Firefox/87.0,,Firefox,87,Windows,6.1
218,1,null,"""",html-keyboard-response,151,355365,0.0-151.0,"""","<div style=""font-size:60px;"">+</div>","""",256,fixation,Memorization,null,500,"""","""","""","""","""","""","""","""",1,5/1/2021 19:06,24.35.47.62,Mozilla/5.0 (Windows NT 6.1; Win64; x64; rv:87.0) Gecko/20100101 Firefox/87.0,,Firefox,87,Windows,6.1
218,1,2245,"""",html-keyboard-response,152,360379,0.0-152.0,"""","<img src='jspsych/CFDfaces/CFD-AF-243-170-N.jpg' height=""250px""></br><b>Christina</b>","""",256,IntactFace,Memorization,78,5000,n,"""",CFD-LF-243-175-N.jpg,Heather,0,"""","""","""",1,5/1/2021 19:06,24.35.47.62,Mozilla/5.0 (Windows NT 6.1; Win64; x64; rv:87.0) Gecko/20100101 Firefox/87.0,,Firefox,87,Windows,6.1
218,1,null,"""",html-keyboard-response,153,360881,0.0-153.0,"""","<div style=""font-size:60px;"">+</div>","""",256,fixation,Memorization,null,500,"""","""","""","""","""","""","""","""",1,5/1/2021 19:06,24.35.47.62,Mozilla/5.0 (Windows NT 6.1; Win64; x64; rv:87.0) Gecko/20100101 Firefox/87.0,,Firefox,87,Windows,6.1
218,1,1227,"""",html-keyboard-response,154,362108,0.0-154.0,"""",Press Any Key to Begin Memory Test,"""",1,welcomeScreen,Break,78,"""","""","""","""","""","""","""","""","""",1,5/1/2021 19:06,24.35.47.62,Mozilla/5.0 (Windows NT 6.1; Win64; x64; rv:87.0) Gecko/20100101 Firefox/87.0,,Firefox,87,Windows,6.1
218,1,null,"""",html-keyboard-response,155,363117,0.0-155.0,"""","<div style=""font-size:60px;"">+</div>","""",256,ITI,Test,null,1000,"""","""","""","""","""","""","""","""",1,5/1/2021 19:06,24.35.47.62,Mozilla/5.0 (Windows NT 6.1; Win64; x64; rv:87.0) Gecko/20100101 Firefox/87.0,,Firefox,87,Windows,6.1
218,1,null,"""",image-keyboard-response,156,363372,0.0-156.0,"""",jspsych/scrambledDisgustFaces/scrambledBM30DIS.JPG,"""",256,forwardMask,Test,null,250,"""",d,"""","""","""","""","""","""",1,5/1/2021 19:06,24.35.47.62,Mozilla/5.0 (Windows NT 6.1; Win64; x64; rv:87.0) Gecko/20100101 Firefox/87.0,,Firefox,87,Windows,6.1
218,1,null,"""",image-keyboard-response,157,363399,0.0-157.0,"""",jspsych/disgustFaces/BM31DIS.JPG,"""",256,Cue,Test,null,16,"""","""","""","""","""","""","""","""",1,5/1/2021 19:06,24.35.47.62,Mozilla/5.0 (Windows NT 6.1; Win64; x64; rv:87.0) Gecko/20100101 Firefox/87.0,,Firefox,87,Windows,6.1
218,1,null,"""",image-keyboard-response,158,363505,0.0-158.0,"""",jspsych/neutralFaces/BM06NES.JPG,"""",256,backwardMask,Test,null,100,"""","""","""","""","""","""","""","""",1,5/1/2021 19:06,24.35.47.62,Mozilla/5.0 (Windows NT 6.1; Win64; x64; rv:87.0) Gecko/20100101 Firefox/87.0,,Firefox,87,Windows,6.1
218,1,null,"""",html-keyboard-response,159,364506,0.0-159.0,"""","<div style=""font-size:60px;"">+</div>","""",256,fixationBtwnNeutralMaskAndPrompt,Test,null,1000,"""","""","""","""","""","""","""","""",1,5/1/2021 19:06,24.35.47.62,Mozilla/5.0 (Windows NT 6.1; Win64; x64; rv:87.0) Gecko/20100101 Firefox/87.0,,Firefox,87,Windows,6.1
218,1,4556,"""",html-button-response,160,369064,0.0-160.0,"""","<img src='jspsych/CFDfaces/CFD-AM-228-214-N.jpg' height=""250px"">,</br><b>Eric</b>",0,256,IntactOrRearranged,Test,"""","""","""","""",CFD-WF-019-005-N.jpg,Laura,1,0,"""","""",1,5/1/2021 19:06,24.35.47.62,Mozilla/5.0 (Windows NT 6.1; Win64; x64; rv:87.0) Gecko/20100101 Firefox/87.0,,Firefox,87,Windows,6.1
218,1,3053,"""",html-slider-response,161,372134,0.0-161.0,"""","<img src='jspsych/CFDfaces/CFD-AM-228-214-N.jpg' height=""250px"">,</br><b>Eric</b>","""",256,ConfidenceQuery,Test,"""","""","""","""",CFD-WF-019-005-N.jpg,Laura,1,"""",0,33,1,5/1/2021 19:06,24.35.47.62,Mozilla/5.0 (Windows NT 6.1; Win64; x64; rv:87.0) Gecko/20100101 Firefox/87.0,,Firefox,87,Windows,6.1
218,1,null,"""",html-keyboard-response,162,373136,0.0-162.0,"""","<div style=""font-size:60px;"">+</div>","""",256,ITI,Test,null,1000,"""","""","""","""","""","""","""","""",1,5/1/2021 19:06,24.35.47.62,Mozilla/5.0 (Windows NT 6.1; Win64; x64; rv:87.0) Gecko/20100101 Firefox/87.0,,Firefox,87,Windows,6.1
218,1,null,"""",image-keyboard-response,163,373390,0.0-163.0,"""",jspsych/scrambledDisgustFaces/scrambledAM15DIS.JPG,"""",256,forwardMask,Test,null,250,"""",d,"""","""","""","""","""","""",1,5/1/2021 19:06,24.35.47.62,Mozilla/5.0 (Windows NT 6.1; Win64; x64; rv:87.0) Gecko/20100101 Firefox/87.0,,Firefox,87,Windows,6.1
218,1,null,"""",image-keyboard-response,164,373413,0.0-164.0,"""",jspsych/disgustFaces/AM15DIS.JPG,"""",256,Cue,Test,null,16,"""","""","""","""","""","""","""","""",1,5/1/2021 19:06,24.35.47.62,Mozilla/5.0 (Windows NT 6.1; Win64; x64; rv:87.0) Gecko/20100101 Firefox/87.0,,Firefox,87,Windows,6.1
218,1,null,"""",image-keyboard-response,165,373518,0.0-165.0,"""",jspsych/neutralFaces/AM10NES.JPG,"""",256,backwardMask,Test,null,100,"""","""","""","""","""","""","""","""",1,5/1/2021 19:06,24.35.47.62,Mozilla/5.0 (Windows NT 6.1; Win64; x64; rv:87.0) Gecko/20100101 Firefox/87.0,,Firefox,87,Windows,6.1
218,1,null,"""",html-keyboard-response,166,374519,0.0-166.0,"""","<div style=""font-size:60px;"">+</div>","""",256,fixationBtwnNeutralMaskAndPrompt,Test,null,1000,"""","""","""","""","""","""","""","""",1,5/1/2021 19:06,24.35.47.62,Mozilla/5.0 (Windows NT 6.1; Win64; x64; rv:87.0) Gecko/20100101 Firefox/87.0,,Firefox,87,Windows,6.1
218,1,1839,"""",html-button-response,167,376359,0.0-167.0,"""","<img src='jspsych/CFDfaces/CFD-BM-026-002-N.jpg' height=""250px"">,</br><b>Ian</b>",0,256,IntactOrRearranged,Test,"""","""","""","""",CFD-LF-204-133-N.jpg,Taylor,0,0,"""","""",1,5/1/2021 19:06,24.35.47.62,Mozilla/5.0 (Windows NT 6.1; Win64; x64; rv:87.0) Gecko/20100101 Firefox/87.0,,Firefox,87,Windows,6.1
218,1,2550,"""",html-slider-response,168,378920,0.0-168.0,"""","<img src='jspsych/CFDfaces/CFD-BM-026-002-N.jpg' height=""250px"">,</br><b>Ian</b>","""",256,ConfidenceQuery,Test,"""","""","""","""",CFD-LF-204-133-N.jpg,Taylor,0,"""",0,81,1,5/1/2021 19:06,24.35.47.62,Mozilla/5.0 (Windows NT 6.1; Win64; x64; rv:87.0) Gecko/20100101 Firefox/87.0,,Firefox,87,Windows,6.1
218,1,null,"""",html-keyboard-response,169,379921,0.0-169.0,"""","<div style=""font-size:60px;"">+</div>","""",256,ITI,Test,null,1000,"""","""","""","""","""","""","""","""",1,5/1/2021 19:06,24.35.47.62,Mozilla/5.0 (Windows NT 6.1; Win64; x64; rv:87.0) Gecko/20100101 Firefox/87.0,,Firefox,87,Windows,6.1
218,1,null,"""",image-keyboard-response,170,380173,0.0-170.0,"""",jspsych/scrambledDisgustFaces/scrambledAF22DIS.JPG,"""",256,forwardMask,Test,null,250,"""",d,"""","""","""","""","""","""",1,5/1/2021 19:06,24.35.47.62,Mozilla/5.0 (Windows NT 6.1; Win64; x64; rv:87.0) Gecko/20100101 Firefox/87.0,,Firefox,87,Windows,6.1
218,1,null,"""",image-keyboard-response,171,380196,0.0-171.0,"""",jspsych/disgustFaces/AF22DIS.JPG,"""",256,Cue,Test,null,16,"""","""","""","""","""","""","""","""",1,5/1/2021 19:06,24.35.47.62,Mozilla/5.0 (Windows NT 6.1; Win64; x64; rv:87.0) Gecko/20100101 Firefox/87.0,,Firefox,87,Windows,6.1
218,1,null,"""",image-keyboard-response,172,380302,0.0-172.0,"""",jspsych/neutralFaces/AF35NES.JPG,"""",256,backwardMask,Test,null,100,"""","""","""","""","""","""","""","""",1,5/1/2021 19:06,24.35.47.62,Mozilla/5.0 (Windows NT 6.1; Win64; x64; rv:87.0) Gecko/20100101 Firefox/87.0,,Firefox,87,Windows,6.1
218,1,null,"""",html-keyboard-response,173,381304,0.0-173.0,"""","<div style=""font-size:60px;"">+</div>","""",256,fixationBtwnNeutralMaskAndPrompt,Test,null,1000,"""","""","""","""","""","""","""","""",1,5/1/2021 19:06,24.35.47.62,Mozilla/5.0 (Windows NT 6.1; Win64; x64; rv:87.0) Gecko/20100101 Firefox/87.0,,Firefox,87,Windows,6.1
218,1,null,"""",html-button-response,174,386306,0.0-174.0,"""","<img src='jspsych/CFDfaces/CFD-AF-228-173-N.jpg' height=""250px"">,</br><b>Emily</b>",null,256,IntactOrRearranged,Test,"""","""","""","""",CFD-LF-220-120-N.jpg,Amy,1,"""","""","""",1,5/1/2021 19:06,24.35.47.62,Mozilla/5.0 (Windows NT 6.1; Win64; x64; rv:87.0) Gecko/20100101 Firefox/87.0,,Firefox,87,Windows,6.1
218,1,4238,"""",html-slider-response,175,390551,0.0-175.0,"""","<img src='jspsych/CFDfaces/CFD-AF-228-173-N.jpg' height=""250px"">,</br><b>Emily</b>","""",256,ConfidenceQuery,Test,"""","""","""","""",CFD-LF-220-120-N.jpg,Amy,1,"""",0,2,1,5/1/2021 19:06,24.35.47.62,Mozilla/5.0 (Windows NT 6.1; Win64; x64; rv:87.0) Gecko/20100101 Firefox/87.0,,Firefox,87,Windows,6.1
218,1,null,"""",html-keyboard-response,176,391553,0.0-176.0,"""","<div style=""font-size:60px;"">+</div>","""",256,ITI,Test,null,1000,"""","""","""","""","""","""","""","""",1,5/1/2021 19:06,24.35.47.62,Mozilla/5.0 (Windows NT 6.1; Win64; x64; rv:87.0) Gecko/20100101 Firefox/87.0,,Firefox,87,Windows,6.1
218,1,null,"""",image-keyboard-response,177,391808,0.0-177.0,"""",jspsych/scrambledDisgustFaces/scrambledBF30DIS.JPG,"""",256,forwardMask,Test,null,250,"""",d,"""","""","""","""","""","""",1,5/1/2021 19:06,24.35.47.62,Mozilla/5.0 (Windows NT 6.1; Win64; x64; rv:87.0) Gecko/20100101 Firefox/87.0,,Firefox,87,Windows,6.1
218,1,null,"""",image-keyboard-response,178,391826,0.0-178.0,"""",jspsych/disgustFaces/BF30DIS.JPG,"""",256,Cue,Test,null,16,"""","""","""","""","""","""","""","""",1,5/1/2021 19:06,24.35.47.62,Mozilla/5.0 (Windows NT 6.1; Win64; x64; rv:87.0) Gecko/20100101 Firefox/87.0,,Firefox,87,Windows,6.1
218,1,null,"""",image-keyboard-response,179,391928,0.0-179.0,"""",jspsych/neutralFaces/AF29NES.JPG,"""",256,backwardMask,Test,null,100,"""","""","""","""","""","""","""","""",1,5/1/2021 19:06,24.35.47.62,Mozilla/5.0 (Windows NT 6.1; Win64; x64; rv:87.0) Gecko/20100101 Firefox/87.0,,Firefox,87,Windows,6.1
218,1,null,"""",html-keyboard-response,180,392930,0.0-180.0,"""","<div style=""font-size:60px;"">+</div>","""",256,fixationBtwnNeutralMaskAndPrompt,Test,null,1000,"""","""","""","""","""","""","""","""",1,5/1/2021 19:06,24.35.47.62,Mozilla/5.0 (Windows NT 6.1; Win64; x64; rv:87.0) Gecko/20100101 Firefox/87.0,,Firefox,87,Windows,6.1
218,1,3144,"""",html-button-response,181,396080,0.0-181.0,"""","<img src='jspsych/CFDfaces/CFD-LF-205-100-N.jpg' height=""250px"">,</br><b>Samantha</b>",1,256,IntactOrRearranged,Test,"""","""","""","""",CFD-BM-210-148-N.jpg,Jesse,0,1,"""","""",1,5/1/2021 19:06,24.35.47.62,Mozilla/5.0 (Windows NT 6.1; Win64; x64; rv:87.0) Gecko/20100101 Firefox/87.0,,Firefox,87,Windows,6.1
218,1,3468,"""",html-slider-response,182,399551,0.0-182.0,"""","<img src='jspsych/CFDfaces/CFD-LF-205-100-N.jpg' height=""250px"">,</br><b>Samantha</b>","""",256,ConfidenceQuery,Test,"""","""","""","""",CFD-BM-210-148-N.jpg,Jesse,0,"""",0,21,1,5/1/2021 19:06,24.35.47.62,Mozilla/5.0 (Windows NT 6.1; Win64; x64; rv:87.0) Gecko/20100101 Firefox/87.0,,Firefox,87,Windows,6.1
218,1,null,"""",html-keyboard-response,183,400563,0.0-183.0,"""","<div style=""font-size:60px;"">+</div>","""",256,ITI,Test,null,1000,"""","""","""","""","""","""","""","""",1,5/1/2021 19:06,24.35.47.62,Mozilla/5.0 (Windows NT 6.1; Win64; x64; rv:87.0) Gecko/20100101 Firefox/87.0,,Firefox,87,Windows,6.1
218,1,null,"""",image-keyboard-response,184,400817,0.0-184.0,"""",jspsych/scrambledDisgustFaces/scrambledBF31DIS.JPG,"""",256,forwardMask,Test,null,250,"""",d,"""","""","""","""","""","""",1,5/1/2021 19:06,24.35.47.62,Mozilla/5.0 (Windows NT 6.1; Win64; x64; rv:87.0) Gecko/20100101 Firefox/87.0,,Firefox,87,Windows,6.1
218,1,null,"""",image-keyboard-response,185,400841,0.0-185.0,"""",jspsych/disgustFaces/BF31DIS.JPG,"""",256,Cue,Test,null,16,"""","""","""","""","""","""","""","""",1,5/1/2021 19:06,24.35.47.62,Mozilla/5.0 (Windows NT 6.1; Win64; x64; rv:87.0) Gecko/20100101 Firefox/87.0,,Firefox,87,Windows,6.1
218,1,null,"""",image-keyboard-response,186,400946,0.0-186.0,"""",jspsych/neutralFaces/BF32NES.JPG,"""",256,backwardMask,Test,null,100,"""","""","""","""","""","""","""","""",1,5/1/2021 19:06,24.35.47.62,Mozilla/5.0 (Windows NT 6.1; Win64; x64; rv:87.0) Gecko/20100101 Firefox/87.0,,Firefox,87,Windows,6.1
218,1,null,"""",html-keyboard-response,187,401947,0.0-187.0,"""","<div style=""font-size:60px;"">+</div>","""",256,fixationBtwnNeutralMaskAndPrompt,Test,null,1000,"""","""","""","""","""","""","""","""",1,5/1/2021 19:06,24.35.47.62,Mozilla/5.0 (Windows NT 6.1; Win64; x64; rv:87.0) Gecko/20100101 Firefox/87.0,,Firefox,87,Windows,6.1
218,1,3006,"""",html-button-response,188,404954,0.0-188.0,"""","<img src='jspsych/CFDfaces/CFD-AM-212-050-N.jpg' height=""250px"">,</br><b>Joshua</b>",1,256,IntactOrRearranged,Test,"""","""","""","""",CFD-LF-202-065-N.jpg,Melissa,1,1,"""","""",1,5/1/2021 19:06,24.35.47.62,Mozilla/5.0 (Windows NT 6.1; Win64; x64; rv:87.0) Gecko/20100101 Firefox/87.0,,Firefox,87,Windows,6.1
218,1,2802,"""",html-slider-response,189,407759,0.0-189.0,"""","<img src='jspsych/CFDfaces/CFD-AM-212-050-N.jpg' height=""250px"">,</br><b>Joshua</b>","""",256,ConfidenceQuery,Test,"""","""","""","""",CFD-LF-202-065-N.jpg,Melissa,1,"""",0,82,1,5/1/2021 19:06,24.35.47.62,Mozilla/5.0 (Windows NT 6.1; Win64; x64; rv:87.0) Gecko/20100101 Firefox/87.0,,Firefox,87,Windows,6.1
218,1,null,"""",html-keyboard-response,190,408771,0.0-190.0,"""","<div style=""font-size:60px;"">+</div>","""",256,ITI,Test,null,1000,"""","""","""","""","""","""","""","""",1,5/1/2021 19:06,24.35.47.62,Mozilla/5.0 (Windows NT 6.1; Win64; x64; rv:87.0) Gecko/20100101 Firefox/87.0,,Firefox,87,Windows,6.1
218,1,null,"""",image-keyboard-response,191,409023,0.0-191.0,"""",jspsych/scrambledDisgustFaces/scrambledAF29DIS.JPG,"""",256,forwardMask,Test,null,250,"""",d,"""","""","""","""","""","""",1,5/1/2021 19:06,24.35.47.62,Mozilla/5.0 (Windows NT 6.1; Win64; x64; rv:87.0) Gecko/20100101 Firefox/87.0,,Firefox,87,Windows,6.1
218,1,null,"""",image-keyboard-response,192,409044,0.0-192.0,"""",jspsych/disgustFaces/AF29DIS.JPG,"""",256,Cue,Test,null,16,"""","""","""","""","""","""","""","""",1,5/1/2021 19:06,24.35.47.62,Mozilla/5.0 (Windows NT 6.1; Win64; x64; rv:87.0) Gecko/20100101 Firefox/87.0,,Firefox,87,Windows,6.1
218,1,null,"""",image-keyboard-response,193,409146,0.0-193.0,"""",jspsych/neutralFaces/BF17NES.JPG,"""",256,backwardMask,Test,null,100,"""","""","""","""","""","""","""","""",1,5/1/2021 19:06,24.35.47.62,Mozilla/5.0 (Windows NT 6.1; Win64; x64; rv:87.0) Gecko/20100101 Firefox/87.0,,Firefox,87,Windows,6.1
218,1,null,"""",html-keyboard-response,194,410147,0.0-194.0,"""","<div style=""font-size:60px;"">+</div>","""",256,fixationBtwnNeutralMaskAndPrompt,Test,null,1000,"""","""","""","""","""","""","""","""",1,5/1/2021 19:06,24.35.47.62,Mozilla/5.0 (Windows NT 6.1; Win64; x64; rv:87.0) Gecko/20100101 Firefox/87.0,,Firefox,87,Windows,6.1
218,1,2022,"""",html-button-response,195,412171,0.0-195.0,"""","<img src='jspsych/CFDfaces/CFD-AF-233-190-N.jpg' height=""250px"">,</br><b>Stephanie</b>",0,256,IntactOrRearranged,Test,"""","""","""","""",CFD-BM-018-001-N.jpg,Timothy,0,0,"""","""",1,5/1/2021 19:06,24.35.47.62,Mozilla/5.0 (Windows NT 6.1; Win64; x64; rv:87.0) Gecko/20100101 Firefox/87.0,,Firefox,87,Windows,6.1
218,1,2103,"""",html-slider-response,196,414276,0.0-196.0,"""","<img src='jspsych/CFDfaces/CFD-AF-233-190-N.jpg' height=""250px"">,</br><b>Stephanie</b>","""",256,ConfidenceQuery,Test,"""","""","""","""",CFD-BM-018-001-N.jpg,Timothy,0,"""",0,21,1,5/1/2021 19:06,24.35.47.62,Mozilla/5.0 (Windows NT 6.1; Win64; x64; rv:87.0) Gecko/20100101 Firefox/87.0,,Firefox,87,Windows,6.1
218,1,null,"""",html-keyboard-response,197,415287,0.0-197.0,"""","<div style=""font-size:60px;"">+</div>","""",256,ITI,Test,null,1000,"""","""","""","""","""","""","""","""",1,5/1/2021 19:06,24.35.47.62,Mozilla/5.0 (Windows NT 6.1; Win64; x64; rv:87.0) Gecko/20100101 Firefox/87.0,,Firefox,87,Windows,6.1
218,1,null,"""",image-keyboard-response,198,415540,0.0-198.0,"""",jspsych/scrambledNeutralFaces/scrambledAF02NES.JPG,"""",256,forwardMask,Test,null,250,"""",n,"""","""","""","""","""","""",1,5/1/2021 19:06,24.35.47.62,Mozilla/5.0 (Windows NT 6.1; Win64; x64; rv:87.0) Gecko/20100101 Firefox/87.0,,Firefox,87,Windows,6.1
218,1,null,"""",image-keyboard-response,199,415561,0.0-199.0,"""",jspsych/neutralFaces/AF02NES.JPG,"""",256,Cue,Test,null,16,"""","""","""","""","""","""","""","""",1,5/1/2021 19:06,24.35.47.62,Mozilla/5.0 (Windows NT 6.1; Win64; x64; rv:87.0) Gecko/20100101 Firefox/87.0,,Firefox,87,Windows,6.1
218,1,null,"""",image-keyboard-response,200,415670,0.0-200.0,"""",jspsych/neutralFaces/BF14NES.JPG,"""",256,backwardMask,Test,null,100,"""","""","""","""","""","""","""","""",1,5/1/2021 19:06,24.35.47.62,Mozilla/5.0 (Windows NT 6.1; Win64; x64; rv:87.0) Gecko/20100101 Firefox/87.0,,Firefox,87,Windows,6.1
218,1,null,"""",html-keyboard-response,201,416671,0.0-201.0,"""","<div style=""font-size:60px;"">+</div>","""",256,fixationBtwnNeutralMaskAndPrompt,Test,null,1000,"""","""","""","""","""","""","""","""",1,5/1/2021 19:06,24.35.47.62,Mozilla/5.0 (Windows NT 6.1; Win64; x64; rv:87.0) Gecko/20100101 Firefox/87.0,,Firefox,87,Windows,6.1
218,1,2268,"""",html-button-response,202,418940,0.0-202.0,"""","<img src='jspsych/CFDfaces/CFD-LF-213-079-N.jpg' height=""250px"">,</br><b>Meghan</b>",0,256,IntactOrRearranged,Test,"""","""","""","""",CFD-LF-236-221-N.jpg,Jordan,0,0,"""","""",1,5/1/2021 19:06,24.35.47.62,Mozilla/5.0 (Windows NT 6.1; Win64; x64; rv:87.0) Gecko/20100101 Firefox/87.0,,Firefox,87,Windows,6.1
218,1,2189,"""",html-slider-response,203,421132,0.0-203.0,"""","<img src='jspsych/CFDfaces/CFD-LF-213-079-N.jpg' height=""250px"">,</br><b>Meghan</b>","""",256,ConfidenceQuery,Test,"""","""","""","""",CFD-LF-236-221-N.jpg,Jordan,0,"""",0,32,1,5/1/2021 19:06,24.35.47.62,Mozilla/5.0 (Windows NT 6.1; Win64; x64; rv:87.0) Gecko/20100101 Firefox/87.0,,Firefox,87,Windows,6.1
218,1,null,"""",html-keyboard-response,204,422138,0.0-204.0,"""","<div style=""font-size:60px;"">+</div>","""",256,ITI,Test,null,1000,"""","""","""","""","""","""","""","""",1,5/1/2021 19:06,24.35.47.62,Mozilla/5.0 (Windows NT 6.1; Win64; x64; rv:87.0) Gecko/20100101 Firefox/87.0,,Firefox,87,Windows,6.1
218,1,null,"""",image-keyboard-response,205,422392,0.0-205.0,"""",jspsych/scrambledDisgustFaces/scrambledAF03DIS.JPG,"""",256,forwardMask,Test,null,250,"""",d,"""","""","""","""","""","""",1,5/1/2021 19:06,24.35.47.62,Mozilla/5.0 (Windows NT 6.1; Win64; x64; rv:87.0) Gecko/20100101 Firefox/87.0,,Firefox,87,Windows,6.1
218,1,null,"""",image-keyboard-response,206,422415,0.0-206.0,"""",jspsych/disgustFaces/AF03DIS.JPG,"""",256,Cue,Test,null,16,"""","""","""","""","""","""","""","""",1,5/1/2021 19:06,24.35.47.62,Mozilla/5.0 (Windows NT 6.1; Win64; x64; rv:87.0) Gecko/20100101 Firefox/87.0,,Firefox,87,Windows,6.1
218,1,null,"""",image-keyboard-response,207,422523,0.0-207.0,"""",jspsych/neutralFaces/AF11NES.JPG,"""",256,backwardMask,Test,null,100,"""","""","""","""","""","""","""","""",1,5/1/2021 19:06,24.35.47.62,Mozilla/5.0 (Windows NT 6.1; Win64; x64; rv:87.0) Gecko/20100101 Firefox/87.0,,Firefox,87,Windows,6.1
218,1,null,"""",html-keyboard-response,208,423524,0.0-208.0,"""","<div style=""font-size:60px;"">+</div>","""",256,fixationBtwnNeutralMaskAndPrompt,Test,null,1000,"""","""","""","""","""","""","""","""",1,5/1/2021 19:06,24.35.47.62,Mozilla/5.0 (Windows NT 6.1; Win64; x64; rv:87.0) Gecko/20100101 Firefox/87.0,,Firefox,87,Windows,6.1
218,1,1902,"""",html-button-response,209,425427,0.0-209.0,"""","<img src='jspsych/CFDfaces/CFD-AF-200-228-N.jpg' height=""250px"">,</br><b>Ashley</b>",1,256,IntactOrRearranged,Test,"""","""","""","""",CFD-AF-215-70-N.jpg,Sara,1,1,"""","""",1,5/1/2021 19:06,24.35.47.62,Mozilla/5.0 (Windows NT 6.1; Win64; x64; rv:87.0) Gecko/20100101 Firefox/87.0,,Firefox,87,Windows,6.1
218,1,2650,"""",html-slider-response,210,428080,0.0-210.0,"""","<img src='jspsych/CFDfaces/CFD-AF-200-228-N.jpg' height=""250px"">,</br><b>Ashley</b>","""",256,ConfidenceQuery,Test,"""","""","""","""",CFD-AF-215-70-N.jpg,Sara,1,"""",0,67,1,5/1/2021 19:06,24.35.47.62,Mozilla/5.0 (Windows NT 6.1; Win64; x64; rv:87.0) Gecko/20100101 Firefox/87.0,,Firefox,87,Windows,6.1
218,1,null,"""",html-keyboard-response,211,429085,0.0-211.0,"""","<div style=""font-size:60px;"">+</div>","""",256,ITI,Test,null,1000,"""","""","""","""","""","""","""","""",1,5/1/2021 19:06,24.35.47.62,Mozilla/5.0 (Windows NT 6.1; Win64; x64; rv:87.0) Gecko/20100101 Firefox/87.0,,Firefox,87,Windows,6.1
218,1,null,"""",image-keyboard-response,212,429339,0.0-212.0,"""",jspsych/scrambledNeutralFaces/scrambledAF05NES.JPG,"""",256,forwardMask,Test,null,250,"""",n,"""","""","""","""","""","""",1,5/1/2021 19:06,24.35.47.62,Mozilla/5.0 (Windows NT 6.1; Win64; x64; rv:87.0) Gecko/20100101 Firefox/87.0,,Firefox,87,Windows,6.1
218,1,null,"""",image-keyboard-response,213,429363,0.0-213.0,"""",jspsych/neutralFaces/AF05NES.JPG,"""",256,Cue,Test,null,16,"""","""","""","""","""","""","""","""",1,5/1/2021 19:06,24.35.47.62,Mozilla/5.0 (Windows NT 6.1; Win64; x64; rv:87.0) Gecko/20100101 Firefox/87.0,,Firefox,87,Windows,6.1
218,1,null,"""",image-keyboard-response,214,429470,0.0-214.0,"""",jspsych/neutralFaces/AF26NES.JPG,"""",256,backwardMask,Test,null,100,"""","""","""","""","""","""","""","""",1,5/1/2021 19:06,24.35.47.62,Mozilla/5.0 (Windows NT 6.1; Win64; x64; rv:87.0) Gecko/20100101 Firefox/87.0,,Firefox,87,Windows,6.1
218,1,null,"""",html-keyboard-response,215,430472,0.0-215.0,"""","<div style=""font-size:60px;"">+</div>","""",256,fixationBtwnNeutralMaskAndPrompt,Test,null,1000,"""","""","""","""","""","""","""","""",1,5/1/2021 19:06,24.35.47.62,Mozilla/5.0 (Windows NT 6.1; Win64; x64; rv:87.0) Gecko/20100101 Firefox/87.0,,Firefox,87,Windows,6.1
218,1,1260,"""",html-button-response,216,431734,0.0-216.0,"""","<img src='jspsych/CFDfaces/CFD-BF-221-223-N.jpg' height=""250px"">,</br><b>Michelle</b>",0,256,IntactOrRearranged,Test,"""","""","""","""",CFD-LF-243-175-N.jpg,Heather,0,0,"""","""",1,5/1/2021 19:06,24.35.47.62,Mozilla/5.0 (Windows NT 6.1; Win64; x64; rv:87.0) Gecko/20100101 Firefox/87.0,,Firefox,87,Windows,6.1
218,1,2134,"""",html-slider-response,217,433871,0.0-217.0,"""","<img src='jspsych/CFDfaces/CFD-BF-221-223-N.jpg' height=""250px"">,</br><b>Michelle</b>","""",256,ConfidenceQuery,Test,"""","""","""","""",CFD-LF-243-175-N.jpg,Heather,0,"""",0,100,1,5/1/2021 19:06,24.35.47.62,Mozilla/5.0 (Windows NT 6.1; Win64; x64; rv:87.0) Gecko/20100101 Firefox/87.0,,Firefox,87,Windows,6.1
218,1,null,"""",html-keyboard-response,218,434879,0.0-218.0,"""","<div style=""font-size:60px;"">+</div>","""",256,ITI,Test,null,1000,"""","""","""","""","""","""","""","""",1,5/1/2021 19:06,24.35.47.62,Mozilla/5.0 (Windows NT 6.1; Win64; x64; rv:87.0) Gecko/20100101 Firefox/87.0,,Firefox,87,Windows,6.1
218,1,null,"""",image-keyboard-response,219,435134,0.0-219.0,"""",jspsych/scrambledDisgustFaces/scrambledBF09DIS.JPG,"""",256,forwardMask,Test,null,250,"""",d,"""","""","""","""","""","""",1,5/1/2021 19:06,24.35.47.62,Mozilla/5.0 (Windows NT 6.1; Win64; x64; rv:87.0) Gecko/20100101 Firefox/87.0,,Firefox,87,Windows,6.1
218,1,null,"""",image-keyboard-response,220,435155,0.0-220.0,"""",jspsych/disgustFaces/BF09DIS.JPG,"""",256,Cue,Test,null,16,"""","""","""","""","""","""","""","""",1,5/1/2021 19:06,24.35.47.62,Mozilla/5.0 (Windows NT 6.1; Win64; x64; rv:87.0) Gecko/20100101 Firefox/87.0,,Firefox,87,Windows,6.1
218,1,null,"""",image-keyboard-response,221,435259,0.0-221.0,"""",jspsych/neutralFaces/BF28NES.JPG,"""",256,backwardMask,Test,null,100,"""","""","""","""","""","""","""","""",1,5/1/2021 19:06,24.35.47.62,Mozilla/5.0 (Windows NT 6.1; Win64; x64; rv:87.0) Gecko/20100101 Firefox/87.0,,Firefox,87,Windows,6.1
218,1,null,"""",html-keyboard-response,222,436261,0.0-222.0,"""","<div style=""font-size:60px;"">+</div>","""",256,fixationBtwnNeutralMaskAndPrompt,Test,null,1000,"""","""","""","""","""","""","""","""",1,5/1/2021 19:06,24.35.47.62,Mozilla/5.0 (Windows NT 6.1; Win64; x64; rv:87.0) Gecko/20100101 Firefox/87.0,,Firefox,87,Windows,6.1
218,1,2064,"""",html-button-response,223,438326,0.0-223.0,"""","<img src='jspsych/CFDfaces/CFD-AF-243-170-N.jpg' height=""250px"">,</br><b>Victoria</b>",1,256,IntactOrRearranged,Test,"""","""","""","""",CFD-BF-025-002-N.jpg,Lindsey,1,1,"""","""",1,5/1/2021 19:06,24.35.47.62,Mozilla/5.0 (Windows NT 6.1; Win64; x64; rv:87.0) Gecko/20100101 Firefox/87.0,,Firefox,87,Windows,6.1
218,1,2594,"""",html-slider-response,224,440924,0.0-224.0,"""","<img src='jspsych/CFDfaces/CFD-AF-243-170-N.jpg' height=""250px"">,</br><b>Victoria</b>","""",256,ConfidenceQuery,Test,"""","""","""","""",CFD-BF-025-002-N.jpg,Lindsey,1,"""",0,80,1,5/1/2021 19:06,24.35.47.62,Mozilla/5.0 (Windows NT 6.1; Win64; x64; rv:87.0) Gecko/20100101 Firefox/87.0,,Firefox,87,Windows,6.1
218,1,null,"""",html-keyboard-response,225,441935,0.0-225.0,"""","<div style=""font-size:60px;"">+</div>","""",256,ITI,Test,null,1000,"""","""","""","""","""","""","""","""",1,5/1/2021 19:06,24.35.47.62,Mozilla/5.0 (Windows NT 6.1; Win64; x64; rv:87.0) Gecko/20100101 Firefox/87.0,,Firefox,87,Windows,6.1
218,1,null,"""",image-keyboard-response,226,442191,0.0-226.0,"""",jspsych/scrambledNeutralFaces/scrambledAF10NES.JPG,"""",256,forwardMask,Test,null,250,"""",n,"""","""","""","""","""","""",1,5/1/2021 19:06,24.35.47.62,Mozilla/5.0 (Windows NT 6.1; Win64; x64; rv:87.0) Gecko/20100101 Firefox/87.0,,Firefox,87,Windows,6.1
218,1,null,"""",image-keyboard-response,227,442212,0.0-227.0,"""",jspsych/neutralFaces/AF10NES.JPG,"""",256,Cue,Test,null,16,"""","""","""","""","""","""","""","""",1,5/1/2021 19:06,24.35.47.62,Mozilla/5.0 (Windows NT 6.1; Win64; x64; rv:87.0) Gecko/20100101 Firefox/87.0,,Firefox,87,Windows,6.1
218,1,null,"""",image-keyboard-response,228,442317,0.0-228.0,"""",jspsych/neutralFaces/AF32NES.JPG,"""",256,backwardMask,Test,null,100,"""","""","""","""","""","""","""","""",1,5/1/2021 19:06,24.35.47.62,Mozilla/5.0 (Windows NT 6.1; Win64; x64; rv:87.0) Gecko/20100101 Firefox/87.0,,Firefox,87,Windows,6.1
218,1,null,"""",html-keyboard-response,229,443318,0.0-229.0,"""","<div style=""font-size:60px;"">+</div>","""",256,fixationBtwnNeutralMaskAndPrompt,Test,null,1000,"""","""","""","""","""","""","""","""",1,5/1/2021 19:06,24.35.47.62,Mozilla/5.0 (Windows NT 6.1; Win64; x64; rv:87.0) Gecko/20100101 Firefox/87.0,,Firefox,87,Windows,6.1
218,1,1507,"""",html-button-response,230,444827,0.0-230.0,"""","<img src='jspsych/CFDfaces/CFD-WF-018-017-N.jpg' height=""250px"">,</br><b>Christina</b>",1,256,IntactOrRearranged,Test,"""","""","""","""",CFD-LM-217-162-N.jpg,Austin,1,1,"""","""",1,5/1/2021 19:06,24.35.47.62,Mozilla/5.0 (Windows NT 6.1; Win64; x64; rv:87.0) Gecko/20100101 Firefox/87.0,,Firefox,87,Windows,6.1
218,1,2324,"""",html-slider-response,231,447153,0.0-231.0,"""","<img src='jspsych/CFDfaces/CFD-WF-018-017-N.jpg' height=""250px"">,</br><b>Christina</b>","""",256,ConfidenceQuery,Test,"""","""","""","""",CFD-LM-217-162-N.jpg,Austin,1,"""",0,100,1,5/1/2021 19:06,24.35.47.62,Mozilla/5.0 (Windows NT 6.1; Win64; x64; rv:87.0) Gecko/20100101 Firefox/87.0,,Firefox,87,Windows,6.1
218,1,null,"""",html-keyboard-response,232,448160,0.0-232.0,"""","<div style=""font-size:60px;"">+</div>","""",256,ITI,Test,null,1000,"""","""","""","""","""","""","""","""",1,5/1/2021 19:06,24.35.47.62,Mozilla/5.0 (Windows NT 6.1; Win64; x64; rv:87.0) Gecko/20100101 Firefox/87.0,,Firefox,87,Windows,6.1
218,1,null,"""",image-keyboard-response,233,448414,0.0-233.0,"""",jspsych/scrambledDisgustFaces/scrambledAF13DIS.JPG,"""",256,forwardMask,Test,null,250,"""",d,"""","""","""","""","""","""",1,5/1/2021 19:06,24.35.47.62,Mozilla/5.0 (Windows NT 6.1; Win64; x64; rv:87.0) Gecko/20100101 Firefox/87.0,,Firefox,87,Windows,6.1
218,1,null,"""",image-keyboard-response,234,448434,0.0-234.0,"""",jspsych/disgustFaces/AF13DIS.JPG,"""",256,Cue,Test,null,16,"""","""","""","""","""","""","""","""",1,5/1/2021 19:06,24.35.47.62,Mozilla/5.0 (Windows NT 6.1; Win64; x64; rv:87.0) Gecko/20100101 Firefox/87.0,,Firefox,87,Windows,6.1
218,1,null,"""",image-keyboard-response,235,448539,0.0-235.0,"""",jspsych/neutralFaces/BF11NES.JPG,"""",256,backwardMask,Test,null,100,"""","""","""","""","""","""","""","""",1,5/1/2021 19:06,24.35.47.62,Mozilla/5.0 (Windows NT 6.1; Win64; x64; rv:87.0) Gecko/20100101 Firefox/87.0,,Firefox,87,Windows,6.1
218,1,null,"""",html-keyboard-response,236,449540,0.0-236.0,"""","<div style=""font-size:60px;"">+</div>","""",256,fixationBtwnNeutralMaskAndPrompt,Test,null,1000,"""","""","""","""","""","""","""","""",1,5/1/2021 19:06,24.35.47.62,Mozilla/5.0 (Windows NT 6.1; Win64; x64; rv:87.0) Gecko/20100101 Firefox/87.0,,Firefox,87,Windows,6.1
218,1,1481,"""",html-button-response,237,451023,0.0-237.0,"""","<img src='jspsych/CFDfaces/CFD-AM-248-104-N.jpg' height=""250px"">,</br><b>Juan</b>",0,256,IntactOrRearranged,Test,"""","""","""","""",CFD-LM-233-171-N.jpg,Jacob,0,0,"""","""",1,5/1/2021 19:06,24.35.47.62,Mozilla/5.0 (Windows NT 6.1; Win64; x64; rv:87.0) Gecko/20100101 Firefox/87.0,,Firefox,87,Windows,6.1
218,1,2148,"""",html-slider-response,238,453173,0.0-238.0,"""","<img src='jspsych/CFDfaces/CFD-AM-248-104-N.jpg' height=""250px"">,</br><b>Juan</b>","""",256,ConfidenceQuery,Test,"""","""","""","""",CFD-LM-233-171-N.jpg,Jacob,0,"""",0,100,1,5/1/2021 19:06,24.35.47.62,Mozilla/5.0 (Windows NT 6.1; Win64; x64; rv:87.0) Gecko/20100101 Firefox/87.0,,Firefox,87,Windows,6.1
218,1,null,"""",html-keyboard-response,239,454180,0.0-239.0,"""","<div style=""font-size:60px;"">+</div>","""",256,ITI,Test,null,1000,"""","""","""","""","""","""","""","""",1,5/1/2021 19:06,24.35.47.62,Mozilla/5.0 (Windows NT 6.1; Win64; x64; rv:87.0) Gecko/20100101 Firefox/87.0,,Firefox,87,Windows,6.1
218,1,null,"""",image-keyboard-response,240,454438,0.0-240.0,"""",jspsych/scrambledNeutralFaces/scrambledAF04NES.JPG,"""",256,forwardMask,Test,null,250,"""",n,"""","""","""","""","""","""",1,5/1/2021 19:06,24.35.47.62,Mozilla/5.0 (Windows NT 6.1; Win64; x64; rv:87.0) Gecko/20100101 Firefox/87.0,,Firefox,87,Windows,6.1
218,1,null,"""",image-keyboard-response,241,454461,0.0-241.0,"""",jspsych/neutralFaces/AF04NES.JPG,"""",256,Cue,Test,null,16,"""","""","""","""","""","""","""","""",1,5/1/2021 19:06,24.35.47.62,Mozilla/5.0 (Windows NT 6.1; Win64; x64; rv:87.0) Gecko/20100101 Firefox/87.0,,Firefox,87,Windows,6.1
218,1,null,"""",image-keyboard-response,242,454566,0.0-242.0,"""",jspsych/neutralFaces/BF22NES.JPG,"""",256,backwardMask,Test,null,100,"""","""","""","""","""","""","""","""",1,5/1/2021 19:06,24.35.47.62,Mozilla/5.0 (Windows NT 6.1; Win64; x64; rv:87.0) Gecko/20100101 Firefox/87.0,,Firefox,87,Windows,6.1
218,1,null,"""",html-keyboard-response,243,455568,0.0-243.0,"""","<div style=""font-size:60px;"">+</div>","""",256,fixationBtwnNeutralMaskAndPrompt,Test,null,1000,"""","""","""","""","""","""","""","""",1,5/1/2021 19:06,24.35.47.62,Mozilla/5.0 (Windows NT 6.1; Win64; x64; rv:87.0) Gecko/20100101 Firefox/87.0,,Firefox,87,Windows,6.1
218,1,1523,"""",html-button-response,244,457093,0.0-244.0,"""","<img src='jspsych/CFDfaces/CFD-AM-230-150-N.jpg' height=""250px"">,</br><b>Peter</b>",0,256,IntactOrRearranged,Test,"""","""","""","""",CFD-AF-214-139-N.jpg,Jenna,0,0,"""","""",1,5/1/2021 19:06,24.35.47.62,Mozilla/5.0 (Windows NT 6.1; Win64; x64; rv:87.0) Gecko/20100101 Firefox/87.0,,Firefox,87,Windows,6.1
218,1,1931,"""",html-slider-response,245,459026,0.0-245.0,"""","<img src='jspsych/CFDfaces/CFD-AM-230-150-N.jpg' height=""250px"">,</br><b>Peter</b>","""",256,ConfidenceQuery,Test,"""","""","""","""",CFD-AF-214-139-N.jpg,Jenna,0,"""",0,42,1,5/1/2021 19:06,24.35.47.62,Mozilla/5.0 (Windows NT 6.1; Win64; x64; rv:87.0) Gecko/20100101 Firefox/87.0,,Firefox,87,Windows,6.1
218,1,null,"""",html-keyboard-response,246,460028,0.0-246.0,"""","<div style=""font-size:60px;"">+</div>","""",256,ITI,Test,null,1000,"""","""","""","""","""","""","""","""",1,5/1/2021 19:06,24.35.47.62,Mozilla/5.0 (Windows NT 6.1; Win64; x64; rv:87.0) Gecko/20100101 Firefox/87.0,,Firefox,87,Windows,6.1
218,1,null,"""",image-keyboard-response,247,460286,0.0-247.0,"""",jspsych/scrambledDisgustFaces/scrambledBM19DIS.JPG,"""",256,forwardMask,Test,null,250,"""",d,"""","""","""","""","""","""",1,5/1/2021 19:06,24.35.47.62,Mozilla/5.0 (Windows NT 6.1; Win64; x64; rv:87.0) Gecko/20100101 Firefox/87.0,,Firefox,87,Windows,6.1
218,1,null,"""",image-keyboard-response,248,460308,0.0-248.0,"""",jspsych/disgustFaces/BM20DIS.JPG,"""",256,Cue,Test,null,16,"""","""","""","""","""","""","""","""",1,5/1/2021 19:06,24.35.47.62,Mozilla/5.0 (Windows NT 6.1; Win64; x64; rv:87.0) Gecko/20100101 Firefox/87.0,,Firefox,87,Windows,6.1
218,1,null,"""",image-keyboard-response,249,460412,0.0-249.0,"""",jspsych/neutralFaces/BM27NES.JPG,"""",256,backwardMask,Test,null,100,"""","""","""","""","""","""","""","""",1,5/1/2021 19:06,24.35.47.62,Mozilla/5.0 (Windows NT 6.1; Win64; x64; rv:87.0) Gecko/20100101 Firefox/87.0,,Firefox,87,Windows,6.1
218,1,null,"""",html-keyboard-response,250,461413,0.0-250.0,"""","<div style=""font-size:60px;"">+</div>","""",256,fixationBtwnNeutralMaskAndPrompt,Test,null,1000,"""","""","""","""","""","""","""","""",1,5/1/2021 19:06,24.35.47.62,Mozilla/5.0 (Windows NT 6.1; Win64; x64; rv:87.0) Gecko/20100101 Firefox/87.0,,Firefox,87,Windows,6.1
218,1,1255,"""",html-button-response,251,462669,0.0-251.0,"""","<img src='jspsych/CFDfaces/CFD-AM-205-153-N.jpg' height=""250px"">,</br><b>Daniel</b>",0,256,IntactOrRearranged,Test,"""","""","""","""",CFD-LM-220-329-N.jpg,Luis,1,0,"""","""",1,5/1/2021 19:06,24.35.47.62,Mozilla/5.0 (Windows NT 6.1; Win64; x64; rv:87.0) Gecko/20100101 Firefox/87.0,,Firefox,87,Windows,6.1
218,1,2277,"""",html-slider-response,252,464949,0.0-252.0,"""","<img src='jspsych/CFDfaces/CFD-AM-205-153-N.jpg' height=""250px"">,</br><b>Daniel</b>","""",256,ConfidenceQuery,Test,"""","""","""","""",CFD-LM-220-329-N.jpg,Luis,1,"""",0,48,1,5/1/2021 19:06,24.35.47.62,Mozilla/5.0 (Windows NT 6.1; Win64; x64; rv:87.0) Gecko/20100101 Firefox/87.0,,Firefox,87,Windows,6.1
218,1,null,"""",html-keyboard-response,253,465950,0.0-253.0,"""","<div style=""font-size:60px;"">+</div>","""",256,ITI,Test,null,1000,"""","""","""","""","""","""","""","""",1,5/1/2021 19:06,24.35.47.62,Mozilla/5.0 (Windows NT 6.1; Win64; x64; rv:87.0) Gecko/20100101 Firefox/87.0,,Firefox,87,Windows,6.1
218,1,null,"""",image-keyboard-response,254,466203,0.0-254.0,"""",jspsych/scrambledNeutralFaces/scrambledBM27NES.JPG,"""",256,forwardMask,Test,null,250,"""",n,"""","""","""","""","""","""",1,5/1/2021 19:06,24.35.47.62,Mozilla/5.0 (Windows NT 6.1; Win64; x64; rv:87.0) Gecko/20100101 Firefox/87.0,,Firefox,87,Windows,6.1
218,1,null,"""",image-keyboard-response,255,466220,0.0-255.0,"""",jspsych/neutralFaces/BM27NES.JPG,"""",256,Cue,Test,null,16,"""","""","""","""","""","""","""","""",1,5/1/2021 19:06,24.35.47.62,Mozilla/5.0 (Windows NT 6.1; Win64; x64; rv:87.0) Gecko/20100101 Firefox/87.0,,Firefox,87,Windows,6.1
218,1,null,"""",image-keyboard-response,256,466324,0.0-256.0,"""",jspsych/neutralFaces/BM33NES.JPG,"""",256,backwardMask,Test,null,100,"""","""","""","""","""","""","""","""",1,5/1/2021 19:06,24.35.47.62,Mozilla/5.0 (Windows NT 6.1; Win64; x64; rv:87.0) Gecko/20100101 Firefox/87.0,,Firefox,87,Windows,6.1
218,1,null,"""",html-keyboard-response,257,467331,0.0-257.0,"""","<div style=""font-size:60px;"">+</div>","""",256,fixationBtwnNeutralMaskAndPrompt,Test,null,1000,"""","""","""","""","""","""","""","""",1,5/1/2021 19:06,24.35.47.62,Mozilla/5.0 (Windows NT 6.1; Win64; x64; rv:87.0) Gecko/20100101 Firefox/87.0,,Firefox,87,Windows,6.1
218,1,1269,"""",html-button-response,258,468600,0.0-258.0,"""","<img src='jspsych/CFDfaces/CFD-WM-041-021-N.jpg' height=""250px"">,</br><b>Brian</b>",0,256,IntactOrRearranged,Test,"""","""","""","""",CFD-WF-205-006-N.jpg,Lauren,0,0,"""","""",1,5/1/2021 19:06,24.35.47.62,Mozilla/5.0 (Windows NT 6.1; Win64; x64; rv:87.0) Gecko/20100101 Firefox/87.0,,Firefox,87,Windows,6.1
218,1,2077,"""",html-slider-response,259,470682,0.0-259.0,"""","<img src='jspsych/CFDfaces/CFD-WM-041-021-N.jpg' height=""250px"">,</br><b>Brian</b>","""",256,ConfidenceQuery,Test,"""","""","""","""",CFD-WF-205-006-N.jpg,Lauren,0,"""",0,100,1,5/1/2021 19:06,24.35.47.62,Mozilla/5.0 (Windows NT 6.1; Win64; x64; rv:87.0) Gecko/20100101 Firefox/87.0,,Firefox,87,Windows,6.1
218,1,null,"""",html-keyboard-response,260,471684,0.0-260.0,"""","<div style=""font-size:60px;"">+</div>","""",256,ITI,Test,null,1000,"""","""","""","""","""","""","""","""",1,5/1/2021 19:06,24.35.47.62,Mozilla/5.0 (Windows NT 6.1; Win64; x64; rv:87.0) Gecko/20100101 Firefox/87.0,,Firefox,87,Windows,6.1
218,1,null,"""",image-keyboard-response,261,471938,0.0-261.0,"""",jspsych/scrambledDisgustFaces/scrambledAF19DIS.JPG,"""",256,forwardMask,Test,null,250,"""",d,"""","""","""","""","""","""",1,5/1/2021 19:06,24.35.47.62,Mozilla/5.0 (Windows NT 6.1; Win64; x64; rv:87.0) Gecko/20100101 Firefox/87.0,,Firefox,87,Windows,6.1
218,1,null,"""",image-keyboard-response,262,471961,0.0-262.0,"""",jspsych/disgustFaces/AF19DIS.JPG,"""",256,Cue,Test,null,16,"""","""","""","""","""","""","""","""",1,5/1/2021 19:06,24.35.47.62,Mozilla/5.0 (Windows NT 6.1; Win64; x64; rv:87.0) Gecko/20100101 Firefox/87.0,,Firefox,87,Windows,6.1
218,1,null,"""",image-keyboard-response,263,472068,0.0-263.0,"""",jspsych/neutralFaces/AF06NES.JPG,"""",256,backwardMask,Test,null,100,"""","""","""","""","""","""","""","""",1,5/1/2021 19:06,24.35.47.62,Mozilla/5.0 (Windows NT 6.1; Win64; x64; rv:87.0) Gecko/20100101 Firefox/87.0,,Firefox,87,Windows,6.1
218,1,null,"""",html-keyboard-response,264,473070,0.0-264.0,"""","<div style=""font-size:60px;"">+</div>","""",256,fixationBtwnNeutralMaskAndPrompt,Test,null,1000,"""","""","""","""","""","""","""","""",1,5/1/2021 19:06,24.35.47.62,Mozilla/5.0 (Windows NT 6.1; Win64; x64; rv:87.0) Gecko/20100101 Firefox/87.0,,Firefox,87,Windows,6.1
218,1,2485,"""",html-button-response,265,475564,0.0-265.0,"""","<img src='jspsych/CFDfaces/CFD-AF-226-251-N.jpg' height=""250px"">,</br><b>Kimberly</b>",1,256,IntactOrRearranged,Test,"""","""","""","""",CFD-BM-043-071-N.jpg,Vincent,1,1,"""","""",1,5/1/2021 19:06,24.35.47.62,Mozilla/5.0 (Windows NT 6.1; Win64; x64; rv:87.0) Gecko/20100101 Firefox/87.0,,Firefox,87,Windows,6.1
218,1,2367,"""",html-slider-response,266,477935,0.0-266.0,"""","<img src='jspsych/CFDfaces/CFD-AF-226-251-N.jpg' height=""250px"">,</br><b>Kimberly</b>","""",256,ConfidenceQuery,Test,"""","""","""","""",CFD-BM-043-071-N.jpg,Vincent,1,"""",0,21,1,5/1/2021 19:06,24.35.47.62,Mozilla/5.0 (Windows NT 6.1; Win64; x64; rv:87.0) Gecko/20100101 Firefox/87.0,,Firefox,87,Windows,6.1
218,1,null,"""",html-keyboard-response,267,478937,0.0-267.0,"""","<div style=""font-size:60px;"">+</div>","""",256,ITI,Test,null,1000,"""","""","""","""","""","""","""","""",1,5/1/2021 19:06,24.35.47.62,Mozilla/5.0 (Windows NT 6.1; Win64; x64; rv:87.0) Gecko/20100101 Firefox/87.0,,Firefox,87,Windows,6.1
218,1,null,"""",image-keyboard-response,268,479207,0.0-268.0,"""",jspsych/scrambledNeutralFaces/scrambledBM03NES.JPG,"""",256,forwardMask,Test,null,250,"""",n,"""","""","""","""","""","""",1,5/1/2021 19:06,24.35.47.62,Mozilla/5.0 (Windows NT 6.1; Win64; x64; rv:87.0) Gecko/20100101 Firefox/87.0,,Firefox,87,Windows,6.1
218,1,null,"""",image-keyboard-response,269,479231,0.0-269.0,"""",jspsych/neutralFaces/BM03NES.JPG,"""",256,Cue,Test,null,16,"""","""","""","""","""","""","""","""",1,5/1/2021 19:06,24.35.47.62,Mozilla/5.0 (Windows NT 6.1; Win64; x64; rv:87.0) Gecko/20100101 Firefox/87.0,,Firefox,87,Windows,6.1
218,1,null,"""",image-keyboard-response,270,479338,0.0-270.0,"""",jspsych/neutralFaces/BM11NES.JPG,"""",256,backwardMask,Test,null,100,"""","""","""","""","""","""","""","""",1,5/1/2021 19:06,24.35.47.62,Mozilla/5.0 (Windows NT 6.1; Win64; x64; rv:87.0) Gecko/20100101 Firefox/87.0,,Firefox,87,Windows,6.1
218,1,null,"""",html-keyboard-response,271,480340,0.0-271.0,"""","<div style=""font-size:60px;"">+</div>","""",256,fixationBtwnNeutralMaskAndPrompt,Test,null,1000,"""","""","""","""","""","""","""","""",1,5/1/2021 19:06,24.35.47.62,Mozilla/5.0 (Windows NT 6.1; Win64; x64; rv:87.0) Gecko/20100101 Firefox/87.0,,Firefox,87,Windows,6.1
218,1,1592,"""",html-button-response,272,481932,0.0-272.0,"""","<img src='jspsych/CFDfaces/CFD-LF-239-148-N.jpg' height=""250px"">,</br><b>Vanessa</b>",0,256,IntactOrRearranged,Test,"""","""","""","""",CFD-AF-220-107-N.jpg,Angela,0,0,"""","""",1,5/1/2021 19:06,24.35.47.62,Mozilla/5.0 (Windows NT 6.1; Win64; x64; rv:87.0) Gecko/20100101 Firefox/87.0,,Firefox,87,Windows,6.1
218,1,2450,"""",html-slider-response,273,484386,0.0-273.0,"""","<img src='jspsych/CFDfaces/CFD-LF-239-148-N.jpg' height=""250px"">,</br><b>Vanessa</b>","""",256,ConfidenceQuery,Test,"""","""","""","""",CFD-AF-220-107-N.jpg,Angela,0,"""",0,63,1,5/1/2021 19:06,24.35.47.62,Mozilla/5.0 (Windows NT 6.1; Win64; x64; rv:87.0) Gecko/20100101 Firefox/87.0,,Firefox,87,Windows,6.1
218,1,null,"""",html-keyboard-response,274,485389,0.0-274.0,"""","<div style=""font-size:60px;"">+</div>","""",256,ITI,Test,null,1000,"""","""","""","""","""","""","""","""",1,5/1/2021 19:06,24.35.47.62,Mozilla/5.0 (Windows NT 6.1; Win64; x64; rv:87.0) Gecko/20100101 Firefox/87.0,,Firefox,87,Windows,6.1
218,1,null,"""",image-keyboard-response,275,485664,0.0-275.0,"""",jspsych/scrambledDisgustFaces/scrambledBM03DIS.JPG,"""",256,forwardMask,Test,null,250,"""",d,"""","""","""","""","""","""",1,5/1/2021 19:06,24.35.47.62,Mozilla/5.0 (Windows NT 6.1; Win64; x64; rv:87.0) Gecko/20100101 Firefox/87.0,,Firefox,87,Windows,6.1
218,1,null,"""",image-keyboard-response,276,485687,0.0-276.0,"""",jspsych/disgustFaces/BM04DIS.JPG,"""",256,Cue,Test,null,16,"""","""","""","""","""","""","""","""",1,5/1/2021 19:06,24.35.47.62,Mozilla/5.0 (Windows NT 6.1; Win64; x64; rv:87.0) Gecko/20100101 Firefox/87.0,,Firefox,87,Windows,6.1
218,1,null,"""",image-keyboard-response,277,485794,0.0-277.0,"""",jspsych/neutralFaces/BM08NES.JPG,"""",256,backwardMask,Test,null,100,"""","""","""","""","""","""","""","""",1,5/1/2021 19:06,24.35.47.62,Mozilla/5.0 (Windows NT 6.1; Win64; x64; rv:87.0) Gecko/20100101 Firefox/87.0,,Firefox,87,Windows,6.1
218,1,null,"""",html-keyboard-response,278,486796,0.0-278.0,"""","<div style=""font-size:60px;"">+</div>","""",256,fixationBtwnNeutralMaskAndPrompt,Test,null,1000,"""","""","""","""","""","""","""","""",1,5/1/2021 19:06,24.35.47.62,Mozilla/5.0 (Windows NT 6.1; Win64; x64; rv:87.0) Gecko/20100101 Firefox/87.0,,Firefox,87,Windows,6.1
218,1,1504,"""",html-button-response,279,488303,0.0-279.0,"""","<img src='jspsych/CFDfaces/CFD-BF-019-001-N.jpg' height=""250px"">,</br><b>Elizabeth</b>",1,256,IntactOrRearranged,Test,"""","""","""","""",CFD-AM-220-134-N.jpg,Steven,1,1,"""","""",1,5/1/2021 19:06,24.35.47.62,Mozilla/5.0 (Windows NT 6.1; Win64; x64; rv:87.0) Gecko/20100101 Firefox/87.0,,Firefox,87,Windows,6.1
218,1,2127,"""",html-slider-response,280,490432,0.0-280.0,"""","<img src='jspsych/CFDfaces/CFD-BF-019-001-N.jpg' height=""250px"">,</br><b>Elizabeth</b>","""",256,ConfidenceQuery,Test,"""","""","""","""",CFD-AM-220-134-N.jpg,Steven,1,"""",0,100,1,5/1/2021 19:06,24.35.47.62,Mozilla/5.0 (Windows NT 6.1; Win64; x64; rv:87.0) Gecko/20100101 Firefox/87.0,,Firefox,87,Windows,6.1
218,1,null,"""",html-keyboard-response,281,491434,0.0-281.0,"""","<div style=""font-size:60px;"">+</div>","""",256,ITI,Test,null,1000,"""","""","""","""","""","""","""","""",1,5/1/2021 19:06,24.35.47.62,Mozilla/5.0 (Windows NT 6.1; Win64; x64; rv:87.0) Gecko/20100101 Firefox/87.0,,Firefox,87,Windows,6.1
218,1,null,"""",image-keyboard-response,282,491697,0.0-282.0,"""",jspsych/scrambledNeutralFaces/scrambledBM16NES.JPG,"""",256,forwardMask,Test,null,250,"""",n,"""","""","""","""","""","""",1,5/1/2021 19:06,24.35.47.62,Mozilla/5.0 (Windows NT 6.1; Win64; x64; rv:87.0) Gecko/20100101 Firefox/87.0,,Firefox,87,Windows,6.1
218,1,null,"""",image-keyboard-response,283,491722,0.0-283.0,"""",jspsych/neutralFaces/BM16NES.JPG,"""",256,Cue,Test,null,16,"""","""","""","""","""","""","""","""",1,5/1/2021 19:06,24.35.47.62,Mozilla/5.0 (Windows NT 6.1; Win64; x64; rv:87.0) Gecko/20100101 Firefox/87.0,,Firefox,87,Windows,6.1
218,1,null,"""",image-keyboard-response,284,491830,0.0-284.0,"""",jspsych/neutralFaces/AM13NES.JPG,"""",256,backwardMask,Test,null,100,"""","""","""","""","""","""","""","""",1,5/1/2021 19:06,24.35.47.62,Mozilla/5.0 (Windows NT 6.1; Win64; x64; rv:87.0) Gecko/20100101 Firefox/87.0,,Firefox,87,Windows,6.1
218,1,null,"""",html-keyboard-response,285,492832,0.0-285.0,"""","<div style=""font-size:60px;"">+</div>","""",256,fixationBtwnNeutralMaskAndPrompt,Test,null,1000,"""","""","""","""","""","""","""","""",1,5/1/2021 19:06,24.35.47.62,Mozilla/5.0 (Windows NT 6.1; Win64; x64; rv:87.0) Gecko/20100101 Firefox/87.0,,Firefox,87,Windows,6.1
218,1,1713,"""",html-button-response,286,494546,0.0-286.0,"""","<img src='jspsych/CFDfaces/CFD-AF-235-170-N.jpg' height=""250px"">,</br><b>Julie</b>",1,256,IntactOrRearranged,Test,"""","""","""","""",CFD-WM-034-030-N.jpg,Sean,0,1,"""","""",1,5/1/2021 19:06,24.35.47.62,Mozilla/5.0 (Windows NT 6.1; Win64; x64; rv:87.0) Gecko/20100101 Firefox/87.0,,Firefox,87,Windows,6.1
218,1,2677,"""",html-slider-response,287,497226,0.0-287.0,"""","<img src='jspsych/CFDfaces/CFD-AF-235-170-N.jpg' height=""250px"">,</br><b>Julie</b>","""",256,ConfidenceQuery,Test,"""","""","""","""",CFD-WM-034-030-N.jpg,Sean,0,"""",0,21,1,5/1/2021 19:06,24.35.47.62,Mozilla/5.0 (Windows NT 6.1; Win64; x64; rv:87.0) Gecko/20100101 Firefox/87.0,,Firefox,87,Windows,6.1
218,1,null,"""",html-keyboard-response,288,498232,0.0-288.0,"""","<div style=""font-size:60px;"">+</div>","""",256,ITI,Test,null,1000,"""","""","""","""","""","""","""","""",1,5/1/2021 19:06,24.35.47.62,Mozilla/5.0 (Windows NT 6.1; Win64; x64; rv:87.0) Gecko/20100101 Firefox/87.0,,Firefox,87,Windows,6.1
218,1,null,"""",image-keyboard-response,289,498505,0.0-289.0,"""",jspsych/scrambledNeutralFaces/scrambledBF12NES.JPG,"""",256,forwardMask,Test,null,250,"""",n,"""","""","""","""","""","""",1,5/1/2021 19:06,24.35.47.62,Mozilla/5.0 (Windows NT 6.1; Win64; x64; rv:87.0) Gecko/20100101 Firefox/87.0,,Firefox,87,Windows,6.1
218,1,null,"""",image-keyboard-response,290,498529,0.0-290.0,"""",jspsych/neutralFaces/BF12NES.JPG,"""",256,Cue,Test,null,16,"""","""","""","""","""","""","""","""",1,5/1/2021 19:06,24.35.47.62,Mozilla/5.0 (Windows NT 6.1; Win64; x64; rv:87.0) Gecko/20100101 Firefox/87.0,,Firefox,87,Windows,6.1
218,1,null,"""",image-keyboard-response,291,498636,0.0-291.0,"""",jspsych/neutralFaces/AF29NES.JPG,"""",256,backwardMask,Test,null,100,"""","""","""","""","""","""","""","""",1,5/1/2021 19:06,24.35.47.62,Mozilla/5.0 (Windows NT 6.1; Win64; x64; rv:87.0) Gecko/20100101 Firefox/87.0,,Firefox,87,Windows,6.1
218,1,null,"""",html-keyboard-response,292,499637,0.0-292.0,"""","<div style=""font-size:60px;"">+</div>","""",256,fixationBtwnNeutralMaskAndPrompt,Test,null,1000,"""","""","""","""","""","""","""","""",1,5/1/2021 19:06,24.35.47.62,Mozilla/5.0 (Windows NT 6.1; Win64; x64; rv:87.0) Gecko/20100101 Firefox/87.0,,Firefox,87,Windows,6.1
218,1,1552,"""",html-button-response,293,501191,0.0-293.0,"""","<img src='jspsych/CFDfaces/CFD-WM-011-002-N.jpg' height=""250px"">,</br><b>Jason</b>",0,256,IntactOrRearranged,Test,"""","""","""","""",CFD-LF-210-220-N.jpg,Whitney,0,0,"""","""",1,5/1/2021 19:06,24.35.47.62,Mozilla/5.0 (Windows NT 6.1; Win64; x64; rv:87.0) Gecko/20100101 Firefox/87.0,,Firefox,87,Windows,6.1
218,1,3373,"""",html-slider-response,294,504567,0.0-294.0,"""","<img src='jspsych/CFDfaces/CFD-WM-011-002-N.jpg' height=""250px"">,</br><b>Jason</b>","""",256,ConfidenceQuery,Test,"""","""","""","""",CFD-LF-210-220-N.jpg,Whitney,0,"""",0,52,1,5/1/2021 19:06,24.35.47.62,Mozilla/5.0 (Windows NT 6.1; Win64; x64; rv:87.0) Gecko/20100101 Firefox/87.0,,Firefox,87,Windows,6.1
218,1,null,"""",html-keyboard-response,295,505582,0.0-295.0,"""","<div style=""font-size:60px;"">+</div>","""",256,ITI,Test,null,1000,"""","""","""","""","""","""","""","""",1,5/1/2021 19:06,24.35.47.62,Mozilla/5.0 (Windows NT 6.1; Win64; x64; rv:87.0) Gecko/20100101 Firefox/87.0,,Firefox,87,Windows,6.1
218,1,null,"""",image-keyboard-response,296,505839,0.0-296.0,"""",jspsych/scrambledNeutralFaces/scrambledBF34NES.JPG,"""",256,forwardMask,Test,null,250,"""",n,"""","""","""","""","""","""",1,5/1/2021 19:06,24.35.47.62,Mozilla/5.0 (Windows NT 6.1; Win64; x64; rv:87.0) Gecko/20100101 Firefox/87.0,,Firefox,87,Windows,6.1
218,1,null,"""",image-keyboard-response,297,505865,0.0-297.0,"""",jspsych/neutralFaces/BF34NES.JPG,"""",256,Cue,Test,null,16,"""","""","""","""","""","""","""","""",1,5/1/2021 19:06,24.35.47.62,Mozilla/5.0 (Windows NT 6.1; Win64; x64; rv:87.0) Gecko/20100101 Firefox/87.0,,Firefox,87,Windows,6.1
218,1,null,"""",image-keyboard-response,298,505969,0.0-298.0,"""",jspsych/neutralFaces/BF24NES.JPG,"""",256,backwardMask,Test,null,100,"""","""","""","""","""","""","""","""",1,5/1/2021 19:06,24.35.47.62,Mozilla/5.0 (Windows NT 6.1; Win64; x64; rv:87.0) Gecko/20100101 Firefox/87.0,,Firefox,87,Windows,6.1
