run_id,condition,rt,responses,trial_type,trial_index,time_elapsed,internal_node_id,question_order,stimulus,button_pressed,iTrial,Phase,ExperimentPhase,key_press,StimulusDurationSetting,CharacterResponse,correctResponse,Face,Name,rearranged,slider_start,response,didSubjectEnterRearranged,Block,recorded_at,ip,user_agent,device,browser,browser_version,platform,platform_version
98,1,6202,"{""Q0"":""A1XQI8HC0E56OX""}",survey-text,0,6207,0.0-0.0,"""","""","""","""","""","""","""","""","""","""","""","""","""","""","""","""","""",4/23/2021 3:00,71.233.202.7,Mozilla/5.0 (Macintosh; Intel Mac OS X 10.13; rv:88.0) Gecko/20100101 Firefox/88.0,Macintosh,Firefox,88,OS X,10.13
98,1,2659,"{""Q0"":""29""}",survey-text,1,8878,0.0-1.0,"""","""","""","""","""","""","""","""","""","""","""","""","""","""","""","""","""",4/23/2021 3:00,71.233.202.7,Mozilla/5.0 (Macintosh; Intel Mac OS X 10.13; rv:88.0) Gecko/20100101 Firefox/88.0,Macintosh,Firefox,88,OS X,10.13
98,1,5439,"{""Q0"":""male"",""Q1"":""Not Hispanic/Latino"",""Q2"":""Asian""}",survey-multi-choice,2,14320,0.0-2.0,"[0,1,2]","""","""","""","""","""","""","""","""","""","""","""","""","""","""","""","""",4/23/2021 3:00,71.233.202.7,Mozilla/5.0 (Macintosh; Intel Mac OS X 10.13; rv:88.0) Gecko/20100101 Firefox/88.0,Macintosh,Firefox,88,OS X,10.13
98,1,11258,"""",image-button-response,3,25589,0.0-3.0,"""",directionsMemoryAssociation1.JPG,0,1,IntroDirections1,break,"""","""","""","""","""","""","""","""","""","""","""",4/23/2021 3:00,71.233.202.7,Mozilla/5.0 (Macintosh; Intel Mac OS X 10.13; rv:88.0) Gecko/20100101 Firefox/88.0,Macintosh,Firefox,88,OS X,10.13
98,1,14713,"""",image-button-response,4,40312,0.0-4.0,"""",directionsMemoryAssociation2.JPG,0,1,IntroDirections2,break,"""","""","""","""","""","""","""","""","""","""","""",4/23/2021 3:00,71.233.202.7,Mozilla/5.0 (Macintosh; Intel Mac OS X 10.13; rv:88.0) Gecko/20100101 Firefox/88.0,Macintosh,Firefox,88,OS X,10.13
98,1,4413,"""",html-keyboard-response,5,45321,0.0-5.0,"""","<img src='jspsych/CFDfaces/CFD-LF-230-203-N.jpg' height=""250px"">,</br><b>Tara</b>","""",1,IntactFace,Practice,70,5000,f,"""","""","""","""","""","""","""","""",4/23/2021 3:00,71.233.202.7,Mozilla/5.0 (Macintosh; Intel Mac OS X 10.13; rv:88.0) Gecko/20100101 Firefox/88.0,Macintosh,Firefox,88,OS X,10.13
98,1,null,"""",html-keyboard-response,6,45826,0.0-6.0,"""","<div style=""font-size:60px;"">+</div>","""",1,ITI,Practice,null,1000,"""","""","""","""","""","""","""","""","""",4/23/2021 3:00,71.233.202.7,Mozilla/5.0 (Macintosh; Intel Mac OS X 10.13; rv:88.0) Gecko/20100101 Firefox/88.0,Macintosh,Firefox,88,OS X,10.13
98,1,3407,"""",html-keyboard-response,7,50830,0.0-7.0,"""","<img src='jspsych/CFDfaces/CFD-BM-043-071-N.jpg' height=""250px"">,</br><b>Marcus</b>","""",2,IntactFace,Practice,70,5000,f,"""","""","""","""","""","""","""","""",4/23/2021 3:00,71.233.202.7,Mozilla/5.0 (Macintosh; Intel Mac OS X 10.13; rv:88.0) Gecko/20100101 Firefox/88.0,Macintosh,Firefox,88,OS X,10.13
98,1,null,"""",html-keyboard-response,8,51334,0.0-8.0,"""","<div style=""font-size:60px;"">+</div>","""",2,ITI,Practice,null,1000,"""","""","""","""","""","""","""","""","""",4/23/2021 3:00,71.233.202.7,Mozilla/5.0 (Macintosh; Intel Mac OS X 10.13; rv:88.0) Gecko/20100101 Firefox/88.0,Macintosh,Firefox,88,OS X,10.13
98,1,1779,"""",html-keyboard-response,9,56341,0.0-9.0,"""","<img src='jspsych/CFDfaces/CFD-LM-200-045-N.jpg' height=""250px"">,</br><b>Carlos</b>","""",3,IntactFace,Practice,70,5000,f,"""","""","""","""","""","""","""","""",4/23/2021 3:00,71.233.202.7,Mozilla/5.0 (Macintosh; Intel Mac OS X 10.13; rv:88.0) Gecko/20100101 Firefox/88.0,Macintosh,Firefox,88,OS X,10.13
98,1,null,"""",html-keyboard-response,10,56843,0.0-10.0,"""","<div style=""font-size:60px;"">+</div>","""",3,ITI,Practice,null,1000,"""","""","""","""","""","""","""","""","""",4/23/2021 3:00,71.233.202.7,Mozilla/5.0 (Macintosh; Intel Mac OS X 10.13; rv:88.0) Gecko/20100101 Firefox/88.0,Macintosh,Firefox,88,OS X,10.13
98,1,1933,"""",html-keyboard-response,11,61850,0.0-11.0,"""","<img src='jspsych/CFDfaces/CFD-WM-207-048-N.jpg' height=""250px"">,</br><b>Samuel</b>","""",4,IntactFace,Practice,70,5000,f,"""","""","""","""","""","""","""","""",4/23/2021 3:00,71.233.202.7,Mozilla/5.0 (Macintosh; Intel Mac OS X 10.13; rv:88.0) Gecko/20100101 Firefox/88.0,Macintosh,Firefox,88,OS X,10.13
98,1,null,"""",html-keyboard-response,12,62355,0.0-12.0,"""","<div style=""font-size:60px;"">+</div>","""",4,ITI,Practice,null,1000,"""","""","""","""","""","""","""","""","""",4/23/2021 3:00,71.233.202.7,Mozilla/5.0 (Macintosh; Intel Mac OS X 10.13; rv:88.0) Gecko/20100101 Firefox/88.0,Macintosh,Firefox,88,OS X,10.13
98,1,1616,"""",html-keyboard-response,13,67358,0.0-13.0,"""","<img src='jspsych/CFDfaces/CFD-BF-047-003-N.jpg' height=""250px"">,</br><b>Cassandra</b>","""",5,IntactFace,Practice,70,5000,f,"""","""","""","""","""","""","""","""",4/23/2021 3:00,71.233.202.7,Mozilla/5.0 (Macintosh; Intel Mac OS X 10.13; rv:88.0) Gecko/20100101 Firefox/88.0,Macintosh,Firefox,88,OS X,10.13
98,1,null,"""",html-keyboard-response,14,67860,0.0-14.0,"""","<div style=""font-size:60px;"">+</div>","""",5,ITI,Practice,null,1000,"""","""","""","""","""","""","""","""","""",4/23/2021 3:00,71.233.202.7,Mozilla/5.0 (Macintosh; Intel Mac OS X 10.13; rv:88.0) Gecko/20100101 Firefox/88.0,Macintosh,Firefox,88,OS X,10.13
98,1,1283,"""",html-keyboard-response,15,72867,0.0-15.0,"""","<img src='jspsych/CFDfaces/CFD-WM-006-002-N.jpg' height=""250px"">,</br><b>Patrick</b>","""",6,IntactFace,Practice,70,5000,f,"""","""","""","""","""","""","""","""",4/23/2021 3:00,71.233.202.7,Mozilla/5.0 (Macintosh; Intel Mac OS X 10.13; rv:88.0) Gecko/20100101 Firefox/88.0,Macintosh,Firefox,88,OS X,10.13
98,1,null,"""",html-keyboard-response,16,73369,0.0-16.0,"""","<div style=""font-size:60px;"">+</div>","""",6,ITI,Practice,null,1000,"""","""","""","""","""","""","""","""","""",4/23/2021 3:00,71.233.202.7,Mozilla/5.0 (Macintosh; Intel Mac OS X 10.13; rv:88.0) Gecko/20100101 Firefox/88.0,Macintosh,Firefox,88,OS X,10.13
98,1,null,"""",html-keyboard-response,17,78376,0.0-17.0,"""","<img src='jspsych/CFDfaces/CFD-AF-200-228-N.jpg' height=""250px"">,</br><b>Shannon</b>","""",7,IntactFace,Practice,null,5000,"""","""","""","""","""","""","""","""","""",4/23/2021 3:00,71.233.202.7,Mozilla/5.0 (Macintosh; Intel Mac OS X 10.13; rv:88.0) Gecko/20100101 Firefox/88.0,Macintosh,Firefox,88,OS X,10.13
98,1,null,"""",html-keyboard-response,18,78878,0.0-18.0,"""","<div style=""font-size:60px;"">+</div>","""",7,ITI,Practice,null,1000,"""","""","""","""","""","""","""","""","""",4/23/2021 3:00,71.233.202.7,Mozilla/5.0 (Macintosh; Intel Mac OS X 10.13; rv:88.0) Gecko/20100101 Firefox/88.0,Macintosh,Firefox,88,OS X,10.13
98,1,4123,"""",html-keyboard-response,19,83881,0.0-19.0,"""","<img src='jspsych/CFDfaces/CFD-AF-233-190-N.jpg' height=""250px"">,</br><b>Katelyn</b>","""",8,IntactFace,Practice,78,5000,n,"""","""","""","""","""","""","""","""",4/23/2021 3:00,71.233.202.7,Mozilla/5.0 (Macintosh; Intel Mac OS X 10.13; rv:88.0) Gecko/20100101 Firefox/88.0,Macintosh,Firefox,88,OS X,10.13
98,1,null,"""",html-keyboard-response,20,84384,0.0-20.0,"""","<div style=""font-size:60px;"">+</div>","""",8,ITI,Practice,null,1000,"""","""","""","""","""","""","""","""","""",4/23/2021 3:00,71.233.202.7,Mozilla/5.0 (Macintosh; Intel Mac OS X 10.13; rv:88.0) Gecko/20100101 Firefox/88.0,Macintosh,Firefox,88,OS X,10.13
98,1,15452,"""",image-button-response,21,99845,0.0-21.0,"""",directionsForTest.JPG,0,1,directionsForTest,break,"""","""","""","""","""","""","""","""","""","""","""",4/23/2021 3:00,71.233.202.7,Mozilla/5.0 (Macintosh; Intel Mac OS X 10.13; rv:88.0) Gecko/20100101 Firefox/88.0,Macintosh,Firefox,88,OS X,10.13
98,1,8253,"""",image-button-response,22,108105,0.0-22.0,"""",directionsForTest2.JPG,0,1,directionsForTest2,break,"""","""","""","""","""","""","""","""","""","""","""",4/23/2021 3:00,71.233.202.7,Mozilla/5.0 (Macintosh; Intel Mac OS X 10.13; rv:88.0) Gecko/20100101 Firefox/88.0,Macintosh,Firefox,88,OS X,10.13
98,1,null,"""",html-keyboard-response,23,109111,0.0-23.0,"""","<div style=""font-size:60px;"">+</div>","""",1,ITI,Practice,null,1000,"""","""","""","""","""","""","""","""","""",4/23/2021 3:00,71.233.202.7,Mozilla/5.0 (Macintosh; Intel Mac OS X 10.13; rv:88.0) Gecko/20100101 Firefox/88.0,Macintosh,Firefox,88,OS X,10.13
98,1,null,"""",image-keyboard-response,24,109367,0.0-24.0,"""",jspsych/scrambledNeutralFaces/scrambledBF22NES.JPG,"""",1,forwardMask,Practice,null,250,"""",n,"""","""","""","""","""","""","""",4/23/2021 3:00,71.233.202.7,Mozilla/5.0 (Macintosh; Intel Mac OS X 10.13; rv:88.0) Gecko/20100101 Firefox/88.0,Macintosh,Firefox,88,OS X,10.13
98,1,null,"""",image-keyboard-response,25,109388,0.0-25.0,"""",jspsych/neutralFaces/BF22NES.JPG,"""",1,Cue,Practice,null,16,"""","""","""","""","""","""","""","""","""",4/23/2021 3:00,71.233.202.7,Mozilla/5.0 (Macintosh; Intel Mac OS X 10.13; rv:88.0) Gecko/20100101 Firefox/88.0,Macintosh,Firefox,88,OS X,10.13
98,1,null,"""",image-keyboard-response,26,109495,0.0-26.0,"""",jspsych/neutralFaces/AF24NES.JPG,"""",1,backwardMask,Practice,null,100,"""","""","""","""","""","""","""","""","""",4/23/2021 3:00,71.233.202.7,Mozilla/5.0 (Macintosh; Intel Mac OS X 10.13; rv:88.0) Gecko/20100101 Firefox/88.0,Macintosh,Firefox,88,OS X,10.13
98,1,null,"""",html-keyboard-response,27,110497,0.0-27.0,"""","<div style=""font-size:60px;"">+</div>","""",1,fixationBtwnNeutralMaskAndPrompt,Practice,null,1000,"""","""","""","""","""","""","""","""","""",4/23/2021 3:00,71.233.202.7,Mozilla/5.0 (Macintosh; Intel Mac OS X 10.13; rv:88.0) Gecko/20100101 Firefox/88.0,Macintosh,Firefox,88,OS X,10.13
98,1,null,"""",html-button-response,28,115500,0.0-28.0,"""","<img src='jspsych/CFDfaces/CFD-WM-207-048-N.jpg'height=""250px""></br><b>Samuel</b>",null,1,IntactOrRearranged,Practice,"""","""","""","""",CFD-WM-207-048-N.jpg,Samuel,0,"""","""","""","""",4/23/2021 3:00,71.233.202.7,Mozilla/5.0 (Macintosh; Intel Mac OS X 10.13; rv:88.0) Gecko/20100101 Firefox/88.0,Macintosh,Firefox,88,OS X,10.13
98,1,null,"""",html-slider-response,29,120510,0.0-29.0,"""","<img src='jspsych/CFDfaces/CFD-WM-207-048-N.jpg'height=""250px""></br><b>Samuel</b>","""",1,ConfidenceQuery,Practice,"""","""","""","""",CFD-BM-018-001-N.jpg,Mark,0,0,null,"""","""",4/23/2021 3:00,71.233.202.7,Mozilla/5.0 (Macintosh; Intel Mac OS X 10.13; rv:88.0) Gecko/20100101 Firefox/88.0,Macintosh,Firefox,88,OS X,10.13
98,1,2870,"""",html-button-response,30,123382,0.0-30.0,"""",<p>Please click either button: REARRANGED or INTACT before the 5-second time limit.</p>,0,1,feedback,Practice,"""","""","""","""","""","""","""","""","""","""","""",4/23/2021 3:00,71.233.202.7,Mozilla/5.0 (Macintosh; Intel Mac OS X 10.13; rv:88.0) Gecko/20100101 Firefox/88.0,Macintosh,Firefox,88,OS X,10.13
98,1,null,"""",html-keyboard-response,31,124387,0.0-31.0,"""","<div style=""font-size:60px;"">+</div>","""",2,ITI,Practice,null,1000,"""","""","""","""","""","""","""","""","""",4/23/2021 3:00,71.233.202.7,Mozilla/5.0 (Macintosh; Intel Mac OS X 10.13; rv:88.0) Gecko/20100101 Firefox/88.0,Macintosh,Firefox,88,OS X,10.13
98,1,null,"""",image-keyboard-response,32,124640,0.0-32.0,"""",jspsych/scrambledNeutralFaces/scrambledAM14NES.JPG,"""",2,forwardMask,Practice,null,250,"""",n,"""","""","""","""","""","""","""",4/23/2021 3:00,71.233.202.7,Mozilla/5.0 (Macintosh; Intel Mac OS X 10.13; rv:88.0) Gecko/20100101 Firefox/88.0,Macintosh,Firefox,88,OS X,10.13
98,1,null,"""",image-keyboard-response,33,124660,0.0-33.0,"""",jspsych/neutralFaces/AM14NES.JPG,"""",2,Cue,Practice,null,16,"""","""","""","""","""","""","""","""","""",4/23/2021 3:00,71.233.202.7,Mozilla/5.0 (Macintosh; Intel Mac OS X 10.13; rv:88.0) Gecko/20100101 Firefox/88.0,Macintosh,Firefox,88,OS X,10.13
98,1,null,"""",image-keyboard-response,34,124764,0.0-34.0,"""",jspsych/neutralFaces/AM03NES.JPG,"""",2,backwardMask,Practice,null,100,"""","""","""","""","""","""","""","""","""",4/23/2021 3:00,71.233.202.7,Mozilla/5.0 (Macintosh; Intel Mac OS X 10.13; rv:88.0) Gecko/20100101 Firefox/88.0,Macintosh,Firefox,88,OS X,10.13
98,1,null,"""",html-keyboard-response,35,125766,0.0-35.0,"""","<div style=""font-size:60px;"">+</div>","""",2,fixationBtwnNeutralMaskAndPrompt,Practice,null,1000,"""","""","""","""","""","""","""","""","""",4/23/2021 3:00,71.233.202.7,Mozilla/5.0 (Macintosh; Intel Mac OS X 10.13; rv:88.0) Gecko/20100101 Firefox/88.0,Macintosh,Firefox,88,OS X,10.13
98,1,2048,"""",html-button-response,36,127816,0.0-36.0,"""","<img src='jspsych/CFDfaces/CFD-AF-200-228-N.jpg'height=""250px""></br><b>Shannon</b>",0,2,IntactOrRearranged,Practice,"""","""","""","""",CFD-AF-200-228-N.jpg,Shannon,0,"""","""",0,"""",4/23/2021 3:00,71.233.202.7,Mozilla/5.0 (Macintosh; Intel Mac OS X 10.13; rv:88.0) Gecko/20100101 Firefox/88.0,Macintosh,Firefox,88,OS X,10.13
98,1,2491,"""",html-slider-response,37,130310,0.0-37.0,"""","<img src='jspsych/CFDfaces/CFD-AF-200-228-N.jpg'height=""250px""></br><b>Shannon</b>","""",2,ConfidenceQuery,Practice,"""","""","""","""",CFD-BM-018-001-N.jpg,Mark,0,0,100,"""","""",4/23/2021 3:00,71.233.202.7,Mozilla/5.0 (Macintosh; Intel Mac OS X 10.13; rv:88.0) Gecko/20100101 Firefox/88.0,Macintosh,Firefox,88,OS X,10.13
98,1,2658,"""",html-button-response,38,132972,0.0-38.0,"""",You are Correct. You called an Intact Pair Intact,0,2,feedback,Practice,"""","""","""","""","""","""","""","""","""","""","""",4/23/2021 3:00,71.233.202.7,Mozilla/5.0 (Macintosh; Intel Mac OS X 10.13; rv:88.0) Gecko/20100101 Firefox/88.0,Macintosh,Firefox,88,OS X,10.13
98,1,null,"""",html-keyboard-response,39,133973,0.0-39.0,"""","<div style=""font-size:60px;"">+</div>","""",3,ITI,Practice,null,1000,"""","""","""","""","""","""","""","""","""",4/23/2021 3:00,71.233.202.7,Mozilla/5.0 (Macintosh; Intel Mac OS X 10.13; rv:88.0) Gecko/20100101 Firefox/88.0,Macintosh,Firefox,88,OS X,10.13
98,1,null,"""",image-keyboard-response,40,134227,0.0-40.0,"""",jspsych/scrambledNeutralFaces/scrambledAF26NES.JPG,"""",3,forwardMask,Practice,null,250,"""",n,"""","""","""","""","""","""","""",4/23/2021 3:00,71.233.202.7,Mozilla/5.0 (Macintosh; Intel Mac OS X 10.13; rv:88.0) Gecko/20100101 Firefox/88.0,Macintosh,Firefox,88,OS X,10.13
98,1,null,"""",image-keyboard-response,41,134246,0.0-41.0,"""",jspsych/neutralFaces/AF26NES.JPG,"""",3,Cue,Practice,null,16,"""","""","""","""","""","""","""","""","""",4/23/2021 3:00,71.233.202.7,Mozilla/5.0 (Macintosh; Intel Mac OS X 10.13; rv:88.0) Gecko/20100101 Firefox/88.0,Macintosh,Firefox,88,OS X,10.13
98,1,null,"""",image-keyboard-response,42,134355,0.0-42.0,"""",jspsych/neutralFaces/BF14NES.JPG,"""",3,backwardMask,Practice,null,100,"""","""","""","""","""","""","""","""","""",4/23/2021 3:00,71.233.202.7,Mozilla/5.0 (Macintosh; Intel Mac OS X 10.13; rv:88.0) Gecko/20100101 Firefox/88.0,Macintosh,Firefox,88,OS X,10.13
98,1,null,"""",html-keyboard-response,43,135356,0.0-43.0,"""","<div style=""font-size:60px;"">+</div>","""",3,fixationBtwnNeutralMaskAndPrompt,Practice,null,1000,"""","""","""","""","""","""","""","""","""",4/23/2021 3:00,71.233.202.7,Mozilla/5.0 (Macintosh; Intel Mac OS X 10.13; rv:88.0) Gecko/20100101 Firefox/88.0,Macintosh,Firefox,88,OS X,10.13
98,1,2155,"""",html-button-response,44,137513,0.0-44.0,"""","<img src='jspsych/CFDfaces/CFD-AF-233-190-N.jpg'height=""250px""></br><b>Cassandra</b>",1,3,IntactOrRearranged,Practice,"""","""","""","""",CFD-AF-233-190-N.jpg,Cassandra,1,"""","""",1,"""",4/23/2021 3:00,71.233.202.7,Mozilla/5.0 (Macintosh; Intel Mac OS X 10.13; rv:88.0) Gecko/20100101 Firefox/88.0,Macintosh,Firefox,88,OS X,10.13
98,1,2299,"""",html-slider-response,45,139822,0.0-45.0,"""","<img src='jspsych/CFDfaces/CFD-AF-233-190-N.jpg'height=""250px""></br><b>Cassandra</b>","""",3,ConfidenceQuery,Practice,"""","""","""","""",CFD-BM-018-001-N.jpg,Mark,1,0,100,"""","""",4/23/2021 3:00,71.233.202.7,Mozilla/5.0 (Macintosh; Intel Mac OS X 10.13; rv:88.0) Gecko/20100101 Firefox/88.0,Macintosh,Firefox,88,OS X,10.13
98,1,1151,"""",html-button-response,46,140975,0.0-46.0,"""",You are Correct. You Called A Rearranged Pair Rearranged,0,3,feedback,Practice,"""","""","""","""","""","""","""","""","""","""","""",4/23/2021 3:00,71.233.202.7,Mozilla/5.0 (Macintosh; Intel Mac OS X 10.13; rv:88.0) Gecko/20100101 Firefox/88.0,Macintosh,Firefox,88,OS X,10.13
98,1,null,"""",html-keyboard-response,47,141977,0.0-47.0,"""","<div style=""font-size:60px;"">+</div>","""",4,ITI,Practice,null,1000,"""","""","""","""","""","""","""","""","""",4/23/2021 3:00,71.233.202.7,Mozilla/5.0 (Macintosh; Intel Mac OS X 10.13; rv:88.0) Gecko/20100101 Firefox/88.0,Macintosh,Firefox,88,OS X,10.13
98,1,null,"""",image-keyboard-response,48,142232,0.0-48.0,"""",jspsych/scrambledDisgustFaces/scrambledBM31DIS.JPG,"""",4,forwardMask,Practice,null,250,"""",d,"""","""","""","""","""","""","""",4/23/2021 3:00,71.233.202.7,Mozilla/5.0 (Macintosh; Intel Mac OS X 10.13; rv:88.0) Gecko/20100101 Firefox/88.0,Macintosh,Firefox,88,OS X,10.13
98,1,null,"""",image-keyboard-response,49,142251,0.0-49.0,"""",jspsych/disgustFaces/BM32DIS.JPG,"""",4,Cue,Practice,null,16,"""","""","""","""","""","""","""","""","""",4/23/2021 3:00,71.233.202.7,Mozilla/5.0 (Macintosh; Intel Mac OS X 10.13; rv:88.0) Gecko/20100101 Firefox/88.0,Macintosh,Firefox,88,OS X,10.13
98,1,null,"""",image-keyboard-response,50,142355,0.0-50.0,"""",jspsych/neutralFaces/BM06NES.JPG,"""",4,backwardMask,Practice,null,100,"""","""","""","""","""","""","""","""","""",4/23/2021 3:00,71.233.202.7,Mozilla/5.0 (Macintosh; Intel Mac OS X 10.13; rv:88.0) Gecko/20100101 Firefox/88.0,Macintosh,Firefox,88,OS X,10.13
98,1,null,"""",html-keyboard-response,51,143357,0.0-51.0,"""","<div style=""font-size:60px;"">+</div>","""",4,fixationBtwnNeutralMaskAndPrompt,Practice,null,1000,"""","""","""","""","""","""","""","""","""",4/23/2021 3:00,71.233.202.7,Mozilla/5.0 (Macintosh; Intel Mac OS X 10.13; rv:88.0) Gecko/20100101 Firefox/88.0,Macintosh,Firefox,88,OS X,10.13
98,1,1327,"""",html-button-response,52,144689,0.0-52.0,"""","<img src='jspsych/CFDfaces/CFD-LF-230-203-N.jpg'height=""250px""></br><b>Tara</b>",0,4,IntactOrRearranged,Practice,"""","""","""","""",CFD-LF-230-203-N.jpg,Tara,0,"""","""",0,"""",4/23/2021 3:00,71.233.202.7,Mozilla/5.0 (Macintosh; Intel Mac OS X 10.13; rv:88.0) Gecko/20100101 Firefox/88.0,Macintosh,Firefox,88,OS X,10.13
98,1,2228,"""",html-slider-response,53,146922,0.0-53.0,"""","<img src='jspsych/CFDfaces/CFD-LF-230-203-N.jpg'height=""250px""></br><b>Tara</b>","""",4,ConfidenceQuery,Practice,"""","""","""","""",CFD-BM-018-001-N.jpg,Mark,0,0,100,"""","""",4/23/2021 3:00,71.233.202.7,Mozilla/5.0 (Macintosh; Intel Mac OS X 10.13; rv:88.0) Gecko/20100101 Firefox/88.0,Macintosh,Firefox,88,OS X,10.13
98,1,1298,"""",html-button-response,54,148222,0.0-54.0,"""",You are Correct. You called an Intact Pair Intact,0,4,feedback,Practice,"""","""","""","""","""","""","""","""","""","""","""",4/23/2021 3:00,71.233.202.7,Mozilla/5.0 (Macintosh; Intel Mac OS X 10.13; rv:88.0) Gecko/20100101 Firefox/88.0,Macintosh,Firefox,88,OS X,10.13
98,1,null,"""",html-keyboard-response,55,149223,0.0-55.0,"""","<div style=""font-size:60px;"">+</div>","""",5,ITI,Practice,null,1000,"""","""","""","""","""","""","""","""","""",4/23/2021 3:00,71.233.202.7,Mozilla/5.0 (Macintosh; Intel Mac OS X 10.13; rv:88.0) Gecko/20100101 Firefox/88.0,Macintosh,Firefox,88,OS X,10.13
98,1,null,"""",image-keyboard-response,56,149479,0.0-56.0,"""",jspsych/scrambledDisgustFaces/scrambledAF15DIS.JPG,"""",5,forwardMask,Practice,null,250,"""",d,"""","""","""","""","""","""","""",4/23/2021 3:00,71.233.202.7,Mozilla/5.0 (Macintosh; Intel Mac OS X 10.13; rv:88.0) Gecko/20100101 Firefox/88.0,Macintosh,Firefox,88,OS X,10.13
98,1,null,"""",image-keyboard-response,57,149499,0.0-57.0,"""",jspsych/disgustFaces/AF15DIS.JPG,"""",5,Cue,Practice,null,16,"""","""","""","""","""","""","""","""","""",4/23/2021 3:00,71.233.202.7,Mozilla/5.0 (Macintosh; Intel Mac OS X 10.13; rv:88.0) Gecko/20100101 Firefox/88.0,Macintosh,Firefox,88,OS X,10.13
98,1,null,"""",image-keyboard-response,58,149603,0.0-58.0,"""",jspsych/neutralFaces/AF17NES.JPG,"""",5,backwardMask,Practice,null,100,"""","""","""","""","""","""","""","""","""",4/23/2021 3:00,71.233.202.7,Mozilla/5.0 (Macintosh; Intel Mac OS X 10.13; rv:88.0) Gecko/20100101 Firefox/88.0,Macintosh,Firefox,88,OS X,10.13
98,1,null,"""",html-keyboard-response,59,150608,0.0-59.0,"""","<div style=""font-size:60px;"">+</div>","""",5,fixationBtwnNeutralMaskAndPrompt,Practice,null,1000,"""","""","""","""","""","""","""","""","""",4/23/2021 3:00,71.233.202.7,Mozilla/5.0 (Macintosh; Intel Mac OS X 10.13; rv:88.0) Gecko/20100101 Firefox/88.0,Macintosh,Firefox,88,OS X,10.13
98,1,2469,"""",html-button-response,60,153079,0.0-60.0,"""","<img src='jspsych/CFDfaces/CFD-WM-006-002-N.jpg'height=""250px""></br><b>Patrick</b>",0,5,IntactOrRearranged,Practice,"""","""","""","""",CFD-WM-006-002-N.jpg,Patrick,0,"""","""",0,"""",4/23/2021 3:00,71.233.202.7,Mozilla/5.0 (Macintosh; Intel Mac OS X 10.13; rv:88.0) Gecko/20100101 Firefox/88.0,Macintosh,Firefox,88,OS X,10.13
98,1,2727,"""",html-slider-response,61,155809,0.0-61.0,"""","<img src='jspsych/CFDfaces/CFD-WM-006-002-N.jpg'height=""250px""></br><b>Patrick</b>","""",5,ConfidenceQuery,Practice,"""","""","""","""",CFD-BM-018-001-N.jpg,Mark,0,0,80,"""","""",4/23/2021 3:00,71.233.202.7,Mozilla/5.0 (Macintosh; Intel Mac OS X 10.13; rv:88.0) Gecko/20100101 Firefox/88.0,Macintosh,Firefox,88,OS X,10.13
98,1,1288,"""",html-button-response,62,157101,0.0-62.0,"""",You are Correct. You called an Intact Pair Intact,0,5,feedback,Practice,"""","""","""","""","""","""","""","""","""","""","""",4/23/2021 3:00,71.233.202.7,Mozilla/5.0 (Macintosh; Intel Mac OS X 10.13; rv:88.0) Gecko/20100101 Firefox/88.0,Macintosh,Firefox,88,OS X,10.13
98,1,null,"""",html-keyboard-response,63,158105,0.0-63.0,"""","<div style=""font-size:60px;"">+</div>","""",6,ITI,Practice,null,1000,"""","""","""","""","""","""","""","""","""",4/23/2021 3:00,71.233.202.7,Mozilla/5.0 (Macintosh; Intel Mac OS X 10.13; rv:88.0) Gecko/20100101 Firefox/88.0,Macintosh,Firefox,88,OS X,10.13
98,1,null,"""",image-keyboard-response,64,158361,0.0-64.0,"""",jspsych/scrambledNeutralFaces/scrambledBM07NES.JPG,"""",6,forwardMask,Practice,null,250,"""",n,"""","""","""","""","""","""","""",4/23/2021 3:00,71.233.202.7,Mozilla/5.0 (Macintosh; Intel Mac OS X 10.13; rv:88.0) Gecko/20100101 Firefox/88.0,Macintosh,Firefox,88,OS X,10.13
98,1,null,"""",image-keyboard-response,65,158383,0.0-65.0,"""",jspsych/neutralFaces/BM07NES.JPG,"""",6,Cue,Practice,null,16,"""","""","""","""","""","""","""","""","""",4/23/2021 3:00,71.233.202.7,Mozilla/5.0 (Macintosh; Intel Mac OS X 10.13; rv:88.0) Gecko/20100101 Firefox/88.0,Macintosh,Firefox,88,OS X,10.13
98,1,null,"""",image-keyboard-response,66,158490,0.0-66.0,"""",jspsych/neutralFaces/AM15NES.JPG,"""",6,backwardMask,Practice,null,100,"""","""","""","""","""","""","""","""","""",4/23/2021 3:00,71.233.202.7,Mozilla/5.0 (Macintosh; Intel Mac OS X 10.13; rv:88.0) Gecko/20100101 Firefox/88.0,Macintosh,Firefox,88,OS X,10.13
98,1,null,"""",html-keyboard-response,67,159493,0.0-67.0,"""","<div style=""font-size:60px;"">+</div>","""",6,fixationBtwnNeutralMaskAndPrompt,Practice,null,1000,"""","""","""","""","""","""","""","""","""",4/23/2021 3:00,71.233.202.7,Mozilla/5.0 (Macintosh; Intel Mac OS X 10.13; rv:88.0) Gecko/20100101 Firefox/88.0,Macintosh,Firefox,88,OS X,10.13
98,1,1820,"""",html-button-response,68,161313,0.0-68.0,"""","<img src='jspsych/CFDfaces/CFD-LM-200-045-N.jpg'height=""250px""></br><b>Marcus</b>",1,6,IntactOrRearranged,Practice,"""","""","""","""",CFD-LM-200-045-N.jpg,Marcus,1,"""","""",1,"""",4/23/2021 3:00,71.233.202.7,Mozilla/5.0 (Macintosh; Intel Mac OS X 10.13; rv:88.0) Gecko/20100101 Firefox/88.0,Macintosh,Firefox,88,OS X,10.13
98,1,1905,"""",html-slider-response,69,163224,0.0-69.0,"""","<img src='jspsych/CFDfaces/CFD-LM-200-045-N.jpg'height=""250px""></br><b>Marcus</b>","""",6,ConfidenceQuery,Practice,"""","""","""","""",CFD-BM-018-001-N.jpg,Mark,1,0,100,"""","""",4/23/2021 3:00,71.233.202.7,Mozilla/5.0 (Macintosh; Intel Mac OS X 10.13; rv:88.0) Gecko/20100101 Firefox/88.0,Macintosh,Firefox,88,OS X,10.13
98,1,1345,"""",html-button-response,70,164570,0.0-70.0,"""",You are Correct. You Called A Rearranged Pair Rearranged,0,6,feedback,Practice,"""","""","""","""","""","""","""","""","""","""","""",4/23/2021 3:00,71.233.202.7,Mozilla/5.0 (Macintosh; Intel Mac OS X 10.13; rv:88.0) Gecko/20100101 Firefox/88.0,Macintosh,Firefox,88,OS X,10.13
98,1,null,"""",html-keyboard-response,71,165575,0.0-71.0,"""","<div style=""font-size:60px;"">+</div>","""",7,ITI,Practice,null,1000,"""","""","""","""","""","""","""","""","""",4/23/2021 3:00,71.233.202.7,Mozilla/5.0 (Macintosh; Intel Mac OS X 10.13; rv:88.0) Gecko/20100101 Firefox/88.0,Macintosh,Firefox,88,OS X,10.13
98,1,null,"""",image-keyboard-response,72,165832,0.0-72.0,"""",jspsych/scrambledNeutralFaces/scrambledAM11NES.JPG,"""",7,forwardMask,Practice,null,250,"""",n,"""","""","""","""","""","""","""",4/23/2021 3:00,71.233.202.7,Mozilla/5.0 (Macintosh; Intel Mac OS X 10.13; rv:88.0) Gecko/20100101 Firefox/88.0,Macintosh,Firefox,88,OS X,10.13
98,1,null,"""",image-keyboard-response,73,165851,0.0-73.0,"""",jspsych/neutralFaces/AM11NES.JPG,"""",7,Cue,Practice,null,16,"""","""","""","""","""","""","""","""","""",4/23/2021 3:00,71.233.202.7,Mozilla/5.0 (Macintosh; Intel Mac OS X 10.13; rv:88.0) Gecko/20100101 Firefox/88.0,Macintosh,Firefox,88,OS X,10.13
98,1,null,"""",image-keyboard-response,74,165959,0.0-74.0,"""",jspsych/neutralFaces/BM31NES.JPG,"""",7,backwardMask,Practice,null,100,"""","""","""","""","""","""","""","""","""",4/23/2021 3:00,71.233.202.7,Mozilla/5.0 (Macintosh; Intel Mac OS X 10.13; rv:88.0) Gecko/20100101 Firefox/88.0,Macintosh,Firefox,88,OS X,10.13
98,1,null,"""",html-keyboard-response,75,166963,0.0-75.0,"""","<div style=""font-size:60px;"">+</div>","""",7,fixationBtwnNeutralMaskAndPrompt,Practice,null,1000,"""","""","""","""","""","""","""","""","""",4/23/2021 3:00,71.233.202.7,Mozilla/5.0 (Macintosh; Intel Mac OS X 10.13; rv:88.0) Gecko/20100101 Firefox/88.0,Macintosh,Firefox,88,OS X,10.13
98,1,1678,"""",html-button-response,76,168645,0.0-76.0,"""","<img src='jspsych/CFDfaces/CFD-BM-043-071-N.jpg'height=""250px""></br><b>Carlos</b>",1,7,IntactOrRearranged,Practice,"""","""","""","""",CFD-BM-043-071-N.jpg,Carlos,1,"""","""",1,"""",4/23/2021 3:00,71.233.202.7,Mozilla/5.0 (Macintosh; Intel Mac OS X 10.13; rv:88.0) Gecko/20100101 Firefox/88.0,Macintosh,Firefox,88,OS X,10.13
98,1,1966,"""",html-slider-response,77,170613,0.0-77.0,"""","<img src='jspsych/CFDfaces/CFD-BM-043-071-N.jpg'height=""250px""></br><b>Carlos</b>","""",7,ConfidenceQuery,Practice,"""","""","""","""",CFD-BM-018-001-N.jpg,Mark,1,0,100,"""","""",4/23/2021 3:00,71.233.202.7,Mozilla/5.0 (Macintosh; Intel Mac OS X 10.13; rv:88.0) Gecko/20100101 Firefox/88.0,Macintosh,Firefox,88,OS X,10.13
98,1,1864,"""",html-button-response,78,172478,0.0-78.0,"""",You are Correct. You Called A Rearranged Pair Rearranged,0,7,feedback,Practice,"""","""","""","""","""","""","""","""","""","""","""",4/23/2021 3:00,71.233.202.7,Mozilla/5.0 (Macintosh; Intel Mac OS X 10.13; rv:88.0) Gecko/20100101 Firefox/88.0,Macintosh,Firefox,88,OS X,10.13
98,1,null,"""",html-keyboard-response,79,173482,0.0-79.0,"""","<div style=""font-size:60px;"">+</div>","""",8,ITI,Practice,null,1000,"""","""","""","""","""","""","""","""","""",4/23/2021 3:00,71.233.202.7,Mozilla/5.0 (Macintosh; Intel Mac OS X 10.13; rv:88.0) Gecko/20100101 Firefox/88.0,Macintosh,Firefox,88,OS X,10.13
98,1,null,"""",image-keyboard-response,80,173741,0.0-80.0,"""",jspsych/scrambledDisgustFaces/scrambledAF33DIS.JPG,"""",8,forwardMask,Practice,null,250,"""",d,"""","""","""","""","""","""","""",4/23/2021 3:00,71.233.202.7,Mozilla/5.0 (Macintosh; Intel Mac OS X 10.13; rv:88.0) Gecko/20100101 Firefox/88.0,Macintosh,Firefox,88,OS X,10.13
98,1,null,"""",image-keyboard-response,81,173761,0.0-81.0,"""",jspsych/disgustFaces/AF33DIS.JPG,"""",8,Cue,Practice,null,16,"""","""","""","""","""","""","""","""","""",4/23/2021 3:00,71.233.202.7,Mozilla/5.0 (Macintosh; Intel Mac OS X 10.13; rv:88.0) Gecko/20100101 Firefox/88.0,Macintosh,Firefox,88,OS X,10.13
98,1,null,"""",image-keyboard-response,82,173865,0.0-82.0,"""",jspsych/neutralFaces/AF06NES.JPG,"""",8,backwardMask,Practice,null,100,"""","""","""","""","""","""","""","""","""",4/23/2021 3:00,71.233.202.7,Mozilla/5.0 (Macintosh; Intel Mac OS X 10.13; rv:88.0) Gecko/20100101 Firefox/88.0,Macintosh,Firefox,88,OS X,10.13
98,1,null,"""",html-keyboard-response,83,174866,0.0-83.0,"""","<div style=""font-size:60px;"">+</div>","""",8,fixationBtwnNeutralMaskAndPrompt,Practice,null,1000,"""","""","""","""","""","""","""","""","""",4/23/2021 3:00,71.233.202.7,Mozilla/5.0 (Macintosh; Intel Mac OS X 10.13; rv:88.0) Gecko/20100101 Firefox/88.0,Macintosh,Firefox,88,OS X,10.13
98,1,1405,"""",html-button-response,84,176272,0.0-84.0,"""","<img src='jspsych/CFDfaces/CFD-BF-047-003-N.jpg'height=""250px""></br><b>Katelyn</b>",1,8,IntactOrRearranged,Practice,"""","""","""","""",CFD-BF-047-003-N.jpg,Katelyn,1,"""","""",1,"""",4/23/2021 3:00,71.233.202.7,Mozilla/5.0 (Macintosh; Intel Mac OS X 10.13; rv:88.0) Gecko/20100101 Firefox/88.0,Macintosh,Firefox,88,OS X,10.13
98,1,1952,"""",html-slider-response,85,178227,0.0-85.0,"""","<img src='jspsych/CFDfaces/CFD-BF-047-003-N.jpg'height=""250px""></br><b>Katelyn</b>","""",8,ConfidenceQuery,Practice,"""","""","""","""",CFD-BM-018-001-N.jpg,Mark,1,0,100,"""","""",4/23/2021 3:00,71.233.202.7,Mozilla/5.0 (Macintosh; Intel Mac OS X 10.13; rv:88.0) Gecko/20100101 Firefox/88.0,Macintosh,Firefox,88,OS X,10.13
98,1,1088,"""",html-button-response,86,179319,0.0-86.0,"""",You are Correct. You Called A Rearranged Pair Rearranged,0,8,feedback,Practice,"""","""","""","""","""","""","""","""","""","""","""",4/23/2021 3:00,71.233.202.7,Mozilla/5.0 (Macintosh; Intel Mac OS X 10.13; rv:88.0) Gecko/20100101 Firefox/88.0,Macintosh,Firefox,88,OS X,10.13
98,1,4012,"""",image-button-response,87,183339,0.0-87.0,"""",directionsMemoryAssociation3.JPG,0,128,DirectionsBeforeActualTEst,Break,"""","""","""","""","""","""","""","""","""","""","""",4/23/2021 3:00,71.233.202.7,Mozilla/5.0 (Macintosh; Intel Mac OS X 10.13; rv:88.0) Gecko/20100101 Firefox/88.0,Macintosh,Firefox,88,OS X,10.13
98,1,2648,"""",image-button-response,88,185990,0.0-88.0,"""",directionsForTest2.JPG,0,1,directionsForTest2,break,"""","""","""","""","""","""","""","""","""","""","""",4/23/2021 3:00,71.233.202.7,Mozilla/5.0 (Macintosh; Intel Mac OS X 10.13; rv:88.0) Gecko/20100101 Firefox/88.0,Macintosh,Firefox,88,OS X,10.13
98,1,7050,"""",html-button-response,89,193044,0.0-89.0,"""","<p>You will be asked to memorize and then recall four sets of face-name pairs. </p> <p> Each set will have 32 pairs. </p> <p>After the fourth set, there will be a brief follow-up experiment (<40 min alltogether)</p>",0,"""","""","""","""","""","""","""","""","""","""","""","""","""","""",4/23/2021 3:00,71.233.202.7,Mozilla/5.0 (Macintosh; Intel Mac OS X 10.13; rv:88.0) Gecko/20100101 Firefox/88.0,Macintosh,Firefox,88,OS X,10.13
98,1,2570,"""",html-keyboard-response,90,198048,0.0-90.0,"""","<img src='jspsych/CFDfaces/CFD-BM-029-024-N.jpg' height=""250px""></br><b>Brandon</b>","""",256,IntactFace,Memorization,70,5000,f,"""",CFD-WF-217-085-N.jpg,Erin,0,"""","""","""",1,4/23/2021 3:00,71.233.202.7,Mozilla/5.0 (Macintosh; Intel Mac OS X 10.13; rv:88.0) Gecko/20100101 Firefox/88.0,Macintosh,Firefox,88,OS X,10.13
98,1,null,"""",html-keyboard-response,91,198562,0.0-91.0,"""","<div style=""font-size:60px;"">+</div>","""",256,fixation,Memorization,null,500,"""","""","""","""","""","""","""","""",1,4/23/2021 3:00,71.233.202.7,Mozilla/5.0 (Macintosh; Intel Mac OS X 10.13; rv:88.0) Gecko/20100101 Firefox/88.0,Macintosh,Firefox,88,OS X,10.13
98,1,2332,"""",html-keyboard-response,92,203570,0.0-92.0,"""","<img src='jspsych/CFDfaces/CFD-WF-019-005-N.jpg' height=""250px""></br><b>Victoria</b>","""",256,IntactFace,Memorization,78,5000,n,"""",CFD-BF-010-001-N.jpg,Amy,0,"""","""","""",1,4/23/2021 3:00,71.233.202.7,Mozilla/5.0 (Macintosh; Intel Mac OS X 10.13; rv:88.0) Gecko/20100101 Firefox/88.0,Macintosh,Firefox,88,OS X,10.13
98,1,null,"""",html-keyboard-response,93,204083,0.0-93.0,"""","<div style=""font-size:60px;"">+</div>","""",256,fixation,Memorization,null,500,"""","""","""","""","""","""","""","""",1,4/23/2021 3:00,71.233.202.7,Mozilla/5.0 (Macintosh; Intel Mac OS X 10.13; rv:88.0) Gecko/20100101 Firefox/88.0,Macintosh,Firefox,88,OS X,10.13
98,1,1344,"""",html-keyboard-response,94,209087,0.0-94.0,"""","<img src='jspsych/CFDfaces/CFD-AM-229-224-N.jpg' height=""250px""></br><b>Jeffrey</b>","""",256,IntactFace,Memorization,70,5000,f,"""",CFD-WF-223-133-N.jpg,Melissa,0,"""","""","""",1,4/23/2021 3:00,71.233.202.7,Mozilla/5.0 (Macintosh; Intel Mac OS X 10.13; rv:88.0) Gecko/20100101 Firefox/88.0,Macintosh,Firefox,88,OS X,10.13
98,1,null,"""",html-keyboard-response,95,209594,0.0-95.0,"""","<div style=""font-size:60px;"">+</div>","""",256,fixation,Memorization,null,500,"""","""","""","""","""","""","""","""",1,4/23/2021 3:00,71.233.202.7,Mozilla/5.0 (Macintosh; Intel Mac OS X 10.13; rv:88.0) Gecko/20100101 Firefox/88.0,Macintosh,Firefox,88,OS X,10.13
98,1,1316,"""",html-keyboard-response,96,214598,0.0-96.0,"""","<img src='jspsych/CFDfaces/CFD-BF-218-207-N.jpg' height=""250px""></br><b>Ashley</b>","""",256,IntactFace,Memorization,70,5000,f,"""",CFD-AM-211-052-N.jpg,Timothy,0,"""","""","""",1,4/23/2021 3:00,71.233.202.7,Mozilla/5.0 (Macintosh; Intel Mac OS X 10.13; rv:88.0) Gecko/20100101 Firefox/88.0,Macintosh,Firefox,88,OS X,10.13
98,1,null,"""",html-keyboard-response,97,215103,0.0-97.0,"""","<div style=""font-size:60px;"">+</div>","""",256,fixation,Memorization,null,500,"""","""","""","""","""","""","""","""",1,4/23/2021 3:00,71.233.202.7,Mozilla/5.0 (Macintosh; Intel Mac OS X 10.13; rv:88.0) Gecko/20100101 Firefox/88.0,Macintosh,Firefox,88,OS X,10.13
98,1,2390,"""",html-keyboard-response,98,220106,0.0-98.0,"""","<img src='jspsych/CFDfaces/CFD-BM-002-013-N.jpg' height=""250px""></br><b>Peter</b>","""",256,IntactFace,Memorization,70,5000,f,"""",CFD-BF-222-240-N.jpg,Whitney,0,"""","""","""",1,4/23/2021 3:00,71.233.202.7,Mozilla/5.0 (Macintosh; Intel Mac OS X 10.13; rv:88.0) Gecko/20100101 Firefox/88.0,Macintosh,Firefox,88,OS X,10.13
98,1,null,"""",html-keyboard-response,99,220615,0.0-99.0,"""","<div style=""font-size:60px;"">+</div>","""",256,fixation,Memorization,null,500,"""","""","""","""","""","""","""","""",1,4/23/2021 3:00,71.233.202.7,Mozilla/5.0 (Macintosh; Intel Mac OS X 10.13; rv:88.0) Gecko/20100101 Firefox/88.0,Macintosh,Firefox,88,OS X,10.13
98,1,1993,"""",html-keyboard-response,100,225619,0.0-100.0,"""","<img src='jspsych/CFDfaces/CFD-BM-208-065-N.jpg' height=""250px""></br><b>Ian</b>","""",256,IntactFace,Memorization,78,5000,n,"""",CFD-AF-240-206-N.jpg,Rebecca,0,"""","""","""",1,4/23/2021 3:00,71.233.202.7,Mozilla/5.0 (Macintosh; Intel Mac OS X 10.13; rv:88.0) Gecko/20100101 Firefox/88.0,Macintosh,Firefox,88,OS X,10.13
98,1,null,"""",html-keyboard-response,101,226126,0.0-101.0,"""","<div style=""font-size:60px;"">+</div>","""",256,fixation,Memorization,null,500,"""","""","""","""","""","""","""","""",1,4/23/2021 3:00,71.233.202.7,Mozilla/5.0 (Macintosh; Intel Mac OS X 10.13; rv:88.0) Gecko/20100101 Firefox/88.0,Macintosh,Firefox,88,OS X,10.13
98,1,1439,"""",html-keyboard-response,102,231130,0.0-102.0,"""","<img src='jspsych/CFDfaces/CFD-AF-243-170-N.jpg' height=""250px""></br><b>Kimberly</b>","""",256,IntactFace,Memorization,70,5000,f,"""",CFD-WM-032-001-N.jpg,Jacob,0,"""","""","""",1,4/23/2021 3:00,71.233.202.7,Mozilla/5.0 (Macintosh; Intel Mac OS X 10.13; rv:88.0) Gecko/20100101 Firefox/88.0,Macintosh,Firefox,88,OS X,10.13
98,1,null,"""",html-keyboard-response,103,231634,0.0-103.0,"""","<div style=""font-size:60px;"">+</div>","""",256,fixation,Memorization,null,500,"""","""","""","""","""","""","""","""",1,4/23/2021 3:00,71.233.202.7,Mozilla/5.0 (Macintosh; Intel Mac OS X 10.13; rv:88.0) Gecko/20100101 Firefox/88.0,Macintosh,Firefox,88,OS X,10.13
98,1,2368,"""",html-keyboard-response,104,236638,0.0-104.0,"""","<img src='jspsych/CFDfaces/CFD-AF-237-223-N.jpg' height=""250px""></br><b>Elizabeth</b>","""",256,IntactFace,Memorization,78,5000,n,"""",CFD-BF-021-013-N.jpg,Jenna,0,"""","""","""",1,4/23/2021 3:00,71.233.202.7,Mozilla/5.0 (Macintosh; Intel Mac OS X 10.13; rv:88.0) Gecko/20100101 Firefox/88.0,Macintosh,Firefox,88,OS X,10.13
98,1,null,"""",html-keyboard-response,105,237143,0.0-105.0,"""","<div style=""font-size:60px;"">+</div>","""",256,fixation,Memorization,null,500,"""","""","""","""","""","""","""","""",1,4/23/2021 3:00,71.233.202.7,Mozilla/5.0 (Macintosh; Intel Mac OS X 10.13; rv:88.0) Gecko/20100101 Firefox/88.0,Macintosh,Firefox,88,OS X,10.13
98,1,1588,"""",html-keyboard-response,106,242147,0.0-106.0,"""","<img src='jspsych/CFDfaces/CFD-WF-204-038-N.jpg' height=""250px""></br><b>Julie</b>","""",256,IntactFace,Memorization,70,5000,f,"""",CFD-LM-221-216-N.jpg,Mark,0,"""","""","""",1,4/23/2021 3:00,71.233.202.7,Mozilla/5.0 (Macintosh; Intel Mac OS X 10.13; rv:88.0) Gecko/20100101 Firefox/88.0,Macintosh,Firefox,88,OS X,10.13
98,1,null,"""",html-keyboard-response,107,242655,0.0-107.0,"""","<div style=""font-size:60px;"">+</div>","""",256,fixation,Memorization,null,500,"""","""","""","""","""","""","""","""",1,4/23/2021 3:00,71.233.202.7,Mozilla/5.0 (Macintosh; Intel Mac OS X 10.13; rv:88.0) Gecko/20100101 Firefox/88.0,Macintosh,Firefox,88,OS X,10.13
98,1,null,"""",html-keyboard-response,108,247656,0.0-108.0,"""","<img src='jspsych/CFDfaces/CFD-LF-206-078-N.jpg' height=""250px""></br><b>Samantha</b>","""",256,IntactFace,Memorization,null,5000,"""","""",CFD-LF-215-157-N.jpg,Heather,0,"""","""","""",1,4/23/2021 3:00,71.233.202.7,Mozilla/5.0 (Macintosh; Intel Mac OS X 10.13; rv:88.0) Gecko/20100101 Firefox/88.0,Macintosh,Firefox,88,OS X,10.13
98,1,null,"""",html-keyboard-response,109,248161,0.0-109.0,"""","<div style=""font-size:60px;"">+</div>","""",256,fixation,Memorization,null,500,"""","""","""","""","""","""","""","""",1,4/23/2021 3:00,71.233.202.7,Mozilla/5.0 (Macintosh; Intel Mac OS X 10.13; rv:88.0) Gecko/20100101 Firefox/88.0,Macintosh,Firefox,88,OS X,10.13
98,1,null,"""",html-keyboard-response,110,253165,0.0-110.0,"""","<img src='jspsych/CFDfaces/CFD-BM-027-001-N.jpg' height=""250px""></br><b>Christian</b>","""",256,IntactFace,Memorization,null,5000,"""","""",CFD-BF-001-025-N.jpg,Lauren,0,"""","""","""",1,4/23/2021 3:00,71.233.202.7,Mozilla/5.0 (Macintosh; Intel Mac OS X 10.13; rv:88.0) Gecko/20100101 Firefox/88.0,Macintosh,Firefox,88,OS X,10.13
98,1,null,"""",html-keyboard-response,111,253673,0.0-111.0,"""","<div style=""font-size:60px;"">+</div>","""",256,fixation,Memorization,null,500,"""","""","""","""","""","""","""","""",1,4/23/2021 3:00,71.233.202.7,Mozilla/5.0 (Macintosh; Intel Mac OS X 10.13; rv:88.0) Gecko/20100101 Firefox/88.0,Macintosh,Firefox,88,OS X,10.13
98,1,null,"""",html-keyboard-response,112,258676,0.0-112.0,"""","<img src='jspsych/CFDfaces/CFD-WM-019-003-N.jpg' height=""250px""></br><b>Richard</b>","""",256,IntactFace,Memorization,null,5000,"""","""",CFD-WF-215-145-N.jpg,Angela,0,"""","""","""",1,4/23/2021 3:00,71.233.202.7,Mozilla/5.0 (Macintosh; Intel Mac OS X 10.13; rv:88.0) Gecko/20100101 Firefox/88.0,Macintosh,Firefox,88,OS X,10.13
98,1,null,"""",html-keyboard-response,113,259182,0.0-113.0,"""","<div style=""font-size:60px;"">+</div>","""",256,fixation,Memorization,null,500,"""","""","""","""","""","""","""","""",1,4/23/2021 3:00,71.233.202.7,Mozilla/5.0 (Macintosh; Intel Mac OS X 10.13; rv:88.0) Gecko/20100101 Firefox/88.0,Macintosh,Firefox,88,OS X,10.13
98,1,1647,"""",html-keyboard-response,114,264187,0.0-114.0,"""","<img src='jspsych/CFDfaces/CFD-BM-207-024-N.jpg' height=""250px""></br><b>Daniel</b>","""",256,IntactFace,Memorization,70,5000,f,"""",CFD-WM-011-002-N.jpg,Sean,0,"""","""","""",1,4/23/2021 3:00,71.233.202.7,Mozilla/5.0 (Macintosh; Intel Mac OS X 10.13; rv:88.0) Gecko/20100101 Firefox/88.0,Macintosh,Firefox,88,OS X,10.13
98,1,null,"""",html-keyboard-response,115,264699,0.0-115.0,"""","<div style=""font-size:60px;"">+</div>","""",256,fixation,Memorization,null,500,"""","""","""","""","""","""","""","""",1,4/23/2021 3:00,71.233.202.7,Mozilla/5.0 (Macintosh; Intel Mac OS X 10.13; rv:88.0) Gecko/20100101 Firefox/88.0,Macintosh,Firefox,88,OS X,10.13
98,1,1809,"""",html-keyboard-response,116,269706,0.0-116.0,"""","<img src='jspsych/CFDfaces/CFD-BF-009-002-N.jpg' height=""250px""></br><b>Meghan</b>","""",256,IntactFace,Memorization,78,5000,n,"""",CFD-LM-252-076-N.jpg,Jesse,0,"""","""","""",1,4/23/2021 3:00,71.233.202.7,Mozilla/5.0 (Macintosh; Intel Mac OS X 10.13; rv:88.0) Gecko/20100101 Firefox/88.0,Macintosh,Firefox,88,OS X,10.13
98,1,null,"""",html-keyboard-response,117,270214,0.0-117.0,"""","<div style=""font-size:60px;"">+</div>","""",256,fixation,Memorization,null,500,"""","""","""","""","""","""","""","""",1,4/23/2021 3:00,71.233.202.7,Mozilla/5.0 (Macintosh; Intel Mac OS X 10.13; rv:88.0) Gecko/20100101 Firefox/88.0,Macintosh,Firefox,88,OS X,10.13
98,1,2336,"""",html-keyboard-response,118,275218,0.0-118.0,"""","<img src='jspsych/CFDfaces/CFD-WM-041-021-N.jpg' height=""250px""></br><b>Brian</b>","""",256,IntactFace,Memorization,70,5000,f,"""",CFD-BM-041-035-N.jpg,Vincent,0,"""","""","""",1,4/23/2021 3:00,71.233.202.7,Mozilla/5.0 (Macintosh; Intel Mac OS X 10.13; rv:88.0) Gecko/20100101 Firefox/88.0,Macintosh,Firefox,88,OS X,10.13
98,1,null,"""",html-keyboard-response,119,275725,0.0-119.0,"""","<div style=""font-size:60px;"">+</div>","""",256,fixation,Memorization,null,500,"""","""","""","""","""","""","""","""",1,4/23/2021 3:00,71.233.202.7,Mozilla/5.0 (Macintosh; Intel Mac OS X 10.13; rv:88.0) Gecko/20100101 Firefox/88.0,Macintosh,Firefox,88,OS X,10.13
98,1,1612,"""",html-keyboard-response,120,280729,0.0-120.0,"""","<img src='jspsych/CFDfaces/CFD-AM-242-176-N.jpg' height=""250px""></br><b>Gregory</b>","""",256,IntactFace,Memorization,70,5000,f,"""",CFD-AM-202-079-N.jpg,Jeremy,0,"""","""","""",1,4/23/2021 3:00,71.233.202.7,Mozilla/5.0 (Macintosh; Intel Mac OS X 10.13; rv:88.0) Gecko/20100101 Firefox/88.0,Macintosh,Firefox,88,OS X,10.13
98,1,null,"""",html-keyboard-response,121,281234,0.0-121.0,"""","<div style=""font-size:60px;"">+</div>","""",256,fixation,Memorization,null,500,"""","""","""","""","""","""","""","""",1,4/23/2021 3:00,71.233.202.7,Mozilla/5.0 (Macintosh; Intel Mac OS X 10.13; rv:88.0) Gecko/20100101 Firefox/88.0,Macintosh,Firefox,88,OS X,10.13
98,1,1994,"""",html-keyboard-response,122,286238,0.0-122.0,"""","<img src='jspsych/CFDfaces/CFD-WM-216-061-N.jpg' height=""250px""></br><b>Nicholas</b>","""",256,IntactFace,Memorization,70,5000,f,"""",CFD-BM-018-001-N.jpg,Austin,0,"""","""","""",1,4/23/2021 3:00,71.233.202.7,Mozilla/5.0 (Macintosh; Intel Mac OS X 10.13; rv:88.0) Gecko/20100101 Firefox/88.0,Macintosh,Firefox,88,OS X,10.13
98,1,null,"""",html-keyboard-response,123,286746,0.0-123.0,"""","<div style=""font-size:60px;"">+</div>","""",256,fixation,Memorization,null,500,"""","""","""","""","""","""","""","""",1,4/23/2021 3:00,71.233.202.7,Mozilla/5.0 (Macintosh; Intel Mac OS X 10.13; rv:88.0) Gecko/20100101 Firefox/88.0,Macintosh,Firefox,88,OS X,10.13
98,1,2116,"""",html-keyboard-response,124,291750,0.0-124.0,"""","<img src='jspsych/CFDfaces/CFD-WF-017-003-N.jpg' height=""250px""></br><b>Stephanie</b>","""",256,IntactFace,Memorization,70,5000,f,"""",CFD-AM-213-056-N.jpg,Steven,0,"""","""","""",1,4/23/2021 3:00,71.233.202.7,Mozilla/5.0 (Macintosh; Intel Mac OS X 10.13; rv:88.0) Gecko/20100101 Firefox/88.0,Macintosh,Firefox,88,OS X,10.13
98,1,null,"""",html-keyboard-response,125,292260,0.0-125.0,"""","<div style=""font-size:60px;"">+</div>","""",256,fixation,Memorization,null,500,"""","""","""","""","""","""","""","""",1,4/23/2021 3:00,71.233.202.7,Mozilla/5.0 (Macintosh; Intel Mac OS X 10.13; rv:88.0) Gecko/20100101 Firefox/88.0,Macintosh,Firefox,88,OS X,10.13
98,1,2848,"""",html-keyboard-response,126,297265,0.0-126.0,"""","<img src='jspsych/CFDfaces/CFD-AF-209-006-N.jpg' height=""250px""></br><b>Amanda</b>","""",256,IntactFace,Memorization,78,5000,n,"""",CFD-AF-226-251-N.jpg,Tiffany,0,"""","""","""",1,4/23/2021 3:00,71.233.202.7,Mozilla/5.0 (Macintosh; Intel Mac OS X 10.13; rv:88.0) Gecko/20100101 Firefox/88.0,Macintosh,Firefox,88,OS X,10.13
98,1,null,"""",html-keyboard-response,127,297775,0.0-127.0,"""","<div style=""font-size:60px;"">+</div>","""",256,fixation,Memorization,null,500,"""","""","""","""","""","""","""","""",1,4/23/2021 3:00,71.233.202.7,Mozilla/5.0 (Macintosh; Intel Mac OS X 10.13; rv:88.0) Gecko/20100101 Firefox/88.0,Macintosh,Firefox,88,OS X,10.13
98,1,2733,"""",html-keyboard-response,128,302781,0.0-128.0,"""","<img src='jspsych/CFDfaces/CFD-WF-200-099-N.jpg' height=""250px""></br><b>Vanessa</b>","""",256,IntactFace,Memorization,78,5000,n,"""",CFD-BM-203-001-N.jpg,Justin,0,"""","""","""",1,4/23/2021 3:00,71.233.202.7,Mozilla/5.0 (Macintosh; Intel Mac OS X 10.13; rv:88.0) Gecko/20100101 Firefox/88.0,Macintosh,Firefox,88,OS X,10.13
98,1,null,"""",html-keyboard-response,129,303290,0.0-129.0,"""","<div style=""font-size:60px;"">+</div>","""",256,fixation,Memorization,null,500,"""","""","""","""","""","""","""","""",1,4/23/2021 3:00,71.233.202.7,Mozilla/5.0 (Macintosh; Intel Mac OS X 10.13; rv:88.0) Gecko/20100101 Firefox/88.0,Macintosh,Firefox,88,OS X,10.13
98,1,1666,"""",html-keyboard-response,130,308294,0.0-130.0,"""","<img src='jspsych/CFDfaces/CFD-WF-220-101-N.jpg' height=""250px""></br><b>Emily</b>","""",256,IntactFace,Memorization,70,5000,f,"""",CFD-AM-228-214-N.jpg,Dustin,0,"""","""","""",1,4/23/2021 3:00,71.233.202.7,Mozilla/5.0 (Macintosh; Intel Mac OS X 10.13; rv:88.0) Gecko/20100101 Firefox/88.0,Macintosh,Firefox,88,OS X,10.13
98,1,null,"""",html-keyboard-response,131,308795,0.0-131.0,"""","<div style=""font-size:60px;"">+</div>","""",256,fixation,Memorization,null,500,"""","""","""","""","""","""","""","""",1,4/23/2021 3:00,71.233.202.7,Mozilla/5.0 (Macintosh; Intel Mac OS X 10.13; rv:88.0) Gecko/20100101 Firefox/88.0,Macintosh,Firefox,88,OS X,10.13
98,1,1839,"""",html-keyboard-response,132,313802,0.0-132.0,"""","<img src='jspsych/CFDfaces/CFD-AF-208-003-N.jpg' height=""250px""></br><b>Andrea</b>","""",256,IntactFace,Memorization,78,5000,n,"""",CFD-WM-034-030-N.jpg,Travis,0,"""","""","""",1,4/23/2021 3:00,71.233.202.7,Mozilla/5.0 (Macintosh; Intel Mac OS X 10.13; rv:88.0) Gecko/20100101 Firefox/88.0,Macintosh,Firefox,88,OS X,10.13
98,1,null,"""",html-keyboard-response,133,314307,0.0-133.0,"""","<div style=""font-size:60px;"">+</div>","""",256,fixation,Memorization,null,500,"""","""","""","""","""","""","""","""",1,4/23/2021 3:00,71.233.202.7,Mozilla/5.0 (Macintosh; Intel Mac OS X 10.13; rv:88.0) Gecko/20100101 Firefox/88.0,Macintosh,Firefox,88,OS X,10.13
98,1,1715,"""",html-keyboard-response,134,319314,0.0-134.0,"""","<img src='jspsych/CFDfaces/CFD-AF-203-077-N.jpg' height=""250px""></br><b>Brittany</b>","""",256,IntactFace,Memorization,78,5000,n,"""",CFD-AF-230-193-N.jpg,Laura,0,"""","""","""",1,4/23/2021 3:00,71.233.202.7,Mozilla/5.0 (Macintosh; Intel Mac OS X 10.13; rv:88.0) Gecko/20100101 Firefox/88.0,Macintosh,Firefox,88,OS X,10.13
98,1,null,"""",html-keyboard-response,135,319816,0.0-135.0,"""","<div style=""font-size:60px;"">+</div>","""",256,fixation,Memorization,null,500,"""","""","""","""","""","""","""","""",1,4/23/2021 3:00,71.233.202.7,Mozilla/5.0 (Macintosh; Intel Mac OS X 10.13; rv:88.0) Gecko/20100101 Firefox/88.0,Macintosh,Firefox,88,OS X,10.13
98,1,2156,"""",html-keyboard-response,136,324826,0.0-136.0,"""","<img src='jspsych/CFDfaces/CFD-WM-020-001-N.jpg' height=""250px""></br><b>James</b>","""",256,IntactFace,Memorization,70,5000,f,"""",CFD-LM-213-061-N.jpg,Luis,0,"""","""","""",1,4/23/2021 3:00,71.233.202.7,Mozilla/5.0 (Macintosh; Intel Mac OS X 10.13; rv:88.0) Gecko/20100101 Firefox/88.0,Macintosh,Firefox,88,OS X,10.13
98,1,null,"""",html-keyboard-response,137,325331,0.0-137.0,"""","<div style=""font-size:60px;"">+</div>","""",256,fixation,Memorization,null,500,"""","""","""","""","""","""","""","""",1,4/23/2021 3:00,71.233.202.7,Mozilla/5.0 (Macintosh; Intel Mac OS X 10.13; rv:88.0) Gecko/20100101 Firefox/88.0,Macintosh,Firefox,88,OS X,10.13
98,1,2444,"""",html-keyboard-response,138,330337,0.0-138.0,"""","<img src='jspsych/CFDfaces/CFD-LM-224-162-N.jpg' height=""250px""></br><b>Robert</b>","""",256,IntactFace,Memorization,70,5000,f,"""",CFD-AM-231-136-N.jpg,Cameron,0,"""","""","""",1,4/23/2021 3:00,71.233.202.7,Mozilla/5.0 (Macintosh; Intel Mac OS X 10.13; rv:88.0) Gecko/20100101 Firefox/88.0,Macintosh,Firefox,88,OS X,10.13
98,1,null,"""",html-keyboard-response,139,330842,0.0-139.0,"""","<div style=""font-size:60px;"">+</div>","""",256,fixation,Memorization,null,500,"""","""","""","""","""","""","""","""",1,4/23/2021 3:00,71.233.202.7,Mozilla/5.0 (Macintosh; Intel Mac OS X 10.13; rv:88.0) Gecko/20100101 Firefox/88.0,Macintosh,Firefox,88,OS X,10.13
98,1,1724,"""",html-keyboard-response,140,335848,0.0-140.0,"""","<img src='jspsych/CFDfaces/CFD-LF-210-220-N.jpg' height=""250px""></br><b>Kayla</b>","""",256,IntactFace,Memorization,78,5000,n,"""",CFD-WF-003-003-N.jpg,Lindsey,0,"""","""","""",1,4/23/2021 3:00,71.233.202.7,Mozilla/5.0 (Macintosh; Intel Mac OS X 10.13; rv:88.0) Gecko/20100101 Firefox/88.0,Macintosh,Firefox,88,OS X,10.13
98,1,null,"""",html-keyboard-response,141,336354,0.0-141.0,"""","<div style=""font-size:60px;"">+</div>","""",256,fixation,Memorization,null,500,"""","""","""","""","""","""","""","""",1,4/23/2021 3:00,71.233.202.7,Mozilla/5.0 (Macintosh; Intel Mac OS X 10.13; rv:88.0) Gecko/20100101 Firefox/88.0,Macintosh,Firefox,88,OS X,10.13
98,1,1527,"""",html-keyboard-response,142,341361,0.0-142.0,"""","<img src='jspsych/CFDfaces/CFD-BM-017-021-N.jpg' height=""250px""></br><b>Juan</b>","""",256,IntactFace,Memorization,78,5000,n,"""",CFD-WF-023-003-N.jpg,Jordan,0,"""","""","""",1,4/23/2021 3:00,71.233.202.7,Mozilla/5.0 (Macintosh; Intel Mac OS X 10.13; rv:88.0) Gecko/20100101 Firefox/88.0,Macintosh,Firefox,88,OS X,10.13
98,1,null,"""",html-keyboard-response,143,341866,0.0-143.0,"""","<div style=""font-size:60px;"">+</div>","""",256,fixation,Memorization,null,500,"""","""","""","""","""","""","""","""",1,4/23/2021 3:00,71.233.202.7,Mozilla/5.0 (Macintosh; Intel Mac OS X 10.13; rv:88.0) Gecko/20100101 Firefox/88.0,Macintosh,Firefox,88,OS X,10.13
98,1,2202,"""",html-keyboard-response,144,346873,0.0-144.0,"""","<img src='jspsych/CFDfaces/CFD-LM-248-089-N.jpg' height=""250px""></br><b>Eric</b>","""",256,IntactFace,Memorization,70,5000,f,"""",CFD-LM-246-087-N.jpg,Kenneth,0,"""","""","""",1,4/23/2021 3:00,71.233.202.7,Mozilla/5.0 (Macintosh; Intel Mac OS X 10.13; rv:88.0) Gecko/20100101 Firefox/88.0,Macintosh,Firefox,88,OS X,10.13
98,1,null,"""",html-keyboard-response,145,347377,0.0-145.0,"""","<div style=""font-size:60px;"">+</div>","""",256,fixation,Memorization,null,500,"""","""","""","""","""","""","""","""",1,4/23/2021 3:00,71.233.202.7,Mozilla/5.0 (Macintosh; Intel Mac OS X 10.13; rv:88.0) Gecko/20100101 Firefox/88.0,Macintosh,Firefox,88,OS X,10.13
98,1,1967,"""",html-keyboard-response,146,352384,0.0-146.0,"""","<img src='jspsych/CFDfaces/CFD-AF-214-139-N.jpg' height=""250px""></br><b>Christina</b>","""",256,IntactFace,Memorization,70,5000,f,"""",CFD-LF-204-133-N.jpg,Jasmine,0,"""","""","""",1,4/23/2021 3:00,71.233.202.7,Mozilla/5.0 (Macintosh; Intel Mac OS X 10.13; rv:88.0) Gecko/20100101 Firefox/88.0,Macintosh,Firefox,88,OS X,10.13
98,1,null,"""",html-keyboard-response,147,352889,0.0-147.0,"""","<div style=""font-size:60px;"">+</div>","""",256,fixation,Memorization,null,500,"""","""","""","""","""","""","""","""",1,4/23/2021 3:00,71.233.202.7,Mozilla/5.0 (Macintosh; Intel Mac OS X 10.13; rv:88.0) Gecko/20100101 Firefox/88.0,Macintosh,Firefox,88,OS X,10.13
98,1,2253,"""",html-keyboard-response,148,357895,0.0-148.0,"""","<img src='jspsych/CFDfaces/CFD-BF-209-172-N.jpg' height=""250px""></br><b>Michelle</b>","""",256,IntactFace,Memorization,70,5000,f,"""",CFD-WM-213-076-N.jpg,Ryan,0,"""","""","""",1,4/23/2021 3:00,71.233.202.7,Mozilla/5.0 (Macintosh; Intel Mac OS X 10.13; rv:88.0) Gecko/20100101 Firefox/88.0,Macintosh,Firefox,88,OS X,10.13
98,1,null,"""",html-keyboard-response,149,358401,0.0-149.0,"""","<div style=""font-size:60px;"">+</div>","""",256,fixation,Memorization,null,500,"""","""","""","""","""","""","""","""",1,4/23/2021 3:00,71.233.202.7,Mozilla/5.0 (Macintosh; Intel Mac OS X 10.13; rv:88.0) Gecko/20100101 Firefox/88.0,Macintosh,Firefox,88,OS X,10.13
98,1,2728,"""",html-keyboard-response,150,363408,0.0-150.0,"""","<img src='jspsych/CFDfaces/CFD-AM-238-269-N.jpg' height=""250px""></br><b>Jason</b>","""",256,IntactFace,Memorization,78,5000,n,"""",CFD-AF-228-173-N.jpg,Sara,0,"""","""","""",1,4/23/2021 3:00,71.233.202.7,Mozilla/5.0 (Macintosh; Intel Mac OS X 10.13; rv:88.0) Gecko/20100101 Firefox/88.0,Macintosh,Firefox,88,OS X,10.13
98,1,null,"""",html-keyboard-response,151,363909,0.0-151.0,"""","<div style=""font-size:60px;"">+</div>","""",256,fixation,Memorization,null,500,"""","""","""","""","""","""","""","""",1,4/23/2021 3:00,71.233.202.7,Mozilla/5.0 (Macintosh; Intel Mac OS X 10.13; rv:88.0) Gecko/20100101 Firefox/88.0,Macintosh,Firefox,88,OS X,10.13
98,1,2179,"""",html-keyboard-response,152,368917,0.0-152.0,"""","<img src='jspsych/CFDfaces/CFD-LM-219-295-N.jpg' height=""250px""></br><b>Joshua</b>","""",256,IntactFace,Memorization,70,5000,f,"""",CFD-AF-201-060-N.jpg,Taylor,0,"""","""","""",1,4/23/2021 3:00,71.233.202.7,Mozilla/5.0 (Macintosh; Intel Mac OS X 10.13; rv:88.0) Gecko/20100101 Firefox/88.0,Macintosh,Firefox,88,OS X,10.13
98,1,null,"""",html-keyboard-response,153,369421,0.0-153.0,"""","<div style=""font-size:60px;"">+</div>","""",256,fixation,Memorization,null,500,"""","""","""","""","""","""","""","""",1,4/23/2021 3:00,71.233.202.7,Mozilla/5.0 (Macintosh; Intel Mac OS X 10.13; rv:88.0) Gecko/20100101 Firefox/88.0,Macintosh,Firefox,88,OS X,10.13
98,1,1520,"""",html-keyboard-response,154,370946,0.0-154.0,"""",Press Any Key to Begin Memory Test,"""",1,welcomeScreen,Break,70,"""","""","""","""","""","""","""","""","""",1,4/23/2021 3:00,71.233.202.7,Mozilla/5.0 (Macintosh; Intel Mac OS X 10.13; rv:88.0) Gecko/20100101 Firefox/88.0,Macintosh,Firefox,88,OS X,10.13
98,1,null,"""",html-keyboard-response,155,371948,0.0-155.0,"""","<div style=""font-size:60px;"">+</div>","""",256,ITI,Test,null,1000,"""","""","""","""","""","""","""","""",1,4/23/2021 3:00,71.233.202.7,Mozilla/5.0 (Macintosh; Intel Mac OS X 10.13; rv:88.0) Gecko/20100101 Firefox/88.0,Macintosh,Firefox,88,OS X,10.13
98,1,null,"""",image-keyboard-response,156,372203,0.0-156.0,"""",jspsych/scrambledNeutralFaces/scrambledBF22NES.JPG,"""",256,forwardMask,Test,null,250,"""",n,"""","""","""","""","""","""",1,4/23/2021 3:00,71.233.202.7,Mozilla/5.0 (Macintosh; Intel Mac OS X 10.13; rv:88.0) Gecko/20100101 Firefox/88.0,Macintosh,Firefox,88,OS X,10.13
98,1,null,"""",image-keyboard-response,157,372223,0.0-157.0,"""",jspsych/neutralFaces/BF22NES.JPG,"""",256,Cue,Test,null,16,"""","""","""","""","""","""","""","""",1,4/23/2021 3:00,71.233.202.7,Mozilla/5.0 (Macintosh; Intel Mac OS X 10.13; rv:88.0) Gecko/20100101 Firefox/88.0,Macintosh,Firefox,88,OS X,10.13
98,1,null,"""",image-keyboard-response,158,372327,0.0-158.0,"""",jspsych/neutralFaces/AF24NES.JPG,"""",256,backwardMask,Test,null,100,"""","""","""","""","""","""","""","""",1,4/23/2021 3:00,71.233.202.7,Mozilla/5.0 (Macintosh; Intel Mac OS X 10.13; rv:88.0) Gecko/20100101 Firefox/88.0,Macintosh,Firefox,88,OS X,10.13
98,1,null,"""",html-keyboard-response,159,373331,0.0-159.0,"""","<div style=""font-size:60px;"">+</div>","""",256,fixationBtwnNeutralMaskAndPrompt,Test,null,1000,"""","""","""","""","""","""","""","""",1,4/23/2021 3:00,71.233.202.7,Mozilla/5.0 (Macintosh; Intel Mac OS X 10.13; rv:88.0) Gecko/20100101 Firefox/88.0,Macintosh,Firefox,88,OS X,10.13
98,1,2112,"""",html-button-response,160,375443,0.0-160.0,"""","<img src='jspsych/CFDfaces/CFD-BM-208-065-N.jpg' height=""250px"">,</br><b>Ian</b>",1,256,IntactOrRearranged,Test,"""","""","""","""",CFD-WF-223-133-N.jpg,Melissa,0,"""","""",1,1,4/23/2021 3:00,71.233.202.7,Mozilla/5.0 (Macintosh; Intel Mac OS X 10.13; rv:88.0) Gecko/20100101 Firefox/88.0,Macintosh,Firefox,88,OS X,10.13
98,1,3185,"""",html-slider-response,161,378636,0.0-161.0,"""","<img src='jspsych/CFDfaces/CFD-BM-208-065-N.jpg' height=""250px"">,</br><b>Ian</b>","""",256,ConfidenceQuery,Test,"""","""","""","""",CFD-WF-223-133-N.jpg,Melissa,0,0,79,"""",1,4/23/2021 3:00,71.233.202.7,Mozilla/5.0 (Macintosh; Intel Mac OS X 10.13; rv:88.0) Gecko/20100101 Firefox/88.0,Macintosh,Firefox,88,OS X,10.13
98,1,null,"""",html-keyboard-response,162,379638,0.0-162.0,"""","<div style=""font-size:60px;"">+</div>","""",256,ITI,Test,null,1000,"""","""","""","""","""","""","""","""",1,4/23/2021 3:00,71.233.202.7,Mozilla/5.0 (Macintosh; Intel Mac OS X 10.13; rv:88.0) Gecko/20100101 Firefox/88.0,Macintosh,Firefox,88,OS X,10.13
98,1,null,"""",image-keyboard-response,163,379893,0.0-163.0,"""",jspsych/scrambledNeutralFaces/scrambledAM14NES.JPG,"""",256,forwardMask,Test,null,250,"""",n,"""","""","""","""","""","""",1,4/23/2021 3:00,71.233.202.7,Mozilla/5.0 (Macintosh; Intel Mac OS X 10.13; rv:88.0) Gecko/20100101 Firefox/88.0,Macintosh,Firefox,88,OS X,10.13
98,1,null,"""",image-keyboard-response,164,379913,0.0-164.0,"""",jspsych/neutralFaces/AM14NES.JPG,"""",256,Cue,Test,null,16,"""","""","""","""","""","""","""","""",1,4/23/2021 3:00,71.233.202.7,Mozilla/5.0 (Macintosh; Intel Mac OS X 10.13; rv:88.0) Gecko/20100101 Firefox/88.0,Macintosh,Firefox,88,OS X,10.13
98,1,null,"""",image-keyboard-response,165,380021,0.0-165.0,"""",jspsych/neutralFaces/AM03NES.JPG,"""",256,backwardMask,Test,null,100,"""","""","""","""","""","""","""","""",1,4/23/2021 3:00,71.233.202.7,Mozilla/5.0 (Macintosh; Intel Mac OS X 10.13; rv:88.0) Gecko/20100101 Firefox/88.0,Macintosh,Firefox,88,OS X,10.13
98,1,null,"""",html-keyboard-response,166,381023,0.0-166.0,"""","<div style=""font-size:60px;"">+</div>","""",256,fixationBtwnNeutralMaskAndPrompt,Test,null,1000,"""","""","""","""","""","""","""","""",1,4/23/2021 3:00,71.233.202.7,Mozilla/5.0 (Macintosh; Intel Mac OS X 10.13; rv:88.0) Gecko/20100101 Firefox/88.0,Macintosh,Firefox,88,OS X,10.13
98,1,2299,"""",html-button-response,167,383325,0.0-167.0,"""","<img src='jspsych/CFDfaces/CFD-AF-237-223-N.jpg' height=""250px"">,</br><b>Kimberly</b>",1,256,IntactOrRearranged,Test,"""","""","""","""",CFD-WM-034-030-N.jpg,Travis,1,"""","""",1,1,4/23/2021 3:00,71.233.202.7,Mozilla/5.0 (Macintosh; Intel Mac OS X 10.13; rv:88.0) Gecko/20100101 Firefox/88.0,Macintosh,Firefox,88,OS X,10.13
98,1,2847,"""",html-slider-response,168,386175,0.0-168.0,"""","<img src='jspsych/CFDfaces/CFD-AF-237-223-N.jpg' height=""250px"">,</br><b>Kimberly</b>","""",256,ConfidenceQuery,Test,"""","""","""","""",CFD-WM-034-030-N.jpg,Travis,1,0,81,"""",1,4/23/2021 3:00,71.233.202.7,Mozilla/5.0 (Macintosh; Intel Mac OS X 10.13; rv:88.0) Gecko/20100101 Firefox/88.0,Macintosh,Firefox,88,OS X,10.13
98,1,null,"""",html-keyboard-response,169,387178,0.0-169.0,"""","<div style=""font-size:60px;"">+</div>","""",256,ITI,Test,null,1000,"""","""","""","""","""","""","""","""",1,4/23/2021 3:00,71.233.202.7,Mozilla/5.0 (Macintosh; Intel Mac OS X 10.13; rv:88.0) Gecko/20100101 Firefox/88.0,Macintosh,Firefox,88,OS X,10.13
98,1,null,"""",image-keyboard-response,170,387439,0.0-170.0,"""",jspsych/scrambledNeutralFaces/scrambledAF26NES.JPG,"""",256,forwardMask,Test,null,250,"""",n,"""","""","""","""","""","""",1,4/23/2021 3:00,71.233.202.7,Mozilla/5.0 (Macintosh; Intel Mac OS X 10.13; rv:88.0) Gecko/20100101 Firefox/88.0,Macintosh,Firefox,88,OS X,10.13
98,1,null,"""",image-keyboard-response,171,387460,0.0-171.0,"""",jspsych/neutralFaces/AF26NES.JPG,"""",256,Cue,Test,null,16,"""","""","""","""","""","""","""","""",1,4/23/2021 3:00,71.233.202.7,Mozilla/5.0 (Macintosh; Intel Mac OS X 10.13; rv:88.0) Gecko/20100101 Firefox/88.0,Macintosh,Firefox,88,OS X,10.13
98,1,null,"""",image-keyboard-response,172,387567,0.0-172.0,"""",jspsych/neutralFaces/BF14NES.JPG,"""",256,backwardMask,Test,null,100,"""","""","""","""","""","""","""","""",1,4/23/2021 3:00,71.233.202.7,Mozilla/5.0 (Macintosh; Intel Mac OS X 10.13; rv:88.0) Gecko/20100101 Firefox/88.0,Macintosh,Firefox,88,OS X,10.13
98,1,null,"""",html-keyboard-response,173,388568,0.0-173.0,"""","<div style=""font-size:60px;"">+</div>","""",256,fixationBtwnNeutralMaskAndPrompt,Test,null,1000,"""","""","""","""","""","""","""","""",1,4/23/2021 3:00,71.233.202.7,Mozilla/5.0 (Macintosh; Intel Mac OS X 10.13; rv:88.0) Gecko/20100101 Firefox/88.0,Macintosh,Firefox,88,OS X,10.13
98,1,1306,"""",html-button-response,174,389875,0.0-174.0,"""","<img src='jspsych/CFDfaces/CFD-AF-214-139-N.jpg' height=""250px"">,</br><b>Victoria</b>",1,256,IntactOrRearranged,Test,"""","""","""","""",CFD-WF-217-085-N.jpg,Laura,1,"""","""",1,1,4/23/2021 3:00,71.233.202.7,Mozilla/5.0 (Macintosh; Intel Mac OS X 10.13; rv:88.0) Gecko/20100101 Firefox/88.0,Macintosh,Firefox,88,OS X,10.13
98,1,1973,"""",html-slider-response,175,391851,0.0-175.0,"""","<img src='jspsych/CFDfaces/CFD-AF-214-139-N.jpg' height=""250px"">,</br><b>Victoria</b>","""",256,ConfidenceQuery,Test,"""","""","""","""",CFD-WF-217-085-N.jpg,Laura,1,0,100,"""",1,4/23/2021 3:00,71.233.202.7,Mozilla/5.0 (Macintosh; Intel Mac OS X 10.13; rv:88.0) Gecko/20100101 Firefox/88.0,Macintosh,Firefox,88,OS X,10.13
98,1,null,"""",html-keyboard-response,176,392855,0.0-176.0,"""","<div style=""font-size:60px;"">+</div>","""",256,ITI,Test,null,1000,"""","""","""","""","""","""","""","""",1,4/23/2021 3:00,71.233.202.7,Mozilla/5.0 (Macintosh; Intel Mac OS X 10.13; rv:88.0) Gecko/20100101 Firefox/88.0,Macintosh,Firefox,88,OS X,10.13
98,1,null,"""",image-keyboard-response,177,393116,0.0-177.0,"""",jspsych/scrambledDisgustFaces/scrambledBM31DIS.JPG,"""",256,forwardMask,Test,null,250,"""",d,"""","""","""","""","""","""",1,4/23/2021 3:00,71.233.202.7,Mozilla/5.0 (Macintosh; Intel Mac OS X 10.13; rv:88.0) Gecko/20100101 Firefox/88.0,Macintosh,Firefox,88,OS X,10.13
98,1,null,"""",image-keyboard-response,178,393140,0.0-178.0,"""",jspsych/disgustFaces/BM32DIS.JPG,"""",256,Cue,Test,null,16,"""","""","""","""","""","""","""","""",1,4/23/2021 3:00,71.233.202.7,Mozilla/5.0 (Macintosh; Intel Mac OS X 10.13; rv:88.0) Gecko/20100101 Firefox/88.0,Macintosh,Firefox,88,OS X,10.13
98,1,null,"""",image-keyboard-response,179,393243,0.0-179.0,"""",jspsych/neutralFaces/BM06NES.JPG,"""",256,backwardMask,Test,null,100,"""","""","""","""","""","""","""","""",1,4/23/2021 3:00,71.233.202.7,Mozilla/5.0 (Macintosh; Intel Mac OS X 10.13; rv:88.0) Gecko/20100101 Firefox/88.0,Macintosh,Firefox,88,OS X,10.13
98,1,null,"""",html-keyboard-response,180,394248,0.0-180.0,"""","<div style=""font-size:60px;"">+</div>","""",256,fixationBtwnNeutralMaskAndPrompt,Test,null,1000,"""","""","""","""","""","""","""","""",1,4/23/2021 3:00,71.233.202.7,Mozilla/5.0 (Macintosh; Intel Mac OS X 10.13; rv:88.0) Gecko/20100101 Firefox/88.0,Macintosh,Firefox,88,OS X,10.13
98,1,2507,"""",html-button-response,181,396757,0.0-181.0,"""","<img src='jspsych/CFDfaces/CFD-AM-229-224-N.jpg' height=""250px"">,</br><b>Richard</b>",1,256,IntactOrRearranged,Test,"""","""","""","""",CFD-WM-213-076-N.jpg,Cameron,1,"""","""",1,1,4/23/2021 3:00,71.233.202.7,Mozilla/5.0 (Macintosh; Intel Mac OS X 10.13; rv:88.0) Gecko/20100101 Firefox/88.0,Macintosh,Firefox,88,OS X,10.13
98,1,2247,"""",html-slider-response,182,399007,0.0-182.0,"""","<img src='jspsych/CFDfaces/CFD-AM-229-224-N.jpg' height=""250px"">,</br><b>Richard</b>","""",256,ConfidenceQuery,Test,"""","""","""","""",CFD-WM-213-076-N.jpg,Cameron,1,0,100,"""",1,4/23/2021 3:00,71.233.202.7,Mozilla/5.0 (Macintosh; Intel Mac OS X 10.13; rv:88.0) Gecko/20100101 Firefox/88.0,Macintosh,Firefox,88,OS X,10.13
98,1,null,"""",html-keyboard-response,183,400015,0.0-183.0,"""","<div style=""font-size:60px;"">+</div>","""",256,ITI,Test,null,1000,"""","""","""","""","""","""","""","""",1,4/23/2021 3:00,71.233.202.7,Mozilla/5.0 (Macintosh; Intel Mac OS X 10.13; rv:88.0) Gecko/20100101 Firefox/88.0,Macintosh,Firefox,88,OS X,10.13
98,1,null,"""",image-keyboard-response,184,400271,0.0-184.0,"""",jspsych/scrambledDisgustFaces/scrambledAF15DIS.JPG,"""",256,forwardMask,Test,null,250,"""",d,"""","""","""","""","""","""",1,4/23/2021 3:00,71.233.202.7,Mozilla/5.0 (Macintosh; Intel Mac OS X 10.13; rv:88.0) Gecko/20100101 Firefox/88.0,Macintosh,Firefox,88,OS X,10.13
98,1,null,"""",image-keyboard-response,185,400291,0.0-185.0,"""",jspsych/disgustFaces/AF15DIS.JPG,"""",256,Cue,Test,null,16,"""","""","""","""","""","""","""","""",1,4/23/2021 3:00,71.233.202.7,Mozilla/5.0 (Macintosh; Intel Mac OS X 10.13; rv:88.0) Gecko/20100101 Firefox/88.0,Macintosh,Firefox,88,OS X,10.13
98,1,null,"""",image-keyboard-response,186,400396,0.0-186.0,"""",jspsych/neutralFaces/AF17NES.JPG,"""",256,backwardMask,Test,null,100,"""","""","""","""","""","""","""","""",1,4/23/2021 3:00,71.233.202.7,Mozilla/5.0 (Macintosh; Intel Mac OS X 10.13; rv:88.0) Gecko/20100101 Firefox/88.0,Macintosh,Firefox,88,OS X,10.13
98,1,null,"""",html-keyboard-response,187,401397,0.0-187.0,"""","<div style=""font-size:60px;"">+</div>","""",256,fixationBtwnNeutralMaskAndPrompt,Test,null,1000,"""","""","""","""","""","""","""","""",1,4/23/2021 3:00,71.233.202.7,Mozilla/5.0 (Macintosh; Intel Mac OS X 10.13; rv:88.0) Gecko/20100101 Firefox/88.0,Macintosh,Firefox,88,OS X,10.13
98,1,1747,"""",html-button-response,188,403145,0.0-188.0,"""","<img src='jspsych/CFDfaces/CFD-AF-209-006-N.jpg' height=""250px"">,</br><b>Christina</b>",1,256,IntactOrRearranged,Test,"""","""","""","""",CFD-BM-041-035-N.jpg,Vincent,1,"""","""",1,1,4/23/2021 3:00,71.233.202.7,Mozilla/5.0 (Macintosh; Intel Mac OS X 10.13; rv:88.0) Gecko/20100101 Firefox/88.0,Macintosh,Firefox,88,OS X,10.13
98,1,1901,"""",html-slider-response,189,405049,0.0-189.0,"""","<img src='jspsych/CFDfaces/CFD-AF-209-006-N.jpg' height=""250px"">,</br><b>Christina</b>","""",256,ConfidenceQuery,Test,"""","""","""","""",CFD-BM-041-035-N.jpg,Vincent,1,0,100,"""",1,4/23/2021 3:00,71.233.202.7,Mozilla/5.0 (Macintosh; Intel Mac OS X 10.13; rv:88.0) Gecko/20100101 Firefox/88.0,Macintosh,Firefox,88,OS X,10.13
98,1,null,"""",html-keyboard-response,190,406058,0.0-190.0,"""","<div style=""font-size:60px;"">+</div>","""",256,ITI,Test,null,1000,"""","""","""","""","""","""","""","""",1,4/23/2021 3:00,71.233.202.7,Mozilla/5.0 (Macintosh; Intel Mac OS X 10.13; rv:88.0) Gecko/20100101 Firefox/88.0,Macintosh,Firefox,88,OS X,10.13
98,1,null,"""",image-keyboard-response,191,406313,0.0-191.0,"""",jspsych/scrambledNeutralFaces/scrambledBM07NES.JPG,"""",256,forwardMask,Test,null,250,"""",n,"""","""","""","""","""","""",1,4/23/2021 3:00,71.233.202.7,Mozilla/5.0 (Macintosh; Intel Mac OS X 10.13; rv:88.0) Gecko/20100101 Firefox/88.0,Macintosh,Firefox,88,OS X,10.13
98,1,null,"""",image-keyboard-response,192,406333,0.0-192.0,"""",jspsych/neutralFaces/BM07NES.JPG,"""",256,Cue,Test,null,16,"""","""","""","""","""","""","""","""",1,4/23/2021 3:00,71.233.202.7,Mozilla/5.0 (Macintosh; Intel Mac OS X 10.13; rv:88.0) Gecko/20100101 Firefox/88.0,Macintosh,Firefox,88,OS X,10.13
98,1,null,"""",image-keyboard-response,193,406438,0.0-193.0,"""",jspsych/neutralFaces/AM15NES.JPG,"""",256,backwardMask,Test,null,100,"""","""","""","""","""","""","""","""",1,4/23/2021 3:00,71.233.202.7,Mozilla/5.0 (Macintosh; Intel Mac OS X 10.13; rv:88.0) Gecko/20100101 Firefox/88.0,Macintosh,Firefox,88,OS X,10.13
98,1,null,"""",html-keyboard-response,194,407443,0.0-194.0,"""","<div style=""font-size:60px;"">+</div>","""",256,fixationBtwnNeutralMaskAndPrompt,Test,null,1000,"""","""","""","""","""","""","""","""",1,4/23/2021 3:00,71.233.202.7,Mozilla/5.0 (Macintosh; Intel Mac OS X 10.13; rv:88.0) Gecko/20100101 Firefox/88.0,Macintosh,Firefox,88,OS X,10.13
98,1,2601,"""",html-button-response,195,410044,0.0-195.0,"""","<img src='jspsych/CFDfaces/CFD-WF-204-038-N.jpg' height=""250px"">,</br><b>Julie</b>",1,256,IntactOrRearranged,Test,"""","""","""","""",CFD-BF-010-001-N.jpg,Amy,0,"""","""",1,1,4/23/2021 3:00,71.233.202.7,Mozilla/5.0 (Macintosh; Intel Mac OS X 10.13; rv:88.0) Gecko/20100101 Firefox/88.0,Macintosh,Firefox,88,OS X,10.13
98,1,2352,"""",html-slider-response,196,412398,0.0-196.0,"""","<img src='jspsych/CFDfaces/CFD-WF-204-038-N.jpg' height=""250px"">,</br><b>Julie</b>","""",256,ConfidenceQuery,Test,"""","""","""","""",CFD-BF-010-001-N.jpg,Amy,0,0,71,"""",1,4/23/2021 3:00,71.233.202.7,Mozilla/5.0 (Macintosh; Intel Mac OS X 10.13; rv:88.0) Gecko/20100101 Firefox/88.0,Macintosh,Firefox,88,OS X,10.13
98,1,null,"""",html-keyboard-response,197,413407,0.0-197.0,"""","<div style=""font-size:60px;"">+</div>","""",256,ITI,Test,null,1000,"""","""","""","""","""","""","""","""",1,4/23/2021 3:00,71.233.202.7,Mozilla/5.0 (Macintosh; Intel Mac OS X 10.13; rv:88.0) Gecko/20100101 Firefox/88.0,Macintosh,Firefox,88,OS X,10.13
98,1,null,"""",image-keyboard-response,198,413663,0.0-198.0,"""",jspsych/scrambledNeutralFaces/scrambledAM11NES.JPG,"""",256,forwardMask,Test,null,250,"""",n,"""","""","""","""","""","""",1,4/23/2021 3:00,71.233.202.7,Mozilla/5.0 (Macintosh; Intel Mac OS X 10.13; rv:88.0) Gecko/20100101 Firefox/88.0,Macintosh,Firefox,88,OS X,10.13
98,1,null,"""",image-keyboard-response,199,413685,0.0-199.0,"""",jspsych/neutralFaces/AM11NES.JPG,"""",256,Cue,Test,null,16,"""","""","""","""","""","""","""","""",1,4/23/2021 3:00,71.233.202.7,Mozilla/5.0 (Macintosh; Intel Mac OS X 10.13; rv:88.0) Gecko/20100101 Firefox/88.0,Macintosh,Firefox,88,OS X,10.13
98,1,null,"""",image-keyboard-response,200,413793,0.0-200.0,"""",jspsych/neutralFaces/BM31NES.JPG,"""",256,backwardMask,Test,null,100,"""","""","""","""","""","""","""","""",1,4/23/2021 3:00,71.233.202.7,Mozilla/5.0 (Macintosh; Intel Mac OS X 10.13; rv:88.0) Gecko/20100101 Firefox/88.0,Macintosh,Firefox,88,OS X,10.13
98,1,null,"""",html-keyboard-response,201,414797,0.0-201.0,"""","<div style=""font-size:60px;"">+</div>","""",256,fixationBtwnNeutralMaskAndPrompt,Test,null,1000,"""","""","""","""","""","""","""","""",1,4/23/2021 3:00,71.233.202.7,Mozilla/5.0 (Macintosh; Intel Mac OS X 10.13; rv:88.0) Gecko/20100101 Firefox/88.0,Macintosh,Firefox,88,OS X,10.13
98,1,2896,"""",html-button-response,202,417694,0.0-202.0,"""","<img src='jspsych/CFDfaces/CFD-LM-219-295-N.jpg' height=""250px"">,</br><b>Eric</b>",1,256,IntactOrRearranged,Test,"""","""","""","""",CFD-AM-228-214-N.jpg,Dustin,1,"""","""",1,1,4/23/2021 3:00,71.233.202.7,Mozilla/5.0 (Macintosh; Intel Mac OS X 10.13; rv:88.0) Gecko/20100101 Firefox/88.0,Macintosh,Firefox,88,OS X,10.13
98,1,3023,"""",html-slider-response,203,420720,0.0-203.0,"""","<img src='jspsych/CFDfaces/CFD-LM-219-295-N.jpg' height=""250px"">,</br><b>Eric</b>","""",256,ConfidenceQuery,Test,"""","""","""","""",CFD-AM-228-214-N.jpg,Dustin,1,0,100,"""",1,4/23/2021 3:00,71.233.202.7,Mozilla/5.0 (Macintosh; Intel Mac OS X 10.13; rv:88.0) Gecko/20100101 Firefox/88.0,Macintosh,Firefox,88,OS X,10.13
98,1,null,"""",html-keyboard-response,204,421728,0.0-204.0,"""","<div style=""font-size:60px;"">+</div>","""",256,ITI,Test,null,1000,"""","""","""","""","""","""","""","""",1,4/23/2021 3:00,71.233.202.7,Mozilla/5.0 (Macintosh; Intel Mac OS X 10.13; rv:88.0) Gecko/20100101 Firefox/88.0,Macintosh,Firefox,88,OS X,10.13
98,1,null,"""",image-keyboard-response,205,421983,0.0-205.0,"""",jspsych/scrambledDisgustFaces/scrambledAF33DIS.JPG,"""",256,forwardMask,Test,null,250,"""",d,"""","""","""","""","""","""",1,4/23/2021 3:00,71.233.202.7,Mozilla/5.0 (Macintosh; Intel Mac OS X 10.13; rv:88.0) Gecko/20100101 Firefox/88.0,Macintosh,Firefox,88,OS X,10.13
98,1,null,"""",image-keyboard-response,206,422003,0.0-206.0,"""",jspsych/disgustFaces/AF33DIS.JPG,"""",256,Cue,Test,null,16,"""","""","""","""","""","""","""","""",1,4/23/2021 3:00,71.233.202.7,Mozilla/5.0 (Macintosh; Intel Mac OS X 10.13; rv:88.0) Gecko/20100101 Firefox/88.0,Macintosh,Firefox,88,OS X,10.13
98,1,null,"""",image-keyboard-response,207,422111,0.0-207.0,"""",jspsych/neutralFaces/AF06NES.JPG,"""",256,backwardMask,Test,null,100,"""","""","""","""","""","""","""","""",1,4/23/2021 3:00,71.233.202.7,Mozilla/5.0 (Macintosh; Intel Mac OS X 10.13; rv:88.0) Gecko/20100101 Firefox/88.0,Macintosh,Firefox,88,OS X,10.13
98,1,null,"""",html-keyboard-response,208,423112,0.0-208.0,"""","<div style=""font-size:60px;"">+</div>","""",256,fixationBtwnNeutralMaskAndPrompt,Test,null,1000,"""","""","""","""","""","""","""","""",1,4/23/2021 3:00,71.233.202.7,Mozilla/5.0 (Macintosh; Intel Mac OS X 10.13; rv:88.0) Gecko/20100101 Firefox/88.0,Macintosh,Firefox,88,OS X,10.13
98,1,2417,"""",html-button-response,209,425532,0.0-209.0,"""","<img src='jspsych/CFDfaces/CFD-LF-206-078-N.jpg' height=""250px"">,</br><b>Samantha</b>",1,256,IntactOrRearranged,Test,"""","""","""","""",CFD-LM-246-087-N.jpg,Jeremy,0,"""","""",1,1,4/23/2021 3:00,71.233.202.7,Mozilla/5.0 (Macintosh; Intel Mac OS X 10.13; rv:88.0) Gecko/20100101 Firefox/88.0,Macintosh,Firefox,88,OS X,10.13
98,1,2453,"""",html-slider-response,210,427988,0.0-210.0,"""","<img src='jspsych/CFDfaces/CFD-LF-206-078-N.jpg' height=""250px"">,</br><b>Samantha</b>","""",256,ConfidenceQuery,Test,"""","""","""","""",CFD-LM-246-087-N.jpg,Jeremy,0,0,59,"""",1,4/23/2021 3:00,71.233.202.7,Mozilla/5.0 (Macintosh; Intel Mac OS X 10.13; rv:88.0) Gecko/20100101 Firefox/88.0,Macintosh,Firefox,88,OS X,10.13
98,1,null,"""",html-keyboard-response,211,428994,0.0-211.0,"""","<div style=""font-size:60px;"">+</div>","""",256,ITI,Test,null,1000,"""","""","""","""","""","""","""","""",1,4/23/2021 3:00,71.233.202.7,Mozilla/5.0 (Macintosh; Intel Mac OS X 10.13; rv:88.0) Gecko/20100101 Firefox/88.0,Macintosh,Firefox,88,OS X,10.13
98,1,null,"""",image-keyboard-response,212,429249,0.0-212.0,"""",jspsych/scrambledDisgustFaces/scrambledBM04DIS.JPG,"""",256,forwardMask,Test,null,250,"""",d,"""","""","""","""","""","""",1,4/23/2021 3:00,71.233.202.7,Mozilla/5.0 (Macintosh; Intel Mac OS X 10.13; rv:88.0) Gecko/20100101 Firefox/88.0,Macintosh,Firefox,88,OS X,10.13
98,1,null,"""",image-keyboard-response,213,429268,0.0-213.0,"""",jspsych/disgustFaces/BM05DIS.JPG,"""",256,Cue,Test,null,16,"""","""","""","""","""","""","""","""",1,4/23/2021 3:00,71.233.202.7,Mozilla/5.0 (Macintosh; Intel Mac OS X 10.13; rv:88.0) Gecko/20100101 Firefox/88.0,Macintosh,Firefox,88,OS X,10.13
98,1,null,"""",image-keyboard-response,214,429374,0.0-214.0,"""",jspsych/neutralFaces/BM02NES.JPG,"""",256,backwardMask,Test,null,100,"""","""","""","""","""","""","""","""",1,4/23/2021 3:00,71.233.202.7,Mozilla/5.0 (Macintosh; Intel Mac OS X 10.13; rv:88.0) Gecko/20100101 Firefox/88.0,Macintosh,Firefox,88,OS X,10.13
98,1,null,"""",html-keyboard-response,215,430377,0.0-215.0,"""","<div style=""font-size:60px;"">+</div>","""",256,fixationBtwnNeutralMaskAndPrompt,Test,null,1000,"""","""","""","""","""","""","""","""",1,4/23/2021 3:00,71.233.202.7,Mozilla/5.0 (Macintosh; Intel Mac OS X 10.13; rv:88.0) Gecko/20100101 Firefox/88.0,Macintosh,Firefox,88,OS X,10.13
98,1,2919,"""",html-button-response,216,433298,0.0-216.0,"""","<img src='jspsych/CFDfaces/CFD-WM-020-001-N.jpg' height=""250px"">,</br><b>Jeffrey</b>",1,256,IntactOrRearranged,Test,"""","""","""","""",CFD-WF-003-003-N.jpg,Lindsey,1,"""","""",1,1,4/23/2021 3:00,71.233.202.7,Mozilla/5.0 (Macintosh; Intel Mac OS X 10.13; rv:88.0) Gecko/20100101 Firefox/88.0,Macintosh,Firefox,88,OS X,10.13
98,1,2768,"""",html-slider-response,217,436073,0.0-217.0,"""","<img src='jspsych/CFDfaces/CFD-WM-020-001-N.jpg' height=""250px"">,</br><b>Jeffrey</b>","""",256,ConfidenceQuery,Test,"""","""","""","""",CFD-WF-003-003-N.jpg,Lindsey,1,0,100,"""",1,4/23/2021 3:00,71.233.202.7,Mozilla/5.0 (Macintosh; Intel Mac OS X 10.13; rv:88.0) Gecko/20100101 Firefox/88.0,Macintosh,Firefox,88,OS X,10.13
98,1,null,"""",html-keyboard-response,218,437079,0.0-218.0,"""","<div style=""font-size:60px;"">+</div>","""",256,ITI,Test,null,1000,"""","""","""","""","""","""","""","""",1,4/23/2021 3:00,71.233.202.7,Mozilla/5.0 (Macintosh; Intel Mac OS X 10.13; rv:88.0) Gecko/20100101 Firefox/88.0,Macintosh,Firefox,88,OS X,10.13
98,1,null,"""",image-keyboard-response,219,437331,0.0-219.0,"""",jspsych/scrambledDisgustFaces/scrambledBF13DIS.JPG,"""",256,forwardMask,Test,null,250,"""",d,"""","""","""","""","""","""",1,4/23/2021 3:00,71.233.202.7,Mozilla/5.0 (Macintosh; Intel Mac OS X 10.13; rv:88.0) Gecko/20100101 Firefox/88.0,Macintosh,Firefox,88,OS X,10.13
98,1,null,"""",image-keyboard-response,220,437352,0.0-220.0,"""",jspsych/disgustFaces/BF13DIS.JPG,"""",256,Cue,Test,null,16,"""","""","""","""","""","""","""","""",1,4/23/2021 3:00,71.233.202.7,Mozilla/5.0 (Macintosh; Intel Mac OS X 10.13; rv:88.0) Gecko/20100101 Firefox/88.0,Macintosh,Firefox,88,OS X,10.13
98,1,null,"""",image-keyboard-response,221,437458,0.0-221.0,"""",jspsych/neutralFaces/BF16NES.JPG,"""",256,backwardMask,Test,null,100,"""","""","""","""","""","""","""","""",1,4/23/2021 3:00,71.233.202.7,Mozilla/5.0 (Macintosh; Intel Mac OS X 10.13; rv:88.0) Gecko/20100101 Firefox/88.0,Macintosh,Firefox,88,OS X,10.13
98,1,null,"""",html-keyboard-response,222,438461,0.0-222.0,"""","<div style=""font-size:60px;"">+</div>","""",256,fixationBtwnNeutralMaskAndPrompt,Test,null,1000,"""","""","""","""","""","""","""","""",1,4/23/2021 3:00,71.233.202.7,Mozilla/5.0 (Macintosh; Intel Mac OS X 10.13; rv:88.0) Gecko/20100101 Firefox/88.0,Macintosh,Firefox,88,OS X,10.13
98,1,2858,"""",html-button-response,223,441320,0.0-223.0,"""","<img src='jspsych/CFDfaces/CFD-WM-216-061-N.jpg' height=""250px"">,</br><b>Nicholas</b>",1,256,IntactOrRearranged,Test,"""","""","""","""",CFD-BF-222-240-N.jpg,Whitney,0,"""","""",1,1,4/23/2021 3:00,71.233.202.7,Mozilla/5.0 (Macintosh; Intel Mac OS X 10.13; rv:88.0) Gecko/20100101 Firefox/88.0,Macintosh,Firefox,88,OS X,10.13
98,1,2887,"""",html-slider-response,224,444214,0.0-224.0,"""","<img src='jspsych/CFDfaces/CFD-WM-216-061-N.jpg' height=""250px"">,</br><b>Nicholas</b>","""",256,ConfidenceQuery,Test,"""","""","""","""",CFD-BF-222-240-N.jpg,Whitney,0,0,79,"""",1,4/23/2021 3:00,71.233.202.7,Mozilla/5.0 (Macintosh; Intel Mac OS X 10.13; rv:88.0) Gecko/20100101 Firefox/88.0,Macintosh,Firefox,88,OS X,10.13
98,1,null,"""",html-keyboard-response,225,445218,0.0-225.0,"""","<div style=""font-size:60px;"">+</div>","""",256,ITI,Test,null,1000,"""","""","""","""","""","""","""","""",1,4/23/2021 3:00,71.233.202.7,Mozilla/5.0 (Macintosh; Intel Mac OS X 10.13; rv:88.0) Gecko/20100101 Firefox/88.0,Macintosh,Firefox,88,OS X,10.13
98,1,null,"""",image-keyboard-response,226,445474,0.0-226.0,"""",jspsych/scrambledDisgustFaces/scrambledBF09DIS.JPG,"""",256,forwardMask,Test,null,250,"""",d,"""","""","""","""","""","""",1,4/23/2021 3:00,71.233.202.7,Mozilla/5.0 (Macintosh; Intel Mac OS X 10.13; rv:88.0) Gecko/20100101 Firefox/88.0,Macintosh,Firefox,88,OS X,10.13
98,1,null,"""",image-keyboard-response,227,445496,0.0-227.0,"""",jspsych/disgustFaces/BF09DIS.JPG,"""",256,Cue,Test,null,16,"""","""","""","""","""","""","""","""",1,4/23/2021 3:00,71.233.202.7,Mozilla/5.0 (Macintosh; Intel Mac OS X 10.13; rv:88.0) Gecko/20100101 Firefox/88.0,Macintosh,Firefox,88,OS X,10.13
98,1,null,"""",image-keyboard-response,228,445600,0.0-228.0,"""",jspsych/neutralFaces/AF13NES.JPG,"""",256,backwardMask,Test,null,100,"""","""","""","""","""","""","""","""",1,4/23/2021 3:00,71.233.202.7,Mozilla/5.0 (Macintosh; Intel Mac OS X 10.13; rv:88.0) Gecko/20100101 Firefox/88.0,Macintosh,Firefox,88,OS X,10.13
98,1,null,"""",html-keyboard-response,229,446604,0.0-229.0,"""","<div style=""font-size:60px;"">+</div>","""",256,fixationBtwnNeutralMaskAndPrompt,Test,null,1000,"""","""","""","""","""","""","""","""",1,4/23/2021 3:00,71.233.202.7,Mozilla/5.0 (Macintosh; Intel Mac OS X 10.13; rv:88.0) Gecko/20100101 Firefox/88.0,Macintosh,Firefox,88,OS X,10.13
98,1,2037,"""",html-button-response,230,448643,0.0-230.0,"""","<img src='jspsych/CFDfaces/CFD-WM-019-003-N.jpg' height=""250px"">,</br><b>Christian</b>",1,256,IntactOrRearranged,Test,"""","""","""","""",CFD-LM-252-076-N.jpg,Kenneth,1,"""","""",1,1,4/23/2021 3:00,71.233.202.7,Mozilla/5.0 (Macintosh; Intel Mac OS X 10.13; rv:88.0) Gecko/20100101 Firefox/88.0,Macintosh,Firefox,88,OS X,10.13
98,1,2242,"""",html-slider-response,231,450893,0.0-231.0,"""","<img src='jspsych/CFDfaces/CFD-WM-019-003-N.jpg' height=""250px"">,</br><b>Christian</b>","""",256,ConfidenceQuery,Test,"""","""","""","""",CFD-LM-252-076-N.jpg,Kenneth,1,0,76,"""",1,4/23/2021 3:00,71.233.202.7,Mozilla/5.0 (Macintosh; Intel Mac OS X 10.13; rv:88.0) Gecko/20100101 Firefox/88.0,Macintosh,Firefox,88,OS X,10.13
98,1,null,"""",html-keyboard-response,232,451899,0.0-232.0,"""","<div style=""font-size:60px;"">+</div>","""",256,ITI,Test,null,1000,"""","""","""","""","""","""","""","""",1,4/23/2021 3:00,71.233.202.7,Mozilla/5.0 (Macintosh; Intel Mac OS X 10.13; rv:88.0) Gecko/20100101 Firefox/88.0,Macintosh,Firefox,88,OS X,10.13
98,1,null,"""",image-keyboard-response,233,452156,0.0-233.0,"""",jspsych/scrambledNeutralFaces/scrambledAF18NES.JPG,"""",256,forwardMask,Test,null,250,"""",n,"""","""","""","""","""","""",1,4/23/2021 3:00,71.233.202.7,Mozilla/5.0 (Macintosh; Intel Mac OS X 10.13; rv:88.0) Gecko/20100101 Firefox/88.0,Macintosh,Firefox,88,OS X,10.13
98,1,null,"""",image-keyboard-response,234,452177,0.0-234.0,"""",jspsych/neutralFaces/AF18NES.JPG,"""",256,Cue,Test,null,16,"""","""","""","""","""","""","""","""",1,4/23/2021 3:00,71.233.202.7,Mozilla/5.0 (Macintosh; Intel Mac OS X 10.13; rv:88.0) Gecko/20100101 Firefox/88.0,Macintosh,Firefox,88,OS X,10.13
98,1,null,"""",image-keyboard-response,235,452285,0.0-235.0,"""",jspsych/neutralFaces/BF08NES.JPG,"""",256,backwardMask,Test,null,100,"""","""","""","""","""","""","""","""",1,4/23/2021 3:00,71.233.202.7,Mozilla/5.0 (Macintosh; Intel Mac OS X 10.13; rv:88.0) Gecko/20100101 Firefox/88.0,Macintosh,Firefox,88,OS X,10.13
98,1,null,"""",html-keyboard-response,236,453289,0.0-236.0,"""","<div style=""font-size:60px;"">+</div>","""",256,fixationBtwnNeutralMaskAndPrompt,Test,null,1000,"""","""","""","""","""","""","""","""",1,4/23/2021 3:00,71.233.202.7,Mozilla/5.0 (Macintosh; Intel Mac OS X 10.13; rv:88.0) Gecko/20100101 Firefox/88.0,Macintosh,Firefox,88,OS X,10.13
98,1,1898,"""",html-button-response,237,455189,0.0-237.0,"""","<img src='jspsych/CFDfaces/CFD-WF-017-003-N.jpg' height=""250px"">,</br><b>Stephanie</b>",0,256,IntactOrRearranged,Test,"""","""","""","""",CFD-AM-211-052-N.jpg,Austin,0,"""","""",0,1,4/23/2021 3:00,71.233.202.7,Mozilla/5.0 (Macintosh; Intel Mac OS X 10.13; rv:88.0) Gecko/20100101 Firefox/88.0,Macintosh,Firefox,88,OS X,10.13
98,1,null,"""",html-slider-response,238,460200,0.0-238.0,"""","<img src='jspsych/CFDfaces/CFD-WF-017-003-N.jpg' height=""250px"">,</br><b>Stephanie</b>","""",256,ConfidenceQuery,Test,"""","""","""","""",CFD-AM-211-052-N.jpg,Austin,0,0,null,"""",1,4/23/2021 3:00,71.233.202.7,Mozilla/5.0 (Macintosh; Intel Mac OS X 10.13; rv:88.0) Gecko/20100101 Firefox/88.0,Macintosh,Firefox,88,OS X,10.13
98,1,null,"""",html-keyboard-response,239,461201,0.0-239.0,"""","<div style=""font-size:60px;"">+</div>","""",256,ITI,Test,null,1000,"""","""","""","""","""","""","""","""",1,4/23/2021 3:00,71.233.202.7,Mozilla/5.0 (Macintosh; Intel Mac OS X 10.13; rv:88.0) Gecko/20100101 Firefox/88.0,Macintosh,Firefox,88,OS X,10.13
98,1,null,"""",image-keyboard-response,240,461462,0.0-240.0,"""",jspsych/scrambledDisgustFaces/scrambledBM04DIS.JPG,"""",256,forwardMask,Test,null,250,"""",d,"""","""","""","""","""","""",1,4/23/2021 3:00,71.233.202.7,Mozilla/5.0 (Macintosh; Intel Mac OS X 10.13; rv:88.0) Gecko/20100101 Firefox/88.0,Macintosh,Firefox,88,OS X,10.13
98,1,null,"""",image-keyboard-response,241,461483,0.0-241.0,"""",jspsych/disgustFaces/BM05DIS.JPG,"""",256,Cue,Test,null,16,"""","""","""","""","""","""","""","""",1,4/23/2021 3:00,71.233.202.7,Mozilla/5.0 (Macintosh; Intel Mac OS X 10.13; rv:88.0) Gecko/20100101 Firefox/88.0,Macintosh,Firefox,88,OS X,10.13
98,1,null,"""",image-keyboard-response,242,461587,0.0-242.0,"""",jspsych/neutralFaces/BM06NES.JPG,"""",256,backwardMask,Test,null,100,"""","""","""","""","""","""","""","""",1,4/23/2021 3:00,71.233.202.7,Mozilla/5.0 (Macintosh; Intel Mac OS X 10.13; rv:88.0) Gecko/20100101 Firefox/88.0,Macintosh,Firefox,88,OS X,10.13
98,1,null,"""",html-keyboard-response,243,462591,0.0-243.0,"""","<div style=""font-size:60px;"">+</div>","""",256,fixationBtwnNeutralMaskAndPrompt,Test,null,1000,"""","""","""","""","""","""","""","""",1,4/23/2021 3:00,71.233.202.7,Mozilla/5.0 (Macintosh; Intel Mac OS X 10.13; rv:88.0) Gecko/20100101 Firefox/88.0,Macintosh,Firefox,88,OS X,10.13
98,1,3912,"""",html-button-response,244,466505,0.0-244.0,"""","<img src='jspsych/CFDfaces/CFD-BM-002-013-N.jpg' height=""250px"">,</br><b>Peter</b>",0,256,IntactOrRearranged,Test,"""","""","""","""",CFD-AF-230-193-N.jpg,Sara,0,"""","""",0,1,4/23/2021 3:00,71.233.202.7,Mozilla/5.0 (Macintosh; Intel Mac OS X 10.13; rv:88.0) Gecko/20100101 Firefox/88.0,Macintosh,Firefox,88,OS X,10.13
98,1,1907,"""",html-slider-response,245,468415,0.0-245.0,"""","<img src='jspsych/CFDfaces/CFD-BM-002-013-N.jpg' height=""250px"">,</br><b>Peter</b>","""",256,ConfidenceQuery,Test,"""","""","""","""",CFD-AF-230-193-N.jpg,Sara,0,0,38,"""",1,4/23/2021 3:00,71.233.202.7,Mozilla/5.0 (Macintosh; Intel Mac OS X 10.13; rv:88.0) Gecko/20100101 Firefox/88.0,Macintosh,Firefox,88,OS X,10.13
98,1,null,"""",html-keyboard-response,246,469420,0.0-246.0,"""","<div style=""font-size:60px;"">+</div>","""",256,ITI,Test,null,1000,"""","""","""","""","""","""","""","""",1,4/23/2021 3:00,71.233.202.7,Mozilla/5.0 (Macintosh; Intel Mac OS X 10.13; rv:88.0) Gecko/20100101 Firefox/88.0,Macintosh,Firefox,88,OS X,10.13
98,1,null,"""",image-keyboard-response,247,469676,0.0-247.0,"""",jspsych/scrambledNeutralFaces/scrambledBF34NES.JPG,"""",256,forwardMask,Test,null,250,"""",n,"""","""","""","""","""","""",1,4/23/2021 3:00,71.233.202.7,Mozilla/5.0 (Macintosh; Intel Mac OS X 10.13; rv:88.0) Gecko/20100101 Firefox/88.0,Macintosh,Firefox,88,OS X,10.13
98,1,null,"""",image-keyboard-response,248,469696,0.0-248.0,"""",jspsych/neutralFaces/BF34NES.JPG,"""",256,Cue,Test,null,16,"""","""","""","""","""","""","""","""",1,4/23/2021 3:00,71.233.202.7,Mozilla/5.0 (Macintosh; Intel Mac OS X 10.13; rv:88.0) Gecko/20100101 Firefox/88.0,Macintosh,Firefox,88,OS X,10.13
98,1,null,"""",image-keyboard-response,249,469804,0.0-249.0,"""",jspsych/neutralFaces/AF05NES.JPG,"""",256,backwardMask,Test,null,100,"""","""","""","""","""","""","""","""",1,4/23/2021 3:00,71.233.202.7,Mozilla/5.0 (Macintosh; Intel Mac OS X 10.13; rv:88.0) Gecko/20100101 Firefox/88.0,Macintosh,Firefox,88,OS X,10.13
98,1,null,"""",html-keyboard-response,250,470808,0.0-250.0,"""","<div style=""font-size:60px;"">+</div>","""",256,fixationBtwnNeutralMaskAndPrompt,Test,null,1000,"""","""","""","""","""","""","""","""",1,4/23/2021 3:00,71.233.202.7,Mozilla/5.0 (Macintosh; Intel Mac OS X 10.13; rv:88.0) Gecko/20100101 Firefox/88.0,Macintosh,Firefox,88,OS X,10.13
98,1,1505,"""",html-button-response,251,472315,0.0-251.0,"""","<img src='jspsych/CFDfaces/CFD-BF-218-207-N.jpg' height=""250px"">,</br><b>Elizabeth</b>",1,256,IntactOrRearranged,Test,"""","""","""","""",CFD-AF-226-251-N.jpg,Tiffany,1,"""","""",1,1,4/23/2021 3:00,71.233.202.7,Mozilla/5.0 (Macintosh; Intel Mac OS X 10.13; rv:88.0) Gecko/20100101 Firefox/88.0,Macintosh,Firefox,88,OS X,10.13
98,1,2141,"""",html-slider-response,252,474459,0.0-252.0,"""","<img src='jspsych/CFDfaces/CFD-BF-218-207-N.jpg' height=""250px"">,</br><b>Elizabeth</b>","""",256,ConfidenceQuery,Test,"""","""","""","""",CFD-AF-226-251-N.jpg,Tiffany,1,0,100,"""",1,4/23/2021 3:00,71.233.202.7,Mozilla/5.0 (Macintosh; Intel Mac OS X 10.13; rv:88.0) Gecko/20100101 Firefox/88.0,Macintosh,Firefox,88,OS X,10.13
98,1,null,"""",html-keyboard-response,253,475469,0.0-253.0,"""","<div style=""font-size:60px;"">+</div>","""",256,ITI,Test,null,1000,"""","""","""","""","""","""","""","""",1,4/23/2021 3:00,71.233.202.7,Mozilla/5.0 (Macintosh; Intel Mac OS X 10.13; rv:88.0) Gecko/20100101 Firefox/88.0,Macintosh,Firefox,88,OS X,10.13
98,1,null,"""",image-keyboard-response,254,475726,0.0-254.0,"""",jspsych/scrambledNeutralFaces/scrambledAF05NES.JPG,"""",256,forwardMask,Test,null,250,"""",n,"""","""","""","""","""","""",1,4/23/2021 3:00,71.233.202.7,Mozilla/5.0 (Macintosh; Intel Mac OS X 10.13; rv:88.0) Gecko/20100101 Firefox/88.0,Macintosh,Firefox,88,OS X,10.13
98,1,null,"""",image-keyboard-response,255,475748,0.0-255.0,"""",jspsych/neutralFaces/AF05NES.JPG,"""",256,Cue,Test,null,16,"""","""","""","""","""","""","""","""",1,4/23/2021 3:00,71.233.202.7,Mozilla/5.0 (Macintosh; Intel Mac OS X 10.13; rv:88.0) Gecko/20100101 Firefox/88.0,Macintosh,Firefox,88,OS X,10.13
98,1,null,"""",image-keyboard-response,256,475855,0.0-256.0,"""",jspsych/neutralFaces/BF14NES.JPG,"""",256,backwardMask,Test,null,100,"""","""","""","""","""","""","""","""",1,4/23/2021 3:00,71.233.202.7,Mozilla/5.0 (Macintosh; Intel Mac OS X 10.13; rv:88.0) Gecko/20100101 Firefox/88.0,Macintosh,Firefox,88,OS X,10.13
98,1,null,"""",html-keyboard-response,257,476859,0.0-257.0,"""","<div style=""font-size:60px;"">+</div>","""",256,fixationBtwnNeutralMaskAndPrompt,Test,null,1000,"""","""","""","""","""","""","""","""",1,4/23/2021 3:00,71.233.202.7,Mozilla/5.0 (Macintosh; Intel Mac OS X 10.13; rv:88.0) Gecko/20100101 Firefox/88.0,Macintosh,Firefox,88,OS X,10.13
98,1,2653,"""",html-button-response,258,479513,0.0-258.0,"""","<img src='jspsych/CFDfaces/CFD-AF-243-170-N.jpg' height=""250px"">,</br><b>Emily</b>",1,256,IntactOrRearranged,Test,"""","""","""","""",CFD-AM-202-079-N.jpg,Ryan,1,"""","""",1,1,4/23/2021 3:00,71.233.202.7,Mozilla/5.0 (Macintosh; Intel Mac OS X 10.13; rv:88.0) Gecko/20100101 Firefox/88.0,Macintosh,Firefox,88,OS X,10.13
98,1,1495,"""",html-slider-response,259,481010,0.0-259.0,"""","<img src='jspsych/CFDfaces/CFD-AF-243-170-N.jpg' height=""250px"">,</br><b>Emily</b>","""",256,ConfidenceQuery,Test,"""","""","""","""",CFD-AM-202-079-N.jpg,Ryan,1,0,63,"""",1,4/23/2021 3:00,71.233.202.7,Mozilla/5.0 (Macintosh; Intel Mac OS X 10.13; rv:88.0) Gecko/20100101 Firefox/88.0,Macintosh,Firefox,88,OS X,10.13
98,1,null,"""",html-keyboard-response,260,482020,0.0-260.0,"""","<div style=""font-size:60px;"">+</div>","""",256,ITI,Test,null,1000,"""","""","""","""","""","""","""","""",1,4/23/2021 3:00,71.233.202.7,Mozilla/5.0 (Macintosh; Intel Mac OS X 10.13; rv:88.0) Gecko/20100101 Firefox/88.0,Macintosh,Firefox,88,OS X,10.13
98,1,null,"""",image-keyboard-response,261,482274,0.0-261.0,"""",jspsych/scrambledNeutralFaces/scrambledAM25NES.JPG,"""",256,forwardMask,Test,null,250,"""",n,"""","""","""","""","""","""",1,4/23/2021 3:00,71.233.202.7,Mozilla/5.0 (Macintosh; Intel Mac OS X 10.13; rv:88.0) Gecko/20100101 Firefox/88.0,Macintosh,Firefox,88,OS X,10.13
98,1,null,"""",image-keyboard-response,262,482296,0.0-262.0,"""",jspsych/neutralFaces/AM25NES.JPG,"""",256,Cue,Test,null,16,"""","""","""","""","""","""","""","""",1,4/23/2021 3:00,71.233.202.7,Mozilla/5.0 (Macintosh; Intel Mac OS X 10.13; rv:88.0) Gecko/20100101 Firefox/88.0,Macintosh,Firefox,88,OS X,10.13
98,1,null,"""",image-keyboard-response,263,482403,0.0-263.0,"""",jspsych/neutralFaces/AM08NES.JPG,"""",256,backwardMask,Test,null,100,"""","""","""","""","""","""","""","""",1,4/23/2021 3:00,71.233.202.7,Mozilla/5.0 (Macintosh; Intel Mac OS X 10.13; rv:88.0) Gecko/20100101 Firefox/88.0,Macintosh,Firefox,88,OS X,10.13
98,1,null,"""",html-keyboard-response,264,483405,0.0-264.0,"""","<div style=""font-size:60px;"">+</div>","""",256,fixationBtwnNeutralMaskAndPrompt,Test,null,1000,"""","""","""","""","""","""","""","""",1,4/23/2021 3:00,71.233.202.7,Mozilla/5.0 (Macintosh; Intel Mac OS X 10.13; rv:88.0) Gecko/20100101 Firefox/88.0,Macintosh,Firefox,88,OS X,10.13
98,1,2682,"""",html-button-response,265,486088,0.0-265.0,"""","<img src='jspsych/CFDfaces/CFD-BM-207-024-N.jpg' height=""250px"">,</br><b>James</b>",1,256,IntactOrRearranged,Test,"""","""","""","""",CFD-AF-228-173-N.jpg,Lauren,1,"""","""",1,1,4/23/2021 3:00,71.233.202.7,Mozilla/5.0 (Macintosh; Intel Mac OS X 10.13; rv:88.0) Gecko/20100101 Firefox/88.0,Macintosh,Firefox,88,OS X,10.13
98,1,2111,"""",html-slider-response,266,488202,0.0-266.0,"""","<img src='jspsych/CFDfaces/CFD-BM-207-024-N.jpg' height=""250px"">,</br><b>James</b>","""",256,ConfidenceQuery,Test,"""","""","""","""",CFD-AF-228-173-N.jpg,Lauren,1,0,51,"""",1,4/23/2021 3:00,71.233.202.7,Mozilla/5.0 (Macintosh; Intel Mac OS X 10.13; rv:88.0) Gecko/20100101 Firefox/88.0,Macintosh,Firefox,88,OS X,10.13
98,1,null,"""",html-keyboard-response,267,489212,0.0-267.0,"""","<div style=""font-size:60px;"">+</div>","""",256,ITI,Test,null,1000,"""","""","""","""","""","""","""","""",1,4/23/2021 3:00,71.233.202.7,Mozilla/5.0 (Macintosh; Intel Mac OS X 10.13; rv:88.0) Gecko/20100101 Firefox/88.0,Macintosh,Firefox,88,OS X,10.13
98,1,null,"""",image-keyboard-response,268,489467,0.0-268.0,"""",jspsych/scrambledNeutralFaces/scrambledBM23NES.JPG,"""",256,forwardMask,Test,null,250,"""",n,"""","""","""","""","""","""",1,4/23/2021 3:00,71.233.202.7,Mozilla/5.0 (Macintosh; Intel Mac OS X 10.13; rv:88.0) Gecko/20100101 Firefox/88.0,Macintosh,Firefox,88,OS X,10.13
98,1,null,"""",image-keyboard-response,269,489488,0.0-269.0,"""",jspsych/neutralFaces/BM23NES.JPG,"""",256,Cue,Test,null,16,"""","""","""","""","""","""","""","""",1,4/23/2021 3:00,71.233.202.7,Mozilla/5.0 (Macintosh; Intel Mac OS X 10.13; rv:88.0) Gecko/20100101 Firefox/88.0,Macintosh,Firefox,88,OS X,10.13
98,1,null,"""",image-keyboard-response,270,489596,0.0-270.0,"""",jspsych/neutralFaces/AM35NES.JPG,"""",256,backwardMask,Test,null,100,"""","""","""","""","""","""","""","""",1,4/23/2021 3:00,71.233.202.7,Mozilla/5.0 (Macintosh; Intel Mac OS X 10.13; rv:88.0) Gecko/20100101 Firefox/88.0,Macintosh,Firefox,88,OS X,10.13
98,1,null,"""",html-keyboard-response,271,490599,0.0-271.0,"""","<div style=""font-size:60px;"">+</div>","""",256,fixationBtwnNeutralMaskAndPrompt,Test,null,1000,"""","""","""","""","""","""","""","""",1,4/23/2021 3:00,71.233.202.7,Mozilla/5.0 (Macintosh; Intel Mac OS X 10.13; rv:88.0) Gecko/20100101 Firefox/88.0,Macintosh,Firefox,88,OS X,10.13
98,1,2838,"""",html-button-response,272,493438,0.0-272.0,"""","<img src='jspsych/CFDfaces/CFD-AM-238-269-N.jpg' height=""250px"">,</br><b>Jason</b>",0,256,IntactOrRearranged,Test,"""","""","""","""",CFD-LF-215-157-N.jpg,Heather,0,"""","""",0,1,4/23/2021 3:00,71.233.202.7,Mozilla/5.0 (Macintosh; Intel Mac OS X 10.13; rv:88.0) Gecko/20100101 Firefox/88.0,Macintosh,Firefox,88,OS X,10.13
98,1,2639,"""",html-slider-response,273,496080,0.0-273.0,"""","<img src='jspsych/CFDfaces/CFD-AM-238-269-N.jpg' height=""250px"">,</br><b>Jason</b>","""",256,ConfidenceQuery,Test,"""","""","""","""",CFD-LF-215-157-N.jpg,Heather,0,0,48,"""",1,4/23/2021 3:00,71.233.202.7,Mozilla/5.0 (Macintosh; Intel Mac OS X 10.13; rv:88.0) Gecko/20100101 Firefox/88.0,Macintosh,Firefox,88,OS X,10.13
98,1,null,"""",html-keyboard-response,274,497090,0.0-274.0,"""","<div style=""font-size:60px;"">+</div>","""",256,ITI,Test,null,1000,"""","""","""","""","""","""","""","""",1,4/23/2021 3:00,71.233.202.7,Mozilla/5.0 (Macintosh; Intel Mac OS X 10.13; rv:88.0) Gecko/20100101 Firefox/88.0,Macintosh,Firefox,88,OS X,10.13
98,1,null,"""",image-keyboard-response,275,497345,0.0-275.0,"""",jspsych/scrambledNeutralFaces/scrambledBM02NES.JPG,"""",256,forwardMask,Test,null,250,"""",n,"""","""","""","""","""","""",1,4/23/2021 3:00,71.233.202.7,Mozilla/5.0 (Macintosh; Intel Mac OS X 10.13; rv:88.0) Gecko/20100101 Firefox/88.0,Macintosh,Firefox,88,OS X,10.13
98,1,null,"""",image-keyboard-response,276,497365,0.0-276.0,"""",jspsych/neutralFaces/BM02NES.JPG,"""",256,Cue,Test,null,16,"""","""","""","""","""","""","""","""",1,4/23/2021 3:00,71.233.202.7,Mozilla/5.0 (Macintosh; Intel Mac OS X 10.13; rv:88.0) Gecko/20100101 Firefox/88.0,Macintosh,Firefox,88,OS X,10.13
98,1,null,"""",image-keyboard-response,277,497472,0.0-277.0,"""",jspsych/neutralFaces/AM06NES.JPG,"""",256,backwardMask,Test,null,100,"""","""","""","""","""","""","""","""",1,4/23/2021 3:00,71.233.202.7,Mozilla/5.0 (Macintosh; Intel Mac OS X 10.13; rv:88.0) Gecko/20100101 Firefox/88.0,Macintosh,Firefox,88,OS X,10.13
98,1,null,"""",html-keyboard-response,278,498474,0.0-278.0,"""","<div style=""font-size:60px;"">+</div>","""",256,fixationBtwnNeutralMaskAndPrompt,Test,null,1000,"""","""","""","""","""","""","""","""",1,4/23/2021 3:00,71.233.202.7,Mozilla/5.0 (Macintosh; Intel Mac OS X 10.13; rv:88.0) Gecko/20100101 Firefox/88.0,Macintosh,Firefox,88,OS X,10.13
98,1,2019,"""",html-button-response,279,500494,0.0-279.0,"""","<img src='jspsych/CFDfaces/CFD-LF-210-220-N.jpg' height=""250px"">,</br><b>Kayla</b>",0,256,IntactOrRearranged,Test,"""","""","""","""",CFD-WM-032-001-N.jpg,Jacob,0,"""","""",0,1,4/23/2021 3:00,71.233.202.7,Mozilla/5.0 (Macintosh; Intel Mac OS X 10.13; rv:88.0) Gecko/20100101 Firefox/88.0,Macintosh,Firefox,88,OS X,10.13
98,1,2575,"""",html-slider-response,280,503072,0.0-280.0,"""","<img src='jspsych/CFDfaces/CFD-LF-210-220-N.jpg' height=""250px"">,</br><b>Kayla</b>","""",256,ConfidenceQuery,Test,"""","""","""","""",CFD-WM-032-001-N.jpg,Jacob,0,0,100,"""",1,4/23/2021 3:00,71.233.202.7,Mozilla/5.0 (Macintosh; Intel Mac OS X 10.13; rv:88.0) Gecko/20100101 Firefox/88.0,Macintosh,Firefox,88,OS X,10.13
98,1,null,"""",html-keyboard-response,281,504081,0.0-281.0,"""","<div style=""font-size:60px;"">+</div>","""",256,ITI,Test,null,1000,"""","""","""","""","""","""","""","""",1,4/23/2021 3:00,71.233.202.7,Mozilla/5.0 (Macintosh; Intel Mac OS X 10.13; rv:88.0) Gecko/20100101 Firefox/88.0,Macintosh,Firefox,88,OS X,10.13
98,1,null,"""",image-keyboard-response,282,504337,0.0-282.0,"""",jspsych/scrambledDisgustFaces/scrambledBF20DIS.JPG,"""",256,forwardMask,Test,null,250,"""",d,"""","""","""","""","""","""",1,4/23/2021 3:00,71.233.202.7,Mozilla/5.0 (Macintosh; Intel Mac OS X 10.13; rv:88.0) Gecko/20100101 Firefox/88.0,Macintosh,Firefox,88,OS X,10.13
98,1,null,"""",image-keyboard-response,283,504357,0.0-283.0,"""",jspsych/disgustFaces/BF20DIS.JPG,"""",256,Cue,Test,null,16,"""","""","""","""","""","""","""","""",1,4/23/2021 3:00,71.233.202.7,Mozilla/5.0 (Macintosh; Intel Mac OS X 10.13; rv:88.0) Gecko/20100101 Firefox/88.0,Macintosh,Firefox,88,OS X,10.13
98,1,null,"""",image-keyboard-response,284,504464,0.0-284.0,"""",jspsych/neutralFaces/AF06NES.JPG,"""",256,backwardMask,Test,null,100,"""","""","""","""","""","""","""","""",1,4/23/2021 3:00,71.233.202.7,Mozilla/5.0 (Macintosh; Intel Mac OS X 10.13; rv:88.0) Gecko/20100101 Firefox/88.0,Macintosh,Firefox,88,OS X,10.13
98,1,null,"""",html-keyboard-response,285,505469,0.0-285.0,"""","<div style=""font-size:60px;"">+</div>","""",256,fixationBtwnNeutralMaskAndPrompt,Test,null,1000,"""","""","""","""","""","""","""","""",1,4/23/2021 3:00,71.233.202.7,Mozilla/5.0 (Macintosh; Intel Mac OS X 10.13; rv:88.0) Gecko/20100101 Firefox/88.0,Macintosh,Firefox,88,OS X,10.13
98,1,2652,"""",html-button-response,286,508122,0.0-286.0,"""","<img src='jspsych/CFDfaces/CFD-AF-208-003-N.jpg' height=""250px"">,</br><b>Amanda</b>",1,256,IntactOrRearranged,Test,"""","""","""","""",CFD-BF-001-025-N.jpg,Jordan,1,"""","""",1,1,4/23/2021 3:00,71.233.202.7,Mozilla/5.0 (Macintosh; Intel Mac OS X 10.13; rv:88.0) Gecko/20100101 Firefox/88.0,Macintosh,Firefox,88,OS X,10.13
