run_id,condition,rt,responses,trial_type,trial_index,time_elapsed,internal_node_id,question_order,stimulus,button_pressed,iTrial,Phase,ExperimentPhase,key_press,StimulusDurationSetting,CharacterResponse,correctResponse,Face,Name,rearranged,didSubjectEnterRearranged,slider_start,response,Block,recorded_at,ip,user_agent,device,browser,browser_version,platform,platform_version
83,1,15160,"{""Q0"":""AR8MBLIMK5R0N""}",survey-text,0,15205,0.0-0.0,"""","""","""","""","""","""","""","""","""","""","""","""","""","""","""","""","""",4/21/2021 9:03,109.154.118.10,Mozilla/5.0 (Windows NT 10.0; Win64; x64; rv:87.0) Gecko/20100101 Firefox/87.0,,Firefox,87,Windows,10
83,1,3345,"{""Q0"":""30""}",survey-text,1,18565,0.0-1.0,"""","""","""","""","""","""","""","""","""","""","""","""","""","""","""","""","""",4/21/2021 9:03,109.154.118.10,Mozilla/5.0 (Windows NT 10.0; Win64; x64; rv:87.0) Gecko/20100101 Firefox/87.0,,Firefox,87,Windows,10
83,1,7302,"{""Q0"":""male"",""Q1"":""Not Hispanic/Latino"",""Q2"":""White or Caucasian""}",survey-multi-choice,2,25869,0.0-2.0,"[0,1,2]","""","""","""","""","""","""","""","""","""","""","""","""","""","""","""","""",4/21/2021 9:03,109.154.118.10,Mozilla/5.0 (Windows NT 10.0; Win64; x64; rv:87.0) Gecko/20100101 Firefox/87.0,,Firefox,87,Windows,10
83,1,19908,"""",image-button-response,3,46196,0.0-3.0,"""",directionsMemoryAssociation1.JPG,0,1,IntroDirections1,break,"""","""","""","""","""","""","""","""","""","""","""",4/21/2021 9:03,109.154.118.10,Mozilla/5.0 (Windows NT 10.0; Win64; x64; rv:87.0) Gecko/20100101 Firefox/87.0,,Firefox,87,Windows,10
83,1,26722,"""",image-button-response,4,72924,0.0-4.0,"""",directionsMemoryAssociation2.JPG,0,1,IntroDirections2,break,"""","""","""","""","""","""","""","""","""","""","""",4/21/2021 9:03,109.154.118.10,Mozilla/5.0 (Windows NT 10.0; Win64; x64; rv:87.0) Gecko/20100101 Firefox/87.0,,Firefox,87,Windows,10
83,1,4232,"""",html-keyboard-response,5,77933,0.0-5.0,"""","<img src='jspsych/CFDfaces/CFD-AF-226-251-N.jpg' height=""250px"">,</br><b>Shannon</b>","""",1,IntactFace,Practice,70,5000,f,"""","""","""","""","""","""","""","""",4/21/2021 9:03,109.154.118.10,Mozilla/5.0 (Windows NT 10.0; Win64; x64; rv:87.0) Gecko/20100101 Firefox/87.0,,Firefox,87,Windows,10
83,1,null,"""",html-keyboard-response,6,78435,0.0-6.0,"""","<div style=""font-size:60px;"">+</div>","""",1,ITI,Practice,null,1000,"""","""","""","""","""","""","""","""","""",4/21/2021 9:03,109.154.118.10,Mozilla/5.0 (Windows NT 10.0; Win64; x64; rv:87.0) Gecko/20100101 Firefox/87.0,,Firefox,87,Windows,10
83,1,2472,"""",html-keyboard-response,7,83439,0.0-7.0,"""","<img src='jspsych/CFDfaces/CFD-LF-239-148-N.jpg' height=""250px"">,</br><b>Tara</b>","""",2,IntactFace,Practice,78,5000,n,"""","""","""","""","""","""","""","""",4/21/2021 9:03,109.154.118.10,Mozilla/5.0 (Windows NT 10.0; Win64; x64; rv:87.0) Gecko/20100101 Firefox/87.0,,Firefox,87,Windows,10
83,1,null,"""",html-keyboard-response,8,83951,0.0-8.0,"""","<div style=""font-size:60px;"">+</div>","""",2,ITI,Practice,null,1000,"""","""","""","""","""","""","""","""","""",4/21/2021 9:03,109.154.118.10,Mozilla/5.0 (Windows NT 10.0; Win64; x64; rv:87.0) Gecko/20100101 Firefox/87.0,,Firefox,87,Windows,10
83,1,2156,"""",html-keyboard-response,9,88960,0.0-9.0,"""","<img src='jspsych/CFDfaces/CFD-BF-009-002-N.jpg' height=""250px"">,</br><b>Katelyn</b>","""",3,IntactFace,Practice,78,5000,n,"""","""","""","""","""","""","""","""",4/21/2021 9:03,109.154.118.10,Mozilla/5.0 (Windows NT 10.0; Win64; x64; rv:87.0) Gecko/20100101 Firefox/87.0,,Firefox,87,Windows,10
83,1,null,"""",html-keyboard-response,10,89465,0.0-10.0,"""","<div style=""font-size:60px;"">+</div>","""",3,ITI,Practice,null,1000,"""","""","""","""","""","""","""","""","""",4/21/2021 9:03,109.154.118.10,Mozilla/5.0 (Windows NT 10.0; Win64; x64; rv:87.0) Gecko/20100101 Firefox/87.0,,Firefox,87,Windows,10
83,1,3002,"""",html-keyboard-response,11,94468,0.0-11.0,"""","<img src='jspsych/CFDfaces/CFD-WF-019-005-N.jpg' height=""250px"">,</br><b>Cassandra</b>","""",4,IntactFace,Practice,78,5000,n,"""","""","""","""","""","""","""","""",4/21/2021 9:03,109.154.118.10,Mozilla/5.0 (Windows NT 10.0; Win64; x64; rv:87.0) Gecko/20100101 Firefox/87.0,,Firefox,87,Windows,10
83,1,null,"""",html-keyboard-response,12,94970,0.0-12.0,"""","<div style=""font-size:60px;"">+</div>","""",4,ITI,Practice,null,1000,"""","""","""","""","""","""","""","""","""",4/21/2021 9:03,109.154.118.10,Mozilla/5.0 (Windows NT 10.0; Win64; x64; rv:87.0) Gecko/20100101 Firefox/87.0,,Firefox,87,Windows,10
83,1,1362,"""",html-keyboard-response,13,99975,0.0-13.0,"""","<img src='jspsych/CFDfaces/CFD-BM-022-022-N.jpg' height=""250px"">,</br><b>Marcus</b>","""",5,IntactFace,Practice,70,5000,f,"""","""","""","""","""","""","""","""",4/21/2021 9:03,109.154.118.10,Mozilla/5.0 (Windows NT 10.0; Win64; x64; rv:87.0) Gecko/20100101 Firefox/87.0,,Firefox,87,Windows,10
83,1,null,"""",html-keyboard-response,14,100486,0.0-14.0,"""","<div style=""font-size:60px;"">+</div>","""",5,ITI,Practice,null,1000,"""","""","""","""","""","""","""","""","""",4/21/2021 9:03,109.154.118.10,Mozilla/5.0 (Windows NT 10.0; Win64; x64; rv:87.0) Gecko/20100101 Firefox/87.0,,Firefox,87,Windows,10
83,1,2762,"""",html-keyboard-response,15,105499,0.0-15.0,"""","<img src='jspsych/CFDfaces/CFD-BM-027-001-N.jpg' height=""250px"">,</br><b>Samuel</b>","""",6,IntactFace,Practice,70,5000,f,"""","""","""","""","""","""","""","""",4/21/2021 9:03,109.154.118.10,Mozilla/5.0 (Windows NT 10.0; Win64; x64; rv:87.0) Gecko/20100101 Firefox/87.0,,Firefox,87,Windows,10
83,1,null,"""",html-keyboard-response,16,106001,0.0-16.0,"""","<div style=""font-size:60px;"">+</div>","""",6,ITI,Practice,null,1000,"""","""","""","""","""","""","""","""","""",4/21/2021 9:03,109.154.118.10,Mozilla/5.0 (Windows NT 10.0; Win64; x64; rv:87.0) Gecko/20100101 Firefox/87.0,,Firefox,87,Windows,10
83,1,2362,"""",html-keyboard-response,17,111020,0.0-17.0,"""","<img src='jspsych/CFDfaces/CFD-LM-213-061-N.jpg' height=""250px"">,</br><b>Patrick</b>","""",7,IntactFace,Practice,78,5000,n,"""","""","""","""","""","""","""","""",4/21/2021 9:03,109.154.118.10,Mozilla/5.0 (Windows NT 10.0; Win64; x64; rv:87.0) Gecko/20100101 Firefox/87.0,,Firefox,87,Windows,10
83,1,null,"""",html-keyboard-response,18,111531,0.0-18.0,"""","<div style=""font-size:60px;"">+</div>","""",7,ITI,Practice,null,1000,"""","""","""","""","""","""","""","""","""",4/21/2021 9:03,109.154.118.10,Mozilla/5.0 (Windows NT 10.0; Win64; x64; rv:87.0) Gecko/20100101 Firefox/87.0,,Firefox,87,Windows,10
83,1,2265,"""",html-keyboard-response,19,116540,0.0-19.0,"""","<img src='jspsych/CFDfaces/CFD-LM-200-045-N.jpg' height=""250px"">,</br><b>Carlos</b>","""",8,IntactFace,Practice,70,5000,f,"""","""","""","""","""","""","""","""",4/21/2021 9:03,109.154.118.10,Mozilla/5.0 (Windows NT 10.0; Win64; x64; rv:87.0) Gecko/20100101 Firefox/87.0,,Firefox,87,Windows,10
83,1,null,"""",html-keyboard-response,20,117047,0.0-20.0,"""","<div style=""font-size:60px;"">+</div>","""",8,ITI,Practice,null,1000,"""","""","""","""","""","""","""","""","""",4/21/2021 9:03,109.154.118.10,Mozilla/5.0 (Windows NT 10.0; Win64; x64; rv:87.0) Gecko/20100101 Firefox/87.0,,Firefox,87,Windows,10
83,1,47173,"""",image-button-response,21,164227,0.0-21.0,"""",directionsForTest.JPG,0,1,directionsForTest,break,"""","""","""","""","""","""","""","""","""","""","""",4/21/2021 9:03,109.154.118.10,Mozilla/5.0 (Windows NT 10.0; Win64; x64; rv:87.0) Gecko/20100101 Firefox/87.0,,Firefox,87,Windows,10
83,1,11800,"""",image-button-response,22,176036,0.0-22.0,"""",directionsForTest2.JPG,0,1,directionsForTest2,break,"""","""","""","""","""","""","""","""","""","""","""",4/21/2021 9:03,109.154.118.10,Mozilla/5.0 (Windows NT 10.0; Win64; x64; rv:87.0) Gecko/20100101 Firefox/87.0,,Firefox,87,Windows,10
83,1,null,"""",html-keyboard-response,23,177041,0.0-23.0,"""","<div style=""font-size:60px;"">+</div>","""",1,ITI,Practice,null,1000,"""","""","""","""","""","""","""","""","""",4/21/2021 9:03,109.154.118.10,Mozilla/5.0 (Windows NT 10.0; Win64; x64; rv:87.0) Gecko/20100101 Firefox/87.0,,Firefox,87,Windows,10
83,1,null,"""",image-keyboard-response,24,177295,0.0-24.0,"""",jspsych/scrambledDisgustFaces/scrambledAM06DIS.JPG,"""",1,forwardMask,Practice,null,250,"""",d,"""","""","""","""","""","""","""",4/21/2021 9:03,109.154.118.10,Mozilla/5.0 (Windows NT 10.0; Win64; x64; rv:87.0) Gecko/20100101 Firefox/87.0,,Firefox,87,Windows,10
83,1,null,"""",image-keyboard-response,25,177327,0.0-25.0,"""",jspsych/disgustFaces/AM06DIS.JPG,"""",1,Cue,Practice,null,16,"""","""","""","""","""","""","""","""","""",4/21/2021 9:03,109.154.118.10,Mozilla/5.0 (Windows NT 10.0; Win64; x64; rv:87.0) Gecko/20100101 Firefox/87.0,,Firefox,87,Windows,10
83,1,null,"""",image-keyboard-response,26,177437,0.0-26.0,"""",jspsych/neutralFaces/BM02NES.JPG,"""",1,backwardMask,Practice,null,100,"""","""","""","""","""","""","""","""","""",4/21/2021 9:03,109.154.118.10,Mozilla/5.0 (Windows NT 10.0; Win64; x64; rv:87.0) Gecko/20100101 Firefox/87.0,,Firefox,87,Windows,10
83,1,null,"""",html-keyboard-response,27,178451,0.0-27.0,"""","<div style=""font-size:60px;"">+</div>","""",1,fixationBtwnNeutralMaskAndPrompt,Practice,null,1000,"""","""","""","""","""","""","""","""","""",4/21/2021 9:03,109.154.118.10,Mozilla/5.0 (Windows NT 10.0; Win64; x64; rv:87.0) Gecko/20100101 Firefox/87.0,,Firefox,87,Windows,10
83,1,3024,"""",html-button-response,28,181475,0.0-28.0,"""","<img src='jspsych/CFDfaces/CFD-BM-022-022-N.jpg'height=""250px""></br><b>Carlos</b>",1,1,IntactOrRearranged,Practice,"""","""","""","""",CFD-BM-022-022-N.jpg,Carlos,1,1,"""","""","""",4/21/2021 9:03,109.154.118.10,Mozilla/5.0 (Windows NT 10.0; Win64; x64; rv:87.0) Gecko/20100101 Firefox/87.0,,Firefox,87,Windows,10
83,1,4078,"""",html-slider-response,29,185667,0.0-29.0,"""","<img src='jspsych/CFDfaces/CFD-BM-022-022-N.jpg'height=""250px""></br><b>Carlos</b>","""",1,ConfidenceQuery,Practice,"""","""","""","""",CFD-AF-215-70-N.jpg,Melissa,1,"""",0,100,"""",4/21/2021 9:03,109.154.118.10,Mozilla/5.0 (Windows NT 10.0; Win64; x64; rv:87.0) Gecko/20100101 Firefox/87.0,,Firefox,87,Windows,10
83,1,1798,"""",html-button-response,30,187468,0.0-30.0,"""",You are Correct. You Called A Rearranged Pair Rearranged,0,1,feedback,Practice,"""","""","""","""","""","""","""","""","""","""","""",4/21/2021 9:03,109.154.118.10,Mozilla/5.0 (Windows NT 10.0; Win64; x64; rv:87.0) Gecko/20100101 Firefox/87.0,,Firefox,87,Windows,10
83,1,null,"""",html-keyboard-response,31,188484,0.0-31.0,"""","<div style=""font-size:60px;"">+</div>","""",2,ITI,Practice,null,1000,"""","""","""","""","""","""","""","""","""",4/21/2021 9:03,109.154.118.10,Mozilla/5.0 (Windows NT 10.0; Win64; x64; rv:87.0) Gecko/20100101 Firefox/87.0,,Firefox,87,Windows,10
83,1,null,"""",image-keyboard-response,32,188751,0.0-32.0,"""",jspsych/scrambledNeutralFaces/scrambledAF26NES.JPG,"""",2,forwardMask,Practice,null,250,"""",n,"""","""","""","""","""","""","""",4/21/2021 9:03,109.154.118.10,Mozilla/5.0 (Windows NT 10.0; Win64; x64; rv:87.0) Gecko/20100101 Firefox/87.0,,Firefox,87,Windows,10
83,1,null,"""",image-keyboard-response,33,188783,0.0-33.0,"""",jspsych/neutralFaces/AF26NES.JPG,"""",2,Cue,Practice,null,16,"""","""","""","""","""","""","""","""","""",4/21/2021 9:03,109.154.118.10,Mozilla/5.0 (Windows NT 10.0; Win64; x64; rv:87.0) Gecko/20100101 Firefox/87.0,,Firefox,87,Windows,10
83,1,null,"""",image-keyboard-response,34,188893,0.0-34.0,"""",jspsych/neutralFaces/AF02NES.JPG,"""",2,backwardMask,Practice,null,100,"""","""","""","""","""","""","""","""","""",4/21/2021 9:03,109.154.118.10,Mozilla/5.0 (Windows NT 10.0; Win64; x64; rv:87.0) Gecko/20100101 Firefox/87.0,,Firefox,87,Windows,10
83,1,null,"""",html-keyboard-response,35,189898,0.0-35.0,"""","<div style=""font-size:60px;"">+</div>","""",2,fixationBtwnNeutralMaskAndPrompt,Practice,null,1000,"""","""","""","""","""","""","""","""","""",4/21/2021 9:03,109.154.118.10,Mozilla/5.0 (Windows NT 10.0; Win64; x64; rv:87.0) Gecko/20100101 Firefox/87.0,,Firefox,87,Windows,10
83,1,2768,"""",html-button-response,36,192668,0.0-36.0,"""","<img src='jspsych/CFDfaces/CFD-WF-019-005-N.jpg'height=""250px""></br><b>Katelyn</b>",1,2,IntactOrRearranged,Practice,"""","""","""","""",CFD-WF-019-005-N.jpg,Katelyn,1,1,"""","""","""",4/21/2021 9:03,109.154.118.10,Mozilla/5.0 (Windows NT 10.0; Win64; x64; rv:87.0) Gecko/20100101 Firefox/87.0,,Firefox,87,Windows,10
83,1,2483,"""",html-slider-response,37,195156,0.0-37.0,"""","<img src='jspsych/CFDfaces/CFD-WF-019-005-N.jpg'height=""250px""></br><b>Katelyn</b>","""",2,ConfidenceQuery,Practice,"""","""","""","""",CFD-AF-215-70-N.jpg,Melissa,1,"""",0,100,"""",4/21/2021 9:03,109.154.118.10,Mozilla/5.0 (Windows NT 10.0; Win64; x64; rv:87.0) Gecko/20100101 Firefox/87.0,,Firefox,87,Windows,10
83,1,1326,"""",html-button-response,38,196484,0.0-38.0,"""",You are Correct. You Called A Rearranged Pair Rearranged,0,2,feedback,Practice,"""","""","""","""","""","""","""","""","""","""","""",4/21/2021 9:03,109.154.118.10,Mozilla/5.0 (Windows NT 10.0; Win64; x64; rv:87.0) Gecko/20100101 Firefox/87.0,,Firefox,87,Windows,10
83,1,null,"""",html-keyboard-response,39,197485,0.0-39.0,"""","<div style=""font-size:60px;"">+</div>","""",3,ITI,Practice,null,1000,"""","""","""","""","""","""","""","""","""",4/21/2021 9:03,109.154.118.10,Mozilla/5.0 (Windows NT 10.0; Win64; x64; rv:87.0) Gecko/20100101 Firefox/87.0,,Firefox,87,Windows,10
83,1,null,"""",image-keyboard-response,40,197738,0.0-40.0,"""",jspsych/scrambledDisgustFaces/scrambledBM04DIS.JPG,"""",3,forwardMask,Practice,null,250,"""",d,"""","""","""","""","""","""","""",4/21/2021 9:03,109.154.118.10,Mozilla/5.0 (Windows NT 10.0; Win64; x64; rv:87.0) Gecko/20100101 Firefox/87.0,,Firefox,87,Windows,10
83,1,null,"""",image-keyboard-response,41,197768,0.0-41.0,"""",jspsych/disgustFaces/BM05DIS.JPG,"""",3,Cue,Practice,null,16,"""","""","""","""","""","""","""","""","""",4/21/2021 9:03,109.154.118.10,Mozilla/5.0 (Windows NT 10.0; Win64; x64; rv:87.0) Gecko/20100101 Firefox/87.0,,Firefox,87,Windows,10
83,1,null,"""",image-keyboard-response,42,197878,0.0-42.0,"""",jspsych/neutralFaces/AM13NES.JPG,"""",3,backwardMask,Practice,null,100,"""","""","""","""","""","""","""","""","""",4/21/2021 9:03,109.154.118.10,Mozilla/5.0 (Windows NT 10.0; Win64; x64; rv:87.0) Gecko/20100101 Firefox/87.0,,Firefox,87,Windows,10
83,1,null,"""",html-keyboard-response,43,198886,0.0-43.0,"""","<div style=""font-size:60px;"">+</div>","""",3,fixationBtwnNeutralMaskAndPrompt,Practice,null,1000,"""","""","""","""","""","""","""","""","""",4/21/2021 9:03,109.154.118.10,Mozilla/5.0 (Windows NT 10.0; Win64; x64; rv:87.0) Gecko/20100101 Firefox/87.0,,Firefox,87,Windows,10
83,1,2373,"""",html-button-response,44,201260,0.0-44.0,"""","<img src='jspsych/CFDfaces/CFD-LF-239-148-N.jpg'height=""250px""></br><b>Tara</b>",0,3,IntactOrRearranged,Practice,"""","""","""","""",CFD-LF-239-148-N.jpg,Tara,0,0,"""","""","""",4/21/2021 9:03,109.154.118.10,Mozilla/5.0 (Windows NT 10.0; Win64; x64; rv:87.0) Gecko/20100101 Firefox/87.0,,Firefox,87,Windows,10
83,1,2478,"""",html-slider-response,45,203740,0.0-45.0,"""","<img src='jspsych/CFDfaces/CFD-LF-239-148-N.jpg'height=""250px""></br><b>Tara</b>","""",3,ConfidenceQuery,Practice,"""","""","""","""",CFD-AF-215-70-N.jpg,Melissa,0,"""",0,100,"""",4/21/2021 9:03,109.154.118.10,Mozilla/5.0 (Windows NT 10.0; Win64; x64; rv:87.0) Gecko/20100101 Firefox/87.0,,Firefox,87,Windows,10
83,1,1356,"""",html-button-response,46,205099,0.0-46.0,"""",You are Correct. You called an Intact Pair Intact,0,3,feedback,Practice,"""","""","""","""","""","""","""","""","""","""","""",4/21/2021 9:03,109.154.118.10,Mozilla/5.0 (Windows NT 10.0; Win64; x64; rv:87.0) Gecko/20100101 Firefox/87.0,,Firefox,87,Windows,10
83,1,null,"""",html-keyboard-response,47,206101,0.0-47.0,"""","<div style=""font-size:60px;"">+</div>","""",4,ITI,Practice,null,1000,"""","""","""","""","""","""","""","""","""",4/21/2021 9:03,109.154.118.10,Mozilla/5.0 (Windows NT 10.0; Win64; x64; rv:87.0) Gecko/20100101 Firefox/87.0,,Firefox,87,Windows,10
83,1,null,"""",image-keyboard-response,48,206363,0.0-48.0,"""",jspsych/scrambledNeutralFaces/scrambledBF21NES.JPG,"""",4,forwardMask,Practice,null,250,"""",n,"""","""","""","""","""","""","""",4/21/2021 9:03,109.154.118.10,Mozilla/5.0 (Windows NT 10.0; Win64; x64; rv:87.0) Gecko/20100101 Firefox/87.0,,Firefox,87,Windows,10
83,1,null,"""",image-keyboard-response,49,206395,0.0-49.0,"""",jspsych/neutralFaces/BF21NES.JPG,"""",4,Cue,Practice,null,16,"""","""","""","""","""","""","""","""","""",4/21/2021 9:03,109.154.118.10,Mozilla/5.0 (Windows NT 10.0; Win64; x64; rv:87.0) Gecko/20100101 Firefox/87.0,,Firefox,87,Windows,10
83,1,null,"""",image-keyboard-response,50,206506,0.0-50.0,"""",jspsych/neutralFaces/BF11NES.JPG,"""",4,backwardMask,Practice,null,100,"""","""","""","""","""","""","""","""","""",4/21/2021 9:03,109.154.118.10,Mozilla/5.0 (Windows NT 10.0; Win64; x64; rv:87.0) Gecko/20100101 Firefox/87.0,,Firefox,87,Windows,10
83,1,null,"""",html-keyboard-response,51,207511,0.0-51.0,"""","<div style=""font-size:60px;"">+</div>","""",4,fixationBtwnNeutralMaskAndPrompt,Practice,null,1000,"""","""","""","""","""","""","""","""","""",4/21/2021 9:03,109.154.118.10,Mozilla/5.0 (Windows NT 10.0; Win64; x64; rv:87.0) Gecko/20100101 Firefox/87.0,,Firefox,87,Windows,10
83,1,3051,"""",html-button-response,52,210564,0.0-52.0,"""","<img src='jspsych/CFDfaces/CFD-LM-213-061-N.jpg'height=""250px""></br><b>Patrick</b>",0,4,IntactOrRearranged,Practice,"""","""","""","""",CFD-LM-213-061-N.jpg,Patrick,0,0,"""","""","""",4/21/2021 9:03,109.154.118.10,Mozilla/5.0 (Windows NT 10.0; Win64; x64; rv:87.0) Gecko/20100101 Firefox/87.0,,Firefox,87,Windows,10
83,1,2844,"""",html-slider-response,53,213412,0.0-53.0,"""","<img src='jspsych/CFDfaces/CFD-LM-213-061-N.jpg'height=""250px""></br><b>Patrick</b>","""",4,ConfidenceQuery,Practice,"""","""","""","""",CFD-AF-215-70-N.jpg,Melissa,0,"""",0,82,"""",4/21/2021 9:03,109.154.118.10,Mozilla/5.0 (Windows NT 10.0; Win64; x64; rv:87.0) Gecko/20100101 Firefox/87.0,,Firefox,87,Windows,10
83,1,1423,"""",html-button-response,54,214835,0.0-54.0,"""",You are Correct. You called an Intact Pair Intact,0,4,feedback,Practice,"""","""","""","""","""","""","""","""","""","""","""",4/21/2021 9:03,109.154.118.10,Mozilla/5.0 (Windows NT 10.0; Win64; x64; rv:87.0) Gecko/20100101 Firefox/87.0,,Firefox,87,Windows,10
83,1,null,"""",html-keyboard-response,55,215847,0.0-55.0,"""","<div style=""font-size:60px;"">+</div>","""",5,ITI,Practice,null,1000,"""","""","""","""","""","""","""","""","""",4/21/2021 9:03,109.154.118.10,Mozilla/5.0 (Windows NT 10.0; Win64; x64; rv:87.0) Gecko/20100101 Firefox/87.0,,Firefox,87,Windows,10
83,1,null,"""",image-keyboard-response,56,216116,0.0-56.0,"""",jspsych/scrambledNeutralFaces/scrambledBF19NES.JPG,"""",5,forwardMask,Practice,null,250,"""",n,"""","""","""","""","""","""","""",4/21/2021 9:03,109.154.118.10,Mozilla/5.0 (Windows NT 10.0; Win64; x64; rv:87.0) Gecko/20100101 Firefox/87.0,,Firefox,87,Windows,10
83,1,null,"""",image-keyboard-response,57,216135,0.0-57.0,"""",jspsych/neutralFaces/BF19NES.JPG,"""",5,Cue,Practice,null,16,"""","""","""","""","""","""","""","""","""",4/21/2021 9:03,109.154.118.10,Mozilla/5.0 (Windows NT 10.0; Win64; x64; rv:87.0) Gecko/20100101 Firefox/87.0,,Firefox,87,Windows,10
83,1,null,"""",image-keyboard-response,58,216242,0.0-58.0,"""",jspsych/neutralFaces/AF02NES.JPG,"""",5,backwardMask,Practice,null,100,"""","""","""","""","""","""","""","""","""",4/21/2021 9:03,109.154.118.10,Mozilla/5.0 (Windows NT 10.0; Win64; x64; rv:87.0) Gecko/20100101 Firefox/87.0,,Firefox,87,Windows,10
83,1,null,"""",html-keyboard-response,59,217257,0.0-59.0,"""","<div style=""font-size:60px;"">+</div>","""",5,fixationBtwnNeutralMaskAndPrompt,Practice,null,1000,"""","""","""","""","""","""","""","""","""",4/21/2021 9:03,109.154.118.10,Mozilla/5.0 (Windows NT 10.0; Win64; x64; rv:87.0) Gecko/20100101 Firefox/87.0,,Firefox,87,Windows,10
83,1,1513,"""",html-button-response,60,218771,0.0-60.0,"""","<img src='jspsych/CFDfaces/CFD-AF-226-251-N.jpg'height=""250px""></br><b>Shannon</b>",0,5,IntactOrRearranged,Practice,"""","""","""","""",CFD-AF-226-251-N.jpg,Shannon,0,0,"""","""","""",4/21/2021 9:03,109.154.118.10,Mozilla/5.0 (Windows NT 10.0; Win64; x64; rv:87.0) Gecko/20100101 Firefox/87.0,,Firefox,87,Windows,10
83,1,2271,"""",html-slider-response,61,221044,0.0-61.0,"""","<img src='jspsych/CFDfaces/CFD-AF-226-251-N.jpg'height=""250px""></br><b>Shannon</b>","""",5,ConfidenceQuery,Practice,"""","""","""","""",CFD-AF-215-70-N.jpg,Melissa,0,"""",0,100,"""",4/21/2021 9:03,109.154.118.10,Mozilla/5.0 (Windows NT 10.0; Win64; x64; rv:87.0) Gecko/20100101 Firefox/87.0,,Firefox,87,Windows,10
83,1,1301,"""",html-button-response,62,222348,0.0-62.0,"""",You are Correct. You called an Intact Pair Intact,0,5,feedback,Practice,"""","""","""","""","""","""","""","""","""","""","""",4/21/2021 9:03,109.154.118.10,Mozilla/5.0 (Windows NT 10.0; Win64; x64; rv:87.0) Gecko/20100101 Firefox/87.0,,Firefox,87,Windows,10
83,1,null,"""",html-keyboard-response,63,223351,0.0-63.0,"""","<div style=""font-size:60px;"">+</div>","""",6,ITI,Practice,null,1000,"""","""","""","""","""","""","""","""","""",4/21/2021 9:03,109.154.118.10,Mozilla/5.0 (Windows NT 10.0; Win64; x64; rv:87.0) Gecko/20100101 Firefox/87.0,,Firefox,87,Windows,10
83,1,null,"""",image-keyboard-response,64,223603,0.0-64.0,"""",jspsych/scrambledDisgustFaces/scrambledAF30DIS.JPG,"""",6,forwardMask,Practice,null,250,"""",d,"""","""","""","""","""","""","""",4/21/2021 9:03,109.154.118.10,Mozilla/5.0 (Windows NT 10.0; Win64; x64; rv:87.0) Gecko/20100101 Firefox/87.0,,Firefox,87,Windows,10
83,1,null,"""",image-keyboard-response,65,223621,0.0-65.0,"""",jspsych/disgustFaces/AF30DIS.JPG,"""",6,Cue,Practice,null,16,"""","""","""","""","""","""","""","""","""",4/21/2021 9:03,109.154.118.10,Mozilla/5.0 (Windows NT 10.0; Win64; x64; rv:87.0) Gecko/20100101 Firefox/87.0,,Firefox,87,Windows,10
83,1,null,"""",image-keyboard-response,66,223733,0.0-66.0,"""",jspsych/neutralFaces/AF29NES.JPG,"""",6,backwardMask,Practice,null,100,"""","""","""","""","""","""","""","""","""",4/21/2021 9:03,109.154.118.10,Mozilla/5.0 (Windows NT 10.0; Win64; x64; rv:87.0) Gecko/20100101 Firefox/87.0,,Firefox,87,Windows,10
83,1,null,"""",html-keyboard-response,67,224747,0.0-67.0,"""","<div style=""font-size:60px;"">+</div>","""",6,fixationBtwnNeutralMaskAndPrompt,Practice,null,1000,"""","""","""","""","""","""","""","""","""",4/21/2021 9:03,109.154.118.10,Mozilla/5.0 (Windows NT 10.0; Win64; x64; rv:87.0) Gecko/20100101 Firefox/87.0,,Firefox,87,Windows,10
83,1,2015,"""",html-button-response,68,226764,0.0-68.0,"""","<img src='jspsych/CFDfaces/CFD-BM-027-001-N.jpg'height=""250px""></br><b>Samuel</b>",0,6,IntactOrRearranged,Practice,"""","""","""","""",CFD-BM-027-001-N.jpg,Samuel,0,0,"""","""","""",4/21/2021 9:03,109.154.118.10,Mozilla/5.0 (Windows NT 10.0; Win64; x64; rv:87.0) Gecko/20100101 Firefox/87.0,,Firefox,87,Windows,10
83,1,2292,"""",html-slider-response,69,229059,0.0-69.0,"""","<img src='jspsych/CFDfaces/CFD-BM-027-001-N.jpg'height=""250px""></br><b>Samuel</b>","""",6,ConfidenceQuery,Practice,"""","""","""","""",CFD-AF-215-70-N.jpg,Melissa,0,"""",0,100,"""",4/21/2021 9:03,109.154.118.10,Mozilla/5.0 (Windows NT 10.0; Win64; x64; rv:87.0) Gecko/20100101 Firefox/87.0,,Firefox,87,Windows,10
83,1,1246,"""",html-button-response,70,230307,0.0-70.0,"""",You are Correct. You called an Intact Pair Intact,0,6,feedback,Practice,"""","""","""","""","""","""","""","""","""","""","""",4/21/2021 9:03,109.154.118.10,Mozilla/5.0 (Windows NT 10.0; Win64; x64; rv:87.0) Gecko/20100101 Firefox/87.0,,Firefox,87,Windows,10
83,1,null,"""",html-keyboard-response,71,231316,0.0-71.0,"""","<div style=""font-size:60px;"">+</div>","""",7,ITI,Practice,null,1000,"""","""","""","""","""","""","""","""","""",4/21/2021 9:03,109.154.118.10,Mozilla/5.0 (Windows NT 10.0; Win64; x64; rv:87.0) Gecko/20100101 Firefox/87.0,,Firefox,87,Windows,10
83,1,null,"""",image-keyboard-response,72,231572,0.0-72.0,"""",jspsych/scrambledDisgustFaces/scrambledBF25DIS.JPG,"""",7,forwardMask,Practice,null,250,"""",d,"""","""","""","""","""","""","""",4/21/2021 9:03,109.154.118.10,Mozilla/5.0 (Windows NT 10.0; Win64; x64; rv:87.0) Gecko/20100101 Firefox/87.0,,Firefox,87,Windows,10
83,1,null,"""",image-keyboard-response,73,231592,0.0-73.0,"""",jspsych/disgustFaces/BF25DIS.JPG,"""",7,Cue,Practice,null,16,"""","""","""","""","""","""","""","""","""",4/21/2021 9:03,109.154.118.10,Mozilla/5.0 (Windows NT 10.0; Win64; x64; rv:87.0) Gecko/20100101 Firefox/87.0,,Firefox,87,Windows,10
83,1,null,"""",image-keyboard-response,74,231705,0.0-74.0,"""",jspsych/neutralFaces/AF04NES.JPG,"""",7,backwardMask,Practice,null,100,"""","""","""","""","""","""","""","""","""",4/21/2021 9:03,109.154.118.10,Mozilla/5.0 (Windows NT 10.0; Win64; x64; rv:87.0) Gecko/20100101 Firefox/87.0,,Firefox,87,Windows,10
83,1,null,"""",html-keyboard-response,75,232710,0.0-75.0,"""","<div style=""font-size:60px;"">+</div>","""",7,fixationBtwnNeutralMaskAndPrompt,Practice,null,1000,"""","""","""","""","""","""","""","""","""",4/21/2021 9:03,109.154.118.10,Mozilla/5.0 (Windows NT 10.0; Win64; x64; rv:87.0) Gecko/20100101 Firefox/87.0,,Firefox,87,Windows,10
83,1,1738,"""",html-button-response,76,234451,0.0-76.0,"""","<img src='jspsych/CFDfaces/CFD-LM-200-045-N.jpg'height=""250px""></br><b>Marcus</b>",1,7,IntactOrRearranged,Practice,"""","""","""","""",CFD-LM-200-045-N.jpg,Marcus,1,1,"""","""","""",4/21/2021 9:03,109.154.118.10,Mozilla/5.0 (Windows NT 10.0; Win64; x64; rv:87.0) Gecko/20100101 Firefox/87.0,,Firefox,87,Windows,10
83,1,2070,"""",html-slider-response,77,236524,0.0-77.0,"""","<img src='jspsych/CFDfaces/CFD-LM-200-045-N.jpg'height=""250px""></br><b>Marcus</b>","""",7,ConfidenceQuery,Practice,"""","""","""","""",CFD-AF-215-70-N.jpg,Melissa,1,"""",0,100,"""",4/21/2021 9:03,109.154.118.10,Mozilla/5.0 (Windows NT 10.0; Win64; x64; rv:87.0) Gecko/20100101 Firefox/87.0,,Firefox,87,Windows,10
83,1,1471,"""",html-button-response,78,237995,0.0-78.0,"""",You are Correct. You Called A Rearranged Pair Rearranged,0,7,feedback,Practice,"""","""","""","""","""","""","""","""","""","""","""",4/21/2021 9:03,109.154.118.10,Mozilla/5.0 (Windows NT 10.0; Win64; x64; rv:87.0) Gecko/20100101 Firefox/87.0,,Firefox,87,Windows,10
83,1,null,"""",html-keyboard-response,79,239009,0.0-79.0,"""","<div style=""font-size:60px;"">+</div>","""",8,ITI,Practice,null,1000,"""","""","""","""","""","""","""","""","""",4/21/2021 9:03,109.154.118.10,Mozilla/5.0 (Windows NT 10.0; Win64; x64; rv:87.0) Gecko/20100101 Firefox/87.0,,Firefox,87,Windows,10
83,1,null,"""",image-keyboard-response,80,239263,0.0-80.0,"""",jspsych/scrambledNeutralFaces/scrambledAM27NES.JPG,"""",8,forwardMask,Practice,null,250,"""",n,"""","""","""","""","""","""","""",4/21/2021 9:03,109.154.118.10,Mozilla/5.0 (Windows NT 10.0; Win64; x64; rv:87.0) Gecko/20100101 Firefox/87.0,,Firefox,87,Windows,10
83,1,null,"""",image-keyboard-response,81,239295,0.0-81.0,"""",jspsych/neutralFaces/AM27NES.JPG,"""",8,Cue,Practice,null,16,"""","""","""","""","""","""","""","""","""",4/21/2021 9:03,109.154.118.10,Mozilla/5.0 (Windows NT 10.0; Win64; x64; rv:87.0) Gecko/20100101 Firefox/87.0,,Firefox,87,Windows,10
83,1,null,"""",image-keyboard-response,82,239403,0.0-82.0,"""",jspsych/neutralFaces/AM33NES.JPG,"""",8,backwardMask,Practice,null,100,"""","""","""","""","""","""","""","""","""",4/21/2021 9:03,109.154.118.10,Mozilla/5.0 (Windows NT 10.0; Win64; x64; rv:87.0) Gecko/20100101 Firefox/87.0,,Firefox,87,Windows,10
83,1,null,"""",html-keyboard-response,83,240414,0.0-83.0,"""","<div style=""font-size:60px;"">+</div>","""",8,fixationBtwnNeutralMaskAndPrompt,Practice,null,1000,"""","""","""","""","""","""","""","""","""",4/21/2021 9:03,109.154.118.10,Mozilla/5.0 (Windows NT 10.0; Win64; x64; rv:87.0) Gecko/20100101 Firefox/87.0,,Firefox,87,Windows,10
83,1,1972,"""",html-button-response,84,242387,0.0-84.0,"""","<img src='jspsych/CFDfaces/CFD-BF-009-002-N.jpg'height=""250px""></br><b>Cassandra</b>",1,8,IntactOrRearranged,Practice,"""","""","""","""",CFD-BF-009-002-N.jpg,Cassandra,1,1,"""","""","""",4/21/2021 9:03,109.154.118.10,Mozilla/5.0 (Windows NT 10.0; Win64; x64; rv:87.0) Gecko/20100101 Firefox/87.0,,Firefox,87,Windows,10
83,1,2021,"""",html-slider-response,85,244412,0.0-85.0,"""","<img src='jspsych/CFDfaces/CFD-BF-009-002-N.jpg'height=""250px""></br><b>Cassandra</b>","""",8,ConfidenceQuery,Practice,"""","""","""","""",CFD-AF-215-70-N.jpg,Melissa,1,"""",0,100,"""",4/21/2021 9:03,109.154.118.10,Mozilla/5.0 (Windows NT 10.0; Win64; x64; rv:87.0) Gecko/20100101 Firefox/87.0,,Firefox,87,Windows,10
83,1,1028,"""",html-button-response,86,245443,0.0-86.0,"""",You are Correct. You Called A Rearranged Pair Rearranged,0,8,feedback,Practice,"""","""","""","""","""","""","""","""","""","""","""",4/21/2021 9:03,109.154.118.10,Mozilla/5.0 (Windows NT 10.0; Win64; x64; rv:87.0) Gecko/20100101 Firefox/87.0,,Firefox,87,Windows,10
83,1,12146,"""",image-button-response,87,257596,0.0-87.0,"""",directionsMemoryAssociation3.JPG,0,128,DirectionsBeforeActualTEst,Break,"""","""","""","""","""","""","""","""","""","""","""",4/21/2021 9:03,109.154.118.10,Mozilla/5.0 (Windows NT 10.0; Win64; x64; rv:87.0) Gecko/20100101 Firefox/87.0,,Firefox,87,Windows,10
83,1,4492,"""",image-button-response,88,262091,0.0-88.0,"""",directionsForTest2.JPG,0,1,directionsForTest2,break,"""","""","""","""","""","""","""","""","""","""","""",4/21/2021 9:03,109.154.118.10,Mozilla/5.0 (Windows NT 10.0; Win64; x64; rv:87.0) Gecko/20100101 Firefox/87.0,,Firefox,87,Windows,10
83,1,13663,"""",html-button-response,89,275756,0.0-89.0,"""","<p>You will be asked to memorize and then recall four sets of face-name pairs. </p> <p> Each set will have 32 pairs. </p> <p>After the fourth set, there will be a brief follow-up experiment (<40 min alltogether)</p>",0,"""","""","""","""","""","""","""","""","""","""","""","""","""","""",4/21/2021 9:03,109.154.118.10,Mozilla/5.0 (Windows NT 10.0; Win64; x64; rv:87.0) Gecko/20100101 Firefox/87.0,,Firefox,87,Windows,10
83,1,2535,"""",html-keyboard-response,90,280775,0.0-90.0,"""","<img src='jspsych/CFDfaces/CFD-AF-222-134-N.jpg' height=""250px""></br><b>Victoria</b>","""",256,IntactFace,Memorization,78,5000,n,"""",CFD-WM-009-002-N.jpg,Jesse,0,"""","""","""",1,4/21/2021 9:03,109.154.118.10,Mozilla/5.0 (Windows NT 10.0; Win64; x64; rv:87.0) Gecko/20100101 Firefox/87.0,,Firefox,87,Windows,10
83,1,null,"""",html-keyboard-response,91,281282,0.0-91.0,"""","<div style=""font-size:60px;"">+</div>","""",256,fixation,Memorization,null,500,"""","""","""","""","""","""","""","""",1,4/21/2021 9:03,109.154.118.10,Mozilla/5.0 (Windows NT 10.0; Win64; x64; rv:87.0) Gecko/20100101 Firefox/87.0,,Firefox,87,Windows,10
83,1,2711,"""",html-keyboard-response,92,286288,0.0-92.0,"""","<img src='jspsych/CFDfaces/CFD-LF-204-133-N.jpg' height=""250px""></br><b>Meghan</b>","""",256,IntactFace,Memorization,70,5000,f,"""",CFD-LM-252-076-N.jpg,Timothy,0,"""","""","""",1,4/21/2021 9:03,109.154.118.10,Mozilla/5.0 (Windows NT 10.0; Win64; x64; rv:87.0) Gecko/20100101 Firefox/87.0,,Firefox,87,Windows,10
83,1,null,"""",html-keyboard-response,93,286799,0.0-93.0,"""","<div style=""font-size:60px;"">+</div>","""",256,fixation,Memorization,null,500,"""","""","""","""","""","""","""","""",1,4/21/2021 9:03,109.154.118.10,Mozilla/5.0 (Windows NT 10.0; Win64; x64; rv:87.0) Gecko/20100101 Firefox/87.0,,Firefox,87,Windows,10
83,1,1706,"""",html-keyboard-response,94,291815,0.0-94.0,"""","<img src='jspsych/CFDfaces/CFD-LF-205-100-N.jpg' height=""250px""></br><b>Vanessa</b>","""",256,IntactFace,Memorization,70,5000,f,"""",CFD-LM-219-295-N.jpg,Sean,0,"""","""","""",1,4/21/2021 9:03,109.154.118.10,Mozilla/5.0 (Windows NT 10.0; Win64; x64; rv:87.0) Gecko/20100101 Firefox/87.0,,Firefox,87,Windows,10
83,1,null,"""",html-keyboard-response,95,292330,0.0-95.0,"""","<div style=""font-size:60px;"">+</div>","""",256,fixation,Memorization,null,500,"""","""","""","""","""","""","""","""",1,4/21/2021 9:03,109.154.118.10,Mozilla/5.0 (Windows NT 10.0; Win64; x64; rv:87.0) Gecko/20100101 Firefox/87.0,,Firefox,87,Windows,10
83,1,1324,"""",html-keyboard-response,96,297337,0.0-96.0,"""","<img src='jspsych/CFDfaces/CFD-BM-010-003-N.jpg' height=""250px""></br><b>Jeffrey</b>","""",256,IntactFace,Memorization,70,5000,f,"""",CFD-AM-246-184-N.jpg,Ryan,0,"""","""","""",1,4/21/2021 9:03,109.154.118.10,Mozilla/5.0 (Windows NT 10.0; Win64; x64; rv:87.0) Gecko/20100101 Firefox/87.0,,Firefox,87,Windows,10
83,1,null,"""",html-keyboard-response,97,297845,0.0-97.0,"""","<div style=""font-size:60px;"">+</div>","""",256,fixation,Memorization,null,500,"""","""","""","""","""","""","""","""",1,4/21/2021 9:03,109.154.118.10,Mozilla/5.0 (Windows NT 10.0; Win64; x64; rv:87.0) Gecko/20100101 Firefox/87.0,,Firefox,87,Windows,10
83,1,2408,"""",html-keyboard-response,98,302859,0.0-98.0,"""","<img src='jspsych/CFDfaces/CFD-LF-210-220-N.jpg' height=""250px""></br><b>Michelle</b>","""",256,IntactFace,Memorization,70,5000,f,"""",CFD-WM-017-002-N.jpg,Vincent,0,"""","""","""",1,4/21/2021 9:03,109.154.118.10,Mozilla/5.0 (Windows NT 10.0; Win64; x64; rv:87.0) Gecko/20100101 Firefox/87.0,,Firefox,87,Windows,10
83,1,null,"""",html-keyboard-response,99,303371,0.0-99.0,"""","<div style=""font-size:60px;"">+</div>","""",256,fixation,Memorization,null,500,"""","""","""","""","""","""","""","""",1,4/21/2021 9:03,109.154.118.10,Mozilla/5.0 (Windows NT 10.0; Win64; x64; rv:87.0) Gecko/20100101 Firefox/87.0,,Firefox,87,Windows,10
83,1,2162,"""",html-keyboard-response,100,308390,0.0-100.0,"""","<img src='jspsych/CFDfaces/CFD-AM-242-176-N.jpg' height=""250px""></br><b>Jason</b>","""",256,IntactFace,Memorization,70,5000,f,"""",CFD-AF-215-70-N.jpg,Melissa,0,"""","""","""",1,4/21/2021 9:03,109.154.118.10,Mozilla/5.0 (Windows NT 10.0; Win64; x64; rv:87.0) Gecko/20100101 Firefox/87.0,,Firefox,87,Windows,10
83,1,null,"""",html-keyboard-response,101,308897,0.0-101.0,"""","<div style=""font-size:60px;"">+</div>","""",256,fixation,Memorization,null,500,"""","""","""","""","""","""","""","""",1,4/21/2021 9:03,109.154.118.10,Mozilla/5.0 (Windows NT 10.0; Win64; x64; rv:87.0) Gecko/20100101 Firefox/87.0,,Firefox,87,Windows,10
83,1,1560,"""",html-keyboard-response,102,313908,0.0-102.0,"""","<img src='jspsych/CFDfaces/CFD-LF-200-058-N.jpg' height=""250px""></br><b>Brittany</b>","""",256,IntactFace,Memorization,78,5000,n,"""",CFD-WF-204-038-N.jpg,Jasmine,0,"""","""","""",1,4/21/2021 9:03,109.154.118.10,Mozilla/5.0 (Windows NT 10.0; Win64; x64; rv:87.0) Gecko/20100101 Firefox/87.0,,Firefox,87,Windows,10
83,1,null,"""",html-keyboard-response,103,314417,0.0-103.0,"""","<div style=""font-size:60px;"">+</div>","""",256,fixation,Memorization,null,500,"""","""","""","""","""","""","""","""",1,4/21/2021 9:03,109.154.118.10,Mozilla/5.0 (Windows NT 10.0; Win64; x64; rv:87.0) Gecko/20100101 Firefox/87.0,,Firefox,87,Windows,10
83,1,1552,"""",html-keyboard-response,104,319430,0.0-104.0,"""","<img src='jspsych/CFDfaces/CFD-AF-242-158-N.jpg' height=""250px""></br><b>Kimberly</b>","""",256,IntactFace,Memorization,70,5000,f,"""",CFD-BM-211-174-N.jpg,Cameron,0,"""","""","""",1,4/21/2021 9:03,109.154.118.10,Mozilla/5.0 (Windows NT 10.0; Win64; x64; rv:87.0) Gecko/20100101 Firefox/87.0,,Firefox,87,Windows,10
83,1,null,"""",html-keyboard-response,105,319942,0.0-105.0,"""","<div style=""font-size:60px;"">+</div>","""",256,fixation,Memorization,null,500,"""","""","""","""","""","""","""","""",1,4/21/2021 9:03,109.154.118.10,Mozilla/5.0 (Windows NT 10.0; Win64; x64; rv:87.0) Gecko/20100101 Firefox/87.0,,Firefox,87,Windows,10
83,1,2132,"""",html-keyboard-response,106,324958,0.0-106.0,"""","<img src='jspsych/CFDfaces/CFD-WM-212-097-N.jpg' height=""250px""></br><b>Christian</b>","""",256,IntactFace,Memorization,70,5000,f,"""",CFD-LF-203-066-N.jpg,Heather,0,"""","""","""",1,4/21/2021 9:03,109.154.118.10,Mozilla/5.0 (Windows NT 10.0; Win64; x64; rv:87.0) Gecko/20100101 Firefox/87.0,,Firefox,87,Windows,10
83,1,null,"""",html-keyboard-response,107,325465,0.0-107.0,"""","<div style=""font-size:60px;"">+</div>","""",256,fixation,Memorization,null,500,"""","""","""","""","""","""","""","""",1,4/21/2021 9:03,109.154.118.10,Mozilla/5.0 (Windows NT 10.0; Win64; x64; rv:87.0) Gecko/20100101 Firefox/87.0,,Firefox,87,Windows,10
83,1,2648,"""",html-keyboard-response,108,330473,0.0-108.0,"""","<img src='jspsych/CFDfaces/CFD-AF-209-006-N.jpg' height=""250px""></br><b>Julie</b>","""",256,IntactFace,Memorization,78,5000,n,"""",CFD-LF-213-079-N.jpg,Rebecca,0,"""","""","""",1,4/21/2021 9:03,109.154.118.10,Mozilla/5.0 (Windows NT 10.0; Win64; x64; rv:87.0) Gecko/20100101 Firefox/87.0,,Firefox,87,Windows,10
83,1,null,"""",html-keyboard-response,109,330978,0.0-109.0,"""","<div style=""font-size:60px;"">+</div>","""",256,fixation,Memorization,null,500,"""","""","""","""","""","""","""","""",1,4/21/2021 9:03,109.154.118.10,Mozilla/5.0 (Windows NT 10.0; Win64; x64; rv:87.0) Gecko/20100101 Firefox/87.0,,Firefox,87,Windows,10
83,1,2383,"""",html-keyboard-response,110,335984,0.0-110.0,"""","<img src='jspsych/CFDfaces/CFD-AF-228-173-N.jpg' height=""250px""></br><b>Christina</b>","""",256,IntactFace,Memorization,70,5000,f,"""",CFD-WF-017-003-N.jpg,Sara,0,"""","""","""",1,4/21/2021 9:03,109.154.118.10,Mozilla/5.0 (Windows NT 10.0; Win64; x64; rv:87.0) Gecko/20100101 Firefox/87.0,,Firefox,87,Windows,10
83,1,null,"""",html-keyboard-response,111,336496,0.0-111.0,"""","<div style=""font-size:60px;"">+</div>","""",256,fixation,Memorization,null,500,"""","""","""","""","""","""","""","""",1,4/21/2021 9:03,109.154.118.10,Mozilla/5.0 (Windows NT 10.0; Win64; x64; rv:87.0) Gecko/20100101 Firefox/87.0,,Firefox,87,Windows,10
83,1,1517,"""",html-keyboard-response,112,341505,0.0-112.0,"""","<img src='jspsych/CFDfaces/CFD-LM-224-162-N.jpg' height=""250px""></br><b>Daniel</b>","""",256,IntactFace,Memorization,70,5000,f,"""",CFD-BM-026-002-N.jpg,Jacob,0,"""","""","""",1,4/21/2021 9:03,109.154.118.10,Mozilla/5.0 (Windows NT 10.0; Win64; x64; rv:87.0) Gecko/20100101 Firefox/87.0,,Firefox,87,Windows,10
83,1,null,"""",html-keyboard-response,113,342010,0.0-113.0,"""","<div style=""font-size:60px;"">+</div>","""",256,fixation,Memorization,null,500,"""","""","""","""","""","""","""","""",1,4/21/2021 9:03,109.154.118.10,Mozilla/5.0 (Windows NT 10.0; Win64; x64; rv:87.0) Gecko/20100101 Firefox/87.0,,Firefox,87,Windows,10
83,1,1662,"""",html-keyboard-response,114,347018,0.0-114.0,"""","<img src='jspsych/CFDfaces/CFD-AF-240-206-N.jpg' height=""250px""></br><b>Ashley</b>","""",256,IntactFace,Memorization,78,5000,n,"""",CFD-WM-216-061-N.jpg,Jeremy,0,"""","""","""",1,4/21/2021 9:03,109.154.118.10,Mozilla/5.0 (Windows NT 10.0; Win64; x64; rv:87.0) Gecko/20100101 Firefox/87.0,,Firefox,87,Windows,10
83,1,null,"""",html-keyboard-response,115,347528,0.0-115.0,"""","<div style=""font-size:60px;"">+</div>","""",256,fixation,Memorization,null,500,"""","""","""","""","""","""","""","""",1,4/21/2021 9:03,109.154.118.10,Mozilla/5.0 (Windows NT 10.0; Win64; x64; rv:87.0) Gecko/20100101 Firefox/87.0,,Firefox,87,Windows,10
83,1,1569,"""",html-keyboard-response,116,352541,0.0-116.0,"""","<img src='jspsych/CFDfaces/CFD-AM-243-212-N.jpg' height=""250px""></br><b>Richard</b>","""",256,IntactFace,Memorization,70,5000,f,"""",CFD-WF-006-002-N.jpg,Erin,0,"""","""","""",1,4/21/2021 9:03,109.154.118.10,Mozilla/5.0 (Windows NT 10.0; Win64; x64; rv:87.0) Gecko/20100101 Firefox/87.0,,Firefox,87,Windows,10
83,1,null,"""",html-keyboard-response,117,353048,0.0-117.0,"""","<div style=""font-size:60px;"">+</div>","""",256,fixation,Memorization,null,500,"""","""","""","""","""","""","""","""",1,4/21/2021 9:03,109.154.118.10,Mozilla/5.0 (Windows NT 10.0; Win64; x64; rv:87.0) Gecko/20100101 Firefox/87.0,,Firefox,87,Windows,10
83,1,1769,"""",html-keyboard-response,118,358052,0.0-118.0,"""","<img src='jspsych/CFDfaces/CFD-LF-202-065-N.jpg' height=""250px""></br><b>Andrea</b>","""",256,IntactFace,Memorization,70,5000,f,"""",CFD-WF-016-015-N.jpg,Jenna,0,"""","""","""",1,4/21/2021 9:03,109.154.118.10,Mozilla/5.0 (Windows NT 10.0; Win64; x64; rv:87.0) Gecko/20100101 Firefox/87.0,,Firefox,87,Windows,10
83,1,null,"""",html-keyboard-response,119,358564,0.0-119.0,"""","<div style=""font-size:60px;"">+</div>","""",256,fixation,Memorization,null,500,"""","""","""","""","""","""","""","""",1,4/21/2021 9:03,109.154.118.10,Mozilla/5.0 (Windows NT 10.0; Win64; x64; rv:87.0) Gecko/20100101 Firefox/87.0,,Firefox,87,Windows,10
83,1,2524,"""",html-keyboard-response,120,363579,0.0-120.0,"""","<img src='jspsych/CFDfaces/CFD-AM-231-136-N.jpg' height=""250px""></br><b>Brandon</b>","""",256,IntactFace,Memorization,70,5000,f,"""",CFD-LM-223-175-N.jpg,Luis,0,"""","""","""",1,4/21/2021 9:03,109.154.118.10,Mozilla/5.0 (Windows NT 10.0; Win64; x64; rv:87.0) Gecko/20100101 Firefox/87.0,,Firefox,87,Windows,10
83,1,null,"""",html-keyboard-response,121,364087,0.0-121.0,"""","<div style=""font-size:60px;"">+</div>","""",256,fixation,Memorization,null,500,"""","""","""","""","""","""","""","""",1,4/21/2021 9:03,109.154.118.10,Mozilla/5.0 (Windows NT 10.0; Win64; x64; rv:87.0) Gecko/20100101 Firefox/87.0,,Firefox,87,Windows,10
83,1,1237,"""",html-keyboard-response,122,369101,0.0-122.0,"""","<img src='jspsych/CFDfaces/CFD-WM-006-002-N.jpg' height=""250px""></br><b>Eric</b>","""",256,IntactFace,Memorization,70,5000,f,"""",CFD-BM-002-013-N.jpg,Mark,0,"""","""","""",1,4/21/2021 9:03,109.154.118.10,Mozilla/5.0 (Windows NT 10.0; Win64; x64; rv:87.0) Gecko/20100101 Firefox/87.0,,Firefox,87,Windows,10
83,1,null,"""",html-keyboard-response,123,369605,0.0-123.0,"""","<div style=""font-size:60px;"">+</div>","""",256,fixation,Memorization,null,500,"""","""","""","""","""","""","""","""",1,4/21/2021 9:03,109.154.118.10,Mozilla/5.0 (Windows NT 10.0; Win64; x64; rv:87.0) Gecko/20100101 Firefox/87.0,,Firefox,87,Windows,10
83,1,1588,"""",html-keyboard-response,124,374619,0.0-124.0,"""","<img src='jspsych/CFDfaces/CFD-LF-215-157-N.jpg' height=""250px""></br><b>Stephanie</b>","""",256,IntactFace,Memorization,78,5000,n,"""",CFD-BF-010-001-N.jpg,Lindsey,0,"""","""","""",1,4/21/2021 9:03,109.154.118.10,Mozilla/5.0 (Windows NT 10.0; Win64; x64; rv:87.0) Gecko/20100101 Firefox/87.0,,Firefox,87,Windows,10
83,1,null,"""",html-keyboard-response,125,375128,0.0-125.0,"""","<div style=""font-size:60px;"">+</div>","""",256,fixation,Memorization,null,500,"""","""","""","""","""","""","""","""",1,4/21/2021 9:03,109.154.118.10,Mozilla/5.0 (Windows NT 10.0; Win64; x64; rv:87.0) Gecko/20100101 Firefox/87.0,,Firefox,87,Windows,10
83,1,1904,"""",html-keyboard-response,126,380145,0.0-126.0,"""","<img src='jspsych/CFDfaces/CFD-LF-230-203-N.jpg' height=""250px""></br><b>Emily</b>","""",256,IntactFace,Memorization,70,5000,f,"""",CFD-BF-023-010-N.jpg,Jordan,0,"""","""","""",1,4/21/2021 9:03,109.154.118.10,Mozilla/5.0 (Windows NT 10.0; Win64; x64; rv:87.0) Gecko/20100101 Firefox/87.0,,Firefox,87,Windows,10
83,1,null,"""",html-keyboard-response,127,380647,0.0-127.0,"""","<div style=""font-size:60px;"">+</div>","""",256,fixation,Memorization,null,500,"""","""","""","""","""","""","""","""",1,4/21/2021 9:03,109.154.118.10,Mozilla/5.0 (Windows NT 10.0; Win64; x64; rv:87.0) Gecko/20100101 Firefox/87.0,,Firefox,87,Windows,10
83,1,1349,"""",html-keyboard-response,128,385659,0.0-128.0,"""","<img src='jspsych/CFDfaces/CFD-WM-011-002-N.jpg' height=""250px""></br><b>Peter</b>","""",256,IntactFace,Memorization,70,5000,f,"""",CFD-BF-221-223-N.jpg,Whitney,0,"""","""","""",1,4/21/2021 9:03,109.154.118.10,Mozilla/5.0 (Windows NT 10.0; Win64; x64; rv:87.0) Gecko/20100101 Firefox/87.0,,Firefox,87,Windows,10
83,1,null,"""",html-keyboard-response,129,386169,0.0-129.0,"""","<div style=""font-size:60px;"">+</div>","""",256,fixation,Memorization,null,500,"""","""","""","""","""","""","""","""",1,4/21/2021 9:03,109.154.118.10,Mozilla/5.0 (Windows NT 10.0; Win64; x64; rv:87.0) Gecko/20100101 Firefox/87.0,,Firefox,87,Windows,10
83,1,1097,"""",html-keyboard-response,130,391185,0.0-130.0,"""","<img src='jspsych/CFDfaces/CFD-BM-039-029-N.jpg' height=""250px""></br><b>Joshua</b>","""",256,IntactFace,Memorization,70,5000,f,"""",CFD-LF-220-120-N.jpg,Lauren,0,"""","""","""",1,4/21/2021 9:03,109.154.118.10,Mozilla/5.0 (Windows NT 10.0; Win64; x64; rv:87.0) Gecko/20100101 Firefox/87.0,,Firefox,87,Windows,10
83,1,null,"""",html-keyboard-response,131,391689,0.0-131.0,"""","<div style=""font-size:60px;"">+</div>","""",256,fixation,Memorization,null,500,"""","""","""","""","""","""","""","""",1,4/21/2021 9:03,109.154.118.10,Mozilla/5.0 (Windows NT 10.0; Win64; x64; rv:87.0) Gecko/20100101 Firefox/87.0,,Firefox,87,Windows,10
83,1,1662,"""",html-keyboard-response,132,396708,0.0-132.0,"""","<img src='jspsych/CFDfaces/CFD-AF-203-077-N.jpg' height=""250px""></br><b>Amanda</b>","""",256,IntactFace,Memorization,78,5000,n,"""",CFD-WM-032-001-N.jpg,Kenneth,0,"""","""","""",1,4/21/2021 9:03,109.154.118.10,Mozilla/5.0 (Windows NT 10.0; Win64; x64; rv:87.0) Gecko/20100101 Firefox/87.0,,Firefox,87,Windows,10
83,1,null,"""",html-keyboard-response,133,397216,0.0-133.0,"""","<div style=""font-size:60px;"">+</div>","""",256,fixation,Memorization,null,500,"""","""","""","""","""","""","""","""",1,4/21/2021 9:03,109.154.118.10,Mozilla/5.0 (Windows NT 10.0; Win64; x64; rv:87.0) Gecko/20100101 Firefox/87.0,,Firefox,87,Windows,10
83,1,1193,"""",html-keyboard-response,134,402230,0.0-134.0,"""","<img src='jspsych/CFDfaces/CFD-LF-232-199-N.jpg' height=""250px""></br><b>Kayla</b>","""",256,IntactFace,Memorization,70,5000,f,"""",CFD-BF-039-031-N.jpg,Angela,0,"""","""","""",1,4/21/2021 9:03,109.154.118.10,Mozilla/5.0 (Windows NT 10.0; Win64; x64; rv:87.0) Gecko/20100101 Firefox/87.0,,Firefox,87,Windows,10
83,1,null,"""",html-keyboard-response,135,402738,0.0-135.0,"""","<div style=""font-size:60px;"">+</div>","""",256,fixation,Memorization,null,500,"""","""","""","""","""","""","""","""",1,4/21/2021 9:03,109.154.118.10,Mozilla/5.0 (Windows NT 10.0; Win64; x64; rv:87.0) Gecko/20100101 Firefox/87.0,,Firefox,87,Windows,10
83,1,2025,"""",html-keyboard-response,136,407744,0.0-136.0,"""","<img src='jspsych/CFDfaces/CFD-AM-220-134-N.jpg' height=""250px""></br><b>Nicholas</b>","""",256,IntactFace,Memorization,70,5000,f,"""",CFD-AM-202-079-N.jpg,Austin,0,"""","""","""",1,4/21/2021 9:03,109.154.118.10,Mozilla/5.0 (Windows NT 10.0; Win64; x64; rv:87.0) Gecko/20100101 Firefox/87.0,,Firefox,87,Windows,10
83,1,null,"""",html-keyboard-response,137,408252,0.0-137.0,"""","<div style=""font-size:60px;"">+</div>","""",256,fixation,Memorization,null,500,"""","""","""","""","""","""","""","""",1,4/21/2021 9:03,109.154.118.10,Mozilla/5.0 (Windows NT 10.0; Win64; x64; rv:87.0) Gecko/20100101 Firefox/87.0,,Firefox,87,Windows,10
83,1,1075,"""",html-keyboard-response,138,413262,0.0-138.0,"""","<img src='jspsych/CFDfaces/CFD-AM-211-052-N.jpg' height=""250px""></br><b>Gregory</b>","""",256,IntactFace,Memorization,70,5000,f,"""",CFD-LM-234-176-N.jpg,Dustin,0,"""","""","""",1,4/21/2021 9:03,109.154.118.10,Mozilla/5.0 (Windows NT 10.0; Win64; x64; rv:87.0) Gecko/20100101 Firefox/87.0,,Firefox,87,Windows,10
83,1,null,"""",html-keyboard-response,139,413770,0.0-139.0,"""","<div style=""font-size:60px;"">+</div>","""",256,fixation,Memorization,null,500,"""","""","""","""","""","""","""","""",1,4/21/2021 9:03,109.154.118.10,Mozilla/5.0 (Windows NT 10.0; Win64; x64; rv:87.0) Gecko/20100101 Firefox/87.0,,Firefox,87,Windows,10
83,1,1033,"""",html-keyboard-response,140,418775,0.0-140.0,"""","<img src='jspsych/CFDfaces/CFD-WM-213-076-N.jpg' height=""250px""></br><b>Brian</b>","""",256,IntactFace,Memorization,70,5000,f,"""",CFD-WF-038-021-N.jpg,Laura,0,"""","""","""",1,4/21/2021 9:03,109.154.118.10,Mozilla/5.0 (Windows NT 10.0; Win64; x64; rv:87.0) Gecko/20100101 Firefox/87.0,,Firefox,87,Windows,10
83,1,null,"""",html-keyboard-response,141,419287,0.0-141.0,"""","<div style=""font-size:60px;"">+</div>","""",256,fixation,Memorization,null,500,"""","""","""","""","""","""","""","""",1,4/21/2021 9:03,109.154.118.10,Mozilla/5.0 (Windows NT 10.0; Win64; x64; rv:87.0) Gecko/20100101 Firefox/87.0,,Firefox,87,Windows,10
83,1,1435,"""",html-keyboard-response,142,424306,0.0-142.0,"""","<img src='jspsych/CFDfaces/CFD-WM-041-021-N.jpg' height=""250px""></br><b>Juan</b>","""",256,IntactFace,Memorization,70,5000,f,"""",CFD-LF-244-096-N.jpg,Tiffany,0,"""","""","""",1,4/21/2021 9:03,109.154.118.10,Mozilla/5.0 (Windows NT 10.0; Win64; x64; rv:87.0) Gecko/20100101 Firefox/87.0,,Firefox,87,Windows,10
83,1,null,"""",html-keyboard-response,143,424818,0.0-143.0,"""","<div style=""font-size:60px;"">+</div>","""",256,fixation,Memorization,null,500,"""","""","""","""","""","""","""","""",1,4/21/2021 9:03,109.154.118.10,Mozilla/5.0 (Windows NT 10.0; Win64; x64; rv:87.0) Gecko/20100101 Firefox/87.0,,Firefox,87,Windows,10
83,1,1356,"""",html-keyboard-response,144,429826,0.0-144.0,"""","<img src='jspsych/CFDfaces/CFD-BF-004-014-N.jpg' height=""250px""></br><b>Samantha</b>","""",256,IntactFace,Memorization,70,5000,f,"""",CFD-AM-212-050-N.jpg,Steven,0,"""","""","""",1,4/21/2021 9:03,109.154.118.10,Mozilla/5.0 (Windows NT 10.0; Win64; x64; rv:87.0) Gecko/20100101 Firefox/87.0,,Firefox,87,Windows,10
83,1,null,"""",html-keyboard-response,145,430326,0.0-145.0,"""","<div style=""font-size:60px;"">+</div>","""",256,fixation,Memorization,null,500,"""","""","""","""","""","""","""","""",1,4/21/2021 9:03,109.154.118.10,Mozilla/5.0 (Windows NT 10.0; Win64; x64; rv:87.0) Gecko/20100101 Firefox/87.0,,Firefox,87,Windows,10
83,1,1372,"""",html-keyboard-response,146,435346,0.0-146.0,"""","<img src='jspsych/CFDfaces/CFD-LM-233-171-N.jpg' height=""250px""></br><b>Ian</b>","""",256,IntactFace,Memorization,78,5000,n,"""",CFD-BM-210-148-N.jpg,Travis,0,"""","""","""",1,4/21/2021 9:03,109.154.118.10,Mozilla/5.0 (Windows NT 10.0; Win64; x64; rv:87.0) Gecko/20100101 Firefox/87.0,,Firefox,87,Windows,10
83,1,null,"""",html-keyboard-response,147,435852,0.0-147.0,"""","<div style=""font-size:60px;"">+</div>","""",256,fixation,Memorization,null,500,"""","""","""","""","""","""","""","""",1,4/21/2021 9:03,109.154.118.10,Mozilla/5.0 (Windows NT 10.0; Win64; x64; rv:87.0) Gecko/20100101 Firefox/87.0,,Firefox,87,Windows,10
83,1,1429,"""",html-keyboard-response,148,440872,0.0-148.0,"""","<img src='jspsych/CFDfaces/CFD-BF-019-001-N.jpg' height=""250px""></br><b>Elizabeth</b>","""",256,IntactFace,Memorization,70,5000,f,"""",CFD-LF-218-072-N.jpg,Taylor,0,"""","""","""",1,4/21/2021 9:03,109.154.118.10,Mozilla/5.0 (Windows NT 10.0; Win64; x64; rv:87.0) Gecko/20100101 Firefox/87.0,,Firefox,87,Windows,10
83,1,null,"""",html-keyboard-response,149,441384,0.0-149.0,"""","<div style=""font-size:60px;"">+</div>","""",256,fixation,Memorization,null,500,"""","""","""","""","""","""","""","""",1,4/21/2021 9:03,109.154.118.10,Mozilla/5.0 (Windows NT 10.0; Win64; x64; rv:87.0) Gecko/20100101 Firefox/87.0,,Firefox,87,Windows,10
83,1,1121,"""",html-keyboard-response,150,446394,0.0-150.0,"""","<img src='jspsych/CFDfaces/CFD-LM-246-087-N.jpg' height=""250px""></br><b>Robert</b>","""",256,IntactFace,Memorization,70,5000,f,"""",CFD-BF-025-002-N.jpg,Amy,0,"""","""","""",1,4/21/2021 9:03,109.154.118.10,Mozilla/5.0 (Windows NT 10.0; Win64; x64; rv:87.0) Gecko/20100101 Firefox/87.0,,Firefox,87,Windows,10
83,1,null,"""",html-keyboard-response,151,446901,0.0-151.0,"""","<div style=""font-size:60px;"">+</div>","""",256,fixation,Memorization,null,500,"""","""","""","""","""","""","""","""",1,4/21/2021 9:03,109.154.118.10,Mozilla/5.0 (Windows NT 10.0; Win64; x64; rv:87.0) Gecko/20100101 Firefox/87.0,,Firefox,87,Windows,10
83,1,1873,"""",html-keyboard-response,152,451916,0.0-152.0,"""","<img src='jspsych/CFDfaces/CFD-WM-019-003-N.jpg' height=""250px""></br><b>James</b>","""",256,IntactFace,Memorization,78,5000,n,"""",CFD-AM-228-214-N.jpg,Justin,0,"""","""","""",1,4/21/2021 9:03,109.154.118.10,Mozilla/5.0 (Windows NT 10.0; Win64; x64; rv:87.0) Gecko/20100101 Firefox/87.0,,Firefox,87,Windows,10
83,1,null,"""",html-keyboard-response,153,452428,0.0-153.0,"""","<div style=""font-size:60px;"">+</div>","""",256,fixation,Memorization,null,500,"""","""","""","""","""","""","""","""",1,4/21/2021 9:03,109.154.118.10,Mozilla/5.0 (Windows NT 10.0; Win64; x64; rv:87.0) Gecko/20100101 Firefox/87.0,,Firefox,87,Windows,10
83,1,2011,"""",html-keyboard-response,154,454442,0.0-154.0,"""",Press Any Key to Begin Memory Test,"""",1,welcomeScreen,Break,70,"""","""","""","""","""","""","""","""","""",1,4/21/2021 9:03,109.154.118.10,Mozilla/5.0 (Windows NT 10.0; Win64; x64; rv:87.0) Gecko/20100101 Firefox/87.0,,Firefox,87,Windows,10
83,1,null,"""",html-keyboard-response,155,455444,0.0-155.0,"""","<div style=""font-size:60px;"">+</div>","""",256,ITI,Test,null,1000,"""","""","""","""","""","""","""","""",1,4/21/2021 9:03,109.154.118.10,Mozilla/5.0 (Windows NT 10.0; Win64; x64; rv:87.0) Gecko/20100101 Firefox/87.0,,Firefox,87,Windows,10
83,1,null,"""",image-keyboard-response,156,455700,0.0-156.0,"""",jspsych/scrambledDisgustFaces/scrambledAM06DIS.JPG,"""",256,forwardMask,Test,null,250,"""",d,"""","""","""","""","""","""",1,4/21/2021 9:03,109.154.118.10,Mozilla/5.0 (Windows NT 10.0; Win64; x64; rv:87.0) Gecko/20100101 Firefox/87.0,,Firefox,87,Windows,10
83,1,null,"""",image-keyboard-response,157,455732,0.0-157.0,"""",jspsych/disgustFaces/AM06DIS.JPG,"""",256,Cue,Test,null,16,"""","""","""","""","""","""","""","""",1,4/21/2021 9:03,109.154.118.10,Mozilla/5.0 (Windows NT 10.0; Win64; x64; rv:87.0) Gecko/20100101 Firefox/87.0,,Firefox,87,Windows,10
83,1,null,"""",image-keyboard-response,158,455844,0.0-158.0,"""",jspsych/neutralFaces/BM02NES.JPG,"""",256,backwardMask,Test,null,100,"""","""","""","""","""","""","""","""",1,4/21/2021 9:03,109.154.118.10,Mozilla/5.0 (Windows NT 10.0; Win64; x64; rv:87.0) Gecko/20100101 Firefox/87.0,,Firefox,87,Windows,10
83,1,null,"""",html-keyboard-response,159,456846,0.0-159.0,"""","<div style=""font-size:60px;"">+</div>","""",256,fixationBtwnNeutralMaskAndPrompt,Test,null,1000,"""","""","""","""","""","""","""","""",1,4/21/2021 9:03,109.154.118.10,Mozilla/5.0 (Windows NT 10.0; Win64; x64; rv:87.0) Gecko/20100101 Firefox/87.0,,Firefox,87,Windows,10
83,1,3013,"""",html-button-response,160,459859,0.0-160.0,"""","<img src='jspsych/CFDfaces/CFD-WM-212-097-N.jpg' height=""250px"">,</br><b>Joshua</b>",1,256,IntactOrRearranged,Test,"""","""","""","""",CFD-WM-017-002-N.jpg,Vincent,1,1,"""","""",1,4/21/2021 9:03,109.154.118.10,Mozilla/5.0 (Windows NT 10.0; Win64; x64; rv:87.0) Gecko/20100101 Firefox/87.0,,Firefox,87,Windows,10
83,1,2514,"""",html-slider-response,161,462379,0.0-161.0,"""","<img src='jspsych/CFDfaces/CFD-WM-212-097-N.jpg' height=""250px"">,</br><b>Joshua</b>","""",256,ConfidenceQuery,Test,"""","""","""","""",CFD-WM-017-002-N.jpg,Vincent,1,"""",0,78,1,4/21/2021 9:03,109.154.118.10,Mozilla/5.0 (Windows NT 10.0; Win64; x64; rv:87.0) Gecko/20100101 Firefox/87.0,,Firefox,87,Windows,10
83,1,null,"""",html-keyboard-response,162,463384,0.0-162.0,"""","<div style=""font-size:60px;"">+</div>","""",256,ITI,Test,null,1000,"""","""","""","""","""","""","""","""",1,4/21/2021 9:03,109.154.118.10,Mozilla/5.0 (Windows NT 10.0; Win64; x64; rv:87.0) Gecko/20100101 Firefox/87.0,,Firefox,87,Windows,10
83,1,null,"""",image-keyboard-response,163,463650,0.0-163.0,"""",jspsych/scrambledNeutralFaces/scrambledAF26NES.JPG,"""",256,forwardMask,Test,null,250,"""",n,"""","""","""","""","""","""",1,4/21/2021 9:03,109.154.118.10,Mozilla/5.0 (Windows NT 10.0; Win64; x64; rv:87.0) Gecko/20100101 Firefox/87.0,,Firefox,87,Windows,10
83,1,null,"""",image-keyboard-response,164,463681,0.0-164.0,"""",jspsych/neutralFaces/AF26NES.JPG,"""",256,Cue,Test,null,16,"""","""","""","""","""","""","""","""",1,4/21/2021 9:03,109.154.118.10,Mozilla/5.0 (Windows NT 10.0; Win64; x64; rv:87.0) Gecko/20100101 Firefox/87.0,,Firefox,87,Windows,10
83,1,null,"""",image-keyboard-response,165,463790,0.0-165.0,"""",jspsych/neutralFaces/AF02NES.JPG,"""",256,backwardMask,Test,null,100,"""","""","""","""","""","""","""","""",1,4/21/2021 9:03,109.154.118.10,Mozilla/5.0 (Windows NT 10.0; Win64; x64; rv:87.0) Gecko/20100101 Firefox/87.0,,Firefox,87,Windows,10
83,1,null,"""",html-keyboard-response,166,464796,0.0-166.0,"""","<div style=""font-size:60px;"">+</div>","""",256,fixationBtwnNeutralMaskAndPrompt,Test,null,1000,"""","""","""","""","""","""","""","""",1,4/21/2021 9:03,109.154.118.10,Mozilla/5.0 (Windows NT 10.0; Win64; x64; rv:87.0) Gecko/20100101 Firefox/87.0,,Firefox,87,Windows,10
83,1,2046,"""",html-button-response,167,466843,0.0-167.0,"""","<img src='jspsych/CFDfaces/CFD-LF-215-157-N.jpg' height=""250px"">,</br><b>Stephanie</b>",0,256,IntactOrRearranged,Test,"""","""","""","""",CFD-LF-203-066-N.jpg,Heather,0,0,"""","""",1,4/21/2021 9:03,109.154.118.10,Mozilla/5.0 (Windows NT 10.0; Win64; x64; rv:87.0) Gecko/20100101 Firefox/87.0,,Firefox,87,Windows,10
83,1,1906,"""",html-slider-response,168,468755,0.0-168.0,"""","<img src='jspsych/CFDfaces/CFD-LF-215-157-N.jpg' height=""250px"">,</br><b>Stephanie</b>","""",256,ConfidenceQuery,Test,"""","""","""","""",CFD-LF-203-066-N.jpg,Heather,0,"""",0,77,1,4/21/2021 9:03,109.154.118.10,Mozilla/5.0 (Windows NT 10.0; Win64; x64; rv:87.0) Gecko/20100101 Firefox/87.0,,Firefox,87,Windows,10
83,1,null,"""",html-keyboard-response,169,469760,0.0-169.0,"""","<div style=""font-size:60px;"">+</div>","""",256,ITI,Test,null,1000,"""","""","""","""","""","""","""","""",1,4/21/2021 9:03,109.154.118.10,Mozilla/5.0 (Windows NT 10.0; Win64; x64; rv:87.0) Gecko/20100101 Firefox/87.0,,Firefox,87,Windows,10
83,1,null,"""",image-keyboard-response,170,470012,0.0-170.0,"""",jspsych/scrambledDisgustFaces/scrambledBM04DIS.JPG,"""",256,forwardMask,Test,null,250,"""",d,"""","""","""","""","""","""",1,4/21/2021 9:03,109.154.118.10,Mozilla/5.0 (Windows NT 10.0; Win64; x64; rv:87.0) Gecko/20100101 Firefox/87.0,,Firefox,87,Windows,10
83,1,null,"""",image-keyboard-response,171,470042,0.0-171.0,"""",jspsych/disgustFaces/BM05DIS.JPG,"""",256,Cue,Test,null,16,"""","""","""","""","""","""","""","""",1,4/21/2021 9:03,109.154.118.10,Mozilla/5.0 (Windows NT 10.0; Win64; x64; rv:87.0) Gecko/20100101 Firefox/87.0,,Firefox,87,Windows,10
83,1,null,"""",image-keyboard-response,172,470149,0.0-172.0,"""",jspsych/neutralFaces/AM13NES.JPG,"""",256,backwardMask,Test,null,100,"""","""","""","""","""","""","""","""",1,4/21/2021 9:03,109.154.118.10,Mozilla/5.0 (Windows NT 10.0; Win64; x64; rv:87.0) Gecko/20100101 Firefox/87.0,,Firefox,87,Windows,10
83,1,null,"""",html-keyboard-response,173,471154,0.0-173.0,"""","<div style=""font-size:60px;"">+</div>","""",256,fixationBtwnNeutralMaskAndPrompt,Test,null,1000,"""","""","""","""","""","""","""","""",1,4/21/2021 9:03,109.154.118.10,Mozilla/5.0 (Windows NT 10.0; Win64; x64; rv:87.0) Gecko/20100101 Firefox/87.0,,Firefox,87,Windows,10
83,1,1584,"""",html-button-response,174,472739,0.0-174.0,"""","<img src='jspsych/CFDfaces/CFD-BF-019-001-N.jpg' height=""250px"">,</br><b>Kimberly</b>",1,256,IntactOrRearranged,Test,"""","""","""","""",CFD-LF-244-096-N.jpg,Tiffany,1,1,"""","""",1,4/21/2021 9:03,109.154.118.10,Mozilla/5.0 (Windows NT 10.0; Win64; x64; rv:87.0) Gecko/20100101 Firefox/87.0,,Firefox,87,Windows,10
83,1,2537,"""",html-slider-response,175,475283,0.0-175.0,"""","<img src='jspsych/CFDfaces/CFD-BF-019-001-N.jpg' height=""250px"">,</br><b>Kimberly</b>","""",256,ConfidenceQuery,Test,"""","""","""","""",CFD-LF-244-096-N.jpg,Tiffany,1,"""",0,100,1,4/21/2021 9:03,109.154.118.10,Mozilla/5.0 (Windows NT 10.0; Win64; x64; rv:87.0) Gecko/20100101 Firefox/87.0,,Firefox,87,Windows,10
83,1,null,"""",html-keyboard-response,176,476294,0.0-176.0,"""","<div style=""font-size:60px;"">+</div>","""",256,ITI,Test,null,1000,"""","""","""","""","""","""","""","""",1,4/21/2021 9:03,109.154.118.10,Mozilla/5.0 (Windows NT 10.0; Win64; x64; rv:87.0) Gecko/20100101 Firefox/87.0,,Firefox,87,Windows,10
83,1,null,"""",image-keyboard-response,177,476550,0.0-177.0,"""",jspsych/scrambledNeutralFaces/scrambledBF21NES.JPG,"""",256,forwardMask,Test,null,250,"""",n,"""","""","""","""","""","""",1,4/21/2021 9:03,109.154.118.10,Mozilla/5.0 (Windows NT 10.0; Win64; x64; rv:87.0) Gecko/20100101 Firefox/87.0,,Firefox,87,Windows,10
83,1,null,"""",image-keyboard-response,178,476579,0.0-178.0,"""",jspsych/neutralFaces/BF21NES.JPG,"""",256,Cue,Test,null,16,"""","""","""","""","""","""","""","""",1,4/21/2021 9:03,109.154.118.10,Mozilla/5.0 (Windows NT 10.0; Win64; x64; rv:87.0) Gecko/20100101 Firefox/87.0,,Firefox,87,Windows,10
83,1,null,"""",image-keyboard-response,179,476694,0.0-179.0,"""",jspsych/neutralFaces/BF11NES.JPG,"""",256,backwardMask,Test,null,100,"""","""","""","""","""","""","""","""",1,4/21/2021 9:03,109.154.118.10,Mozilla/5.0 (Windows NT 10.0; Win64; x64; rv:87.0) Gecko/20100101 Firefox/87.0,,Firefox,87,Windows,10
83,1,null,"""",html-keyboard-response,180,477700,0.0-180.0,"""","<div style=""font-size:60px;"">+</div>","""",256,fixationBtwnNeutralMaskAndPrompt,Test,null,1000,"""","""","""","""","""","""","""","""",1,4/21/2021 9:03,109.154.118.10,Mozilla/5.0 (Windows NT 10.0; Win64; x64; rv:87.0) Gecko/20100101 Firefox/87.0,,Firefox,87,Windows,10
83,1,2390,"""",html-button-response,181,480091,0.0-181.0,"""","<img src='jspsych/CFDfaces/CFD-AM-220-134-N.jpg' height=""250px"">,</br><b>Nicholas</b>",1,256,IntactOrRearranged,Test,"""","""","""","""",CFD-LM-252-076-N.jpg,Austin,0,1,"""","""",1,4/21/2021 9:03,109.154.118.10,Mozilla/5.0 (Windows NT 10.0; Win64; x64; rv:87.0) Gecko/20100101 Firefox/87.0,,Firefox,87,Windows,10
83,1,1777,"""",html-slider-response,182,481875,0.0-182.0,"""","<img src='jspsych/CFDfaces/CFD-AM-220-134-N.jpg' height=""250px"">,</br><b>Nicholas</b>","""",256,ConfidenceQuery,Test,"""","""","""","""",CFD-LM-252-076-N.jpg,Austin,0,"""",0,70,1,4/21/2021 9:03,109.154.118.10,Mozilla/5.0 (Windows NT 10.0; Win64; x64; rv:87.0) Gecko/20100101 Firefox/87.0,,Firefox,87,Windows,10
83,1,null,"""",html-keyboard-response,183,482890,0.0-183.0,"""","<div style=""font-size:60px;"">+</div>","""",256,ITI,Test,null,1000,"""","""","""","""","""","""","""","""",1,4/21/2021 9:03,109.154.118.10,Mozilla/5.0 (Windows NT 10.0; Win64; x64; rv:87.0) Gecko/20100101 Firefox/87.0,,Firefox,87,Windows,10
83,1,null,"""",image-keyboard-response,184,483142,0.0-184.0,"""",jspsych/scrambledNeutralFaces/scrambledBF19NES.JPG,"""",256,forwardMask,Test,null,250,"""",n,"""","""","""","""","""","""",1,4/21/2021 9:03,109.154.118.10,Mozilla/5.0 (Windows NT 10.0; Win64; x64; rv:87.0) Gecko/20100101 Firefox/87.0,,Firefox,87,Windows,10
83,1,null,"""",image-keyboard-response,185,483174,0.0-185.0,"""",jspsych/neutralFaces/BF19NES.JPG,"""",256,Cue,Test,null,16,"""","""","""","""","""","""","""","""",1,4/21/2021 9:03,109.154.118.10,Mozilla/5.0 (Windows NT 10.0; Win64; x64; rv:87.0) Gecko/20100101 Firefox/87.0,,Firefox,87,Windows,10
83,1,null,"""",image-keyboard-response,186,483284,0.0-186.0,"""",jspsych/neutralFaces/AF02NES.JPG,"""",256,backwardMask,Test,null,100,"""","""","""","""","""","""","""","""",1,4/21/2021 9:03,109.154.118.10,Mozilla/5.0 (Windows NT 10.0; Win64; x64; rv:87.0) Gecko/20100101 Firefox/87.0,,Firefox,87,Windows,10
83,1,null,"""",html-keyboard-response,187,484286,0.0-187.0,"""","<div style=""font-size:60px;"">+</div>","""",256,fixationBtwnNeutralMaskAndPrompt,Test,null,1000,"""","""","""","""","""","""","""","""",1,4/21/2021 9:03,109.154.118.10,Mozilla/5.0 (Windows NT 10.0; Win64; x64; rv:87.0) Gecko/20100101 Firefox/87.0,,Firefox,87,Windows,10
83,1,1547,"""",html-button-response,188,485835,0.0-188.0,"""","<img src='jspsych/CFDfaces/CFD-AM-242-176-N.jpg' height=""250px"">,</br><b>Jason</b>",1,256,IntactOrRearranged,Test,"""","""","""","""",CFD-BF-221-223-N.jpg,Whitney,0,1,"""","""",1,4/21/2021 9:03,109.154.118.10,Mozilla/5.0 (Windows NT 10.0; Win64; x64; rv:87.0) Gecko/20100101 Firefox/87.0,,Firefox,87,Windows,10
83,1,1946,"""",html-slider-response,189,487787,0.0-189.0,"""","<img src='jspsych/CFDfaces/CFD-AM-242-176-N.jpg' height=""250px"">,</br><b>Jason</b>","""",256,ConfidenceQuery,Test,"""","""","""","""",CFD-BF-221-223-N.jpg,Whitney,0,"""",0,81,1,4/21/2021 9:03,109.154.118.10,Mozilla/5.0 (Windows NT 10.0; Win64; x64; rv:87.0) Gecko/20100101 Firefox/87.0,,Firefox,87,Windows,10
83,1,null,"""",html-keyboard-response,190,488789,0.0-190.0,"""","<div style=""font-size:60px;"">+</div>","""",256,ITI,Test,null,1000,"""","""","""","""","""","""","""","""",1,4/21/2021 9:03,109.154.118.10,Mozilla/5.0 (Windows NT 10.0; Win64; x64; rv:87.0) Gecko/20100101 Firefox/87.0,,Firefox,87,Windows,10
83,1,null,"""",image-keyboard-response,191,489045,0.0-191.0,"""",jspsych/scrambledDisgustFaces/scrambledAF30DIS.JPG,"""",256,forwardMask,Test,null,250,"""",d,"""","""","""","""","""","""",1,4/21/2021 9:03,109.154.118.10,Mozilla/5.0 (Windows NT 10.0; Win64; x64; rv:87.0) Gecko/20100101 Firefox/87.0,,Firefox,87,Windows,10
83,1,null,"""",image-keyboard-response,192,489077,0.0-192.0,"""",jspsych/disgustFaces/AF30DIS.JPG,"""",256,Cue,Test,null,16,"""","""","""","""","""","""","""","""",1,4/21/2021 9:03,109.154.118.10,Mozilla/5.0 (Windows NT 10.0; Win64; x64; rv:87.0) Gecko/20100101 Firefox/87.0,,Firefox,87,Windows,10
83,1,null,"""",image-keyboard-response,193,489180,0.0-193.0,"""",jspsych/neutralFaces/AF29NES.JPG,"""",256,backwardMask,Test,null,100,"""","""","""","""","""","""","""","""",1,4/21/2021 9:03,109.154.118.10,Mozilla/5.0 (Windows NT 10.0; Win64; x64; rv:87.0) Gecko/20100101 Firefox/87.0,,Firefox,87,Windows,10
83,1,null,"""",html-keyboard-response,194,490181,0.0-194.0,"""","<div style=""font-size:60px;"">+</div>","""",256,fixationBtwnNeutralMaskAndPrompt,Test,null,1000,"""","""","""","""","""","""","""","""",1,4/21/2021 9:03,109.154.118.10,Mozilla/5.0 (Windows NT 10.0; Win64; x64; rv:87.0) Gecko/20100101 Firefox/87.0,,Firefox,87,Windows,10
83,1,2836,"""",html-button-response,195,493019,0.0-195.0,"""","<img src='jspsych/CFDfaces/CFD-LF-204-133-N.jpg' height=""250px"">,</br><b>Meghan</b>",0,256,IntactOrRearranged,Test,"""","""","""","""",CFD-WF-204-038-N.jpg,Angela,0,0,"""","""",1,4/21/2021 9:03,109.154.118.10,Mozilla/5.0 (Windows NT 10.0; Win64; x64; rv:87.0) Gecko/20100101 Firefox/87.0,,Firefox,87,Windows,10
83,1,1833,"""",html-slider-response,196,494859,0.0-196.0,"""","<img src='jspsych/CFDfaces/CFD-LF-204-133-N.jpg' height=""250px"">,</br><b>Meghan</b>","""",256,ConfidenceQuery,Test,"""","""","""","""",CFD-WF-204-038-N.jpg,Angela,0,"""",0,71,1,4/21/2021 9:03,109.154.118.10,Mozilla/5.0 (Windows NT 10.0; Win64; x64; rv:87.0) Gecko/20100101 Firefox/87.0,,Firefox,87,Windows,10
83,1,null,"""",html-keyboard-response,197,495869,0.0-197.0,"""","<div style=""font-size:60px;"">+</div>","""",256,ITI,Test,null,1000,"""","""","""","""","""","""","""","""",1,4/21/2021 9:03,109.154.118.10,Mozilla/5.0 (Windows NT 10.0; Win64; x64; rv:87.0) Gecko/20100101 Firefox/87.0,,Firefox,87,Windows,10
83,1,null,"""",image-keyboard-response,198,496125,0.0-198.0,"""",jspsych/scrambledDisgustFaces/scrambledBF25DIS.JPG,"""",256,forwardMask,Test,null,250,"""",d,"""","""","""","""","""","""",1,4/21/2021 9:03,109.154.118.10,Mozilla/5.0 (Windows NT 10.0; Win64; x64; rv:87.0) Gecko/20100101 Firefox/87.0,,Firefox,87,Windows,10
83,1,null,"""",image-keyboard-response,199,496155,0.0-199.0,"""",jspsych/disgustFaces/BF25DIS.JPG,"""",256,Cue,Test,null,16,"""","""","""","""","""","""","""","""",1,4/21/2021 9:03,109.154.118.10,Mozilla/5.0 (Windows NT 10.0; Win64; x64; rv:87.0) Gecko/20100101 Firefox/87.0,,Firefox,87,Windows,10
83,1,null,"""",image-keyboard-response,200,496267,0.0-200.0,"""",jspsych/neutralFaces/AF04NES.JPG,"""",256,backwardMask,Test,null,100,"""","""","""","""","""","""","""","""",1,4/21/2021 9:03,109.154.118.10,Mozilla/5.0 (Windows NT 10.0; Win64; x64; rv:87.0) Gecko/20100101 Firefox/87.0,,Firefox,87,Windows,10
83,1,null,"""",html-keyboard-response,201,497279,0.0-201.0,"""","<div style=""font-size:60px;"">+</div>","""",256,fixationBtwnNeutralMaskAndPrompt,Test,null,1000,"""","""","""","""","""","""","""","""",1,4/21/2021 9:03,109.154.118.10,Mozilla/5.0 (Windows NT 10.0; Win64; x64; rv:87.0) Gecko/20100101 Firefox/87.0,,Firefox,87,Windows,10
83,1,1595,"""",html-button-response,202,498875,0.0-202.0,"""","<img src='jspsych/CFDfaces/CFD-AF-242-158-N.jpg' height=""250px"">,</br><b>Emily</b>",1,256,IntactOrRearranged,Test,"""","""","""","""",CFD-LF-218-072-N.jpg,Taylor,1,1,"""","""",1,4/21/2021 9:03,109.154.118.10,Mozilla/5.0 (Windows NT 10.0; Win64; x64; rv:87.0) Gecko/20100101 Firefox/87.0,,Firefox,87,Windows,10
83,1,1986,"""",html-slider-response,203,500868,0.0-203.0,"""","<img src='jspsych/CFDfaces/CFD-AF-242-158-N.jpg' height=""250px"">,</br><b>Emily</b>","""",256,ConfidenceQuery,Test,"""","""","""","""",CFD-LF-218-072-N.jpg,Taylor,1,"""",0,100,1,4/21/2021 9:03,109.154.118.10,Mozilla/5.0 (Windows NT 10.0; Win64; x64; rv:87.0) Gecko/20100101 Firefox/87.0,,Firefox,87,Windows,10
83,1,null,"""",html-keyboard-response,204,501875,0.0-204.0,"""","<div style=""font-size:60px;"">+</div>","""",256,ITI,Test,null,1000,"""","""","""","""","""","""","""","""",1,4/21/2021 9:03,109.154.118.10,Mozilla/5.0 (Windows NT 10.0; Win64; x64; rv:87.0) Gecko/20100101 Firefox/87.0,,Firefox,87,Windows,10
83,1,null,"""",image-keyboard-response,205,502130,0.0-205.0,"""",jspsych/scrambledNeutralFaces/scrambledAM27NES.JPG,"""",256,forwardMask,Test,null,250,"""",n,"""","""","""","""","""","""",1,4/21/2021 9:03,109.154.118.10,Mozilla/5.0 (Windows NT 10.0; Win64; x64; rv:87.0) Gecko/20100101 Firefox/87.0,,Firefox,87,Windows,10
83,1,null,"""",image-keyboard-response,206,502157,0.0-206.0,"""",jspsych/neutralFaces/AM27NES.JPG,"""",256,Cue,Test,null,16,"""","""","""","""","""","""","""","""",1,4/21/2021 9:03,109.154.118.10,Mozilla/5.0 (Windows NT 10.0; Win64; x64; rv:87.0) Gecko/20100101 Firefox/87.0,,Firefox,87,Windows,10
83,1,null,"""",image-keyboard-response,207,502281,0.0-207.0,"""",jspsych/neutralFaces/AM33NES.JPG,"""",256,backwardMask,Test,null,100,"""","""","""","""","""","""","""","""",1,4/21/2021 9:03,109.154.118.10,Mozilla/5.0 (Windows NT 10.0; Win64; x64; rv:87.0) Gecko/20100101 Firefox/87.0,,Firefox,87,Windows,10
83,1,null,"""",html-keyboard-response,208,503287,0.0-208.0,"""","<div style=""font-size:60px;"">+</div>","""",256,fixationBtwnNeutralMaskAndPrompt,Test,null,1000,"""","""","""","""","""","""","""","""",1,4/21/2021 9:03,109.154.118.10,Mozilla/5.0 (Windows NT 10.0; Win64; x64; rv:87.0) Gecko/20100101 Firefox/87.0,,Firefox,87,Windows,10
83,1,1684,"""",html-button-response,209,504971,0.0-209.0,"""","<img src='jspsych/CFDfaces/CFD-AM-231-136-N.jpg' height=""250px"">,</br><b>Brandon</b>",0,256,IntactOrRearranged,Test,"""","""","""","""",CFD-LF-220-120-N.jpg,Jordan,0,0,"""","""",1,4/21/2021 9:03,109.154.118.10,Mozilla/5.0 (Windows NT 10.0; Win64; x64; rv:87.0) Gecko/20100101 Firefox/87.0,,Firefox,87,Windows,10
83,1,1489,"""",html-slider-response,210,506467,0.0-210.0,"""","<img src='jspsych/CFDfaces/CFD-AM-231-136-N.jpg' height=""250px"">,</br><b>Brandon</b>","""",256,ConfidenceQuery,Test,"""","""","""","""",CFD-LF-220-120-N.jpg,Jordan,0,"""",0,77,1,4/21/2021 9:03,109.154.118.10,Mozilla/5.0 (Windows NT 10.0; Win64; x64; rv:87.0) Gecko/20100101 Firefox/87.0,,Firefox,87,Windows,10
83,1,null,"""",html-keyboard-response,211,507478,0.0-211.0,"""","<div style=""font-size:60px;"">+</div>","""",256,ITI,Test,null,1000,"""","""","""","""","""","""","""","""",1,4/21/2021 9:03,109.154.118.10,Mozilla/5.0 (Windows NT 10.0; Win64; x64; rv:87.0) Gecko/20100101 Firefox/87.0,,Firefox,87,Windows,10
83,1,null,"""",image-keyboard-response,212,507730,0.0-212.0,"""",jspsych/scrambledDisgustFaces/scrambledBM31DIS.JPG,"""",256,forwardMask,Test,null,250,"""",d,"""","""","""","""","""","""",1,4/21/2021 9:03,109.154.118.10,Mozilla/5.0 (Windows NT 10.0; Win64; x64; rv:87.0) Gecko/20100101 Firefox/87.0,,Firefox,87,Windows,10
83,1,null,"""",image-keyboard-response,213,507750,0.0-213.0,"""",jspsych/disgustFaces/BM32DIS.JPG,"""",256,Cue,Test,null,16,"""","""","""","""","""","""","""","""",1,4/21/2021 9:03,109.154.118.10,Mozilla/5.0 (Windows NT 10.0; Win64; x64; rv:87.0) Gecko/20100101 Firefox/87.0,,Firefox,87,Windows,10
83,1,null,"""",image-keyboard-response,214,507862,0.0-214.0,"""",jspsych/neutralFaces/BM12NES.JPG,"""",256,backwardMask,Test,null,100,"""","""","""","""","""","""","""","""",1,4/21/2021 9:03,109.154.118.10,Mozilla/5.0 (Windows NT 10.0; Win64; x64; rv:87.0) Gecko/20100101 Firefox/87.0,,Firefox,87,Windows,10
83,1,null,"""",html-keyboard-response,215,508864,0.0-215.0,"""","<div style=""font-size:60px;"">+</div>","""",256,fixationBtwnNeutralMaskAndPrompt,Test,null,1000,"""","""","""","""","""","""","""","""",1,4/21/2021 9:03,109.154.118.10,Mozilla/5.0 (Windows NT 10.0; Win64; x64; rv:87.0) Gecko/20100101 Firefox/87.0,,Firefox,87,Windows,10
83,1,1522,"""",html-button-response,216,510387,0.0-216.0,"""","<img src='jspsych/CFDfaces/CFD-AM-243-212-N.jpg' height=""250px"">,</br><b>Christian</b>",1,256,IntactOrRearranged,Test,"""","""","""","""",CFD-WM-216-061-N.jpg,Ryan,1,1,"""","""",1,4/21/2021 9:03,109.154.118.10,Mozilla/5.0 (Windows NT 10.0; Win64; x64; rv:87.0) Gecko/20100101 Firefox/87.0,,Firefox,87,Windows,10
83,1,1983,"""",html-slider-response,217,512371,0.0-217.0,"""","<img src='jspsych/CFDfaces/CFD-AM-243-212-N.jpg' height=""250px"">,</br><b>Christian</b>","""",256,ConfidenceQuery,Test,"""","""","""","""",CFD-WM-216-061-N.jpg,Ryan,1,"""",0,78,1,4/21/2021 9:03,109.154.118.10,Mozilla/5.0 (Windows NT 10.0; Win64; x64; rv:87.0) Gecko/20100101 Firefox/87.0,,Firefox,87,Windows,10
83,1,null,"""",html-keyboard-response,218,513380,0.0-218.0,"""","<div style=""font-size:60px;"">+</div>","""",256,ITI,Test,null,1000,"""","""","""","""","""","""","""","""",1,4/21/2021 9:03,109.154.118.10,Mozilla/5.0 (Windows NT 10.0; Win64; x64; rv:87.0) Gecko/20100101 Firefox/87.0,,Firefox,87,Windows,10
83,1,null,"""",image-keyboard-response,219,513640,0.0-219.0,"""",jspsych/scrambledNeutralFaces/scrambledAM04NES.JPG,"""",256,forwardMask,Test,null,250,"""",n,"""","""","""","""","""","""",1,4/21/2021 9:03,109.154.118.10,Mozilla/5.0 (Windows NT 10.0; Win64; x64; rv:87.0) Gecko/20100101 Firefox/87.0,,Firefox,87,Windows,10
83,1,null,"""",image-keyboard-response,220,513672,0.0-220.0,"""",jspsych/neutralFaces/AM04NES.JPG,"""",256,Cue,Test,null,16,"""","""","""","""","""","""","""","""",1,4/21/2021 9:03,109.154.118.10,Mozilla/5.0 (Windows NT 10.0; Win64; x64; rv:87.0) Gecko/20100101 Firefox/87.0,,Firefox,87,Windows,10
83,1,null,"""",image-keyboard-response,221,513781,0.0-221.0,"""",jspsych/neutralFaces/BM33NES.JPG,"""",256,backwardMask,Test,null,100,"""","""","""","""","""","""","""","""",1,4/21/2021 9:03,109.154.118.10,Mozilla/5.0 (Windows NT 10.0; Win64; x64; rv:87.0) Gecko/20100101 Firefox/87.0,,Firefox,87,Windows,10
83,1,null,"""",html-keyboard-response,222,514784,0.0-222.0,"""","<div style=""font-size:60px;"">+</div>","""",256,fixationBtwnNeutralMaskAndPrompt,Test,null,1000,"""","""","""","""","""","""","""","""",1,4/21/2021 9:03,109.154.118.10,Mozilla/5.0 (Windows NT 10.0; Win64; x64; rv:87.0) Gecko/20100101 Firefox/87.0,,Firefox,87,Windows,10
83,1,1339,"""",html-button-response,223,516123,0.0-223.0,"""","<img src='jspsych/CFDfaces/CFD-LM-246-087-N.jpg' height=""250px"">,</br><b>Robert</b>",0,256,IntactOrRearranged,Test,"""","""","""","""",CFD-WM-009-002-N.jpg,Kenneth,0,0,"""","""",1,4/21/2021 9:03,109.154.118.10,Mozilla/5.0 (Windows NT 10.0; Win64; x64; rv:87.0) Gecko/20100101 Firefox/87.0,,Firefox,87,Windows,10
83,1,1982,"""",html-slider-response,224,518107,0.0-224.0,"""","<img src='jspsych/CFDfaces/CFD-LM-246-087-N.jpg' height=""250px"">,</br><b>Robert</b>","""",256,ConfidenceQuery,Test,"""","""","""","""",CFD-WM-009-002-N.jpg,Kenneth,0,"""",0,79,1,4/21/2021 9:03,109.154.118.10,Mozilla/5.0 (Windows NT 10.0; Win64; x64; rv:87.0) Gecko/20100101 Firefox/87.0,,Firefox,87,Windows,10
83,1,null,"""",html-keyboard-response,225,519114,0.0-225.0,"""","<div style=""font-size:60px;"">+</div>","""",256,ITI,Test,null,1000,"""","""","""","""","""","""","""","""",1,4/21/2021 9:03,109.154.118.10,Mozilla/5.0 (Windows NT 10.0; Win64; x64; rv:87.0) Gecko/20100101 Firefox/87.0,,Firefox,87,Windows,10
83,1,null,"""",image-keyboard-response,226,519382,0.0-226.0,"""",jspsych/scrambledNeutralFaces/scrambledBM34NES.JPG,"""",256,forwardMask,Test,null,250,"""",n,"""","""","""","""","""","""",1,4/21/2021 9:03,109.154.118.10,Mozilla/5.0 (Windows NT 10.0; Win64; x64; rv:87.0) Gecko/20100101 Firefox/87.0,,Firefox,87,Windows,10
83,1,null,"""",image-keyboard-response,227,519412,0.0-227.0,"""",jspsych/neutralFaces/BM34NES.JPG,"""",256,Cue,Test,null,16,"""","""","""","""","""","""","""","""",1,4/21/2021 9:03,109.154.118.10,Mozilla/5.0 (Windows NT 10.0; Win64; x64; rv:87.0) Gecko/20100101 Firefox/87.0,,Firefox,87,Windows,10
83,1,null,"""",image-keyboard-response,228,519523,0.0-228.0,"""",jspsych/neutralFaces/AM25NES.JPG,"""",256,backwardMask,Test,null,100,"""","""","""","""","""","""","""","""",1,4/21/2021 9:03,109.154.118.10,Mozilla/5.0 (Windows NT 10.0; Win64; x64; rv:87.0) Gecko/20100101 Firefox/87.0,,Firefox,87,Windows,10
83,1,null,"""",html-keyboard-response,229,520524,0.0-229.0,"""","<div style=""font-size:60px;"">+</div>","""",256,fixationBtwnNeutralMaskAndPrompt,Test,null,1000,"""","""","""","""","""","""","""","""",1,4/21/2021 9:03,109.154.118.10,Mozilla/5.0 (Windows NT 10.0; Win64; x64; rv:87.0) Gecko/20100101 Firefox/87.0,,Firefox,87,Windows,10
83,1,1614,"""",html-button-response,230,522139,0.0-230.0,"""","<img src='jspsych/CFDfaces/CFD-AF-240-206-N.jpg' height=""250px"">,</br><b>Elizabeth</b>",1,256,IntactOrRearranged,Test,"""","""","""","""",CFD-LM-219-295-N.jpg,Sean,1,1,"""","""",1,4/21/2021 9:03,109.154.118.10,Mozilla/5.0 (Windows NT 10.0; Win64; x64; rv:87.0) Gecko/20100101 Firefox/87.0,,Firefox,87,Windows,10
83,1,3270,"""",html-slider-response,231,525411,0.0-231.0,"""","<img src='jspsych/CFDfaces/CFD-AF-240-206-N.jpg' height=""250px"">,</br><b>Elizabeth</b>","""",256,ConfidenceQuery,Test,"""","""","""","""",CFD-LM-219-295-N.jpg,Sean,1,"""",0,100,1,4/21/2021 9:03,109.154.118.10,Mozilla/5.0 (Windows NT 10.0; Win64; x64; rv:87.0) Gecko/20100101 Firefox/87.0,,Firefox,87,Windows,10
83,1,null,"""",html-keyboard-response,232,526426,0.0-232.0,"""","<div style=""font-size:60px;"">+</div>","""",256,ITI,Test,null,1000,"""","""","""","""","""","""","""","""",1,4/21/2021 9:03,109.154.118.10,Mozilla/5.0 (Windows NT 10.0; Win64; x64; rv:87.0) Gecko/20100101 Firefox/87.0,,Firefox,87,Windows,10
83,1,null,"""",image-keyboard-response,233,526678,0.0-233.0,"""",jspsych/scrambledNeutralFaces/scrambledAM14NES.JPG,"""",256,forwardMask,Test,null,250,"""",n,"""","""","""","""","""","""",1,4/21/2021 9:03,109.154.118.10,Mozilla/5.0 (Windows NT 10.0; Win64; x64; rv:87.0) Gecko/20100101 Firefox/87.0,,Firefox,87,Windows,10
83,1,null,"""",image-keyboard-response,234,526710,0.0-234.0,"""",jspsych/neutralFaces/AM14NES.JPG,"""",256,Cue,Test,null,16,"""","""","""","""","""","""","""","""",1,4/21/2021 9:03,109.154.118.10,Mozilla/5.0 (Windows NT 10.0; Win64; x64; rv:87.0) Gecko/20100101 Firefox/87.0,,Firefox,87,Windows,10
83,1,null,"""",image-keyboard-response,235,526822,0.0-235.0,"""",jspsych/neutralFaces/BM07NES.JPG,"""",256,backwardMask,Test,null,100,"""","""","""","""","""","""","""","""",1,4/21/2021 9:03,109.154.118.10,Mozilla/5.0 (Windows NT 10.0; Win64; x64; rv:87.0) Gecko/20100101 Firefox/87.0,,Firefox,87,Windows,10
83,1,null,"""",html-keyboard-response,236,527828,0.0-236.0,"""","<div style=""font-size:60px;"">+</div>","""",256,fixationBtwnNeutralMaskAndPrompt,Test,null,1000,"""","""","""","""","""","""","""","""",1,4/21/2021 9:03,109.154.118.10,Mozilla/5.0 (Windows NT 10.0; Win64; x64; rv:87.0) Gecko/20100101 Firefox/87.0,,Firefox,87,Windows,10
83,1,1582,"""",html-button-response,237,529411,0.0-237.0,"""","<img src='jspsych/CFDfaces/CFD-LF-230-203-N.jpg' height=""250px"">,</br><b>Andrea</b>",1,256,IntactOrRearranged,Test,"""","""","""","""",CFD-BF-023-010-N.jpg,Jenna,1,1,"""","""",1,4/21/2021 9:03,109.154.118.10,Mozilla/5.0 (Windows NT 10.0; Win64; x64; rv:87.0) Gecko/20100101 Firefox/87.0,,Firefox,87,Windows,10
83,1,2566,"""",html-slider-response,238,531979,0.0-238.0,"""","<img src='jspsych/CFDfaces/CFD-LF-230-203-N.jpg' height=""250px"">,</br><b>Andrea</b>","""",256,ConfidenceQuery,Test,"""","""","""","""",CFD-BF-023-010-N.jpg,Jenna,1,"""",0,100,1,4/21/2021 9:03,109.154.118.10,Mozilla/5.0 (Windows NT 10.0; Win64; x64; rv:87.0) Gecko/20100101 Firefox/87.0,,Firefox,87,Windows,10
83,1,null,"""",html-keyboard-response,239,532998,0.0-239.0,"""","<div style=""font-size:60px;"">+</div>","""",256,ITI,Test,null,1000,"""","""","""","""","""","""","""","""",1,4/21/2021 9:03,109.154.118.10,Mozilla/5.0 (Windows NT 10.0; Win64; x64; rv:87.0) Gecko/20100101 Firefox/87.0,,Firefox,87,Windows,10
83,1,null,"""",image-keyboard-response,240,533254,0.0-240.0,"""",jspsych/scrambledNeutralFaces/scrambledAF18NES.JPG,"""",256,forwardMask,Test,null,250,"""",n,"""","""","""","""","""","""",1,4/21/2021 9:03,109.154.118.10,Mozilla/5.0 (Windows NT 10.0; Win64; x64; rv:87.0) Gecko/20100101 Firefox/87.0,,Firefox,87,Windows,10
83,1,null,"""",image-keyboard-response,241,533301,0.0-241.0,"""",jspsych/neutralFaces/AF18NES.JPG,"""",256,Cue,Test,null,16,"""","""","""","""","""","""","""","""",1,4/21/2021 9:03,109.154.118.10,Mozilla/5.0 (Windows NT 10.0; Win64; x64; rv:87.0) Gecko/20100101 Firefox/87.0,,Firefox,87,Windows,10
83,1,null,"""",image-keyboard-response,242,533414,0.0-242.0,"""",jspsych/neutralFaces/BF34NES.JPG,"""",256,backwardMask,Test,null,100,"""","""","""","""","""","""","""","""",1,4/21/2021 9:03,109.154.118.10,Mozilla/5.0 (Windows NT 10.0; Win64; x64; rv:87.0) Gecko/20100101 Firefox/87.0,,Firefox,87,Windows,10
83,1,null,"""",html-keyboard-response,243,534415,0.0-243.0,"""","<div style=""font-size:60px;"">+</div>","""",256,fixationBtwnNeutralMaskAndPrompt,Test,null,1000,"""","""","""","""","""","""","""","""",1,4/21/2021 9:03,109.154.118.10,Mozilla/5.0 (Windows NT 10.0; Win64; x64; rv:87.0) Gecko/20100101 Firefox/87.0,,Firefox,87,Windows,10
83,1,1715,"""",html-button-response,244,536130,0.0-244.0,"""","<img src='jspsych/CFDfaces/CFD-AF-209-006-N.jpg' height=""250px"">,</br><b>Julie</b>",1,256,IntactOrRearranged,Test,"""","""","""","""",CFD-WF-016-015-N.jpg,Jasmine,0,1,"""","""",1,4/21/2021 9:03,109.154.118.10,Mozilla/5.0 (Windows NT 10.0; Win64; x64; rv:87.0) Gecko/20100101 Firefox/87.0,,Firefox,87,Windows,10
83,1,2574,"""",html-slider-response,245,538707,0.0-245.0,"""","<img src='jspsych/CFDfaces/CFD-AF-209-006-N.jpg' height=""250px"">,</br><b>Julie</b>","""",256,ConfidenceQuery,Test,"""","""","""","""",CFD-WF-016-015-N.jpg,Jasmine,0,"""",0,78,1,4/21/2021 9:03,109.154.118.10,Mozilla/5.0 (Windows NT 10.0; Win64; x64; rv:87.0) Gecko/20100101 Firefox/87.0,,Firefox,87,Windows,10
83,1,null,"""",html-keyboard-response,246,539724,0.0-246.0,"""","<div style=""font-size:60px;"">+</div>","""",256,ITI,Test,null,1000,"""","""","""","""","""","""","""","""",1,4/21/2021 9:03,109.154.118.10,Mozilla/5.0 (Windows NT 10.0; Win64; x64; rv:87.0) Gecko/20100101 Firefox/87.0,,Firefox,87,Windows,10
83,1,null,"""",image-keyboard-response,247,539978,0.0-247.0,"""",jspsych/scrambledNeutralFaces/scrambledBM34NES.JPG,"""",256,forwardMask,Test,null,250,"""",n,"""","""","""","""","""","""",1,4/21/2021 9:03,109.154.118.10,Mozilla/5.0 (Windows NT 10.0; Win64; x64; rv:87.0) Gecko/20100101 Firefox/87.0,,Firefox,87,Windows,10
83,1,null,"""",image-keyboard-response,248,540010,0.0-248.0,"""",jspsych/neutralFaces/BM34NES.JPG,"""",256,Cue,Test,null,16,"""","""","""","""","""","""","""","""",1,4/21/2021 9:03,109.154.118.10,Mozilla/5.0 (Windows NT 10.0; Win64; x64; rv:87.0) Gecko/20100101 Firefox/87.0,,Firefox,87,Windows,10
83,1,null,"""",image-keyboard-response,249,540121,0.0-249.0,"""",jspsych/neutralFaces/BM33NES.JPG,"""",256,backwardMask,Test,null,100,"""","""","""","""","""","""","""","""",1,4/21/2021 9:03,109.154.118.10,Mozilla/5.0 (Windows NT 10.0; Win64; x64; rv:87.0) Gecko/20100101 Firefox/87.0,,Firefox,87,Windows,10
83,1,null,"""",html-keyboard-response,250,541128,0.0-250.0,"""","<div style=""font-size:60px;"">+</div>","""",256,fixationBtwnNeutralMaskAndPrompt,Test,null,1000,"""","""","""","""","""","""","""","""",1,4/21/2021 9:03,109.154.118.10,Mozilla/5.0 (Windows NT 10.0; Win64; x64; rv:87.0) Gecko/20100101 Firefox/87.0,,Firefox,87,Windows,10
83,1,2034,"""",html-button-response,251,543162,0.0-251.0,"""","<img src='jspsych/CFDfaces/CFD-BM-010-003-N.jpg' height=""250px"">,</br><b>Richard</b>",1,256,IntactOrRearranged,Test,"""","""","""","""",CFD-BF-010-001-N.jpg,Lindsey,1,1,"""","""",1,4/21/2021 9:03,109.154.118.10,Mozilla/5.0 (Windows NT 10.0; Win64; x64; rv:87.0) Gecko/20100101 Firefox/87.0,,Firefox,87,Windows,10
83,1,2134,"""",html-slider-response,252,545299,0.0-252.0,"""","<img src='jspsych/CFDfaces/CFD-BM-010-003-N.jpg' height=""250px"">,</br><b>Richard</b>","""",256,ConfidenceQuery,Test,"""","""","""","""",CFD-BF-010-001-N.jpg,Lindsey,1,"""",0,80,1,4/21/2021 9:03,109.154.118.10,Mozilla/5.0 (Windows NT 10.0; Win64; x64; rv:87.0) Gecko/20100101 Firefox/87.0,,Firefox,87,Windows,10
83,1,null,"""",html-keyboard-response,253,546310,0.0-253.0,"""","<div style=""font-size:60px;"">+</div>","""",256,ITI,Test,null,1000,"""","""","""","""","""","""","""","""",1,4/21/2021 9:03,109.154.118.10,Mozilla/5.0 (Windows NT 10.0; Win64; x64; rv:87.0) Gecko/20100101 Firefox/87.0,,Firefox,87,Windows,10
83,1,null,"""",image-keyboard-response,254,546563,0.0-254.0,"""",jspsych/scrambledNeutralFaces/scrambledBF12NES.JPG,"""",256,forwardMask,Test,null,250,"""",n,"""","""","""","""","""","""",1,4/21/2021 9:03,109.154.118.10,Mozilla/5.0 (Windows NT 10.0; Win64; x64; rv:87.0) Gecko/20100101 Firefox/87.0,,Firefox,87,Windows,10
83,1,null,"""",image-keyboard-response,255,546594,0.0-255.0,"""",jspsych/neutralFaces/BF12NES.JPG,"""",256,Cue,Test,null,16,"""","""","""","""","""","""","""","""",1,4/21/2021 9:03,109.154.118.10,Mozilla/5.0 (Windows NT 10.0; Win64; x64; rv:87.0) Gecko/20100101 Firefox/87.0,,Firefox,87,Windows,10
83,1,null,"""",image-keyboard-response,256,546706,0.0-256.0,"""",jspsych/neutralFaces/BF22NES.JPG,"""",256,backwardMask,Test,null,100,"""","""","""","""","""","""","""","""",1,4/21/2021 9:03,109.154.118.10,Mozilla/5.0 (Windows NT 10.0; Win64; x64; rv:87.0) Gecko/20100101 Firefox/87.0,,Firefox,87,Windows,10
83,1,null,"""",html-keyboard-response,257,547710,0.0-257.0,"""","<div style=""font-size:60px;"">+</div>","""",256,fixationBtwnNeutralMaskAndPrompt,Test,null,1000,"""","""","""","""","""","""","""","""",1,4/21/2021 9:03,109.154.118.10,Mozilla/5.0 (Windows NT 10.0; Win64; x64; rv:87.0) Gecko/20100101 Firefox/87.0,,Firefox,87,Windows,10
83,1,1412,"""",html-button-response,258,549123,0.0-258.0,"""","<img src='jspsych/CFDfaces/CFD-WM-041-021-N.jpg' height=""250px"">,</br><b>Juan</b>",0,256,IntactOrRearranged,Test,"""","""","""","""",CFD-AM-202-079-N.jpg,Mark,0,0,"""","""",1,4/21/2021 9:03,109.154.118.10,Mozilla/5.0 (Windows NT 10.0; Win64; x64; rv:87.0) Gecko/20100101 Firefox/87.0,,Firefox,87,Windows,10
83,1,2285,"""",html-slider-response,259,551411,0.0-259.0,"""","<img src='jspsych/CFDfaces/CFD-WM-041-021-N.jpg' height=""250px"">,</br><b>Juan</b>","""",256,ConfidenceQuery,Test,"""","""","""","""",CFD-AM-202-079-N.jpg,Mark,0,"""",0,100,1,4/21/2021 9:03,109.154.118.10,Mozilla/5.0 (Windows NT 10.0; Win64; x64; rv:87.0) Gecko/20100101 Firefox/87.0,,Firefox,87,Windows,10
83,1,null,"""",html-keyboard-response,260,552429,0.0-260.0,"""","<div style=""font-size:60px;"">+</div>","""",256,ITI,Test,null,1000,"""","""","""","""","""","""","""","""",1,4/21/2021 9:03,109.154.118.10,Mozilla/5.0 (Windows NT 10.0; Win64; x64; rv:87.0) Gecko/20100101 Firefox/87.0,,Firefox,87,Windows,10
83,1,null,"""",image-keyboard-response,261,552683,0.0-261.0,"""",jspsych/scrambledDisgustFaces/scrambledAM32DIS.JPG,"""",256,forwardMask,Test,null,250,"""",d,"""","""","""","""","""","""",1,4/21/2021 9:03,109.154.118.10,Mozilla/5.0 (Windows NT 10.0; Win64; x64; rv:87.0) Gecko/20100101 Firefox/87.0,,Firefox,87,Windows,10
83,1,null,"""",image-keyboard-response,262,552715,0.0-262.0,"""",jspsych/disgustFaces/AM32DIS.JPG,"""",256,Cue,Test,null,16,"""","""","""","""","""","""","""","""",1,4/21/2021 9:03,109.154.118.10,Mozilla/5.0 (Windows NT 10.0; Win64; x64; rv:87.0) Gecko/20100101 Firefox/87.0,,Firefox,87,Windows,10
83,1,null,"""",image-keyboard-response,263,552827,0.0-263.0,"""",jspsych/neutralFaces/BM35NES.JPG,"""",256,backwardMask,Test,null,100,"""","""","""","""","""","""","""","""",1,4/21/2021 9:03,109.154.118.10,Mozilla/5.0 (Windows NT 10.0; Win64; x64; rv:87.0) Gecko/20100101 Firefox/87.0,,Firefox,87,Windows,10
83,1,null,"""",html-keyboard-response,264,553831,0.0-264.0,"""","<div style=""font-size:60px;"">+</div>","""",256,fixationBtwnNeutralMaskAndPrompt,Test,null,1000,"""","""","""","""","""","""","""","""",1,4/21/2021 9:03,109.154.118.10,Mozilla/5.0 (Windows NT 10.0; Win64; x64; rv:87.0) Gecko/20100101 Firefox/87.0,,Firefox,87,Windows,10
83,1,1378,"""",html-button-response,265,555211,0.0-265.0,"""","<img src='jspsych/CFDfaces/CFD-LM-233-171-N.jpg' height=""250px"">,</br><b>Ian</b>",0,256,IntactOrRearranged,Test,"""","""","""","""",CFD-BM-211-174-N.jpg,Timothy,0,0,"""","""",1,4/21/2021 9:03,109.154.118.10,Mozilla/5.0 (Windows NT 10.0; Win64; x64; rv:87.0) Gecko/20100101 Firefox/87.0,,Firefox,87,Windows,10
83,1,2046,"""",html-slider-response,266,557258,0.0-266.0,"""","<img src='jspsych/CFDfaces/CFD-LM-233-171-N.jpg' height=""250px"">,</br><b>Ian</b>","""",256,ConfidenceQuery,Test,"""","""","""","""",CFD-BM-211-174-N.jpg,Timothy,0,"""",0,100,1,4/21/2021 9:03,109.154.118.10,Mozilla/5.0 (Windows NT 10.0; Win64; x64; rv:87.0) Gecko/20100101 Firefox/87.0,,Firefox,87,Windows,10
83,1,null,"""",html-keyboard-response,267,558266,0.0-267.0,"""","<div style=""font-size:60px;"">+</div>","""",256,ITI,Test,null,1000,"""","""","""","""","""","""","""","""",1,4/21/2021 9:03,109.154.118.10,Mozilla/5.0 (Windows NT 10.0; Win64; x64; rv:87.0) Gecko/20100101 Firefox/87.0,,Firefox,87,Windows,10
83,1,null,"""",image-keyboard-response,268,558523,0.0-268.0,"""",jspsych/scrambledNeutralFaces/scrambledBM21NES.JPG,"""",256,forwardMask,Test,null,250,"""",n,"""","""","""","""","""","""",1,4/21/2021 9:03,109.154.118.10,Mozilla/5.0 (Windows NT 10.0; Win64; x64; rv:87.0) Gecko/20100101 Firefox/87.0,,Firefox,87,Windows,10
83,1,null,"""",image-keyboard-response,269,558549,0.0-269.0,"""",jspsych/neutralFaces/BM21NES.JPG,"""",256,Cue,Test,null,16,"""","""","""","""","""","""","""","""",1,4/21/2021 9:03,109.154.118.10,Mozilla/5.0 (Windows NT 10.0; Win64; x64; rv:87.0) Gecko/20100101 Firefox/87.0,,Firefox,87,Windows,10
83,1,null,"""",image-keyboard-response,270,558651,0.0-270.0,"""",jspsych/neutralFaces/BM23NES.JPG,"""",256,backwardMask,Test,null,100,"""","""","""","""","""","""","""","""",1,4/21/2021 9:03,109.154.118.10,Mozilla/5.0 (Windows NT 10.0; Win64; x64; rv:87.0) Gecko/20100101 Firefox/87.0,,Firefox,87,Windows,10
83,1,null,"""",html-keyboard-response,271,559657,0.0-271.0,"""","<div style=""font-size:60px;"">+</div>","""",256,fixationBtwnNeutralMaskAndPrompt,Test,null,1000,"""","""","""","""","""","""","""","""",1,4/21/2021 9:03,109.154.118.10,Mozilla/5.0 (Windows NT 10.0; Win64; x64; rv:87.0) Gecko/20100101 Firefox/87.0,,Firefox,87,Windows,10
83,1,1497,"""",html-button-response,272,561155,0.0-272.0,"""","<img src='jspsych/CFDfaces/CFD-BF-004-014-N.jpg' height=""250px"">,</br><b>Samantha</b>",0,256,IntactOrRearranged,Test,"""","""","""","""",CFD-AM-228-214-N.jpg,Justin,0,0,"""","""",1,4/21/2021 9:03,109.154.118.10,Mozilla/5.0 (Windows NT 10.0; Win64; x64; rv:87.0) Gecko/20100101 Firefox/87.0,,Firefox,87,Windows,10
83,1,2150,"""",html-slider-response,273,563307,0.0-273.0,"""","<img src='jspsych/CFDfaces/CFD-BF-004-014-N.jpg' height=""250px"">,</br><b>Samantha</b>","""",256,ConfidenceQuery,Test,"""","""","""","""",CFD-AM-228-214-N.jpg,Justin,0,"""",0,100,1,4/21/2021 9:03,109.154.118.10,Mozilla/5.0 (Windows NT 10.0; Win64; x64; rv:87.0) Gecko/20100101 Firefox/87.0,,Firefox,87,Windows,10
83,1,null,"""",html-keyboard-response,274,564323,0.0-274.0,"""","<div style=""font-size:60px;"">+</div>","""",256,ITI,Test,null,1000,"""","""","""","""","""","""","""","""",1,4/21/2021 9:03,109.154.118.10,Mozilla/5.0 (Windows NT 10.0; Win64; x64; rv:87.0) Gecko/20100101 Firefox/87.0,,Firefox,87,Windows,10
83,1,null,"""",image-keyboard-response,275,564587,0.0-275.0,"""",jspsych/scrambledDisgustFaces/scrambledBM32DIS.JPG,"""",256,forwardMask,Test,null,250,"""",d,"""","""","""","""","""","""",1,4/21/2021 9:03,109.154.118.10,Mozilla/5.0 (Windows NT 10.0; Win64; x64; rv:87.0) Gecko/20100101 Firefox/87.0,,Firefox,87,Windows,10
83,1,null,"""",image-keyboard-response,276,564618,0.0-276.0,"""",jspsych/disgustFaces/BM33DIS.JPG,"""",256,Cue,Test,null,16,"""","""","""","""","""","""","""","""",1,4/21/2021 9:03,109.154.118.10,Mozilla/5.0 (Windows NT 10.0; Win64; x64; rv:87.0) Gecko/20100101 Firefox/87.0,,Firefox,87,Windows,10
83,1,null,"""",image-keyboard-response,277,564729,0.0-277.0,"""",jspsych/neutralFaces/BM11NES.JPG,"""",256,backwardMask,Test,null,100,"""","""","""","""","""","""","""","""",1,4/21/2021 9:03,109.154.118.10,Mozilla/5.0 (Windows NT 10.0; Win64; x64; rv:87.0) Gecko/20100101 Firefox/87.0,,Firefox,87,Windows,10
83,1,null,"""",html-keyboard-response,278,565733,0.0-278.0,"""","<div style=""font-size:60px;"">+</div>","""",256,fixationBtwnNeutralMaskAndPrompt,Test,null,1000,"""","""","""","""","""","""","""","""",1,4/21/2021 9:03,109.154.118.10,Mozilla/5.0 (Windows NT 10.0; Win64; x64; rv:87.0) Gecko/20100101 Firefox/87.0,,Firefox,87,Windows,10
83,1,1621,"""",html-button-response,279,567355,0.0-279.0,"""","<img src='jspsych/CFDfaces/CFD-LM-224-162-N.jpg' height=""250px"">,</br><b>James</b>",1,256,IntactOrRearranged,Test,"""","""","""","""",CFD-LM-223-175-N.jpg,Luis,1,1,"""","""",1,4/21/2021 9:03,109.154.118.10,Mozilla/5.0 (Windows NT 10.0; Win64; x64; rv:87.0) Gecko/20100101 Firefox/87.0,,Firefox,87,Windows,10
83,1,2759,"""",html-slider-response,280,570115,0.0-280.0,"""","<img src='jspsych/CFDfaces/CFD-LM-224-162-N.jpg' height=""250px"">,</br><b>James</b>","""",256,ConfidenceQuery,Test,"""","""","""","""",CFD-LM-223-175-N.jpg,Luis,1,"""",0,72,1,4/21/2021 9:03,109.154.118.10,Mozilla/5.0 (Windows NT 10.0; Win64; x64; rv:87.0) Gecko/20100101 Firefox/87.0,,Firefox,87,Windows,10
83,1,null,"""",html-keyboard-response,281,571133,0.0-281.0,"""","<div style=""font-size:60px;"">+</div>","""",256,ITI,Test,null,1000,"""","""","""","""","""","""","""","""",1,4/21/2021 9:03,109.154.118.10,Mozilla/5.0 (Windows NT 10.0; Win64; x64; rv:87.0) Gecko/20100101 Firefox/87.0,,Firefox,87,Windows,10
83,1,null,"""",image-keyboard-response,282,571389,0.0-282.0,"""",jspsych/scrambledNeutralFaces/scrambledAM10NES.JPG,"""",256,forwardMask,Test,null,250,"""",n,"""","""","""","""","""","""",1,4/21/2021 9:03,109.154.118.10,Mozilla/5.0 (Windows NT 10.0; Win64; x64; rv:87.0) Gecko/20100101 Firefox/87.0,,Firefox,87,Windows,10
83,1,null,"""",image-keyboard-response,283,571421,0.0-283.0,"""",jspsych/neutralFaces/AM10NES.JPG,"""",256,Cue,Test,null,16,"""","""","""","""","""","""","""","""",1,4/21/2021 9:03,109.154.118.10,Mozilla/5.0 (Windows NT 10.0; Win64; x64; rv:87.0) Gecko/20100101 Firefox/87.0,,Firefox,87,Windows,10
83,1,null,"""",image-keyboard-response,284,571533,0.0-284.0,"""",jspsych/neutralFaces/BM01NES.JPG,"""",256,backwardMask,Test,null,100,"""","""","""","""","""","""","""","""",1,4/21/2021 9:03,109.154.118.10,Mozilla/5.0 (Windows NT 10.0; Win64; x64; rv:87.0) Gecko/20100101 Firefox/87.0,,Firefox,87,Windows,10
83,1,null,"""",html-keyboard-response,285,572535,0.0-285.0,"""","<div style=""font-size:60px;"">+</div>","""",256,fixationBtwnNeutralMaskAndPrompt,Test,null,1000,"""","""","""","""","""","""","""","""",1,4/21/2021 9:03,109.154.118.10,Mozilla/5.0 (Windows NT 10.0; Win64; x64; rv:87.0) Gecko/20100101 Firefox/87.0,,Firefox,87,Windows,10
83,1,1412,"""",html-button-response,286,573947,0.0-286.0,"""","<img src='jspsych/CFDfaces/CFD-WM-006-002-N.jpg' height=""250px"">,</br><b>Gregory</b>",1,256,IntactOrRearranged,Test,"""","""","""","""",CFD-LF-213-079-N.jpg,Rebecca,1,1,"""","""",1,4/21/2021 9:03,109.154.118.10,Mozilla/5.0 (Windows NT 10.0; Win64; x64; rv:87.0) Gecko/20100101 Firefox/87.0,,Firefox,87,Windows,10
83,1,1862,"""",html-slider-response,287,575811,0.0-287.0,"""","<img src='jspsych/CFDfaces/CFD-WM-006-002-N.jpg' height=""250px"">,</br><b>Gregory</b>","""",256,ConfidenceQuery,Test,"""","""","""","""",CFD-LF-213-079-N.jpg,Rebecca,1,"""",0,100,1,4/21/2021 9:03,109.154.118.10,Mozilla/5.0 (Windows NT 10.0; Win64; x64; rv:87.0) Gecko/20100101 Firefox/87.0,,Firefox,87,Windows,10
83,1,null,"""",html-keyboard-response,288,576823,0.0-288.0,"""","<div style=""font-size:60px;"">+</div>","""",256,ITI,Test,null,1000,"""","""","""","""","""","""","""","""",1,4/21/2021 9:03,109.154.118.10,Mozilla/5.0 (Windows NT 10.0; Win64; x64; rv:87.0) Gecko/20100101 Firefox/87.0,,Firefox,87,Windows,10
83,1,null,"""",image-keyboard-response,289,577078,0.0-289.0,"""",jspsych/scrambledNeutralFaces/scrambledBM12NES.JPG,"""",256,forwardMask,Test,null,250,"""",n,"""","""","""","""","""","""",1,4/21/2021 9:03,109.154.118.10,Mozilla/5.0 (Windows NT 10.0; Win64; x64; rv:87.0) Gecko/20100101 Firefox/87.0,,Firefox,87,Windows,10
83,1,null,"""",image-keyboard-response,290,577109,0.0-290.0,"""",jspsych/neutralFaces/BM12NES.JPG,"""",256,Cue,Test,null,16,"""","""","""","""","""","""","""","""",1,4/21/2021 9:03,109.154.118.10,Mozilla/5.0 (Windows NT 10.0; Win64; x64; rv:87.0) Gecko/20100101 Firefox/87.0,,Firefox,87,Windows,10
83,1,null,"""",image-keyboard-response,291,577216,0.0-291.0,"""",jspsych/neutralFaces/AM10NES.JPG,"""",256,backwardMask,Test,null,100,"""","""","""","""","""","""","""","""",1,4/21/2021 9:03,109.154.118.10,Mozilla/5.0 (Windows NT 10.0; Win64; x64; rv:87.0) Gecko/20100101 Firefox/87.0,,Firefox,87,Windows,10
83,1,null,"""",html-keyboard-response,292,578228,0.0-292.0,"""","<div style=""font-size:60px;"">+</div>","""",256,fixationBtwnNeutralMaskAndPrompt,Test,null,1000,"""","""","""","""","""","""","""","""",1,4/21/2021 9:03,109.154.118.10,Mozilla/5.0 (Windows NT 10.0; Win64; x64; rv:87.0) Gecko/20100101 Firefox/87.0,,Firefox,87,Windows,10
83,1,1493,"""",html-button-response,293,579724,0.0-293.0,"""","<img src='jspsych/CFDfaces/CFD-LF-232-199-N.jpg' height=""250px"">,</br><b>Kayla</b>",1,256,IntactOrRearranged,Test,"""","""","""","""",CFD-WF-017-003-N.jpg,Lauren,0,1,"""","""",1,4/21/2021 9:03,109.154.118.10,Mozilla/5.0 (Windows NT 10.0; Win64; x64; rv:87.0) Gecko/20100101 Firefox/87.0,,Firefox,87,Windows,10
83,1,2411,"""",html-slider-response,294,582139,0.0-294.0,"""","<img src='jspsych/CFDfaces/CFD-LF-232-199-N.jpg' height=""250px"">,</br><b>Kayla</b>","""",256,ConfidenceQuery,Test,"""","""","""","""",CFD-WF-017-003-N.jpg,Lauren,0,"""",0,72,1,4/21/2021 9:03,109.154.118.10,Mozilla/5.0 (Windows NT 10.0; Win64; x64; rv:87.0) Gecko/20100101 Firefox/87.0,,Firefox,87,Windows,10
83,1,null,"""",html-keyboard-response,295,583174,0.0-295.0,"""","<div style=""font-size:60px;"">+</div>","""",256,ITI,Test,null,1000,"""","""","""","""","""","""","""","""",1,4/21/2021 9:03,109.154.118.10,Mozilla/5.0 (Windows NT 10.0; Win64; x64; rv:87.0) Gecko/20100101 Firefox/87.0,,Firefox,87,Windows,10
83,1,null,"""",image-keyboard-response,296,583441,0.0-296.0,"""",jspsych/scrambledDisgustFaces/scrambledBF27DIS.JPG,"""",256,forwardMask,Test,null,250,"""",d,"""","""","""","""","""","""",1,4/21/2021 9:03,109.154.118.10,Mozilla/5.0 (Windows NT 10.0; Win64; x64; rv:87.0) Gecko/20100101 Firefox/87.0,,Firefox,87,Windows,10
