run_id,condition,rt,responses,trial_type,trial_index,time_elapsed,internal_node_id,question_order,stimulus,button_pressed,iTrial,Phase,ExperimentPhase,key_press,StimulusDurationSetting,CharacterResponse,correctResponse,Face,Name,rearranged,didSubjectEnterRearranged,slider_start,response,Block,recorded_at,ip,user_agent,device,browser,browser_version,platform,platform_version
108,1,8302,"{""Q0"":""A27OJIAP7TQ4MF""}",survey-text,0,8305,0.0-0.0,"""","""","""","""","""","""","""","""","""","""","""","""","""","""","""","""","""",4/23/2021 19:52,73.208.61.176,Mozilla/5.0 (Windows NT 10.0; Win64; x64; rv:87.0) Gecko/20100101 Firefox/87.0,,Firefox,87,Windows,10
108,1,2294,"{""Q0"":""34""}",survey-text,1,10608,0.0-1.0,"""","""","""","""","""","""","""","""","""","""","""","""","""","""","""","""","""",4/23/2021 19:52,73.208.61.176,Mozilla/5.0 (Windows NT 10.0; Win64; x64; rv:87.0) Gecko/20100101 Firefox/87.0,,Firefox,87,Windows,10
108,1,3957,"{""Q0"":""female"",""Q1"":""Not Hispanic/Latino"",""Q2"":""White or Caucasian""}",survey-multi-choice,2,14570,0.0-2.0,"[0,1,2]","""","""","""","""","""","""","""","""","""","""","""","""","""","""","""","""",4/23/2021 19:52,73.208.61.176,Mozilla/5.0 (Windows NT 10.0; Win64; x64; rv:87.0) Gecko/20100101 Firefox/87.0,,Firefox,87,Windows,10
108,1,10549,"""",image-button-response,3,25166,0.0-3.0,"""",directionsMemoryAssociation1.JPG,0,1,IntroDirections1,break,"""","""","""","""","""","""","""","""","""","""","""",4/23/2021 19:52,73.208.61.176,Mozilla/5.0 (Windows NT 10.0; Win64; x64; rv:87.0) Gecko/20100101 Firefox/87.0,,Firefox,87,Windows,10
108,1,28682,"""",image-button-response,4,53858,0.0-4.0,"""",directionsMemoryAssociation2.JPG,0,1,IntroDirections2,break,"""","""","""","""","""","""","""","""","""","""","""",4/23/2021 19:52,73.208.61.176,Mozilla/5.0 (Windows NT 10.0; Win64; x64; rv:87.0) Gecko/20100101 Firefox/87.0,,Firefox,87,Windows,10
108,1,null,"""",html-keyboard-response,5,58868,0.0-5.0,"""","<img src='jspsych/CFDfaces/CFD-AF-239-171-N.jpg' height=""250px"">,</br><b>Tara</b>","""",1,IntactFace,Practice,null,5000,"""","""","""","""","""","""","""","""","""",4/23/2021 19:52,73.208.61.176,Mozilla/5.0 (Windows NT 10.0; Win64; x64; rv:87.0) Gecko/20100101 Firefox/87.0,,Firefox,87,Windows,10
108,1,null,"""",html-keyboard-response,6,59379,0.0-6.0,"""","<div style=""font-size:60px;"">+</div>","""",1,ITI,Practice,null,1000,"""","""","""","""","""","""","""","""","""",4/23/2021 19:52,73.208.61.176,Mozilla/5.0 (Windows NT 10.0; Win64; x64; rv:87.0) Gecko/20100101 Firefox/87.0,,Firefox,87,Windows,10
108,1,3952,"""",html-keyboard-response,7,64392,0.0-7.0,"""","<img src='jspsych/CFDfaces/CFD-LM-246-087-N.jpg' height=""250px"">,</br><b>Carlos</b>","""",2,IntactFace,Practice,70,5000,f,"""","""","""","""","""","""","""","""",4/23/2021 19:52,73.208.61.176,Mozilla/5.0 (Windows NT 10.0; Win64; x64; rv:87.0) Gecko/20100101 Firefox/87.0,,Firefox,87,Windows,10
108,1,null,"""",html-keyboard-response,8,64904,0.0-8.0,"""","<div style=""font-size:60px;"">+</div>","""",2,ITI,Practice,null,1000,"""","""","""","""","""","""","""","""","""",4/23/2021 19:52,73.208.61.176,Mozilla/5.0 (Windows NT 10.0; Win64; x64; rv:87.0) Gecko/20100101 Firefox/87.0,,Firefox,87,Windows,10
108,1,2981,"""",html-keyboard-response,9,69917,0.0-9.0,"""","<img src='jspsych/CFDfaces/CFD-LM-224-162-N.jpg' height=""250px"">,</br><b>Patrick</b>","""",3,IntactFace,Practice,78,5000,n,"""","""","""","""","""","""","""","""",4/23/2021 19:52,73.208.61.176,Mozilla/5.0 (Windows NT 10.0; Win64; x64; rv:87.0) Gecko/20100101 Firefox/87.0,,Firefox,87,Windows,10
108,1,null,"""",html-keyboard-response,10,70426,0.0-10.0,"""","<div style=""font-size:60px;"">+</div>","""",3,ITI,Practice,null,1000,"""","""","""","""","""","""","""","""","""",4/23/2021 19:52,73.208.61.176,Mozilla/5.0 (Windows NT 10.0; Win64; x64; rv:87.0) Gecko/20100101 Firefox/87.0,,Firefox,87,Windows,10
108,1,2876,"""",html-keyboard-response,11,75434,0.0-11.0,"""","<img src='jspsych/CFDfaces/CFD-BM-022-022-N.jpg' height=""250px"">,</br><b>Samuel</b>","""",4,IntactFace,Practice,70,5000,f,"""","""","""","""","""","""","""","""",4/23/2021 19:52,73.208.61.176,Mozilla/5.0 (Windows NT 10.0; Win64; x64; rv:87.0) Gecko/20100101 Firefox/87.0,,Firefox,87,Windows,10
108,1,null,"""",html-keyboard-response,12,75948,0.0-12.0,"""","<div style=""font-size:60px;"">+</div>","""",4,ITI,Practice,null,1000,"""","""","""","""","""","""","""","""","""",4/23/2021 19:52,73.208.61.176,Mozilla/5.0 (Windows NT 10.0; Win64; x64; rv:87.0) Gecko/20100101 Firefox/87.0,,Firefox,87,Windows,10
108,1,2706,"""",html-keyboard-response,13,80970,0.0-13.0,"""","<img src='jspsych/CFDfaces/CFD-BF-226-119-N.jpg' height=""250px"">,</br><b>Cassandra</b>","""",5,IntactFace,Practice,70,5000,f,"""","""","""","""","""","""","""","""",4/23/2021 19:52,73.208.61.176,Mozilla/5.0 (Windows NT 10.0; Win64; x64; rv:87.0) Gecko/20100101 Firefox/87.0,,Firefox,87,Windows,10
108,1,null,"""",html-keyboard-response,14,81484,0.0-14.0,"""","<div style=""font-size:60px;"">+</div>","""",5,ITI,Practice,null,1000,"""","""","""","""","""","""","""","""","""",4/23/2021 19:52,73.208.61.176,Mozilla/5.0 (Windows NT 10.0; Win64; x64; rv:87.0) Gecko/20100101 Firefox/87.0,,Firefox,87,Windows,10
108,1,4482,"""",html-keyboard-response,15,86503,0.0-15.0,"""","<img src='jspsych/CFDfaces/CFD-AF-201-060-N.jpg' height=""250px"">,</br><b>Katelyn</b>","""",6,IntactFace,Practice,78,5000,n,"""","""","""","""","""","""","""","""",4/23/2021 19:52,73.208.61.176,Mozilla/5.0 (Windows NT 10.0; Win64; x64; rv:87.0) Gecko/20100101 Firefox/87.0,,Firefox,87,Windows,10
108,1,null,"""",html-keyboard-response,16,87015,0.0-16.0,"""","<div style=""font-size:60px;"">+</div>","""",6,ITI,Practice,null,1000,"""","""","""","""","""","""","""","""","""",4/23/2021 19:52,73.208.61.176,Mozilla/5.0 (Windows NT 10.0; Win64; x64; rv:87.0) Gecko/20100101 Firefox/87.0,,Firefox,87,Windows,10
108,1,3679,"""",html-keyboard-response,17,92029,0.0-17.0,"""","<img src='jspsych/CFDfaces/CFD-AM-230-150-N.jpg' height=""250px"">,</br><b>Marcus</b>","""",7,IntactFace,Practice,78,5000,n,"""","""","""","""","""","""","""","""",4/23/2021 19:52,73.208.61.176,Mozilla/5.0 (Windows NT 10.0; Win64; x64; rv:87.0) Gecko/20100101 Firefox/87.0,,Firefox,87,Windows,10
108,1,null,"""",html-keyboard-response,18,92544,0.0-18.0,"""","<div style=""font-size:60px;"">+</div>","""",7,ITI,Practice,null,1000,"""","""","""","""","""","""","""","""","""",4/23/2021 19:52,73.208.61.176,Mozilla/5.0 (Windows NT 10.0; Win64; x64; rv:87.0) Gecko/20100101 Firefox/87.0,,Firefox,87,Windows,10
108,1,2798,"""",html-keyboard-response,19,97552,0.0-19.0,"""","<img src='jspsych/CFDfaces/CFD-BF-212-315-N.jpg' height=""250px"">,</br><b>Shannon</b>","""",8,IntactFace,Practice,70,5000,f,"""","""","""","""","""","""","""","""",4/23/2021 19:52,73.208.61.176,Mozilla/5.0 (Windows NT 10.0; Win64; x64; rv:87.0) Gecko/20100101 Firefox/87.0,,Firefox,87,Windows,10
108,1,null,"""",html-keyboard-response,20,98067,0.0-20.0,"""","<div style=""font-size:60px;"">+</div>","""",8,ITI,Practice,null,1000,"""","""","""","""","""","""","""","""","""",4/23/2021 19:52,73.208.61.176,Mozilla/5.0 (Windows NT 10.0; Win64; x64; rv:87.0) Gecko/20100101 Firefox/87.0,,Firefox,87,Windows,10
108,1,18565,"""",image-button-response,21,116648,0.0-21.0,"""",directionsForTest.JPG,0,1,directionsForTest,break,"""","""","""","""","""","""","""","""","""","""","""",4/23/2021 19:52,73.208.61.176,Mozilla/5.0 (Windows NT 10.0; Win64; x64; rv:87.0) Gecko/20100101 Firefox/87.0,,Firefox,87,Windows,10
108,1,13705,"""",image-button-response,22,130363,0.0-22.0,"""",directionsForTest2.JPG,0,1,directionsForTest2,break,"""","""","""","""","""","""","""","""","""","""","""",4/23/2021 19:52,73.208.61.176,Mozilla/5.0 (Windows NT 10.0; Win64; x64; rv:87.0) Gecko/20100101 Firefox/87.0,,Firefox,87,Windows,10
108,1,null,"""",html-keyboard-response,23,131367,0.0-23.0,"""","<div style=""font-size:60px;"">+</div>","""",1,ITI,Practice,null,1000,"""","""","""","""","""","""","""","""","""",4/23/2021 19:52,73.208.61.176,Mozilla/5.0 (Windows NT 10.0; Win64; x64; rv:87.0) Gecko/20100101 Firefox/87.0,,Firefox,87,Windows,10
108,1,null,"""",image-keyboard-response,24,131636,0.0-24.0,"""",jspsych/scrambledDisgustFaces/scrambledAF19DIS.JPG,"""",1,forwardMask,Practice,null,250,"""",d,"""","""","""","""","""","""","""",4/23/2021 19:52,73.208.61.176,Mozilla/5.0 (Windows NT 10.0; Win64; x64; rv:87.0) Gecko/20100101 Firefox/87.0,,Firefox,87,Windows,10
108,1,null,"""",image-keyboard-response,25,131666,0.0-25.0,"""",jspsych/disgustFaces/AF19DIS.JPG,"""",1,Cue,Practice,null,16,"""","""","""","""","""","""","""","""","""",4/23/2021 19:52,73.208.61.176,Mozilla/5.0 (Windows NT 10.0; Win64; x64; rv:87.0) Gecko/20100101 Firefox/87.0,,Firefox,87,Windows,10
108,1,null,"""",image-keyboard-response,26,131774,0.0-26.0,"""",jspsych/neutralFaces/AF34NES.JPG,"""",1,backwardMask,Practice,null,100,"""","""","""","""","""","""","""","""","""",4/23/2021 19:52,73.208.61.176,Mozilla/5.0 (Windows NT 10.0; Win64; x64; rv:87.0) Gecko/20100101 Firefox/87.0,,Firefox,87,Windows,10
108,1,null,"""",html-keyboard-response,27,132780,0.0-27.0,"""","<div style=""font-size:60px;"">+</div>","""",1,fixationBtwnNeutralMaskAndPrompt,Practice,null,1000,"""","""","""","""","""","""","""","""","""",4/23/2021 19:52,73.208.61.176,Mozilla/5.0 (Windows NT 10.0; Win64; x64; rv:87.0) Gecko/20100101 Firefox/87.0,,Firefox,87,Windows,10
108,1,3397,"""",html-button-response,28,136179,0.0-28.0,"""","<img src='jspsych/CFDfaces/CFD-BM-022-022-N.jpg'height=""250px""></br><b>Samuel</b>",0,1,IntactOrRearranged,Practice,"""","""","""","""",CFD-BM-022-022-N.jpg,Samuel,0,0,"""","""","""",4/23/2021 19:52,73.208.61.176,Mozilla/5.0 (Windows NT 10.0; Win64; x64; rv:87.0) Gecko/20100101 Firefox/87.0,,Firefox,87,Windows,10
108,1,2883,"""",html-slider-response,29,139070,0.0-29.0,"""","<img src='jspsych/CFDfaces/CFD-BM-022-022-N.jpg'height=""250px""></br><b>Samuel</b>","""",1,ConfidenceQuery,Practice,"""","""","""","""",CFD-LF-220-120-N.jpg,Jasmine,0,"""",0,100,"""",4/23/2021 19:52,73.208.61.176,Mozilla/5.0 (Windows NT 10.0; Win64; x64; rv:87.0) Gecko/20100101 Firefox/87.0,,Firefox,87,Windows,10
108,1,1461,"""",html-button-response,30,140532,0.0-30.0,"""",You are Correct. You called an Intact Pair Intact,0,1,feedback,Practice,"""","""","""","""","""","""","""","""","""","""","""",4/23/2021 19:52,73.208.61.176,Mozilla/5.0 (Windows NT 10.0; Win64; x64; rv:87.0) Gecko/20100101 Firefox/87.0,,Firefox,87,Windows,10
108,1,null,"""",html-keyboard-response,31,141544,0.0-31.0,"""","<div style=""font-size:60px;"">+</div>","""",2,ITI,Practice,null,1000,"""","""","""","""","""","""","""","""","""",4/23/2021 19:52,73.208.61.176,Mozilla/5.0 (Windows NT 10.0; Win64; x64; rv:87.0) Gecko/20100101 Firefox/87.0,,Firefox,87,Windows,10
108,1,null,"""",image-keyboard-response,32,141813,0.0-32.0,"""",jspsych/scrambledNeutralFaces/scrambledBM05NES.JPG,"""",2,forwardMask,Practice,null,250,"""",n,"""","""","""","""","""","""","""",4/23/2021 19:52,73.208.61.176,Mozilla/5.0 (Windows NT 10.0; Win64; x64; rv:87.0) Gecko/20100101 Firefox/87.0,,Firefox,87,Windows,10
108,1,null,"""",image-keyboard-response,33,141846,0.0-33.0,"""",jspsych/neutralFaces/BM05NES.JPG,"""",2,Cue,Practice,null,16,"""","""","""","""","""","""","""","""","""",4/23/2021 19:52,73.208.61.176,Mozilla/5.0 (Windows NT 10.0; Win64; x64; rv:87.0) Gecko/20100101 Firefox/87.0,,Firefox,87,Windows,10
108,1,null,"""",image-keyboard-response,34,141958,0.0-34.0,"""",jspsych/neutralFaces/BM22NES.JPG,"""",2,backwardMask,Practice,null,100,"""","""","""","""","""","""","""","""","""",4/23/2021 19:52,73.208.61.176,Mozilla/5.0 (Windows NT 10.0; Win64; x64; rv:87.0) Gecko/20100101 Firefox/87.0,,Firefox,87,Windows,10
108,1,null,"""",html-keyboard-response,35,142962,0.0-35.0,"""","<div style=""font-size:60px;"">+</div>","""",2,fixationBtwnNeutralMaskAndPrompt,Practice,null,1000,"""","""","""","""","""","""","""","""","""",4/23/2021 19:52,73.208.61.176,Mozilla/5.0 (Windows NT 10.0; Win64; x64; rv:87.0) Gecko/20100101 Firefox/87.0,,Firefox,87,Windows,10
108,1,2182,"""",html-button-response,36,145145,0.0-36.0,"""","<img src='jspsych/CFDfaces/CFD-AF-201-060-N.jpg'height=""250px""></br><b>Cassandra</b>",1,2,IntactOrRearranged,Practice,"""","""","""","""",CFD-AF-201-060-N.jpg,Cassandra,1,1,"""","""","""",4/23/2021 19:52,73.208.61.176,Mozilla/5.0 (Windows NT 10.0; Win64; x64; rv:87.0) Gecko/20100101 Firefox/87.0,,Firefox,87,Windows,10
108,1,2832,"""",html-slider-response,37,147980,0.0-37.0,"""","<img src='jspsych/CFDfaces/CFD-AF-201-060-N.jpg'height=""250px""></br><b>Cassandra</b>","""",2,ConfidenceQuery,Practice,"""","""","""","""",CFD-LF-220-120-N.jpg,Jasmine,1,"""",0,100,"""",4/23/2021 19:52,73.208.61.176,Mozilla/5.0 (Windows NT 10.0; Win64; x64; rv:87.0) Gecko/20100101 Firefox/87.0,,Firefox,87,Windows,10
108,1,1864,"""",html-button-response,38,149848,0.0-38.0,"""",You are Correct. You Called A Rearranged Pair Rearranged,0,2,feedback,Practice,"""","""","""","""","""","""","""","""","""","""","""",4/23/2021 19:52,73.208.61.176,Mozilla/5.0 (Windows NT 10.0; Win64; x64; rv:87.0) Gecko/20100101 Firefox/87.0,,Firefox,87,Windows,10
108,1,null,"""",html-keyboard-response,39,150849,0.0-39.0,"""","<div style=""font-size:60px;"">+</div>","""",3,ITI,Practice,null,1000,"""","""","""","""","""","""","""","""","""",4/23/2021 19:52,73.208.61.176,Mozilla/5.0 (Windows NT 10.0; Win64; x64; rv:87.0) Gecko/20100101 Firefox/87.0,,Firefox,87,Windows,10
108,1,null,"""",image-keyboard-response,40,151115,0.0-40.0,"""",jspsych/scrambledNeutralFaces/scrambledAM22NES.JPG,"""",3,forwardMask,Practice,null,250,"""",n,"""","""","""","""","""","""","""",4/23/2021 19:52,73.208.61.176,Mozilla/5.0 (Windows NT 10.0; Win64; x64; rv:87.0) Gecko/20100101 Firefox/87.0,,Firefox,87,Windows,10
108,1,null,"""",image-keyboard-response,41,151144,0.0-41.0,"""",jspsych/neutralFaces/AM22NES.JPG,"""",3,Cue,Practice,null,16,"""","""","""","""","""","""","""","""","""",4/23/2021 19:52,73.208.61.176,Mozilla/5.0 (Windows NT 10.0; Win64; x64; rv:87.0) Gecko/20100101 Firefox/87.0,,Firefox,87,Windows,10
108,1,null,"""",image-keyboard-response,42,151253,0.0-42.0,"""",jspsych/neutralFaces/BM14NES.JPG,"""",3,backwardMask,Practice,null,100,"""","""","""","""","""","""","""","""","""",4/23/2021 19:52,73.208.61.176,Mozilla/5.0 (Windows NT 10.0; Win64; x64; rv:87.0) Gecko/20100101 Firefox/87.0,,Firefox,87,Windows,10
108,1,null,"""",html-keyboard-response,43,152264,0.0-43.0,"""","<div style=""font-size:60px;"">+</div>","""",3,fixationBtwnNeutralMaskAndPrompt,Practice,null,1000,"""","""","""","""","""","""","""","""","""",4/23/2021 19:52,73.208.61.176,Mozilla/5.0 (Windows NT 10.0; Win64; x64; rv:87.0) Gecko/20100101 Firefox/87.0,,Firefox,87,Windows,10
108,1,1384,"""",html-button-response,44,153649,0.0-44.0,"""","<img src='jspsych/CFDfaces/CFD-BF-212-315-N.jpg'height=""250px""></br><b>Shannon</b>",0,3,IntactOrRearranged,Practice,"""","""","""","""",CFD-BF-212-315-N.jpg,Shannon,0,0,"""","""","""",4/23/2021 19:52,73.208.61.176,Mozilla/5.0 (Windows NT 10.0; Win64; x64; rv:87.0) Gecko/20100101 Firefox/87.0,,Firefox,87,Windows,10
108,1,2414,"""",html-slider-response,45,156068,0.0-45.0,"""","<img src='jspsych/CFDfaces/CFD-BF-212-315-N.jpg'height=""250px""></br><b>Shannon</b>","""",3,ConfidenceQuery,Practice,"""","""","""","""",CFD-LF-220-120-N.jpg,Jasmine,0,"""",0,100,"""",4/23/2021 19:52,73.208.61.176,Mozilla/5.0 (Windows NT 10.0; Win64; x64; rv:87.0) Gecko/20100101 Firefox/87.0,,Firefox,87,Windows,10
108,1,7201,"""",html-button-response,46,163271,0.0-46.0,"""",You are Correct. You called an Intact Pair Intact,0,3,feedback,Practice,"""","""","""","""","""","""","""","""","""","""","""",4/23/2021 19:52,73.208.61.176,Mozilla/5.0 (Windows NT 10.0; Win64; x64; rv:87.0) Gecko/20100101 Firefox/87.0,,Firefox,87,Windows,10
108,1,null,"""",html-keyboard-response,47,164293,0.0-47.0,"""","<div style=""font-size:60px;"">+</div>","""",4,ITI,Practice,null,1000,"""","""","""","""","""","""","""","""","""",4/23/2021 19:52,73.208.61.176,Mozilla/5.0 (Windows NT 10.0; Win64; x64; rv:87.0) Gecko/20100101 Firefox/87.0,,Firefox,87,Windows,10
108,1,null,"""",image-keyboard-response,48,164561,0.0-48.0,"""",jspsych/scrambledNeutralFaces/scrambledBM24NES.JPG,"""",4,forwardMask,Practice,null,250,"""",n,"""","""","""","""","""","""","""",4/23/2021 19:52,73.208.61.176,Mozilla/5.0 (Windows NT 10.0; Win64; x64; rv:87.0) Gecko/20100101 Firefox/87.0,,Firefox,87,Windows,10
108,1,null,"""",image-keyboard-response,49,164590,0.0-49.0,"""",jspsych/neutralFaces/BM24NES.JPG,"""",4,Cue,Practice,null,16,"""","""","""","""","""","""","""","""","""",4/23/2021 19:52,73.208.61.176,Mozilla/5.0 (Windows NT 10.0; Win64; x64; rv:87.0) Gecko/20100101 Firefox/87.0,,Firefox,87,Windows,10
108,1,null,"""",image-keyboard-response,50,164700,0.0-50.0,"""",jspsych/neutralFaces/BM31NES.JPG,"""",4,backwardMask,Practice,null,100,"""","""","""","""","""","""","""","""","""",4/23/2021 19:52,73.208.61.176,Mozilla/5.0 (Windows NT 10.0; Win64; x64; rv:87.0) Gecko/20100101 Firefox/87.0,,Firefox,87,Windows,10
108,1,null,"""",html-keyboard-response,51,165712,0.0-51.0,"""","<div style=""font-size:60px;"">+</div>","""",4,fixationBtwnNeutralMaskAndPrompt,Practice,null,1000,"""","""","""","""","""","""","""","""","""",4/23/2021 19:52,73.208.61.176,Mozilla/5.0 (Windows NT 10.0; Win64; x64; rv:87.0) Gecko/20100101 Firefox/87.0,,Firefox,87,Windows,10
108,1,1751,"""",html-button-response,52,167466,0.0-52.0,"""","<img src='jspsych/CFDfaces/CFD-AF-239-171-N.jpg'height=""250px""></br><b>Tara</b>",0,4,IntactOrRearranged,Practice,"""","""","""","""",CFD-AF-239-171-N.jpg,Tara,0,0,"""","""","""",4/23/2021 19:52,73.208.61.176,Mozilla/5.0 (Windows NT 10.0; Win64; x64; rv:87.0) Gecko/20100101 Firefox/87.0,,Firefox,87,Windows,10
108,1,2281,"""",html-slider-response,53,169749,0.0-53.0,"""","<img src='jspsych/CFDfaces/CFD-AF-239-171-N.jpg'height=""250px""></br><b>Tara</b>","""",4,ConfidenceQuery,Practice,"""","""","""","""",CFD-LF-220-120-N.jpg,Jasmine,0,"""",0,100,"""",4/23/2021 19:52,73.208.61.176,Mozilla/5.0 (Windows NT 10.0; Win64; x64; rv:87.0) Gecko/20100101 Firefox/87.0,,Firefox,87,Windows,10
108,1,1277,"""",html-button-response,54,171031,0.0-54.0,"""",You are Correct. You called an Intact Pair Intact,0,4,feedback,Practice,"""","""","""","""","""","""","""","""","""","""","""",4/23/2021 19:52,73.208.61.176,Mozilla/5.0 (Windows NT 10.0; Win64; x64; rv:87.0) Gecko/20100101 Firefox/87.0,,Firefox,87,Windows,10
108,1,null,"""",html-keyboard-response,55,172040,0.0-55.0,"""","<div style=""font-size:60px;"">+</div>","""",5,ITI,Practice,null,1000,"""","""","""","""","""","""","""","""","""",4/23/2021 19:52,73.208.61.176,Mozilla/5.0 (Windows NT 10.0; Win64; x64; rv:87.0) Gecko/20100101 Firefox/87.0,,Firefox,87,Windows,10
108,1,null,"""",image-keyboard-response,56,172306,0.0-56.0,"""",jspsych/scrambledDisgustFaces/scrambledBF35DIS.JPG,"""",5,forwardMask,Practice,null,250,"""",d,"""","""","""","""","""","""","""",4/23/2021 19:52,73.208.61.176,Mozilla/5.0 (Windows NT 10.0; Win64; x64; rv:87.0) Gecko/20100101 Firefox/87.0,,Firefox,87,Windows,10
108,1,null,"""",image-keyboard-response,57,172339,0.0-57.0,"""",jspsych/disgustFaces/BF35DIS.JPG,"""",5,Cue,Practice,null,16,"""","""","""","""","""","""","""","""","""",4/23/2021 19:52,73.208.61.176,Mozilla/5.0 (Windows NT 10.0; Win64; x64; rv:87.0) Gecko/20100101 Firefox/87.0,,Firefox,87,Windows,10
108,1,null,"""",image-keyboard-response,58,172453,0.0-58.0,"""",jspsych/neutralFaces/BF11NES.JPG,"""",5,backwardMask,Practice,null,100,"""","""","""","""","""","""","""","""","""",4/23/2021 19:52,73.208.61.176,Mozilla/5.0 (Windows NT 10.0; Win64; x64; rv:87.0) Gecko/20100101 Firefox/87.0,,Firefox,87,Windows,10
108,1,null,"""",html-keyboard-response,59,173460,0.0-59.0,"""","<div style=""font-size:60px;"">+</div>","""",5,fixationBtwnNeutralMaskAndPrompt,Practice,null,1000,"""","""","""","""","""","""","""","""","""",4/23/2021 19:52,73.208.61.176,Mozilla/5.0 (Windows NT 10.0; Win64; x64; rv:87.0) Gecko/20100101 Firefox/87.0,,Firefox,87,Windows,10
108,1,2237,"""",html-button-response,60,175700,0.0-60.0,"""","<img src='jspsych/CFDfaces/CFD-LM-224-162-N.jpg'height=""250px""></br><b>Patrick</b>",0,5,IntactOrRearranged,Practice,"""","""","""","""",CFD-LM-224-162-N.jpg,Patrick,0,0,"""","""","""",4/23/2021 19:52,73.208.61.176,Mozilla/5.0 (Windows NT 10.0; Win64; x64; rv:87.0) Gecko/20100101 Firefox/87.0,,Firefox,87,Windows,10
108,1,3831,"""",html-slider-response,61,179537,0.0-61.0,"""","<img src='jspsych/CFDfaces/CFD-LM-224-162-N.jpg'height=""250px""></br><b>Patrick</b>","""",5,ConfidenceQuery,Practice,"""","""","""","""",CFD-LF-220-120-N.jpg,Jasmine,0,"""",0,100,"""",4/23/2021 19:52,73.208.61.176,Mozilla/5.0 (Windows NT 10.0; Win64; x64; rv:87.0) Gecko/20100101 Firefox/87.0,,Firefox,87,Windows,10
108,1,1281,"""",html-button-response,62,180819,0.0-62.0,"""",You are Correct. You called an Intact Pair Intact,0,5,feedback,Practice,"""","""","""","""","""","""","""","""","""","""","""",4/23/2021 19:52,73.208.61.176,Mozilla/5.0 (Windows NT 10.0; Win64; x64; rv:87.0) Gecko/20100101 Firefox/87.0,,Firefox,87,Windows,10
108,1,null,"""",html-keyboard-response,63,181835,0.0-63.0,"""","<div style=""font-size:60px;"">+</div>","""",6,ITI,Practice,null,1000,"""","""","""","""","""","""","""","""","""",4/23/2021 19:52,73.208.61.176,Mozilla/5.0 (Windows NT 10.0; Win64; x64; rv:87.0) Gecko/20100101 Firefox/87.0,,Firefox,87,Windows,10
108,1,null,"""",image-keyboard-response,64,182107,0.0-64.0,"""",jspsych/scrambledDisgustFaces/scrambledBF12DIS.JPG,"""",6,forwardMask,Practice,null,250,"""",d,"""","""","""","""","""","""","""",4/23/2021 19:52,73.208.61.176,Mozilla/5.0 (Windows NT 10.0; Win64; x64; rv:87.0) Gecko/20100101 Firefox/87.0,,Firefox,87,Windows,10
108,1,null,"""",image-keyboard-response,65,182138,0.0-65.0,"""",jspsych/disgustFaces/BF12DIS.JPG,"""",6,Cue,Practice,null,16,"""","""","""","""","""","""","""","""","""",4/23/2021 19:52,73.208.61.176,Mozilla/5.0 (Windows NT 10.0; Win64; x64; rv:87.0) Gecko/20100101 Firefox/87.0,,Firefox,87,Windows,10
108,1,null,"""",image-keyboard-response,66,182248,0.0-66.0,"""",jspsych/neutralFaces/AF21NES.JPG,"""",6,backwardMask,Practice,null,100,"""","""","""","""","""","""","""","""","""",4/23/2021 19:52,73.208.61.176,Mozilla/5.0 (Windows NT 10.0; Win64; x64; rv:87.0) Gecko/20100101 Firefox/87.0,,Firefox,87,Windows,10
108,1,null,"""",html-keyboard-response,67,183252,0.0-67.0,"""","<div style=""font-size:60px;"">+</div>","""",6,fixationBtwnNeutralMaskAndPrompt,Practice,null,1000,"""","""","""","""","""","""","""","""","""",4/23/2021 19:52,73.208.61.176,Mozilla/5.0 (Windows NT 10.0; Win64; x64; rv:87.0) Gecko/20100101 Firefox/87.0,,Firefox,87,Windows,10
108,1,1919,"""",html-button-response,68,185173,0.0-68.0,"""","<img src='jspsych/CFDfaces/CFD-BF-226-119-N.jpg'height=""250px""></br><b>Katelyn</b>",1,6,IntactOrRearranged,Practice,"""","""","""","""",CFD-BF-226-119-N.jpg,Katelyn,1,1,"""","""","""",4/23/2021 19:52,73.208.61.176,Mozilla/5.0 (Windows NT 10.0; Win64; x64; rv:87.0) Gecko/20100101 Firefox/87.0,,Firefox,87,Windows,10
108,1,2079,"""",html-slider-response,69,187255,0.0-69.0,"""","<img src='jspsych/CFDfaces/CFD-BF-226-119-N.jpg'height=""250px""></br><b>Katelyn</b>","""",6,ConfidenceQuery,Practice,"""","""","""","""",CFD-LF-220-120-N.jpg,Jasmine,1,"""",0,100,"""",4/23/2021 19:52,73.208.61.176,Mozilla/5.0 (Windows NT 10.0; Win64; x64; rv:87.0) Gecko/20100101 Firefox/87.0,,Firefox,87,Windows,10
108,1,1077,"""",html-button-response,70,188334,0.0-70.0,"""",You are Correct. You Called A Rearranged Pair Rearranged,0,6,feedback,Practice,"""","""","""","""","""","""","""","""","""","""","""",4/23/2021 19:52,73.208.61.176,Mozilla/5.0 (Windows NT 10.0; Win64; x64; rv:87.0) Gecko/20100101 Firefox/87.0,,Firefox,87,Windows,10
108,1,null,"""",html-keyboard-response,71,189350,0.0-71.0,"""","<div style=""font-size:60px;"">+</div>","""",7,ITI,Practice,null,1000,"""","""","""","""","""","""","""","""","""",4/23/2021 19:52,73.208.61.176,Mozilla/5.0 (Windows NT 10.0; Win64; x64; rv:87.0) Gecko/20100101 Firefox/87.0,,Firefox,87,Windows,10
108,1,null,"""",image-keyboard-response,72,189609,0.0-72.0,"""",jspsych/scrambledDisgustFaces/scrambledAF25DIS.JPG,"""",7,forwardMask,Practice,null,250,"""",d,"""","""","""","""","""","""","""",4/23/2021 19:52,73.208.61.176,Mozilla/5.0 (Windows NT 10.0; Win64; x64; rv:87.0) Gecko/20100101 Firefox/87.0,,Firefox,87,Windows,10
108,1,null,"""",image-keyboard-response,73,189639,0.0-73.0,"""",jspsych/disgustFaces/AF25DIS.JPG,"""",7,Cue,Practice,null,16,"""","""","""","""","""","""","""","""","""",4/23/2021 19:52,73.208.61.176,Mozilla/5.0 (Windows NT 10.0; Win64; x64; rv:87.0) Gecko/20100101 Firefox/87.0,,Firefox,87,Windows,10
108,1,null,"""",image-keyboard-response,74,189758,0.0-74.0,"""",jspsych/neutralFaces/AF14NES.JPG,"""",7,backwardMask,Practice,null,100,"""","""","""","""","""","""","""","""","""",4/23/2021 19:52,73.208.61.176,Mozilla/5.0 (Windows NT 10.0; Win64; x64; rv:87.0) Gecko/20100101 Firefox/87.0,,Firefox,87,Windows,10
108,1,null,"""",html-keyboard-response,75,190760,0.0-75.0,"""","<div style=""font-size:60px;"">+</div>","""",7,fixationBtwnNeutralMaskAndPrompt,Practice,null,1000,"""","""","""","""","""","""","""","""","""",4/23/2021 19:52,73.208.61.176,Mozilla/5.0 (Windows NT 10.0; Win64; x64; rv:87.0) Gecko/20100101 Firefox/87.0,,Firefox,87,Windows,10
108,1,null,"""",html-button-response,76,195765,0.0-76.0,"""","<img src='jspsych/CFDfaces/CFD-AM-230-150-N.jpg'height=""250px""></br><b>Carlos</b>",null,7,IntactOrRearranged,Practice,"""","""","""","""",CFD-AM-230-150-N.jpg,Carlos,1,"""","""","""","""",4/23/2021 19:52,73.208.61.176,Mozilla/5.0 (Windows NT 10.0; Win64; x64; rv:87.0) Gecko/20100101 Firefox/87.0,,Firefox,87,Windows,10
108,1,null,"""",html-slider-response,77,200775,0.0-77.0,"""","<img src='jspsych/CFDfaces/CFD-AM-230-150-N.jpg'height=""250px""></br><b>Carlos</b>","""",7,ConfidenceQuery,Practice,"""","""","""","""",CFD-LF-220-120-N.jpg,Jasmine,1,"""",0,null,"""",4/23/2021 19:52,73.208.61.176,Mozilla/5.0 (Windows NT 10.0; Win64; x64; rv:87.0) Gecko/20100101 Firefox/87.0,,Firefox,87,Windows,10
108,1,2035,"""",html-button-response,78,202813,0.0-78.0,"""",<p>Please click either button: REARRANGED or INTACT before the 5-second time limit.</p>,0,7,feedback,Practice,"""","""","""","""","""","""","""","""","""","""","""",4/23/2021 19:52,73.208.61.176,Mozilla/5.0 (Windows NT 10.0; Win64; x64; rv:87.0) Gecko/20100101 Firefox/87.0,,Firefox,87,Windows,10
108,1,null,"""",html-keyboard-response,79,203821,0.0-79.0,"""","<div style=""font-size:60px;"">+</div>","""",8,ITI,Practice,null,1000,"""","""","""","""","""","""","""","""","""",4/23/2021 19:52,73.208.61.176,Mozilla/5.0 (Windows NT 10.0; Win64; x64; rv:87.0) Gecko/20100101 Firefox/87.0,,Firefox,87,Windows,10
108,1,null,"""",image-keyboard-response,80,204085,0.0-80.0,"""",jspsych/scrambledDisgustFaces/scrambledBM18DIS.JPG,"""",8,forwardMask,Practice,null,250,"""",d,"""","""","""","""","""","""","""",4/23/2021 19:52,73.208.61.176,Mozilla/5.0 (Windows NT 10.0; Win64; x64; rv:87.0) Gecko/20100101 Firefox/87.0,,Firefox,87,Windows,10
108,1,null,"""",image-keyboard-response,81,204117,0.0-81.0,"""",jspsych/disgustFaces/BM19DIS.JPG,"""",8,Cue,Practice,null,16,"""","""","""","""","""","""","""","""","""",4/23/2021 19:52,73.208.61.176,Mozilla/5.0 (Windows NT 10.0; Win64; x64; rv:87.0) Gecko/20100101 Firefox/87.0,,Firefox,87,Windows,10
108,1,null,"""",image-keyboard-response,82,204226,0.0-82.0,"""",jspsych/neutralFaces/AM34NES.JPG,"""",8,backwardMask,Practice,null,100,"""","""","""","""","""","""","""","""","""",4/23/2021 19:52,73.208.61.176,Mozilla/5.0 (Windows NT 10.0; Win64; x64; rv:87.0) Gecko/20100101 Firefox/87.0,,Firefox,87,Windows,10
108,1,null,"""",html-keyboard-response,83,205249,0.0-83.0,"""","<div style=""font-size:60px;"">+</div>","""",8,fixationBtwnNeutralMaskAndPrompt,Practice,null,1000,"""","""","""","""","""","""","""","""","""",4/23/2021 19:52,73.208.61.176,Mozilla/5.0 (Windows NT 10.0; Win64; x64; rv:87.0) Gecko/20100101 Firefox/87.0,,Firefox,87,Windows,10
108,1,1915,"""",html-button-response,84,207167,0.0-84.0,"""","<img src='jspsych/CFDfaces/CFD-LM-246-087-N.jpg'height=""250px""></br><b>Marcus</b>",1,8,IntactOrRearranged,Practice,"""","""","""","""",CFD-LM-246-087-N.jpg,Marcus,1,1,"""","""","""",4/23/2021 19:52,73.208.61.176,Mozilla/5.0 (Windows NT 10.0; Win64; x64; rv:87.0) Gecko/20100101 Firefox/87.0,,Firefox,87,Windows,10
108,1,2213,"""",html-slider-response,85,209383,0.0-85.0,"""","<img src='jspsych/CFDfaces/CFD-LM-246-087-N.jpg'height=""250px""></br><b>Marcus</b>","""",8,ConfidenceQuery,Practice,"""","""","""","""",CFD-LF-220-120-N.jpg,Jasmine,1,"""",0,100,"""",4/23/2021 19:52,73.208.61.176,Mozilla/5.0 (Windows NT 10.0; Win64; x64; rv:87.0) Gecko/20100101 Firefox/87.0,,Firefox,87,Windows,10
108,1,1335,"""",html-button-response,86,210722,0.0-86.0,"""",You are Correct. You Called A Rearranged Pair Rearranged,0,8,feedback,Practice,"""","""","""","""","""","""","""","""","""","""","""",4/23/2021 19:52,73.208.61.176,Mozilla/5.0 (Windows NT 10.0; Win64; x64; rv:87.0) Gecko/20100101 Firefox/87.0,,Firefox,87,Windows,10
108,1,1970,"""",image-button-response,87,212702,0.0-87.0,"""",directionsMemoryAssociation3.JPG,0,128,DirectionsBeforeActualTEst,Break,"""","""","""","""","""","""","""","""","""","""","""",4/23/2021 19:52,73.208.61.176,Mozilla/5.0 (Windows NT 10.0; Win64; x64; rv:87.0) Gecko/20100101 Firefox/87.0,,Firefox,87,Windows,10
108,1,1308,"""",image-button-response,88,214018,0.0-88.0,"""",directionsForTest2.JPG,0,1,directionsForTest2,break,"""","""","""","""","""","""","""","""","""","""","""",4/23/2021 19:52,73.208.61.176,Mozilla/5.0 (Windows NT 10.0; Win64; x64; rv:87.0) Gecko/20100101 Firefox/87.0,,Firefox,87,Windows,10
108,1,6073,"""",html-button-response,89,220095,0.0-89.0,"""","<p>You will be asked to memorize and then recall four sets of face-name pairs. </p> <p> Each set will have 32 pairs. </p> <p>After the fourth set, there will be a brief follow-up experiment (<40 min alltogether)</p>",0,"""","""","""","""","""","""","""","""","""","""","""","""","""","""",4/23/2021 19:52,73.208.61.176,Mozilla/5.0 (Windows NT 10.0; Win64; x64; rv:87.0) Gecko/20100101 Firefox/87.0,,Firefox,87,Windows,10
108,1,2769,"""",html-keyboard-response,90,225113,0.0-90.0,"""","<img src='jspsych/CFDfaces/CFD-AM-212-050-N.jpg' height=""250px""></br><b>Nicholas</b>","""",256,IntactFace,Memorization,78,5000,n,"""",CFD-WF-019-005-N.jpg,Tiffany,0,"""","""","""",1,4/23/2021 19:52,73.208.61.176,Mozilla/5.0 (Windows NT 10.0; Win64; x64; rv:87.0) Gecko/20100101 Firefox/87.0,,Firefox,87,Windows,10
108,1,null,"""",html-keyboard-response,91,225624,0.0-91.0,"""","<div style=""font-size:60px;"">+</div>","""",256,fixation,Memorization,null,500,"""","""","""","""","""","""","""","""",1,4/23/2021 19:52,73.208.61.176,Mozilla/5.0 (Windows NT 10.0; Win64; x64; rv:87.0) Gecko/20100101 Firefox/87.0,,Firefox,87,Windows,10
108,1,2583,"""",html-keyboard-response,92,230634,0.0-92.0,"""","<img src='jspsych/CFDfaces/CFD-AF-230-193-N.jpg' height=""250px""></br><b>Victoria</b>","""",256,IntactFace,Memorization,70,5000,f,"""",CFD-AF-209-006-N.jpg,Heather,0,"""","""","""",1,4/23/2021 19:52,73.208.61.176,Mozilla/5.0 (Windows NT 10.0; Win64; x64; rv:87.0) Gecko/20100101 Firefox/87.0,,Firefox,87,Windows,10
108,1,null,"""",html-keyboard-response,93,231149,0.0-93.0,"""","<div style=""font-size:60px;"">+</div>","""",256,fixation,Memorization,null,500,"""","""","""","""","""","""","""","""",1,4/23/2021 19:52,73.208.61.176,Mozilla/5.0 (Windows NT 10.0; Win64; x64; rv:87.0) Gecko/20100101 Firefox/87.0,,Firefox,87,Windows,10
108,1,2181,"""",html-keyboard-response,94,236168,0.0-94.0,"""","<img src='jspsych/CFDfaces/CFD-WM-232-070-N.jpg' height=""250px""></br><b>Juan</b>","""",256,IntactFace,Memorization,78,5000,n,"""",CFD-LM-239-075-N.jpg,Mark,0,"""","""","""",1,4/23/2021 19:52,73.208.61.176,Mozilla/5.0 (Windows NT 10.0; Win64; x64; rv:87.0) Gecko/20100101 Firefox/87.0,,Firefox,87,Windows,10
108,1,null,"""",html-keyboard-response,95,236672,0.0-95.0,"""","<div style=""font-size:60px;"">+</div>","""",256,fixation,Memorization,null,500,"""","""","""","""","""","""","""","""",1,4/23/2021 19:52,73.208.61.176,Mozilla/5.0 (Windows NT 10.0; Win64; x64; rv:87.0) Gecko/20100101 Firefox/87.0,,Firefox,87,Windows,10
108,1,2878,"""",html-keyboard-response,96,241691,0.0-96.0,"""","<img src='jspsych/CFDfaces/CFD-BF-001-025-N.jpg' height=""250px""></br><b>Christina</b>","""",256,IntactFace,Memorization,70,5000,f,"""",CFD-WF-003-003-N.jpg,Taylor,0,"""","""","""",1,4/23/2021 19:52,73.208.61.176,Mozilla/5.0 (Windows NT 10.0; Win64; x64; rv:87.0) Gecko/20100101 Firefox/87.0,,Firefox,87,Windows,10
108,1,null,"""",html-keyboard-response,97,242200,0.0-97.0,"""","<div style=""font-size:60px;"">+</div>","""",256,fixation,Memorization,null,500,"""","""","""","""","""","""","""","""",1,4/23/2021 19:52,73.208.61.176,Mozilla/5.0 (Windows NT 10.0; Win64; x64; rv:87.0) Gecko/20100101 Firefox/87.0,,Firefox,87,Windows,10
108,1,2295,"""",html-keyboard-response,98,247217,0.0-98.0,"""","<img src='jspsych/CFDfaces/CFD-LF-243-175-N.jpg' height=""250px""></br><b>Brittany</b>","""",256,IntactFace,Memorization,70,5000,f,"""",CFD-AF-226-251-N.jpg,Angela,0,"""","""","""",1,4/23/2021 19:52,73.208.61.176,Mozilla/5.0 (Windows NT 10.0; Win64; x64; rv:87.0) Gecko/20100101 Firefox/87.0,,Firefox,87,Windows,10
108,1,null,"""",html-keyboard-response,99,247733,0.0-99.0,"""","<div style=""font-size:60px;"">+</div>","""",256,fixation,Memorization,null,500,"""","""","""","""","""","""","""","""",1,4/23/2021 19:52,73.208.61.176,Mozilla/5.0 (Windows NT 10.0; Win64; x64; rv:87.0) Gecko/20100101 Firefox/87.0,,Firefox,87,Windows,10
108,1,2709,"""",html-keyboard-response,100,252747,0.0-100.0,"""","<img src='jspsych/CFDfaces/CFD-AM-237-154-N.jpg' height=""250px""></br><b>Ian</b>","""",256,IntactFace,Memorization,70,5000,f,"""",CFD-AM-214-168-N.jpg,Jeremy,0,"""","""","""",1,4/23/2021 19:52,73.208.61.176,Mozilla/5.0 (Windows NT 10.0; Win64; x64; rv:87.0) Gecko/20100101 Firefox/87.0,,Firefox,87,Windows,10
108,1,null,"""",html-keyboard-response,101,253257,0.0-101.0,"""","<div style=""font-size:60px;"">+</div>","""",256,fixation,Memorization,null,500,"""","""","""","""","""","""","""","""",1,4/23/2021 19:52,73.208.61.176,Mozilla/5.0 (Windows NT 10.0; Win64; x64; rv:87.0) Gecko/20100101 Firefox/87.0,,Firefox,87,Windows,10
108,1,1422,"""",html-keyboard-response,102,258262,0.0-102.0,"""","<img src='jspsych/CFDfaces/CFD-AF-215-70-N.jpg' height=""250px""></br><b>Julie</b>","""",256,IntactFace,Memorization,78,5000,n,"""",CFD-WF-205-006-N.jpg,Sara,0,"""","""","""",1,4/23/2021 19:52,73.208.61.176,Mozilla/5.0 (Windows NT 10.0; Win64; x64; rv:87.0) Gecko/20100101 Firefox/87.0,,Firefox,87,Windows,10
108,1,null,"""",html-keyboard-response,103,258778,0.0-103.0,"""","<div style=""font-size:60px;"">+</div>","""",256,fixation,Memorization,null,500,"""","""","""","""","""","""","""","""",1,4/23/2021 19:52,73.208.61.176,Mozilla/5.0 (Windows NT 10.0; Win64; x64; rv:87.0) Gecko/20100101 Firefox/87.0,,Firefox,87,Windows,10
108,1,2245,"""",html-keyboard-response,104,263782,0.0-104.0,"""","<img src='jspsych/CFDfaces/CFD-BF-039-031-N.jpg' height=""250px""></br><b>Michelle</b>","""",256,IntactFace,Memorization,78,5000,n,"""",CFD-AM-242-176-N.jpg,Timothy,0,"""","""","""",1,4/23/2021 19:52,73.208.61.176,Mozilla/5.0 (Windows NT 10.0; Win64; x64; rv:87.0) Gecko/20100101 Firefox/87.0,,Firefox,87,Windows,10
108,1,null,"""",html-keyboard-response,105,264294,0.0-105.0,"""","<div style=""font-size:60px;"">+</div>","""",256,fixation,Memorization,null,500,"""","""","""","""","""","""","""","""",1,4/23/2021 19:52,73.208.61.176,Mozilla/5.0 (Windows NT 10.0; Win64; x64; rv:87.0) Gecko/20100101 Firefox/87.0,,Firefox,87,Windows,10
108,1,2693,"""",html-keyboard-response,106,269304,0.0-106.0,"""","<img src='jspsych/CFDfaces/CFD-WM-006-002-N.jpg' height=""250px""></br><b>Joshua</b>","""",256,IntactFace,Memorization,70,5000,f,"""",CFD-WM-019-003-N.jpg,Dustin,0,"""","""","""",1,4/23/2021 19:52,73.208.61.176,Mozilla/5.0 (Windows NT 10.0; Win64; x64; rv:87.0) Gecko/20100101 Firefox/87.0,,Firefox,87,Windows,10
108,1,null,"""",html-keyboard-response,107,269819,0.0-107.0,"""","<div style=""font-size:60px;"">+</div>","""",256,fixation,Memorization,null,500,"""","""","""","""","""","""","""","""",1,4/23/2021 19:52,73.208.61.176,Mozilla/5.0 (Windows NT 10.0; Win64; x64; rv:87.0) Gecko/20100101 Firefox/87.0,,Firefox,87,Windows,10
108,1,1455,"""",html-keyboard-response,108,274829,0.0-108.0,"""","<img src='jspsych/CFDfaces/CFD-BM-211-174-N.jpg' height=""250px""></br><b>Brian</b>","""",256,IntactFace,Memorization,70,5000,f,"""",CFD-LM-221-216-N.jpg,Austin,0,"""","""","""",1,4/23/2021 19:52,73.208.61.176,Mozilla/5.0 (Windows NT 10.0; Win64; x64; rv:87.0) Gecko/20100101 Firefox/87.0,,Firefox,87,Windows,10
108,1,null,"""",html-keyboard-response,109,275348,0.0-109.0,"""","<div style=""font-size:60px;"">+</div>","""",256,fixation,Memorization,null,500,"""","""","""","""","""","""","""","""",1,4/23/2021 19:52,73.208.61.176,Mozilla/5.0 (Windows NT 10.0; Win64; x64; rv:87.0) Gecko/20100101 Firefox/87.0,,Firefox,87,Windows,10
108,1,1510,"""",html-keyboard-response,110,280367,0.0-110.0,"""","<img src='jspsych/CFDfaces/CFD-BM-210-148-N.jpg' height=""250px""></br><b>James</b>","""",256,IntactFace,Memorization,70,5000,f,"""",CFD-WM-032-001-N.jpg,Ryan,0,"""","""","""",1,4/23/2021 19:52,73.208.61.176,Mozilla/5.0 (Windows NT 10.0; Win64; x64; rv:87.0) Gecko/20100101 Firefox/87.0,,Firefox,87,Windows,10
108,1,null,"""",html-keyboard-response,111,280883,0.0-111.0,"""","<div style=""font-size:60px;"">+</div>","""",256,fixation,Memorization,null,500,"""","""","""","""","""","""","""","""",1,4/23/2021 19:52,73.208.61.176,Mozilla/5.0 (Windows NT 10.0; Win64; x64; rv:87.0) Gecko/20100101 Firefox/87.0,,Firefox,87,Windows,10
108,1,1270,"""",html-keyboard-response,112,285890,0.0-112.0,"""","<img src='jspsych/CFDfaces/CFD-BM-010-003-N.jpg' height=""250px""></br><b>Robert</b>","""",256,IntactFace,Memorization,70,5000,f,"""",CFD-WM-020-001-N.jpg,Cameron,0,"""","""","""",1,4/23/2021 19:52,73.208.61.176,Mozilla/5.0 (Windows NT 10.0; Win64; x64; rv:87.0) Gecko/20100101 Firefox/87.0,,Firefox,87,Windows,10
108,1,null,"""",html-keyboard-response,113,286403,0.0-113.0,"""","<div style=""font-size:60px;"">+</div>","""",256,fixation,Memorization,null,500,"""","""","""","""","""","""","""","""",1,4/23/2021 19:52,73.208.61.176,Mozilla/5.0 (Windows NT 10.0; Win64; x64; rv:87.0) Gecko/20100101 Firefox/87.0,,Firefox,87,Windows,10
108,1,1550,"""",html-keyboard-response,114,291416,0.0-114.0,"""","<img src='jspsych/CFDfaces/CFD-LF-208-127-N.jpg' height=""250px""></br><b>Elizabeth</b>","""",256,IntactFace,Memorization,78,5000,n,"""",CFD-LM-252-076-N.jpg,Steven,0,"""","""","""",1,4/23/2021 19:52,73.208.61.176,Mozilla/5.0 (Windows NT 10.0; Win64; x64; rv:87.0) Gecko/20100101 Firefox/87.0,,Firefox,87,Windows,10
108,1,null,"""",html-keyboard-response,115,291927,0.0-115.0,"""","<div style=""font-size:60px;"">+</div>","""",256,fixation,Memorization,null,500,"""","""","""","""","""","""","""","""",1,4/23/2021 19:52,73.208.61.176,Mozilla/5.0 (Windows NT 10.0; Win64; x64; rv:87.0) Gecko/20100101 Firefox/87.0,,Firefox,87,Windows,10
108,1,2330,"""",html-keyboard-response,116,296944,0.0-116.0,"""","<img src='jspsych/CFDfaces/CFD-BF-218-207-N.jpg' height=""250px""></br><b>Amanda</b>","""",256,IntactFace,Memorization,70,5000,f,"""",CFD-WF-207-014-N.jpg,Whitney,0,"""","""","""",1,4/23/2021 19:52,73.208.61.176,Mozilla/5.0 (Windows NT 10.0; Win64; x64; rv:87.0) Gecko/20100101 Firefox/87.0,,Firefox,87,Windows,10
108,1,null,"""",html-keyboard-response,117,297462,0.0-117.0,"""","<div style=""font-size:60px;"">+</div>","""",256,fixation,Memorization,null,500,"""","""","""","""","""","""","""","""",1,4/23/2021 19:52,73.208.61.176,Mozilla/5.0 (Windows NT 10.0; Win64; x64; rv:87.0) Gecko/20100101 Firefox/87.0,,Firefox,87,Windows,10
108,1,3411,"""",html-keyboard-response,118,302472,0.0-118.0,"""","<img src='jspsych/CFDfaces/CFD-BM-032-024-N.jpg' height=""250px""></br><b>Eric</b>","""",256,IntactFace,Memorization,70,5000,f,"""",CFD-WM-207-048-N.jpg,Justin,0,"""","""","""",1,4/23/2021 19:52,73.208.61.176,Mozilla/5.0 (Windows NT 10.0; Win64; x64; rv:87.0) Gecko/20100101 Firefox/87.0,,Firefox,87,Windows,10
108,1,null,"""",html-keyboard-response,119,302987,0.0-119.0,"""","<div style=""font-size:60px;"">+</div>","""",256,fixation,Memorization,null,500,"""","""","""","""","""","""","""","""",1,4/23/2021 19:52,73.208.61.176,Mozilla/5.0 (Windows NT 10.0; Win64; x64; rv:87.0) Gecko/20100101 Firefox/87.0,,Firefox,87,Windows,10
108,1,2463,"""",html-keyboard-response,120,307998,0.0-120.0,"""","<img src='jspsych/CFDfaces/CFD-AM-246-184-N.jpg' height=""250px""></br><b>Daniel</b>","""",256,IntactFace,Memorization,70,5000,f,"""",CFD-WM-017-002-N.jpg,Vincent,0,"""","""","""",1,4/23/2021 19:52,73.208.61.176,Mozilla/5.0 (Windows NT 10.0; Win64; x64; rv:87.0) Gecko/20100101 Firefox/87.0,,Firefox,87,Windows,10
108,1,null,"""",html-keyboard-response,121,308519,0.0-121.0,"""","<div style=""font-size:60px;"">+</div>","""",256,fixation,Memorization,null,500,"""","""","""","""","""","""","""","""",1,4/23/2021 19:52,73.208.61.176,Mozilla/5.0 (Windows NT 10.0; Win64; x64; rv:87.0) Gecko/20100101 Firefox/87.0,,Firefox,87,Windows,10
108,1,1459,"""",html-keyboard-response,122,313526,0.0-122.0,"""","<img src='jspsych/CFDfaces/CFD-WF-016-015-N.jpg' height=""250px""></br><b>Vanessa</b>","""",256,IntactFace,Memorization,70,5000,f,"""",CFD-LF-236-221-N.jpg,Jasmine,0,"""","""","""",1,4/23/2021 19:52,73.208.61.176,Mozilla/5.0 (Windows NT 10.0; Win64; x64; rv:87.0) Gecko/20100101 Firefox/87.0,,Firefox,87,Windows,10
108,1,null,"""",html-keyboard-response,123,314039,0.0-123.0,"""","<div style=""font-size:60px;"">+</div>","""",256,fixation,Memorization,null,500,"""","""","""","""","""","""","""","""",1,4/23/2021 19:52,73.208.61.176,Mozilla/5.0 (Windows NT 10.0; Win64; x64; rv:87.0) Gecko/20100101 Firefox/87.0,,Firefox,87,Windows,10
108,1,1380,"""",html-keyboard-response,124,319052,0.0-124.0,"""","<img src='jspsych/CFDfaces/CFD-WF-024-003-N.jpg' height=""250px""></br><b>Kimberly</b>","""",256,IntactFace,Memorization,70,5000,f,"""",CFD-WF-017-003-N.jpg,Jordan,0,"""","""","""",1,4/23/2021 19:52,73.208.61.176,Mozilla/5.0 (Windows NT 10.0; Win64; x64; rv:87.0) Gecko/20100101 Firefox/87.0,,Firefox,87,Windows,10
108,1,null,"""",html-keyboard-response,125,319567,0.0-125.0,"""","<div style=""font-size:60px;"">+</div>","""",256,fixation,Memorization,null,500,"""","""","""","""","""","""","""","""",1,4/23/2021 19:52,73.208.61.176,Mozilla/5.0 (Windows NT 10.0; Win64; x64; rv:87.0) Gecko/20100101 Firefox/87.0,,Firefox,87,Windows,10
108,1,1827,"""",html-keyboard-response,126,324571,0.0-126.0,"""","<img src='jspsych/CFDfaces/CFD-AM-221-184-N.jpg' height=""250px""></br><b>Gregory</b>","""",256,IntactFace,Memorization,78,5000,n,"""",CFD-AF-240-206-N.jpg,Amy,0,"""","""","""",1,4/23/2021 19:52,73.208.61.176,Mozilla/5.0 (Windows NT 10.0; Win64; x64; rv:87.0) Gecko/20100101 Firefox/87.0,,Firefox,87,Windows,10
108,1,null,"""",html-keyboard-response,127,325087,0.0-127.0,"""","<div style=""font-size:60px;"">+</div>","""",256,fixation,Memorization,null,500,"""","""","""","""","""","""","""","""",1,4/23/2021 19:52,73.208.61.176,Mozilla/5.0 (Windows NT 10.0; Win64; x64; rv:87.0) Gecko/20100101 Firefox/87.0,,Firefox,87,Windows,10
108,1,2356,"""",html-keyboard-response,128,330103,0.0-128.0,"""","<img src='jspsych/CFDfaces/CFD-AF-203-077-N.jpg' height=""250px""></br><b>Emily</b>","""",256,IntactFace,Memorization,70,5000,f,"""",CFD-BM-026-002-N.jpg,Luis,0,"""","""","""",1,4/23/2021 19:52,73.208.61.176,Mozilla/5.0 (Windows NT 10.0; Win64; x64; rv:87.0) Gecko/20100101 Firefox/87.0,,Firefox,87,Windows,10
108,1,null,"""",html-keyboard-response,129,330612,0.0-129.0,"""","<div style=""font-size:60px;"">+</div>","""",256,fixation,Memorization,null,500,"""","""","""","""","""","""","""","""",1,4/23/2021 19:52,73.208.61.176,Mozilla/5.0 (Windows NT 10.0; Win64; x64; rv:87.0) Gecko/20100101 Firefox/87.0,,Firefox,87,Windows,10
108,1,2253,"""",html-keyboard-response,130,335629,0.0-130.0,"""","<img src='jspsych/CFDfaces/CFD-LF-213-079-N.jpg' height=""250px""></br><b>Kayla</b>","""",256,IntactFace,Memorization,78,5000,n,"""",CFD-LF-220-120-N.jpg,Jenna,0,"""","""","""",1,4/23/2021 19:52,73.208.61.176,Mozilla/5.0 (Windows NT 10.0; Win64; x64; rv:87.0) Gecko/20100101 Firefox/87.0,,Firefox,87,Windows,10
108,1,null,"""",html-keyboard-response,131,336142,0.0-131.0,"""","<div style=""font-size:60px;"">+</div>","""",256,fixation,Memorization,null,500,"""","""","""","""","""","""","""","""",1,4/23/2021 19:52,73.208.61.176,Mozilla/5.0 (Windows NT 10.0; Win64; x64; rv:87.0) Gecko/20100101 Firefox/87.0,,Firefox,87,Windows,10
108,1,1443,"""",html-keyboard-response,132,341154,0.0-132.0,"""","<img src='jspsych/CFDfaces/CFD-BF-221-223-N.jpg' height=""250px""></br><b>Andrea</b>","""",256,IntactFace,Memorization,70,5000,f,"""",CFD-AF-233-190-N.jpg,Lauren,0,"""","""","""",1,4/23/2021 19:52,73.208.61.176,Mozilla/5.0 (Windows NT 10.0; Win64; x64; rv:87.0) Gecko/20100101 Firefox/87.0,,Firefox,87,Windows,10
108,1,null,"""",html-keyboard-response,133,341669,0.0-133.0,"""","<div style=""font-size:60px;"">+</div>","""",256,fixation,Memorization,null,500,"""","""","""","""","""","""","""","""",1,4/23/2021 19:52,73.208.61.176,Mozilla/5.0 (Windows NT 10.0; Win64; x64; rv:87.0) Gecko/20100101 Firefox/87.0,,Firefox,87,Windows,10
108,1,1994,"""",html-keyboard-response,134,346683,0.0-134.0,"""","<img src='jspsych/CFDfaces/CFD-WM-034-030-N.jpg' height=""250px""></br><b>Jason</b>","""",256,IntactFace,Memorization,70,5000,f,"""",CFD-BM-203-001-N.jpg,Jesse,0,"""","""","""",1,4/23/2021 19:52,73.208.61.176,Mozilla/5.0 (Windows NT 10.0; Win64; x64; rv:87.0) Gecko/20100101 Firefox/87.0,,Firefox,87,Windows,10
108,1,null,"""",html-keyboard-response,135,347186,0.0-135.0,"""","<div style=""font-size:60px;"">+</div>","""",256,fixation,Memorization,null,500,"""","""","""","""","""","""","""","""",1,4/23/2021 19:52,73.208.61.176,Mozilla/5.0 (Windows NT 10.0; Win64; x64; rv:87.0) Gecko/20100101 Firefox/87.0,,Firefox,87,Windows,10
108,1,1431,"""",html-keyboard-response,136,352206,0.0-136.0,"""","<img src='jspsych/CFDfaces/CFD-WM-022-001-N.jpg' height=""250px""></br><b>Christian</b>","""",256,IntactFace,Memorization,70,5000,f,"""",CFD-BF-016-017-N.jpg,Laura,0,"""","""","""",1,4/23/2021 19:52,73.208.61.176,Mozilla/5.0 (Windows NT 10.0; Win64; x64; rv:87.0) Gecko/20100101 Firefox/87.0,,Firefox,87,Windows,10
108,1,null,"""",html-keyboard-response,137,352720,0.0-137.0,"""","<div style=""font-size:60px;"">+</div>","""",256,fixation,Memorization,null,500,"""","""","""","""","""","""","""","""",1,4/23/2021 19:52,73.208.61.176,Mozilla/5.0 (Windows NT 10.0; Win64; x64; rv:87.0) Gecko/20100101 Firefox/87.0,,Firefox,87,Windows,10
108,1,1274,"""",html-keyboard-response,138,357723,0.0-138.0,"""","<img src='jspsych/CFDfaces/CFD-LF-230-203-N.jpg' height=""250px""></br><b>Stephanie</b>","""",256,IntactFace,Memorization,70,5000,f,"""",CFD-LM-234-176-N.jpg,Travis,0,"""","""","""",1,4/23/2021 19:52,73.208.61.176,Mozilla/5.0 (Windows NT 10.0; Win64; x64; rv:87.0) Gecko/20100101 Firefox/87.0,,Firefox,87,Windows,10
108,1,null,"""",html-keyboard-response,139,358240,0.0-139.0,"""","<div style=""font-size:60px;"">+</div>","""",256,fixation,Memorization,null,500,"""","""","""","""","""","""","""","""",1,4/23/2021 19:52,73.208.61.176,Mozilla/5.0 (Windows NT 10.0; Win64; x64; rv:87.0) Gecko/20100101 Firefox/87.0,,Firefox,87,Windows,10
108,1,2418,"""",html-keyboard-response,140,363245,0.0-140.0,"""","<img src='jspsych/CFDfaces/CFD-LM-223-175-N.jpg' height=""250px""></br><b>Peter</b>","""",256,IntactFace,Memorization,70,5000,f,"""",CFD-AF-242-158-N.jpg,Melissa,0,"""","""","""",1,4/23/2021 19:52,73.208.61.176,Mozilla/5.0 (Windows NT 10.0; Win64; x64; rv:87.0) Gecko/20100101 Firefox/87.0,,Firefox,87,Windows,10
108,1,null,"""",html-keyboard-response,141,363760,0.0-141.0,"""","<div style=""font-size:60px;"">+</div>","""",256,fixation,Memorization,null,500,"""","""","""","""","""","""","""","""",1,4/23/2021 19:52,73.208.61.176,Mozilla/5.0 (Windows NT 10.0; Win64; x64; rv:87.0) Gecko/20100101 Firefox/87.0,,Firefox,87,Windows,10
108,1,2112,"""",html-keyboard-response,142,368777,0.0-142.0,"""","<img src='jspsych/CFDfaces/CFD-AF-200-228-N.jpg' height=""250px""></br><b>Samantha</b>","""",256,IntactFace,Memorization,78,5000,n,"""",CFD-WM-011-002-N.jpg,Sean,0,"""","""","""",1,4/23/2021 19:52,73.208.61.176,Mozilla/5.0 (Windows NT 10.0; Win64; x64; rv:87.0) Gecko/20100101 Firefox/87.0,,Firefox,87,Windows,10
108,1,null,"""",html-keyboard-response,143,369301,0.0-143.0,"""","<div style=""font-size:60px;"">+</div>","""",256,fixation,Memorization,null,500,"""","""","""","""","""","""","""","""",1,4/23/2021 19:52,73.208.61.176,Mozilla/5.0 (Windows NT 10.0; Win64; x64; rv:87.0) Gecko/20100101 Firefox/87.0,,Firefox,87,Windows,10
108,1,1693,"""",html-keyboard-response,144,374307,0.0-144.0,"""","<img src='jspsych/CFDfaces/CFD-LF-215-157-N.jpg' height=""250px""></br><b>Meghan</b>","""",256,IntactFace,Memorization,78,5000,n,"""",CFD-WF-204-038-N.jpg,Rebecca,0,"""","""","""",1,4/23/2021 19:52,73.208.61.176,Mozilla/5.0 (Windows NT 10.0; Win64; x64; rv:87.0) Gecko/20100101 Firefox/87.0,,Firefox,87,Windows,10
108,1,null,"""",html-keyboard-response,145,374823,0.0-145.0,"""","<div style=""font-size:60px;"">+</div>","""",256,fixation,Memorization,null,500,"""","""","""","""","""","""","""","""",1,4/23/2021 19:52,73.208.61.176,Mozilla/5.0 (Windows NT 10.0; Win64; x64; rv:87.0) Gecko/20100101 Firefox/87.0,,Firefox,87,Windows,10
108,1,2403,"""",html-keyboard-response,146,379839,0.0-146.0,"""","<img src='jspsych/CFDfaces/CFD-LM-217-162-N.jpg' height=""250px""></br><b>Brandon</b>","""",256,IntactFace,Memorization,70,5000,f,"""",CFD-LM-219-295-N.jpg,Kenneth,0,"""","""","""",1,4/23/2021 19:52,73.208.61.176,Mozilla/5.0 (Windows NT 10.0; Win64; x64; rv:87.0) Gecko/20100101 Firefox/87.0,,Firefox,87,Windows,10
108,1,null,"""",html-keyboard-response,147,380361,0.0-147.0,"""","<div style=""font-size:60px;"">+</div>","""",256,fixation,Memorization,null,500,"""","""","""","""","""","""","""","""",1,4/23/2021 19:52,73.208.61.176,Mozilla/5.0 (Windows NT 10.0; Win64; x64; rv:87.0) Gecko/20100101 Firefox/87.0,,Firefox,87,Windows,10
108,1,2233,"""",html-keyboard-response,148,385376,0.0-148.0,"""","<img src='jspsych/CFDfaces/CFD-BM-208-065-N.jpg' height=""250px""></br><b>Richard</b>","""",256,IntactFace,Memorization,70,5000,f,"""",CFD-WF-218-087-N.jpg,Erin,0,"""","""","""",1,4/23/2021 19:52,73.208.61.176,Mozilla/5.0 (Windows NT 10.0; Win64; x64; rv:87.0) Gecko/20100101 Firefox/87.0,,Firefox,87,Windows,10
108,1,null,"""",html-keyboard-response,149,385889,0.0-149.0,"""","<div style=""font-size:60px;"">+</div>","""",256,fixation,Memorization,null,500,"""","""","""","""","""","""","""","""",1,4/23/2021 19:52,73.208.61.176,Mozilla/5.0 (Windows NT 10.0; Win64; x64; rv:87.0) Gecko/20100101 Firefox/87.0,,Firefox,87,Windows,10
108,1,2336,"""",html-keyboard-response,150,390903,0.0-150.0,"""","<img src='jspsych/CFDfaces/CFD-WM-003-002-N.jpg' height=""250px""></br><b>Jeffrey</b>","""",256,IntactFace,Memorization,78,5000,n,"""",CFD-BM-002-013-N.jpg,Jacob,0,"""","""","""",1,4/23/2021 19:52,73.208.61.176,Mozilla/5.0 (Windows NT 10.0; Win64; x64; rv:87.0) Gecko/20100101 Firefox/87.0,,Firefox,87,Windows,10
108,1,null,"""",html-keyboard-response,151,391413,0.0-151.0,"""","<div style=""font-size:60px;"">+</div>","""",256,fixation,Memorization,null,500,"""","""","""","""","""","""","""","""",1,4/23/2021 19:52,73.208.61.176,Mozilla/5.0 (Windows NT 10.0; Win64; x64; rv:87.0) Gecko/20100101 Firefox/87.0,,Firefox,87,Windows,10
108,1,1397,"""",html-keyboard-response,152,396429,0.0-152.0,"""","<img src='jspsych/CFDfaces/CFD-LF-210-220-N.jpg' height=""250px""></br><b>Ashley</b>","""",256,IntactFace,Memorization,70,5000,f,"""",CFD-LF-232-199-N.jpg,Lindsey,0,"""","""","""",1,4/23/2021 19:52,73.208.61.176,Mozilla/5.0 (Windows NT 10.0; Win64; x64; rv:87.0) Gecko/20100101 Firefox/87.0,,Firefox,87,Windows,10
108,1,null,"""",html-keyboard-response,153,396949,0.0-153.0,"""","<div style=""font-size:60px;"">+</div>","""",256,fixation,Memorization,null,500,"""","""","""","""","""","""","""","""",1,4/23/2021 19:52,73.208.61.176,Mozilla/5.0 (Windows NT 10.0; Win64; x64; rv:87.0) Gecko/20100101 Firefox/87.0,,Firefox,87,Windows,10
108,1,1530,"""",html-keyboard-response,154,398481,0.0-154.0,"""",Press Any Key to Begin Memory Test,"""",1,welcomeScreen,Break,32,"""","""","""","""","""","""","""","""","""",1,4/23/2021 19:52,73.208.61.176,Mozilla/5.0 (Windows NT 10.0; Win64; x64; rv:87.0) Gecko/20100101 Firefox/87.0,,Firefox,87,Windows,10
108,1,null,"""",html-keyboard-response,155,399493,0.0-155.0,"""","<div style=""font-size:60px;"">+</div>","""",256,ITI,Test,null,1000,"""","""","""","""","""","""","""","""",1,4/23/2021 19:52,73.208.61.176,Mozilla/5.0 (Windows NT 10.0; Win64; x64; rv:87.0) Gecko/20100101 Firefox/87.0,,Firefox,87,Windows,10
108,1,null,"""",image-keyboard-response,156,399757,0.0-156.0,"""",jspsych/scrambledDisgustFaces/scrambledAF19DIS.JPG,"""",256,forwardMask,Test,null,250,"""",d,"""","""","""","""","""","""",1,4/23/2021 19:52,73.208.61.176,Mozilla/5.0 (Windows NT 10.0; Win64; x64; rv:87.0) Gecko/20100101 Firefox/87.0,,Firefox,87,Windows,10
108,1,null,"""",image-keyboard-response,157,399788,0.0-157.0,"""",jspsych/disgustFaces/AF19DIS.JPG,"""",256,Cue,Test,null,16,"""","""","""","""","""","""","""","""",1,4/23/2021 19:52,73.208.61.176,Mozilla/5.0 (Windows NT 10.0; Win64; x64; rv:87.0) Gecko/20100101 Firefox/87.0,,Firefox,87,Windows,10
108,1,null,"""",image-keyboard-response,158,399897,0.0-158.0,"""",jspsych/neutralFaces/AF34NES.JPG,"""",256,backwardMask,Test,null,100,"""","""","""","""","""","""","""","""",1,4/23/2021 19:52,73.208.61.176,Mozilla/5.0 (Windows NT 10.0; Win64; x64; rv:87.0) Gecko/20100101 Firefox/87.0,,Firefox,87,Windows,10
108,1,null,"""",html-keyboard-response,159,400900,0.0-159.0,"""","<div style=""font-size:60px;"">+</div>","""",256,fixationBtwnNeutralMaskAndPrompt,Test,null,1000,"""","""","""","""","""","""","""","""",1,4/23/2021 19:52,73.208.61.176,Mozilla/5.0 (Windows NT 10.0; Win64; x64; rv:87.0) Gecko/20100101 Firefox/87.0,,Firefox,87,Windows,10
108,1,2254,"""",html-button-response,160,403155,0.0-160.0,"""","<img src='jspsych/CFDfaces/CFD-AM-212-050-N.jpg' height=""250px"">,</br><b>Nicholas</b>",1,256,IntactOrRearranged,Test,"""","""","""","""",CFD-LM-234-176-N.jpg,Travis,0,1,"""","""",1,4/23/2021 19:52,73.208.61.176,Mozilla/5.0 (Windows NT 10.0; Win64; x64; rv:87.0) Gecko/20100101 Firefox/87.0,,Firefox,87,Windows,10
108,1,4470,"""",html-slider-response,161,407632,0.0-161.0,"""","<img src='jspsych/CFDfaces/CFD-AM-212-050-N.jpg' height=""250px"">,</br><b>Nicholas</b>","""",256,ConfidenceQuery,Test,"""","""","""","""",CFD-LM-234-176-N.jpg,Travis,0,"""",0,81,1,4/23/2021 19:52,73.208.61.176,Mozilla/5.0 (Windows NT 10.0; Win64; x64; rv:87.0) Gecko/20100101 Firefox/87.0,,Firefox,87,Windows,10
108,1,null,"""",html-keyboard-response,162,408644,0.0-162.0,"""","<div style=""font-size:60px;"">+</div>","""",256,ITI,Test,null,1000,"""","""","""","""","""","""","""","""",1,4/23/2021 19:52,73.208.61.176,Mozilla/5.0 (Windows NT 10.0; Win64; x64; rv:87.0) Gecko/20100101 Firefox/87.0,,Firefox,87,Windows,10
108,1,null,"""",image-keyboard-response,163,408912,0.0-163.0,"""",jspsych/scrambledNeutralFaces/scrambledBM05NES.JPG,"""",256,forwardMask,Test,null,250,"""",n,"""","""","""","""","""","""",1,4/23/2021 19:52,73.208.61.176,Mozilla/5.0 (Windows NT 10.0; Win64; x64; rv:87.0) Gecko/20100101 Firefox/87.0,,Firefox,87,Windows,10
108,1,null,"""",image-keyboard-response,164,408943,0.0-164.0,"""",jspsych/neutralFaces/BM05NES.JPG,"""",256,Cue,Test,null,16,"""","""","""","""","""","""","""","""",1,4/23/2021 19:52,73.208.61.176,Mozilla/5.0 (Windows NT 10.0; Win64; x64; rv:87.0) Gecko/20100101 Firefox/87.0,,Firefox,87,Windows,10
108,1,null,"""",image-keyboard-response,165,409055,0.0-165.0,"""",jspsych/neutralFaces/BM22NES.JPG,"""",256,backwardMask,Test,null,100,"""","""","""","""","""","""","""","""",1,4/23/2021 19:52,73.208.61.176,Mozilla/5.0 (Windows NT 10.0; Win64; x64; rv:87.0) Gecko/20100101 Firefox/87.0,,Firefox,87,Windows,10
108,1,null,"""",html-keyboard-response,166,410070,0.0-166.0,"""","<div style=""font-size:60px;"">+</div>","""",256,fixationBtwnNeutralMaskAndPrompt,Test,null,1000,"""","""","""","""","""","""","""","""",1,4/23/2021 19:52,73.208.61.176,Mozilla/5.0 (Windows NT 10.0; Win64; x64; rv:87.0) Gecko/20100101 Firefox/87.0,,Firefox,87,Windows,10
108,1,2646,"""",html-button-response,167,412717,0.0-167.0,"""","<img src='jspsych/CFDfaces/CFD-WM-006-002-N.jpg' height=""250px"">,</br><b>Eric</b>",1,256,IntactOrRearranged,Test,"""","""","""","""",CFD-LM-219-295-N.jpg,Jeremy,1,1,"""","""",1,4/23/2021 19:52,73.208.61.176,Mozilla/5.0 (Windows NT 10.0; Win64; x64; rv:87.0) Gecko/20100101 Firefox/87.0,,Firefox,87,Windows,10
108,1,2191,"""",html-slider-response,168,414911,0.0-168.0,"""","<img src='jspsych/CFDfaces/CFD-WM-006-002-N.jpg' height=""250px"">,</br><b>Eric</b>","""",256,ConfidenceQuery,Test,"""","""","""","""",CFD-LM-219-295-N.jpg,Jeremy,1,"""",0,100,1,4/23/2021 19:52,73.208.61.176,Mozilla/5.0 (Windows NT 10.0; Win64; x64; rv:87.0) Gecko/20100101 Firefox/87.0,,Firefox,87,Windows,10
108,1,null,"""",html-keyboard-response,169,415933,0.0-169.0,"""","<div style=""font-size:60px;"">+</div>","""",256,ITI,Test,null,1000,"""","""","""","""","""","""","""","""",1,4/23/2021 19:52,73.208.61.176,Mozilla/5.0 (Windows NT 10.0; Win64; x64; rv:87.0) Gecko/20100101 Firefox/87.0,,Firefox,87,Windows,10
108,1,null,"""",image-keyboard-response,170,416200,0.0-170.0,"""",jspsych/scrambledNeutralFaces/scrambledAM22NES.JPG,"""",256,forwardMask,Test,null,250,"""",n,"""","""","""","""","""","""",1,4/23/2021 19:52,73.208.61.176,Mozilla/5.0 (Windows NT 10.0; Win64; x64; rv:87.0) Gecko/20100101 Firefox/87.0,,Firefox,87,Windows,10
108,1,null,"""",image-keyboard-response,171,416230,0.0-171.0,"""",jspsych/neutralFaces/AM22NES.JPG,"""",256,Cue,Test,null,16,"""","""","""","""","""","""","""","""",1,4/23/2021 19:52,73.208.61.176,Mozilla/5.0 (Windows NT 10.0; Win64; x64; rv:87.0) Gecko/20100101 Firefox/87.0,,Firefox,87,Windows,10
108,1,null,"""",image-keyboard-response,172,416340,0.0-172.0,"""",jspsych/neutralFaces/BM14NES.JPG,"""",256,backwardMask,Test,null,100,"""","""","""","""","""","""","""","""",1,4/23/2021 19:52,73.208.61.176,Mozilla/5.0 (Windows NT 10.0; Win64; x64; rv:87.0) Gecko/20100101 Firefox/87.0,,Firefox,87,Windows,10
108,1,null,"""",html-keyboard-response,173,417341,0.0-173.0,"""","<div style=""font-size:60px;"">+</div>","""",256,fixationBtwnNeutralMaskAndPrompt,Test,null,1000,"""","""","""","""","""","""","""","""",1,4/23/2021 19:52,73.208.61.176,Mozilla/5.0 (Windows NT 10.0; Win64; x64; rv:87.0) Gecko/20100101 Firefox/87.0,,Firefox,87,Windows,10
108,1,1809,"""",html-button-response,174,419152,0.0-174.0,"""","<img src='jspsych/CFDfaces/CFD-WM-232-070-N.jpg' height=""250px"">,</br><b>Juan</b>",0,256,IntactOrRearranged,Test,"""","""","""","""",CFD-LM-221-216-N.jpg,Mark,0,0,"""","""",1,4/23/2021 19:52,73.208.61.176,Mozilla/5.0 (Windows NT 10.0; Win64; x64; rv:87.0) Gecko/20100101 Firefox/87.0,,Firefox,87,Windows,10
108,1,2124,"""",html-slider-response,175,421278,0.0-175.0,"""","<img src='jspsych/CFDfaces/CFD-WM-232-070-N.jpg' height=""250px"">,</br><b>Juan</b>","""",256,ConfidenceQuery,Test,"""","""","""","""",CFD-LM-221-216-N.jpg,Mark,0,"""",0,100,1,4/23/2021 19:52,73.208.61.176,Mozilla/5.0 (Windows NT 10.0; Win64; x64; rv:87.0) Gecko/20100101 Firefox/87.0,,Firefox,87,Windows,10
108,1,null,"""",html-keyboard-response,176,422289,0.0-176.0,"""","<div style=""font-size:60px;"">+</div>","""",256,ITI,Test,null,1000,"""","""","""","""","""","""","""","""",1,4/23/2021 19:52,73.208.61.176,Mozilla/5.0 (Windows NT 10.0; Win64; x64; rv:87.0) Gecko/20100101 Firefox/87.0,,Firefox,87,Windows,10
108,1,null,"""",image-keyboard-response,177,422545,0.0-177.0,"""",jspsych/scrambledNeutralFaces/scrambledBM24NES.JPG,"""",256,forwardMask,Test,null,250,"""",n,"""","""","""","""","""","""",1,4/23/2021 19:52,73.208.61.176,Mozilla/5.0 (Windows NT 10.0; Win64; x64; rv:87.0) Gecko/20100101 Firefox/87.0,,Firefox,87,Windows,10
108,1,null,"""",image-keyboard-response,178,422573,0.0-178.0,"""",jspsych/neutralFaces/BM24NES.JPG,"""",256,Cue,Test,null,16,"""","""","""","""","""","""","""","""",1,4/23/2021 19:52,73.208.61.176,Mozilla/5.0 (Windows NT 10.0; Win64; x64; rv:87.0) Gecko/20100101 Firefox/87.0,,Firefox,87,Windows,10
108,1,null,"""",image-keyboard-response,179,422692,0.0-179.0,"""",jspsych/neutralFaces/BM31NES.JPG,"""",256,backwardMask,Test,null,100,"""","""","""","""","""","""","""","""",1,4/23/2021 19:52,73.208.61.176,Mozilla/5.0 (Windows NT 10.0; Win64; x64; rv:87.0) Gecko/20100101 Firefox/87.0,,Firefox,87,Windows,10
108,1,null,"""",html-keyboard-response,180,423707,0.0-180.0,"""","<div style=""font-size:60px;"">+</div>","""",256,fixationBtwnNeutralMaskAndPrompt,Test,null,1000,"""","""","""","""","""","""","""","""",1,4/23/2021 19:52,73.208.61.176,Mozilla/5.0 (Windows NT 10.0; Win64; x64; rv:87.0) Gecko/20100101 Firefox/87.0,,Firefox,87,Windows,10
108,1,3757,"""",html-button-response,181,427465,0.0-181.0,"""","<img src='jspsych/CFDfaces/CFD-AF-230-193-N.jpg' height=""250px"">,</br><b>Ashley</b>",1,256,IntactOrRearranged,Test,"""","""","""","""",CFD-AF-240-206-N.jpg,Amy,1,1,"""","""",1,4/23/2021 19:52,73.208.61.176,Mozilla/5.0 (Windows NT 10.0; Win64; x64; rv:87.0) Gecko/20100101 Firefox/87.0,,Firefox,87,Windows,10
108,1,null,"""",html-slider-response,182,432479,0.0-182.0,"""","<img src='jspsych/CFDfaces/CFD-AF-230-193-N.jpg' height=""250px"">,</br><b>Ashley</b>","""",256,ConfidenceQuery,Test,"""","""","""","""",CFD-AF-240-206-N.jpg,Amy,1,"""",0,null,1,4/23/2021 19:52,73.208.61.176,Mozilla/5.0 (Windows NT 10.0; Win64; x64; rv:87.0) Gecko/20100101 Firefox/87.0,,Firefox,87,Windows,10
108,1,null,"""",html-keyboard-response,183,433493,0.0-183.0,"""","<div style=""font-size:60px;"">+</div>","""",256,ITI,Test,null,1000,"""","""","""","""","""","""","""","""",1,4/23/2021 19:52,73.208.61.176,Mozilla/5.0 (Windows NT 10.0; Win64; x64; rv:87.0) Gecko/20100101 Firefox/87.0,,Firefox,87,Windows,10
108,1,null,"""",image-keyboard-response,184,433757,0.0-184.0,"""",jspsych/scrambledDisgustFaces/scrambledBF35DIS.JPG,"""",256,forwardMask,Test,null,250,"""",d,"""","""","""","""","""","""",1,4/23/2021 19:52,73.208.61.176,Mozilla/5.0 (Windows NT 10.0; Win64; x64; rv:87.0) Gecko/20100101 Firefox/87.0,,Firefox,87,Windows,10
108,1,null,"""",image-keyboard-response,185,433788,0.0-185.0,"""",jspsych/disgustFaces/BF35DIS.JPG,"""",256,Cue,Test,null,16,"""","""","""","""","""","""","""","""",1,4/23/2021 19:52,73.208.61.176,Mozilla/5.0 (Windows NT 10.0; Win64; x64; rv:87.0) Gecko/20100101 Firefox/87.0,,Firefox,87,Windows,10
108,1,null,"""",image-keyboard-response,186,433898,0.0-186.0,"""",jspsych/neutralFaces/BF11NES.JPG,"""",256,backwardMask,Test,null,100,"""","""","""","""","""","""","""","""",1,4/23/2021 19:52,73.208.61.176,Mozilla/5.0 (Windows NT 10.0; Win64; x64; rv:87.0) Gecko/20100101 Firefox/87.0,,Firefox,87,Windows,10
108,1,null,"""",html-keyboard-response,187,434899,0.0-187.0,"""","<div style=""font-size:60px;"">+</div>","""",256,fixationBtwnNeutralMaskAndPrompt,Test,null,1000,"""","""","""","""","""","""","""","""",1,4/23/2021 19:52,73.208.61.176,Mozilla/5.0 (Windows NT 10.0; Win64; x64; rv:87.0) Gecko/20100101 Firefox/87.0,,Firefox,87,Windows,10
108,1,2251,"""",html-button-response,188,437153,0.0-188.0,"""","<img src='jspsych/CFDfaces/CFD-BM-210-148-N.jpg' height=""250px"">,</br><b>Jeffrey</b>",1,256,IntactOrRearranged,Test,"""","""","""","""",CFD-WF-205-006-N.jpg,Lauren,1,1,"""","""",1,4/23/2021 19:52,73.208.61.176,Mozilla/5.0 (Windows NT 10.0; Win64; x64; rv:87.0) Gecko/20100101 Firefox/87.0,,Firefox,87,Windows,10
108,1,2517,"""",html-slider-response,189,439672,0.0-189.0,"""","<img src='jspsych/CFDfaces/CFD-BM-210-148-N.jpg' height=""250px"">,</br><b>Jeffrey</b>","""",256,ConfidenceQuery,Test,"""","""","""","""",CFD-WF-205-006-N.jpg,Lauren,1,"""",0,40,1,4/23/2021 19:52,73.208.61.176,Mozilla/5.0 (Windows NT 10.0; Win64; x64; rv:87.0) Gecko/20100101 Firefox/87.0,,Firefox,87,Windows,10
108,1,null,"""",html-keyboard-response,190,440691,0.0-190.0,"""","<div style=""font-size:60px;"">+</div>","""",256,ITI,Test,null,1000,"""","""","""","""","""","""","""","""",1,4/23/2021 19:52,73.208.61.176,Mozilla/5.0 (Windows NT 10.0; Win64; x64; rv:87.0) Gecko/20100101 Firefox/87.0,,Firefox,87,Windows,10
108,1,null,"""",image-keyboard-response,191,440958,0.0-191.0,"""",jspsych/scrambledDisgustFaces/scrambledBF12DIS.JPG,"""",256,forwardMask,Test,null,250,"""",d,"""","""","""","""","""","""",1,4/23/2021 19:52,73.208.61.176,Mozilla/5.0 (Windows NT 10.0; Win64; x64; rv:87.0) Gecko/20100101 Firefox/87.0,,Firefox,87,Windows,10
108,1,null,"""",image-keyboard-response,192,440988,0.0-192.0,"""",jspsych/disgustFaces/BF12DIS.JPG,"""",256,Cue,Test,null,16,"""","""","""","""","""","""","""","""",1,4/23/2021 19:52,73.208.61.176,Mozilla/5.0 (Windows NT 10.0; Win64; x64; rv:87.0) Gecko/20100101 Firefox/87.0,,Firefox,87,Windows,10
108,1,null,"""",image-keyboard-response,193,441099,0.0-193.0,"""",jspsych/neutralFaces/AF21NES.JPG,"""",256,backwardMask,Test,null,100,"""","""","""","""","""","""","""","""",1,4/23/2021 19:52,73.208.61.176,Mozilla/5.0 (Windows NT 10.0; Win64; x64; rv:87.0) Gecko/20100101 Firefox/87.0,,Firefox,87,Windows,10
108,1,null,"""",html-keyboard-response,194,442111,0.0-194.0,"""","<div style=""font-size:60px;"">+</div>","""",256,fixationBtwnNeutralMaskAndPrompt,Test,null,1000,"""","""","""","""","""","""","""","""",1,4/23/2021 19:52,73.208.61.176,Mozilla/5.0 (Windows NT 10.0; Win64; x64; rv:87.0) Gecko/20100101 Firefox/87.0,,Firefox,87,Windows,10
108,1,2769,"""",html-button-response,195,444882,0.0-195.0,"""","<img src='jspsych/CFDfaces/CFD-WF-024-003-N.jpg' height=""250px"">,</br><b>Emily</b>",1,256,IntactOrRearranged,Test,"""","""","""","""",CFD-WF-017-003-N.jpg,Jenna,1,1,"""","""",1,4/23/2021 19:52,73.208.61.176,Mozilla/5.0 (Windows NT 10.0; Win64; x64; rv:87.0) Gecko/20100101 Firefox/87.0,,Firefox,87,Windows,10
108,1,2121,"""",html-slider-response,196,447005,0.0-196.0,"""","<img src='jspsych/CFDfaces/CFD-WF-024-003-N.jpg' height=""250px"">,</br><b>Emily</b>","""",256,ConfidenceQuery,Test,"""","""","""","""",CFD-WF-017-003-N.jpg,Jenna,1,"""",0,100,1,4/23/2021 19:52,73.208.61.176,Mozilla/5.0 (Windows NT 10.0; Win64; x64; rv:87.0) Gecko/20100101 Firefox/87.0,,Firefox,87,Windows,10
108,1,null,"""",html-keyboard-response,197,448026,0.0-197.0,"""","<div style=""font-size:60px;"">+</div>","""",256,ITI,Test,null,1000,"""","""","""","""","""","""","""","""",1,4/23/2021 19:52,73.208.61.176,Mozilla/5.0 (Windows NT 10.0; Win64; x64; rv:87.0) Gecko/20100101 Firefox/87.0,,Firefox,87,Windows,10
108,1,null,"""",image-keyboard-response,198,448291,0.0-198.0,"""",jspsych/scrambledDisgustFaces/scrambledAF25DIS.JPG,"""",256,forwardMask,Test,null,250,"""",d,"""","""","""","""","""","""",1,4/23/2021 19:52,73.208.61.176,Mozilla/5.0 (Windows NT 10.0; Win64; x64; rv:87.0) Gecko/20100101 Firefox/87.0,,Firefox,87,Windows,10
108,1,null,"""",image-keyboard-response,199,448329,0.0-199.0,"""",jspsych/disgustFaces/AF25DIS.JPG,"""",256,Cue,Test,null,16,"""","""","""","""","""","""","""","""",1,4/23/2021 19:52,73.208.61.176,Mozilla/5.0 (Windows NT 10.0; Win64; x64; rv:87.0) Gecko/20100101 Firefox/87.0,,Firefox,87,Windows,10
108,1,null,"""",image-keyboard-response,200,448440,0.0-200.0,"""",jspsych/neutralFaces/AF14NES.JPG,"""",256,backwardMask,Test,null,100,"""","""","""","""","""","""","""","""",1,4/23/2021 19:52,73.208.61.176,Mozilla/5.0 (Windows NT 10.0; Win64; x64; rv:87.0) Gecko/20100101 Firefox/87.0,,Firefox,87,Windows,10
108,1,null,"""",html-keyboard-response,201,449449,0.0-201.0,"""","<div style=""font-size:60px;"">+</div>","""",256,fixationBtwnNeutralMaskAndPrompt,Test,null,1000,"""","""","""","""","""","""","""","""",1,4/23/2021 19:52,73.208.61.176,Mozilla/5.0 (Windows NT 10.0; Win64; x64; rv:87.0) Gecko/20100101 Firefox/87.0,,Firefox,87,Windows,10
108,1,3103,"""",html-button-response,202,452553,0.0-202.0,"""","<img src='jspsych/CFDfaces/CFD-LF-230-203-N.jpg' height=""250px"">,</br><b>Stephanie</b>",0,256,IntactOrRearranged,Test,"""","""","""","""",CFD-BM-002-013-N.jpg,Jacob,0,0,"""","""",1,4/23/2021 19:52,73.208.61.176,Mozilla/5.0 (Windows NT 10.0; Win64; x64; rv:87.0) Gecko/20100101 Firefox/87.0,,Firefox,87,Windows,10
108,1,3029,"""",html-slider-response,203,455592,0.0-203.0,"""","<img src='jspsych/CFDfaces/CFD-LF-230-203-N.jpg' height=""250px"">,</br><b>Stephanie</b>","""",256,ConfidenceQuery,Test,"""","""","""","""",CFD-BM-002-013-N.jpg,Jacob,0,"""",0,80,1,4/23/2021 19:52,73.208.61.176,Mozilla/5.0 (Windows NT 10.0; Win64; x64; rv:87.0) Gecko/20100101 Firefox/87.0,,Firefox,87,Windows,10
108,1,null,"""",html-keyboard-response,204,456599,0.0-204.0,"""","<div style=""font-size:60px;"">+</div>","""",256,ITI,Test,null,1000,"""","""","""","""","""","""","""","""",1,4/23/2021 19:52,73.208.61.176,Mozilla/5.0 (Windows NT 10.0; Win64; x64; rv:87.0) Gecko/20100101 Firefox/87.0,,Firefox,87,Windows,10
108,1,null,"""",image-keyboard-response,205,456866,0.0-205.0,"""",jspsych/scrambledDisgustFaces/scrambledBM18DIS.JPG,"""",256,forwardMask,Test,null,250,"""",d,"""","""","""","""","""","""",1,4/23/2021 19:52,73.208.61.176,Mozilla/5.0 (Windows NT 10.0; Win64; x64; rv:87.0) Gecko/20100101 Firefox/87.0,,Firefox,87,Windows,10
108,1,null,"""",image-keyboard-response,206,456897,0.0-206.0,"""",jspsych/disgustFaces/BM19DIS.JPG,"""",256,Cue,Test,null,16,"""","""","""","""","""","""","""","""",1,4/23/2021 19:52,73.208.61.176,Mozilla/5.0 (Windows NT 10.0; Win64; x64; rv:87.0) Gecko/20100101 Firefox/87.0,,Firefox,87,Windows,10
108,1,null,"""",image-keyboard-response,207,457006,0.0-207.0,"""",jspsych/neutralFaces/AM34NES.JPG,"""",256,backwardMask,Test,null,100,"""","""","""","""","""","""","""","""",1,4/23/2021 19:52,73.208.61.176,Mozilla/5.0 (Windows NT 10.0; Win64; x64; rv:87.0) Gecko/20100101 Firefox/87.0,,Firefox,87,Windows,10
108,1,null,"""",html-keyboard-response,208,458009,0.0-208.0,"""","<div style=""font-size:60px;"">+</div>","""",256,fixationBtwnNeutralMaskAndPrompt,Test,null,1000,"""","""","""","""","""","""","""","""",1,4/23/2021 19:52,73.208.61.176,Mozilla/5.0 (Windows NT 10.0; Win64; x64; rv:87.0) Gecko/20100101 Firefox/87.0,,Firefox,87,Windows,10
108,1,1969,"""",html-button-response,209,459980,0.0-209.0,"""","<img src='jspsych/CFDfaces/CFD-LM-217-162-N.jpg' height=""250px"">,</br><b>Brandon</b>",0,256,IntactOrRearranged,Test,"""","""","""","""",CFD-AF-242-158-N.jpg,Melissa,0,0,"""","""",1,4/23/2021 19:52,73.208.61.176,Mozilla/5.0 (Windows NT 10.0; Win64; x64; rv:87.0) Gecko/20100101 Firefox/87.0,,Firefox,87,Windows,10
108,1,2652,"""",html-slider-response,210,462633,0.0-210.0,"""","<img src='jspsych/CFDfaces/CFD-LM-217-162-N.jpg' height=""250px"">,</br><b>Brandon</b>","""",256,ConfidenceQuery,Test,"""","""","""","""",CFD-AF-242-158-N.jpg,Melissa,0,"""",0,82,1,4/23/2021 19:52,73.208.61.176,Mozilla/5.0 (Windows NT 10.0; Win64; x64; rv:87.0) Gecko/20100101 Firefox/87.0,,Firefox,87,Windows,10
108,1,null,"""",html-keyboard-response,211,463657,0.0-211.0,"""","<div style=""font-size:60px;"">+</div>","""",256,ITI,Test,null,1000,"""","""","""","""","""","""","""","""",1,4/23/2021 19:52,73.208.61.176,Mozilla/5.0 (Windows NT 10.0; Win64; x64; rv:87.0) Gecko/20100101 Firefox/87.0,,Firefox,87,Windows,10
108,1,null,"""",image-keyboard-response,212,463925,0.0-212.0,"""",jspsych/scrambledNeutralFaces/scrambledAM34NES.JPG,"""",256,forwardMask,Test,null,250,"""",n,"""","""","""","""","""","""",1,4/23/2021 19:52,73.208.61.176,Mozilla/5.0 (Windows NT 10.0; Win64; x64; rv:87.0) Gecko/20100101 Firefox/87.0,,Firefox,87,Windows,10
108,1,null,"""",image-keyboard-response,213,463956,0.0-213.0,"""",jspsych/neutralFaces/AM34NES.JPG,"""",256,Cue,Test,null,16,"""","""","""","""","""","""","""","""",1,4/23/2021 19:52,73.208.61.176,Mozilla/5.0 (Windows NT 10.0; Win64; x64; rv:87.0) Gecko/20100101 Firefox/87.0,,Firefox,87,Windows,10
108,1,null,"""",image-keyboard-response,214,464064,0.0-214.0,"""",jspsych/neutralFaces/AM29NES.JPG,"""",256,backwardMask,Test,null,100,"""","""","""","""","""","""","""","""",1,4/23/2021 19:52,73.208.61.176,Mozilla/5.0 (Windows NT 10.0; Win64; x64; rv:87.0) Gecko/20100101 Firefox/87.0,,Firefox,87,Windows,10
108,1,null,"""",html-keyboard-response,215,465076,0.0-215.0,"""","<div style=""font-size:60px;"">+</div>","""",256,fixationBtwnNeutralMaskAndPrompt,Test,null,1000,"""","""","""","""","""","""","""","""",1,4/23/2021 19:52,73.208.61.176,Mozilla/5.0 (Windows NT 10.0; Win64; x64; rv:87.0) Gecko/20100101 Firefox/87.0,,Firefox,87,Windows,10
108,1,3350,"""",html-button-response,216,468427,0.0-216.0,"""","<img src='jspsych/CFDfaces/CFD-BF-039-031-N.jpg' height=""250px"">,</br><b>Michelle</b>",0,256,IntactOrRearranged,Test,"""","""","""","""",CFD-WF-218-087-N.jpg,Laura,0,0,"""","""",1,4/23/2021 19:52,73.208.61.176,Mozilla/5.0 (Windows NT 10.0; Win64; x64; rv:87.0) Gecko/20100101 Firefox/87.0,,Firefox,87,Windows,10
108,1,2625,"""",html-slider-response,217,471059,0.0-217.0,"""","<img src='jspsych/CFDfaces/CFD-BF-039-031-N.jpg' height=""250px"">,</br><b>Michelle</b>","""",256,ConfidenceQuery,Test,"""","""","""","""",CFD-WF-218-087-N.jpg,Laura,0,"""",0,87,1,4/23/2021 19:52,73.208.61.176,Mozilla/5.0 (Windows NT 10.0; Win64; x64; rv:87.0) Gecko/20100101 Firefox/87.0,,Firefox,87,Windows,10
108,1,null,"""",html-keyboard-response,218,472064,0.0-218.0,"""","<div style=""font-size:60px;"">+</div>","""",256,ITI,Test,null,1000,"""","""","""","""","""","""","""","""",1,4/23/2021 19:52,73.208.61.176,Mozilla/5.0 (Windows NT 10.0; Win64; x64; rv:87.0) Gecko/20100101 Firefox/87.0,,Firefox,87,Windows,10
108,1,null,"""",image-keyboard-response,219,472330,0.0-219.0,"""",jspsych/scrambledDisgustFaces/scrambledAF20DIS.JPG,"""",256,forwardMask,Test,null,250,"""",d,"""","""","""","""","""","""",1,4/23/2021 19:52,73.208.61.176,Mozilla/5.0 (Windows NT 10.0; Win64; x64; rv:87.0) Gecko/20100101 Firefox/87.0,,Firefox,87,Windows,10
108,1,null,"""",image-keyboard-response,220,472362,0.0-220.0,"""",jspsych/disgustFaces/AF20DIS.JPG,"""",256,Cue,Test,null,16,"""","""","""","""","""","""","""","""",1,4/23/2021 19:52,73.208.61.176,Mozilla/5.0 (Windows NT 10.0; Win64; x64; rv:87.0) Gecko/20100101 Firefox/87.0,,Firefox,87,Windows,10
108,1,null,"""",image-keyboard-response,221,472470,0.0-221.0,"""",jspsych/neutralFaces/BF11NES.JPG,"""",256,backwardMask,Test,null,100,"""","""","""","""","""","""","""","""",1,4/23/2021 19:52,73.208.61.176,Mozilla/5.0 (Windows NT 10.0; Win64; x64; rv:87.0) Gecko/20100101 Firefox/87.0,,Firefox,87,Windows,10
108,1,null,"""",html-keyboard-response,222,473485,0.0-222.0,"""","<div style=""font-size:60px;"">+</div>","""",256,fixationBtwnNeutralMaskAndPrompt,Test,null,1000,"""","""","""","""","""","""","""","""",1,4/23/2021 19:52,73.208.61.176,Mozilla/5.0 (Windows NT 10.0; Win64; x64; rv:87.0) Gecko/20100101 Firefox/87.0,,Firefox,87,Windows,10
108,1,2724,"""",html-button-response,223,476213,0.0-223.0,"""","<img src='jspsych/CFDfaces/CFD-BM-211-174-N.jpg' height=""250px"">,</br><b>Brian</b>",0,256,IntactOrRearranged,Test,"""","""","""","""",CFD-WM-020-001-N.jpg,Timothy,0,0,"""","""",1,4/23/2021 19:52,73.208.61.176,Mozilla/5.0 (Windows NT 10.0; Win64; x64; rv:87.0) Gecko/20100101 Firefox/87.0,,Firefox,87,Windows,10
108,1,2129,"""",html-slider-response,224,478350,0.0-224.0,"""","<img src='jspsych/CFDfaces/CFD-BM-211-174-N.jpg' height=""250px"">,</br><b>Brian</b>","""",256,ConfidenceQuery,Test,"""","""","""","""",CFD-WM-020-001-N.jpg,Timothy,0,"""",0,41,1,4/23/2021 19:52,73.208.61.176,Mozilla/5.0 (Windows NT 10.0; Win64; x64; rv:87.0) Gecko/20100101 Firefox/87.0,,Firefox,87,Windows,10
108,1,null,"""",html-keyboard-response,225,479355,0.0-225.0,"""","<div style=""font-size:60px;"">+</div>","""",256,ITI,Test,null,1000,"""","""","""","""","""","""","""","""",1,4/23/2021 19:52,73.208.61.176,Mozilla/5.0 (Windows NT 10.0; Win64; x64; rv:87.0) Gecko/20100101 Firefox/87.0,,Firefox,87,Windows,10
108,1,null,"""",image-keyboard-response,226,479619,0.0-226.0,"""",jspsych/scrambledNeutralFaces/scrambledBF03NES.JPG,"""",256,forwardMask,Test,null,250,"""",n,"""","""","""","""","""","""",1,4/23/2021 19:52,73.208.61.176,Mozilla/5.0 (Windows NT 10.0; Win64; x64; rv:87.0) Gecko/20100101 Firefox/87.0,,Firefox,87,Windows,10
108,1,null,"""",image-keyboard-response,227,479650,0.0-227.0,"""",jspsych/neutralFaces/BF03NES.JPG,"""",256,Cue,Test,null,16,"""","""","""","""","""","""","""","""",1,4/23/2021 19:52,73.208.61.176,Mozilla/5.0 (Windows NT 10.0; Win64; x64; rv:87.0) Gecko/20100101 Firefox/87.0,,Firefox,87,Windows,10
108,1,null,"""",image-keyboard-response,228,479760,0.0-228.0,"""",jspsych/neutralFaces/AF28NES.JPG,"""",256,backwardMask,Test,null,100,"""","""","""","""","""","""","""","""",1,4/23/2021 19:52,73.208.61.176,Mozilla/5.0 (Windows NT 10.0; Win64; x64; rv:87.0) Gecko/20100101 Firefox/87.0,,Firefox,87,Windows,10
108,1,null,"""",html-keyboard-response,229,480774,0.0-229.0,"""","<div style=""font-size:60px;"">+</div>","""",256,fixationBtwnNeutralMaskAndPrompt,Test,null,1000,"""","""","""","""","""","""","""","""",1,4/23/2021 19:52,73.208.61.176,Mozilla/5.0 (Windows NT 10.0; Win64; x64; rv:87.0) Gecko/20100101 Firefox/87.0,,Firefox,87,Windows,10
108,1,2848,"""",html-button-response,230,483626,0.0-230.0,"""","<img src='jspsych/CFDfaces/CFD-BF-001-025-N.jpg' height=""250px"">,</br><b>Victoria</b>",1,256,IntactOrRearranged,Test,"""","""","""","""",CFD-WF-003-003-N.jpg,Taylor,1,1,"""","""",1,4/23/2021 19:52,73.208.61.176,Mozilla/5.0 (Windows NT 10.0; Win64; x64; rv:87.0) Gecko/20100101 Firefox/87.0,,Firefox,87,Windows,10
108,1,2715,"""",html-slider-response,231,486348,0.0-231.0,"""","<img src='jspsych/CFDfaces/CFD-BF-001-025-N.jpg' height=""250px"">,</br><b>Victoria</b>","""",256,ConfidenceQuery,Test,"""","""","""","""",CFD-WF-003-003-N.jpg,Taylor,1,"""",0,100,1,4/23/2021 19:52,73.208.61.176,Mozilla/5.0 (Windows NT 10.0; Win64; x64; rv:87.0) Gecko/20100101 Firefox/87.0,,Firefox,87,Windows,10
108,1,null,"""",html-keyboard-response,232,487357,0.0-232.0,"""","<div style=""font-size:60px;"">+</div>","""",256,ITI,Test,null,1000,"""","""","""","""","""","""","""","""",1,4/23/2021 19:52,73.208.61.176,Mozilla/5.0 (Windows NT 10.0; Win64; x64; rv:87.0) Gecko/20100101 Firefox/87.0,,Firefox,87,Windows,10
108,1,null,"""",image-keyboard-response,233,487620,0.0-233.0,"""",jspsych/scrambledNeutralFaces/scrambledBM16NES.JPG,"""",256,forwardMask,Test,null,250,"""",n,"""","""","""","""","""","""",1,4/23/2021 19:52,73.208.61.176,Mozilla/5.0 (Windows NT 10.0; Win64; x64; rv:87.0) Gecko/20100101 Firefox/87.0,,Firefox,87,Windows,10
108,1,null,"""",image-keyboard-response,234,487651,0.0-234.0,"""",jspsych/neutralFaces/BM16NES.JPG,"""",256,Cue,Test,null,16,"""","""","""","""","""","""","""","""",1,4/23/2021 19:52,73.208.61.176,Mozilla/5.0 (Windows NT 10.0; Win64; x64; rv:87.0) Gecko/20100101 Firefox/87.0,,Firefox,87,Windows,10
108,1,null,"""",image-keyboard-response,235,487760,0.0-235.0,"""",jspsych/neutralFaces/AM29NES.JPG,"""",256,backwardMask,Test,null,100,"""","""","""","""","""","""","""","""",1,4/23/2021 19:52,73.208.61.176,Mozilla/5.0 (Windows NT 10.0; Win64; x64; rv:87.0) Gecko/20100101 Firefox/87.0,,Firefox,87,Windows,10
108,1,null,"""",html-keyboard-response,236,488763,0.0-236.0,"""","<div style=""font-size:60px;"">+</div>","""",256,fixationBtwnNeutralMaskAndPrompt,Test,null,1000,"""","""","""","""","""","""","""","""",1,4/23/2021 19:52,73.208.61.176,Mozilla/5.0 (Windows NT 10.0; Win64; x64; rv:87.0) Gecko/20100101 Firefox/87.0,,Firefox,87,Windows,10
108,1,2185,"""",html-button-response,237,490950,0.0-237.0,"""","<img src='jspsych/CFDfaces/CFD-LF-213-079-N.jpg' height=""250px"">,</br><b>Kayla</b>",0,256,IntactOrRearranged,Test,"""","""","""","""",CFD-LM-252-076-N.jpg,Steven,0,0,"""","""",1,4/23/2021 19:52,73.208.61.176,Mozilla/5.0 (Windows NT 10.0; Win64; x64; rv:87.0) Gecko/20100101 Firefox/87.0,,Firefox,87,Windows,10
108,1,1948,"""",html-slider-response,238,492908,0.0-238.0,"""","<img src='jspsych/CFDfaces/CFD-LF-213-079-N.jpg' height=""250px"">,</br><b>Kayla</b>","""",256,ConfidenceQuery,Test,"""","""","""","""",CFD-LM-252-076-N.jpg,Steven,0,"""",0,100,1,4/23/2021 19:52,73.208.61.176,Mozilla/5.0 (Windows NT 10.0; Win64; x64; rv:87.0) Gecko/20100101 Firefox/87.0,,Firefox,87,Windows,10
108,1,null,"""",html-keyboard-response,239,493911,0.0-239.0,"""","<div style=""font-size:60px;"">+</div>","""",256,ITI,Test,null,1000,"""","""","""","""","""","""","""","""",1,4/23/2021 19:52,73.208.61.176,Mozilla/5.0 (Windows NT 10.0; Win64; x64; rv:87.0) Gecko/20100101 Firefox/87.0,,Firefox,87,Windows,10
108,1,null,"""",image-keyboard-response,240,494174,0.0-240.0,"""",jspsych/scrambledNeutralFaces/scrambledAF12NES.JPG,"""",256,forwardMask,Test,null,250,"""",n,"""","""","""","""","""","""",1,4/23/2021 19:52,73.208.61.176,Mozilla/5.0 (Windows NT 10.0; Win64; x64; rv:87.0) Gecko/20100101 Firefox/87.0,,Firefox,87,Windows,10
108,1,null,"""",image-keyboard-response,241,494205,0.0-241.0,"""",jspsych/neutralFaces/AF12NES.JPG,"""",256,Cue,Test,null,16,"""","""","""","""","""","""","""","""",1,4/23/2021 19:52,73.208.61.176,Mozilla/5.0 (Windows NT 10.0; Win64; x64; rv:87.0) Gecko/20100101 Firefox/87.0,,Firefox,87,Windows,10
108,1,null,"""",image-keyboard-response,242,494313,0.0-242.0,"""",jspsych/neutralFaces/AF23NES.JPG,"""",256,backwardMask,Test,null,100,"""","""","""","""","""","""","""","""",1,4/23/2021 19:52,73.208.61.176,Mozilla/5.0 (Windows NT 10.0; Win64; x64; rv:87.0) Gecko/20100101 Firefox/87.0,,Firefox,87,Windows,10
108,1,null,"""",html-keyboard-response,243,495328,0.0-243.0,"""","<div style=""font-size:60px;"">+</div>","""",256,fixationBtwnNeutralMaskAndPrompt,Test,null,1000,"""","""","""","""","""","""","""","""",1,4/23/2021 19:52,73.208.61.176,Mozilla/5.0 (Windows NT 10.0; Win64; x64; rv:87.0) Gecko/20100101 Firefox/87.0,,Firefox,87,Windows,10
108,1,2752,"""",html-button-response,244,498081,0.0-244.0,"""","<img src='jspsych/CFDfaces/CFD-WF-016-015-N.jpg' height=""250px"">,</br><b>Vanessa</b>",1,256,IntactOrRearranged,Test,"""","""","""","""",CFD-AF-209-006-N.jpg,Heather,0,1,"""","""",1,4/23/2021 19:52,73.208.61.176,Mozilla/5.0 (Windows NT 10.0; Win64; x64; rv:87.0) Gecko/20100101 Firefox/87.0,,Firefox,87,Windows,10
108,1,2905,"""",html-slider-response,245,500995,0.0-245.0,"""","<img src='jspsych/CFDfaces/CFD-WF-016-015-N.jpg' height=""250px"">,</br><b>Vanessa</b>","""",256,ConfidenceQuery,Test,"""","""","""","""",CFD-AF-209-006-N.jpg,Heather,0,"""",0,50,1,4/23/2021 19:52,73.208.61.176,Mozilla/5.0 (Windows NT 10.0; Win64; x64; rv:87.0) Gecko/20100101 Firefox/87.0,,Firefox,87,Windows,10
108,1,null,"""",html-keyboard-response,246,502011,0.0-246.0,"""","<div style=""font-size:60px;"">+</div>","""",256,ITI,Test,null,1000,"""","""","""","""","""","""","""","""",1,4/23/2021 19:52,73.208.61.176,Mozilla/5.0 (Windows NT 10.0; Win64; x64; rv:87.0) Gecko/20100101 Firefox/87.0,,Firefox,87,Windows,10
108,1,null,"""",image-keyboard-response,247,502271,0.0-247.0,"""",jspsych/scrambledNeutralFaces/scrambledBF32NES.JPG,"""",256,forwardMask,Test,null,250,"""",n,"""","""","""","""","""","""",1,4/23/2021 19:52,73.208.61.176,Mozilla/5.0 (Windows NT 10.0; Win64; x64; rv:87.0) Gecko/20100101 Firefox/87.0,,Firefox,87,Windows,10
108,1,null,"""",image-keyboard-response,248,502305,0.0-248.0,"""",jspsych/neutralFaces/BF32NES.JPG,"""",256,Cue,Test,null,16,"""","""","""","""","""","""","""","""",1,4/23/2021 19:52,73.208.61.176,Mozilla/5.0 (Windows NT 10.0; Win64; x64; rv:87.0) Gecko/20100101 Firefox/87.0,,Firefox,87,Windows,10
108,1,null,"""",image-keyboard-response,249,502417,0.0-249.0,"""",jspsych/neutralFaces/AF20NES.JPG,"""",256,backwardMask,Test,null,100,"""","""","""","""","""","""","""","""",1,4/23/2021 19:52,73.208.61.176,Mozilla/5.0 (Windows NT 10.0; Win64; x64; rv:87.0) Gecko/20100101 Firefox/87.0,,Firefox,87,Windows,10
108,1,null,"""",html-keyboard-response,250,503431,0.0-250.0,"""","<div style=""font-size:60px;"">+</div>","""",256,fixationBtwnNeutralMaskAndPrompt,Test,null,1000,"""","""","""","""","""","""","""","""",1,4/23/2021 19:52,73.208.61.176,Mozilla/5.0 (Windows NT 10.0; Win64; x64; rv:87.0) Gecko/20100101 Firefox/87.0,,Firefox,87,Windows,10
108,1,2176,"""",html-button-response,251,505608,0.0-251.0,"""","<img src='jspsych/CFDfaces/CFD-BM-010-003-N.jpg' height=""250px"">,</br><b>Robert</b>",0,256,IntactOrRearranged,Test,"""","""","""","""",CFD-AF-226-251-N.jpg,Erin,0,0,"""","""",1,4/23/2021 19:52,73.208.61.176,Mozilla/5.0 (Windows NT 10.0; Win64; x64; rv:87.0) Gecko/20100101 Firefox/87.0,,Firefox,87,Windows,10
108,1,1748,"""",html-slider-response,252,507363,0.0-252.0,"""","<img src='jspsych/CFDfaces/CFD-BM-010-003-N.jpg' height=""250px"">,</br><b>Robert</b>","""",256,ConfidenceQuery,Test,"""","""","""","""",CFD-AF-226-251-N.jpg,Erin,0,"""",0,100,1,4/23/2021 19:52,73.208.61.176,Mozilla/5.0 (Windows NT 10.0; Win64; x64; rv:87.0) Gecko/20100101 Firefox/87.0,,Firefox,87,Windows,10
108,1,null,"""",html-keyboard-response,253,508370,0.0-253.0,"""","<div style=""font-size:60px;"">+</div>","""",256,ITI,Test,null,1000,"""","""","""","""","""","""","""","""",1,4/23/2021 19:52,73.208.61.176,Mozilla/5.0 (Windows NT 10.0; Win64; x64; rv:87.0) Gecko/20100101 Firefox/87.0,,Firefox,87,Windows,10
108,1,null,"""",image-keyboard-response,254,508636,0.0-254.0,"""",jspsych/scrambledDisgustFaces/scrambledAM30DIS.JPG,"""",256,forwardMask,Test,null,250,"""",d,"""","""","""","""","""","""",1,4/23/2021 19:52,73.208.61.176,Mozilla/5.0 (Windows NT 10.0; Win64; x64; rv:87.0) Gecko/20100101 Firefox/87.0,,Firefox,87,Windows,10
108,1,null,"""",image-keyboard-response,255,508667,0.0-255.0,"""",jspsych/disgustFaces/AM30DIS.JPG,"""",256,Cue,Test,null,16,"""","""","""","""","""","""","""","""",1,4/23/2021 19:52,73.208.61.176,Mozilla/5.0 (Windows NT 10.0; Win64; x64; rv:87.0) Gecko/20100101 Firefox/87.0,,Firefox,87,Windows,10
108,1,null,"""",image-keyboard-response,256,508776,0.0-256.0,"""",jspsych/neutralFaces/AM25NES.JPG,"""",256,backwardMask,Test,null,100,"""","""","""","""","""","""","""","""",1,4/23/2021 19:52,73.208.61.176,Mozilla/5.0 (Windows NT 10.0; Win64; x64; rv:87.0) Gecko/20100101 Firefox/87.0,,Firefox,87,Windows,10
108,1,null,"""",html-keyboard-response,257,509789,0.0-257.0,"""","<div style=""font-size:60px;"">+</div>","""",256,fixationBtwnNeutralMaskAndPrompt,Test,null,1000,"""","""","""","""","""","""","""","""",1,4/23/2021 19:52,73.208.61.176,Mozilla/5.0 (Windows NT 10.0; Win64; x64; rv:87.0) Gecko/20100101 Firefox/87.0,,Firefox,87,Windows,10
108,1,2679,"""",html-button-response,258,512470,0.0-258.0,"""","<img src='jspsych/CFDfaces/CFD-AF-200-228-N.jpg' height=""250px"">,</br><b>Samantha</b>",0,256,IntactOrRearranged,Test,"""","""","""","""",CFD-LF-236-221-N.jpg,Angela,0,0,"""","""",1,4/23/2021 19:52,73.208.61.176,Mozilla/5.0 (Windows NT 10.0; Win64; x64; rv:87.0) Gecko/20100101 Firefox/87.0,,Firefox,87,Windows,10
108,1,3053,"""",html-slider-response,259,515532,0.0-259.0,"""","<img src='jspsych/CFDfaces/CFD-AF-200-228-N.jpg' height=""250px"">,</br><b>Samantha</b>","""",256,ConfidenceQuery,Test,"""","""","""","""",CFD-LF-236-221-N.jpg,Angela,0,"""",0,94,1,4/23/2021 19:52,73.208.61.176,Mozilla/5.0 (Windows NT 10.0; Win64; x64; rv:87.0) Gecko/20100101 Firefox/87.0,,Firefox,87,Windows,10
108,1,null,"""",html-keyboard-response,260,516535,0.0-260.0,"""","<div style=""font-size:60px;"">+</div>","""",256,ITI,Test,null,1000,"""","""","""","""","""","""","""","""",1,4/23/2021 19:52,73.208.61.176,Mozilla/5.0 (Windows NT 10.0; Win64; x64; rv:87.0) Gecko/20100101 Firefox/87.0,,Firefox,87,Windows,10
108,1,null,"""",image-keyboard-response,261,516799,0.0-261.0,"""",jspsych/scrambledDisgustFaces/scrambledBF15DIS.JPG,"""",256,forwardMask,Test,null,250,"""",d,"""","""","""","""","""","""",1,4/23/2021 19:52,73.208.61.176,Mozilla/5.0 (Windows NT 10.0; Win64; x64; rv:87.0) Gecko/20100101 Firefox/87.0,,Firefox,87,Windows,10
108,1,null,"""",image-keyboard-response,262,516831,0.0-262.0,"""",jspsych/disgustFaces/BF15DIS.JPG,"""",256,Cue,Test,null,16,"""","""","""","""","""","""","""","""",1,4/23/2021 19:52,73.208.61.176,Mozilla/5.0 (Windows NT 10.0; Win64; x64; rv:87.0) Gecko/20100101 Firefox/87.0,,Firefox,87,Windows,10
108,1,null,"""",image-keyboard-response,263,516937,0.0-263.0,"""",jspsych/neutralFaces/BF25NES.JPG,"""",256,backwardMask,Test,null,100,"""","""","""","""","""","""","""","""",1,4/23/2021 19:52,73.208.61.176,Mozilla/5.0 (Windows NT 10.0; Win64; x64; rv:87.0) Gecko/20100101 Firefox/87.0,,Firefox,87,Windows,10
108,1,null,"""",html-keyboard-response,264,517945,0.0-264.0,"""","<div style=""font-size:60px;"">+</div>","""",256,fixationBtwnNeutralMaskAndPrompt,Test,null,1000,"""","""","""","""","""","""","""","""",1,4/23/2021 19:52,73.208.61.176,Mozilla/5.0 (Windows NT 10.0; Win64; x64; rv:87.0) Gecko/20100101 Firefox/87.0,,Firefox,87,Windows,10
108,1,3975,"""",html-button-response,265,521921,0.0-265.0,"""","<img src='jspsych/CFDfaces/CFD-LF-210-220-N.jpg' height=""250px"">,</br><b>Elizabeth</b>",1,256,IntactOrRearranged,Test,"""","""","""","""",CFD-AM-242-176-N.jpg,Austin,1,1,"""","""",1,4/23/2021 19:52,73.208.61.176,Mozilla/5.0 (Windows NT 10.0; Win64; x64; rv:87.0) Gecko/20100101 Firefox/87.0,,Firefox,87,Windows,10
108,1,3320,"""",html-slider-response,266,525250,0.0-266.0,"""","<img src='jspsych/CFDfaces/CFD-LF-210-220-N.jpg' height=""250px"">,</br><b>Elizabeth</b>","""",256,ConfidenceQuery,Test,"""","""","""","""",CFD-AM-242-176-N.jpg,Austin,1,"""",0,58,1,4/23/2021 19:52,73.208.61.176,Mozilla/5.0 (Windows NT 10.0; Win64; x64; rv:87.0) Gecko/20100101 Firefox/87.0,,Firefox,87,Windows,10
108,1,null,"""",html-keyboard-response,267,526257,0.0-267.0,"""","<div style=""font-size:60px;"">+</div>","""",256,ITI,Test,null,1000,"""","""","""","""","""","""","""","""",1,4/23/2021 19:52,73.208.61.176,Mozilla/5.0 (Windows NT 10.0; Win64; x64; rv:87.0) Gecko/20100101 Firefox/87.0,,Firefox,87,Windows,10
108,1,null,"""",image-keyboard-response,268,526521,0.0-268.0,"""",jspsych/scrambledNeutralFaces/scrambledAM22NES.JPG,"""",256,forwardMask,Test,null,250,"""",n,"""","""","""","""","""","""",1,4/23/2021 19:52,73.208.61.176,Mozilla/5.0 (Windows NT 10.0; Win64; x64; rv:87.0) Gecko/20100101 Firefox/87.0,,Firefox,87,Windows,10
108,1,null,"""",image-keyboard-response,269,526552,0.0-269.0,"""",jspsych/neutralFaces/AM22NES.JPG,"""",256,Cue,Test,null,16,"""","""","""","""","""","""","""","""",1,4/23/2021 19:52,73.208.61.176,Mozilla/5.0 (Windows NT 10.0; Win64; x64; rv:87.0) Gecko/20100101 Firefox/87.0,,Firefox,87,Windows,10
108,1,null,"""",image-keyboard-response,270,526658,0.0-270.0,"""",jspsych/neutralFaces/BM13NES.JPG,"""",256,backwardMask,Test,null,100,"""","""","""","""","""","""","""","""",1,4/23/2021 19:52,73.208.61.176,Mozilla/5.0 (Windows NT 10.0; Win64; x64; rv:87.0) Gecko/20100101 Firefox/87.0,,Firefox,87,Windows,10
108,1,null,"""",html-keyboard-response,271,527660,0.0-271.0,"""","<div style=""font-size:60px;"">+</div>","""",256,fixationBtwnNeutralMaskAndPrompt,Test,null,1000,"""","""","""","""","""","""","""","""",1,4/23/2021 19:52,73.208.61.176,Mozilla/5.0 (Windows NT 10.0; Win64; x64; rv:87.0) Gecko/20100101 Firefox/87.0,,Firefox,87,Windows,10
108,1,2394,"""",html-button-response,272,530055,0.0-272.0,"""","<img src='jspsych/CFDfaces/CFD-BM-032-024-N.jpg' height=""250px"">,</br><b>Gregory</b>",0,256,IntactOrRearranged,Test,"""","""","""","""",CFD-AF-233-190-N.jpg,Jordan,1,0,"""","""",1,4/23/2021 19:52,73.208.61.176,Mozilla/5.0 (Windows NT 10.0; Win64; x64; rv:87.0) Gecko/20100101 Firefox/87.0,,Firefox,87,Windows,10
108,1,2295,"""",html-slider-response,273,532360,0.0-273.0,"""","<img src='jspsych/CFDfaces/CFD-BM-032-024-N.jpg' height=""250px"">,</br><b>Gregory</b>","""",256,ConfidenceQuery,Test,"""","""","""","""",CFD-AF-233-190-N.jpg,Jordan,1,"""",0,40,1,4/23/2021 19:52,73.208.61.176,Mozilla/5.0 (Windows NT 10.0; Win64; x64; rv:87.0) Gecko/20100101 Firefox/87.0,,Firefox,87,Windows,10
108,1,null,"""",html-keyboard-response,274,533364,0.0-274.0,"""","<div style=""font-size:60px;"">+</div>","""",256,ITI,Test,null,1000,"""","""","""","""","""","""","""","""",1,4/23/2021 19:52,73.208.61.176,Mozilla/5.0 (Windows NT 10.0; Win64; x64; rv:87.0) Gecko/20100101 Firefox/87.0,,Firefox,87,Windows,10
108,1,null,"""",image-keyboard-response,275,533628,0.0-275.0,"""",jspsych/scrambledDisgustFaces/scrambledAM34DIS.JPG,"""",256,forwardMask,Test,null,250,"""",d,"""","""","""","""","""","""",1,4/23/2021 19:52,73.208.61.176,Mozilla/5.0 (Windows NT 10.0; Win64; x64; rv:87.0) Gecko/20100101 Firefox/87.0,,Firefox,87,Windows,10
108,1,null,"""",image-keyboard-response,276,533660,0.0-276.0,"""",jspsych/disgustFaces/AM34DIS.JPG,"""",256,Cue,Test,null,16,"""","""","""","""","""","""","""","""",1,4/23/2021 19:52,73.208.61.176,Mozilla/5.0 (Windows NT 10.0; Win64; x64; rv:87.0) Gecko/20100101 Firefox/87.0,,Firefox,87,Windows,10
108,1,null,"""",image-keyboard-response,277,533768,0.0-277.0,"""",jspsych/neutralFaces/AM07NES.JPG,"""",256,backwardMask,Test,null,100,"""","""","""","""","""","""","""","""",1,4/23/2021 19:52,73.208.61.176,Mozilla/5.0 (Windows NT 10.0; Win64; x64; rv:87.0) Gecko/20100101 Firefox/87.0,,Firefox,87,Windows,10
108,1,null,"""",html-keyboard-response,278,534781,0.0-278.0,"""","<div style=""font-size:60px;"">+</div>","""",256,fixationBtwnNeutralMaskAndPrompt,Test,null,1000,"""","""","""","""","""","""","""","""",1,4/23/2021 19:52,73.208.61.176,Mozilla/5.0 (Windows NT 10.0; Win64; x64; rv:87.0) Gecko/20100101 Firefox/87.0,,Firefox,87,Windows,10
108,1,3472,"""",html-button-response,279,538255,0.0-279.0,"""","<img src='jspsych/CFDfaces/CFD-AM-246-184-N.jpg' height=""250px"">,</br><b>James</b>",1,256,IntactOrRearranged,Test,"""","""","""","""",CFD-AM-214-168-N.jpg,Ryan,1,1,"""","""",1,4/23/2021 19:52,73.208.61.176,Mozilla/5.0 (Windows NT 10.0; Win64; x64; rv:87.0) Gecko/20100101 Firefox/87.0,,Firefox,87,Windows,10
108,1,2791,"""",html-slider-response,280,541057,0.0-280.0,"""","<img src='jspsych/CFDfaces/CFD-AM-246-184-N.jpg' height=""250px"">,</br><b>James</b>","""",256,ConfidenceQuery,Test,"""","""","""","""",CFD-AM-214-168-N.jpg,Ryan,1,"""",0,100,1,4/23/2021 19:52,73.208.61.176,Mozilla/5.0 (Windows NT 10.0; Win64; x64; rv:87.0) Gecko/20100101 Firefox/87.0,,Firefox,87,Windows,10
108,1,null,"""",html-keyboard-response,281,542060,0.0-281.0,"""","<div style=""font-size:60px;"">+</div>","""",256,ITI,Test,null,1000,"""","""","""","""","""","""","""","""",1,4/23/2021 19:52,73.208.61.176,Mozilla/5.0 (Windows NT 10.0; Win64; x64; rv:87.0) Gecko/20100101 Firefox/87.0,,Firefox,87,Windows,10
108,1,null,"""",image-keyboard-response,282,542326,0.0-282.0,"""",jspsych/scrambledNeutralFaces/scrambledBM35NES.JPG,"""",256,forwardMask,Test,null,250,"""",n,"""","""","""","""","""","""",1,4/23/2021 19:52,73.208.61.176,Mozilla/5.0 (Windows NT 10.0; Win64; x64; rv:87.0) Gecko/20100101 Firefox/87.0,,Firefox,87,Windows,10
108,1,null,"""",image-keyboard-response,283,542357,0.0-283.0,"""",jspsych/neutralFaces/BM35NES.JPG,"""",256,Cue,Test,null,16,"""","""","""","""","""","""","""","""",1,4/23/2021 19:52,73.208.61.176,Mozilla/5.0 (Windows NT 10.0; Win64; x64; rv:87.0) Gecko/20100101 Firefox/87.0,,Firefox,87,Windows,10
108,1,null,"""",image-keyboard-response,284,542463,0.0-284.0,"""",jspsych/neutralFaces/AM33NES.JPG,"""",256,backwardMask,Test,null,100,"""","""","""","""","""","""","""","""",1,4/23/2021 19:52,73.208.61.176,Mozilla/5.0 (Windows NT 10.0; Win64; x64; rv:87.0) Gecko/20100101 Firefox/87.0,,Firefox,87,Windows,10
108,1,null,"""",html-keyboard-response,285,543477,0.0-285.0,"""","<div style=""font-size:60px;"">+</div>","""",256,fixationBtwnNeutralMaskAndPrompt,Test,null,1000,"""","""","""","""","""","""","""","""",1,4/23/2021 19:52,73.208.61.176,Mozilla/5.0 (Windows NT 10.0; Win64; x64; rv:87.0) Gecko/20100101 Firefox/87.0,,Firefox,87,Windows,10
108,1,4642,"""",html-button-response,286,548122,0.0-286.0,"""","<img src='jspsych/CFDfaces/CFD-BM-208-065-N.jpg' height=""250px"">,</br><b>Christian</b>",1,256,IntactOrRearranged,Test,"""","""","""","""",CFD-LF-232-199-N.jpg,Lindsey,1,1,"""","""",1,4/23/2021 19:52,73.208.61.176,Mozilla/5.0 (Windows NT 10.0; Win64; x64; rv:87.0) Gecko/20100101 Firefox/87.0,,Firefox,87,Windows,10
108,1,2173,"""",html-slider-response,287,550305,0.0-287.0,"""","<img src='jspsych/CFDfaces/CFD-BM-208-065-N.jpg' height=""250px"">,</br><b>Christian</b>","""",256,ConfidenceQuery,Test,"""","""","""","""",CFD-LF-232-199-N.jpg,Lindsey,1,"""",0,19,1,4/23/2021 19:52,73.208.61.176,Mozilla/5.0 (Windows NT 10.0; Win64; x64; rv:87.0) Gecko/20100101 Firefox/87.0,,Firefox,87,Windows,10
108,1,null,"""",html-keyboard-response,288,551313,0.0-288.0,"""","<div style=""font-size:60px;"">+</div>","""",256,ITI,Test,null,1000,"""","""","""","""","""","""","""","""",1,4/23/2021 19:52,73.208.61.176,Mozilla/5.0 (Windows NT 10.0; Win64; x64; rv:87.0) Gecko/20100101 Firefox/87.0,,Firefox,87,Windows,10
108,1,null,"""",image-keyboard-response,289,551579,0.0-289.0,"""",jspsych/scrambledDisgustFaces/scrambledBM08DIS.JPG,"""",256,forwardMask,Test,null,250,"""",d,"""","""","""","""","""","""",1,4/23/2021 19:52,73.208.61.176,Mozilla/5.0 (Windows NT 10.0; Win64; x64; rv:87.0) Gecko/20100101 Firefox/87.0,,Firefox,87,Windows,10
108,1,null,"""",image-keyboard-response,290,551610,0.0-290.0,"""",jspsych/disgustFaces/BM09DIS.JPG,"""",256,Cue,Test,null,16,"""","""","""","""","""","""","""","""",1,4/23/2021 19:52,73.208.61.176,Mozilla/5.0 (Windows NT 10.0; Win64; x64; rv:87.0) Gecko/20100101 Firefox/87.0,,Firefox,87,Windows,10
108,1,null,"""",image-keyboard-response,291,551717,0.0-291.0,"""",jspsych/neutralFaces/AM13NES.JPG,"""",256,backwardMask,Test,null,100,"""","""","""","""","""","""","""","""",1,4/23/2021 19:52,73.208.61.176,Mozilla/5.0 (Windows NT 10.0; Win64; x64; rv:87.0) Gecko/20100101 Firefox/87.0,,Firefox,87,Windows,10
108,1,null,"""",html-keyboard-response,292,552723,0.0-292.0,"""","<div style=""font-size:60px;"">+</div>","""",256,fixationBtwnNeutralMaskAndPrompt,Test,null,1000,"""","""","""","""","""","""","""","""",1,4/23/2021 19:52,73.208.61.176,Mozilla/5.0 (Windows NT 10.0; Win64; x64; rv:87.0) Gecko/20100101 Firefox/87.0,,Firefox,87,Windows,10
108,1,4656,"""",html-button-response,293,557381,0.0-293.0,"""","<img src='jspsych/CFDfaces/CFD-AF-215-70-N.jpg' height=""250px"">,</br><b>Julie</b>",0,256,IntactOrRearranged,Test,"""","""","""","""",CFD-BF-016-017-N.jpg,Sara,0,0,"""","""",1,4/23/2021 19:52,73.208.61.176,Mozilla/5.0 (Windows NT 10.0; Win64; x64; rv:87.0) Gecko/20100101 Firefox/87.0,,Firefox,87,Windows,10
108,1,2646,"""",html-slider-response,294,560036,0.0-294.0,"""","<img src='jspsych/CFDfaces/CFD-AF-215-70-N.jpg' height=""250px"">,</br><b>Julie</b>","""",256,ConfidenceQuery,Test,"""","""","""","""",CFD-BF-016-017-N.jpg,Sara,0,"""",0,60,1,4/23/2021 19:52,73.208.61.176,Mozilla/5.0 (Windows NT 10.0; Win64; x64; rv:87.0) Gecko/20100101 Firefox/87.0,,Firefox,87,Windows,10
108,1,null,"""",html-keyboard-response,295,561040,0.0-295.0,"""","<div style=""font-size:60px;"">+</div>","""",256,ITI,Test,null,1000,"""","""","""","""","""","""","""","""",1,4/23/2021 19:52,73.208.61.176,Mozilla/5.0 (Windows NT 10.0; Win64; x64; rv:87.0) Gecko/20100101 Firefox/87.0,,Firefox,87,Windows,10
