run_id,condition,rt,responses,trial_type,trial_index,time_elapsed,internal_node_id,question_order,stimulus,button_pressed,iTrial,Phase,ExperimentPhase,key_press,StimulusDurationSetting,CharacterResponse,correctResponse,Face,Name,rearranged,didSubjectEnterRearranged,slider_start,response,Block,recorded_at,ip,user_agent,device,browser,browser_version,platform,platform_version
24,1,11554,"{""Q0"":""A2DX9PJPZFJ2WW""}",survey-text,0,11558,0.0-0.0,"""","""","""","""","""","""","""","""","""","""","""","""","""","""","""","""","""",4/19/2021 2:38,68.112.112.176,Mozilla/5.0 (Windows NT 10.0; Win64; x64; rv:87.0) Gecko/20100101 Firefox/87.0,,Firefox,87,Windows,10
24,1,3039,"{""Q0"":""33""}",survey-text,1,14616,0.0-1.0,"""","""","""","""","""","""","""","""","""","""","""","""","""","""","""","""","""",4/19/2021 2:38,68.112.112.176,Mozilla/5.0 (Windows NT 10.0; Win64; x64; rv:87.0) Gecko/20100101 Firefox/87.0,,Firefox,87,Windows,10
24,1,6969,"{""Q0"":""male"",""Q1"":""Not Hispanic/Latino"",""Q2"":""White or Caucasian""}",survey-multi-choice,2,21592,0.0-2.0,"[0,1,2]","""","""","""","""","""","""","""","""","""","""","""","""","""","""","""","""",4/19/2021 2:38,68.112.112.176,Mozilla/5.0 (Windows NT 10.0; Win64; x64; rv:87.0) Gecko/20100101 Firefox/87.0,,Firefox,87,Windows,10
24,1,28557,"""",image-button-response,3,50259,0.0-3.0,"""",directionsMemoryAssociation1.JPG,0,1,IntroDirections1,break,"""","""","""","""","""","""","""","""","""","""","""",4/19/2021 2:38,68.112.112.176,Mozilla/5.0 (Windows NT 10.0; Win64; x64; rv:87.0) Gecko/20100101 Firefox/87.0,,Firefox,87,Windows,10
24,1,26374,"""",image-button-response,4,76653,0.0-4.0,"""",directionsMemoryAssociation2.JPG,0,1,IntroDirections2,break,"""","""","""","""","""","""","""","""","""","""","""",4/19/2021 2:38,68.112.112.176,Mozilla/5.0 (Windows NT 10.0; Win64; x64; rv:87.0) Gecko/20100101 Firefox/87.0,,Firefox,87,Windows,10
24,1,null,"""",html-keyboard-response,5,81666,0.0-5.0,"""","<img src='jspsych/CFDfaces/CFD-AM-234-355-N.jpg' height=""250px"">,</br><b>Marcus</b>","""",1,IntactFace,Practice,null,5000,"""","""","""","""","""","""","""","""","""",4/19/2021 2:38,68.112.112.176,Mozilla/5.0 (Windows NT 10.0; Win64; x64; rv:87.0) Gecko/20100101 Firefox/87.0,,Firefox,87,Windows,10
24,1,null,"""",html-keyboard-response,6,82171,0.0-6.0,"""","<div style=""font-size:60px;"">+</div>","""",1,ITI,Practice,null,1000,"""","""","""","""","""","""","""","""","""",4/19/2021 2:38,68.112.112.176,Mozilla/5.0 (Windows NT 10.0; Win64; x64; rv:87.0) Gecko/20100101 Firefox/87.0,,Firefox,87,Windows,10
24,1,3202,"""",html-keyboard-response,7,87195,0.0-7.0,"""","<img src='jspsych/CFDfaces/CFD-WM-041-021-N.jpg' height=""250px"">,</br><b>Samuel</b>","""",2,IntactFace,Practice,70,5000,f,"""","""","""","""","""","""","""","""",4/19/2021 2:38,68.112.112.176,Mozilla/5.0 (Windows NT 10.0; Win64; x64; rv:87.0) Gecko/20100101 Firefox/87.0,,Firefox,87,Windows,10
24,1,null,"""",html-keyboard-response,8,87704,0.0-8.0,"""","<div style=""font-size:60px;"">+</div>","""",2,ITI,Practice,null,1000,"""","""","""","""","""","""","""","""","""",4/19/2021 2:38,68.112.112.176,Mozilla/5.0 (Windows NT 10.0; Win64; x64; rv:87.0) Gecko/20100101 Firefox/87.0,,Firefox,87,Windows,10
24,1,1646,"""",html-keyboard-response,9,92715,0.0-9.0,"""","<img src='jspsych/CFDfaces/CFD-WF-218-087-N.jpg' height=""250px"">,</br><b>Katelyn</b>","""",3,IntactFace,Practice,70,5000,f,"""","""","""","""","""","""","""","""",4/19/2021 2:38,68.112.112.176,Mozilla/5.0 (Windows NT 10.0; Win64; x64; rv:87.0) Gecko/20100101 Firefox/87.0,,Firefox,87,Windows,10
24,1,null,"""",html-keyboard-response,10,93224,0.0-10.0,"""","<div style=""font-size:60px;"">+</div>","""",3,ITI,Practice,null,1000,"""","""","""","""","""","""","""","""","""",4/19/2021 2:38,68.112.112.176,Mozilla/5.0 (Windows NT 10.0; Win64; x64; rv:87.0) Gecko/20100101 Firefox/87.0,,Firefox,87,Windows,10
24,1,null,"""",html-keyboard-response,11,98229,0.0-11.0,"""","<img src='jspsych/CFDfaces/CFD-WF-215-145-N.jpg' height=""250px"">,</br><b>Cassandra</b>","""",4,IntactFace,Practice,null,5000,"""","""","""","""","""","""","""","""","""",4/19/2021 2:38,68.112.112.176,Mozilla/5.0 (Windows NT 10.0; Win64; x64; rv:87.0) Gecko/20100101 Firefox/87.0,,Firefox,87,Windows,10
24,1,null,"""",html-keyboard-response,12,98745,0.0-12.0,"""","<div style=""font-size:60px;"">+</div>","""",4,ITI,Practice,null,1000,"""","""","""","""","""","""","""","""","""",4/19/2021 2:38,68.112.112.176,Mozilla/5.0 (Windows NT 10.0; Win64; x64; rv:87.0) Gecko/20100101 Firefox/87.0,,Firefox,87,Windows,10
24,1,19,"""",html-keyboard-response,13,103755,0.0-13.0,"""","<img src='jspsych/CFDfaces/CFD-AM-242-176-N.jpg' height=""250px"">,</br><b>Patrick</b>","""",5,IntactFace,Practice,78,5000,n,"""","""","""","""","""","""","""","""",4/19/2021 2:38,68.112.112.176,Mozilla/5.0 (Windows NT 10.0; Win64; x64; rv:87.0) Gecko/20100101 Firefox/87.0,,Firefox,87,Windows,10
24,1,null,"""",html-keyboard-response,14,104260,0.0-14.0,"""","<div style=""font-size:60px;"">+</div>","""",5,ITI,Practice,null,1000,"""","""","""","""","""","""","""","""","""",4/19/2021 2:38,68.112.112.176,Mozilla/5.0 (Windows NT 10.0; Win64; x64; rv:87.0) Gecko/20100101 Firefox/87.0,,Firefox,87,Windows,10
24,1,1738,"""",html-keyboard-response,15,109272,0.0-15.0,"""","<img src='jspsych/CFDfaces/CFD-WF-204-038-N.jpg' height=""250px"">,</br><b>Shannon</b>","""",6,IntactFace,Practice,70,5000,f,"""","""","""","""","""","""","""","""",4/19/2021 2:38,68.112.112.176,Mozilla/5.0 (Windows NT 10.0; Win64; x64; rv:87.0) Gecko/20100101 Firefox/87.0,,Firefox,87,Windows,10
24,1,null,"""",html-keyboard-response,16,109795,0.0-16.0,"""","<div style=""font-size:60px;"">+</div>","""",6,ITI,Practice,null,1000,"""","""","""","""","""","""","""","""","""",4/19/2021 2:38,68.112.112.176,Mozilla/5.0 (Windows NT 10.0; Win64; x64; rv:87.0) Gecko/20100101 Firefox/87.0,,Firefox,87,Windows,10
24,1,1607,"""",html-keyboard-response,17,114806,0.0-17.0,"""","<img src='jspsych/CFDfaces/CFD-LF-200-058-N.jpg' height=""250px"">,</br><b>Tara</b>","""",7,IntactFace,Practice,78,5000,n,"""","""","""","""","""","""","""","""",4/19/2021 2:38,68.112.112.176,Mozilla/5.0 (Windows NT 10.0; Win64; x64; rv:87.0) Gecko/20100101 Firefox/87.0,,Firefox,87,Windows,10
24,1,null,"""",html-keyboard-response,18,115323,0.0-18.0,"""","<div style=""font-size:60px;"">+</div>","""",7,ITI,Practice,null,1000,"""","""","""","""","""","""","""","""","""",4/19/2021 2:38,68.112.112.176,Mozilla/5.0 (Windows NT 10.0; Win64; x64; rv:87.0) Gecko/20100101 Firefox/87.0,,Firefox,87,Windows,10
24,1,2424,"""",html-keyboard-response,19,120333,0.0-19.0,"""","<img src='jspsych/CFDfaces/CFD-WM-019-003-N.jpg' height=""250px"">,</br><b>Carlos</b>","""",8,IntactFace,Practice,78,5000,n,"""","""","""","""","""","""","""","""",4/19/2021 2:38,68.112.112.176,Mozilla/5.0 (Windows NT 10.0; Win64; x64; rv:87.0) Gecko/20100101 Firefox/87.0,,Firefox,87,Windows,10
24,1,null,"""",html-keyboard-response,20,120845,0.0-20.0,"""","<div style=""font-size:60px;"">+</div>","""",8,ITI,Practice,null,1000,"""","""","""","""","""","""","""","""","""",4/19/2021 2:38,68.112.112.176,Mozilla/5.0 (Windows NT 10.0; Win64; x64; rv:87.0) Gecko/20100101 Firefox/87.0,,Firefox,87,Windows,10
24,1,20917,"""",image-button-response,21,141777,0.0-21.0,"""",directionsForTest.JPG,0,1,directionsForTest,break,"""","""","""","""","""","""","""","""","""","""","""",4/19/2021 2:38,68.112.112.176,Mozilla/5.0 (Windows NT 10.0; Win64; x64; rv:87.0) Gecko/20100101 Firefox/87.0,,Firefox,87,Windows,10
24,1,10429,"""",image-button-response,22,152228,0.0-22.0,"""",directionsForTest2.JPG,0,1,directionsForTest2,break,"""","""","""","""","""","""","""","""","""","""","""",4/19/2021 2:38,68.112.112.176,Mozilla/5.0 (Windows NT 10.0; Win64; x64; rv:87.0) Gecko/20100101 Firefox/87.0,,Firefox,87,Windows,10
24,1,null,"""",html-keyboard-response,23,153245,0.0-23.0,"""","<div style=""font-size:60px;"">+</div>","""",1,ITI,Practice,null,1000,"""","""","""","""","""","""","""","""","""",4/19/2021 2:38,68.112.112.176,Mozilla/5.0 (Windows NT 10.0; Win64; x64; rv:87.0) Gecko/20100101 Firefox/87.0,,Firefox,87,Windows,10
24,1,null,"""",image-keyboard-response,24,153515,0.0-24.0,"""",jspsych/scrambledDisgustFaces/scrambledAM04DIS.JPG,"""",1,forwardMask,Practice,null,250,"""",d,"""","""","""","""","""","""","""",4/19/2021 2:38,68.112.112.176,Mozilla/5.0 (Windows NT 10.0; Win64; x64; rv:87.0) Gecko/20100101 Firefox/87.0,,Firefox,87,Windows,10
24,1,null,"""",image-keyboard-response,25,153546,0.0-25.0,"""",jspsych/disgustFaces/AM04DIS.JPG,"""",1,Cue,Practice,null,16,"""","""","""","""","""","""","""","""","""",4/19/2021 2:38,68.112.112.176,Mozilla/5.0 (Windows NT 10.0; Win64; x64; rv:87.0) Gecko/20100101 Firefox/87.0,,Firefox,87,Windows,10
24,1,null,"""",image-keyboard-response,26,153661,0.0-26.0,"""",jspsych/neutralFaces/BM07NES.JPG,"""",1,backwardMask,Practice,null,100,"""","""","""","""","""","""","""","""","""",4/19/2021 2:38,68.112.112.176,Mozilla/5.0 (Windows NT 10.0; Win64; x64; rv:87.0) Gecko/20100101 Firefox/87.0,,Firefox,87,Windows,10
24,1,null,"""",html-keyboard-response,27,154675,0.0-27.0,"""","<div style=""font-size:60px;"">+</div>","""",1,fixationBtwnNeutralMaskAndPrompt,Practice,null,1000,"""","""","""","""","""","""","""","""","""",4/19/2021 2:38,68.112.112.176,Mozilla/5.0 (Windows NT 10.0; Win64; x64; rv:87.0) Gecko/20100101 Firefox/87.0,,Firefox,87,Windows,10
24,1,3302,"""",html-button-response,28,157979,0.0-28.0,"""","<img src='jspsych/CFDfaces/CFD-AM-242-176-N.jpg'height=""250px""></br><b>Patrick</b>",0,1,IntactOrRearranged,Practice,"""","""","""","""",CFD-AM-242-176-N.jpg,Patrick,0,0,"""","""","""",4/19/2021 2:38,68.112.112.176,Mozilla/5.0 (Windows NT 10.0; Win64; x64; rv:87.0) Gecko/20100101 Firefox/87.0,,Firefox,87,Windows,10
24,1,4387,"""",html-slider-response,29,162377,0.0-29.0,"""","<img src='jspsych/CFDfaces/CFD-AM-242-176-N.jpg'height=""250px""></br><b>Patrick</b>","""",1,ConfidenceQuery,Practice,"""","""","""","""",CFD-LM-248-089-N.jpg,Kenneth,0,"""",0,55,"""",4/19/2021 2:38,68.112.112.176,Mozilla/5.0 (Windows NT 10.0; Win64; x64; rv:87.0) Gecko/20100101 Firefox/87.0,,Firefox,87,Windows,10
24,1,1862,"""",html-button-response,30,164247,0.0-30.0,"""",You are Correct. You called an Intact Pair Intact,0,1,feedback,Practice,"""","""","""","""","""","""","""","""","""","""","""",4/19/2021 2:38,68.112.112.176,Mozilla/5.0 (Windows NT 10.0; Win64; x64; rv:87.0) Gecko/20100101 Firefox/87.0,,Firefox,87,Windows,10
24,1,null,"""",html-keyboard-response,31,165254,0.0-31.0,"""","<div style=""font-size:60px;"">+</div>","""",2,ITI,Practice,null,1000,"""","""","""","""","""","""","""","""","""",4/19/2021 2:38,68.112.112.176,Mozilla/5.0 (Windows NT 10.0; Win64; x64; rv:87.0) Gecko/20100101 Firefox/87.0,,Firefox,87,Windows,10
24,1,null,"""",image-keyboard-response,32,165514,0.0-32.0,"""",jspsych/scrambledDisgustFaces/scrambledAM35DIS.JPG,"""",2,forwardMask,Practice,null,250,"""",d,"""","""","""","""","""","""","""",4/19/2021 2:38,68.112.112.176,Mozilla/5.0 (Windows NT 10.0; Win64; x64; rv:87.0) Gecko/20100101 Firefox/87.0,,Firefox,87,Windows,10
24,1,null,"""",image-keyboard-response,33,165544,0.0-33.0,"""",jspsych/disgustFaces/AM35DIS.JPG,"""",2,Cue,Practice,null,16,"""","""","""","""","""","""","""","""","""",4/19/2021 2:38,68.112.112.176,Mozilla/5.0 (Windows NT 10.0; Win64; x64; rv:87.0) Gecko/20100101 Firefox/87.0,,Firefox,87,Windows,10
24,1,null,"""",image-keyboard-response,34,165655,0.0-34.0,"""",jspsych/neutralFaces/BM21NES.JPG,"""",2,backwardMask,Practice,null,100,"""","""","""","""","""","""","""","""","""",4/19/2021 2:38,68.112.112.176,Mozilla/5.0 (Windows NT 10.0; Win64; x64; rv:87.0) Gecko/20100101 Firefox/87.0,,Firefox,87,Windows,10
24,1,null,"""",html-keyboard-response,35,166660,0.0-35.0,"""","<div style=""font-size:60px;"">+</div>","""",2,fixationBtwnNeutralMaskAndPrompt,Practice,null,1000,"""","""","""","""","""","""","""","""","""",4/19/2021 2:38,68.112.112.176,Mozilla/5.0 (Windows NT 10.0; Win64; x64; rv:87.0) Gecko/20100101 Firefox/87.0,,Firefox,87,Windows,10
24,1,2837,"""",html-button-response,36,169499,0.0-36.0,"""","<img src='jspsych/CFDfaces/CFD-WF-218-087-N.jpg'height=""250px""></br><b>Cassandra</b>",1,2,IntactOrRearranged,Practice,"""","""","""","""",CFD-WF-218-087-N.jpg,Cassandra,1,1,"""","""","""",4/19/2021 2:38,68.112.112.176,Mozilla/5.0 (Windows NT 10.0; Win64; x64; rv:87.0) Gecko/20100101 Firefox/87.0,,Firefox,87,Windows,10
24,1,3270,"""",html-slider-response,37,172778,0.0-37.0,"""","<img src='jspsych/CFDfaces/CFD-WF-218-087-N.jpg'height=""250px""></br><b>Cassandra</b>","""",2,ConfidenceQuery,Practice,"""","""","""","""",CFD-LM-248-089-N.jpg,Kenneth,1,"""",0,66,"""",4/19/2021 2:38,68.112.112.176,Mozilla/5.0 (Windows NT 10.0; Win64; x64; rv:87.0) Gecko/20100101 Firefox/87.0,,Firefox,87,Windows,10
24,1,1926,"""",html-button-response,38,174707,0.0-38.0,"""",You are Correct. You Called A Rearranged Pair Rearranged,0,2,feedback,Practice,"""","""","""","""","""","""","""","""","""","""","""",4/19/2021 2:38,68.112.112.176,Mozilla/5.0 (Windows NT 10.0; Win64; x64; rv:87.0) Gecko/20100101 Firefox/87.0,,Firefox,87,Windows,10
24,1,null,"""",html-keyboard-response,39,175714,0.0-39.0,"""","<div style=""font-size:60px;"">+</div>","""",3,ITI,Practice,null,1000,"""","""","""","""","""","""","""","""","""",4/19/2021 2:38,68.112.112.176,Mozilla/5.0 (Windows NT 10.0; Win64; x64; rv:87.0) Gecko/20100101 Firefox/87.0,,Firefox,87,Windows,10
24,1,null,"""",image-keyboard-response,40,175974,0.0-40.0,"""",jspsych/scrambledNeutralFaces/scrambledAM29NES.JPG,"""",3,forwardMask,Practice,null,250,"""",n,"""","""","""","""","""","""","""",4/19/2021 2:38,68.112.112.176,Mozilla/5.0 (Windows NT 10.0; Win64; x64; rv:87.0) Gecko/20100101 Firefox/87.0,,Firefox,87,Windows,10
24,1,null,"""",image-keyboard-response,41,176004,0.0-41.0,"""",jspsych/neutralFaces/AM29NES.JPG,"""",3,Cue,Practice,null,16,"""","""","""","""","""","""","""","""","""",4/19/2021 2:38,68.112.112.176,Mozilla/5.0 (Windows NT 10.0; Win64; x64; rv:87.0) Gecko/20100101 Firefox/87.0,,Firefox,87,Windows,10
24,1,null,"""",image-keyboard-response,42,176124,0.0-42.0,"""",jspsych/neutralFaces/BM23NES.JPG,"""",3,backwardMask,Practice,null,100,"""","""","""","""","""","""","""","""","""",4/19/2021 2:38,68.112.112.176,Mozilla/5.0 (Windows NT 10.0; Win64; x64; rv:87.0) Gecko/20100101 Firefox/87.0,,Firefox,87,Windows,10
24,1,null,"""",html-keyboard-response,43,177129,0.0-43.0,"""","<div style=""font-size:60px;"">+</div>","""",3,fixationBtwnNeutralMaskAndPrompt,Practice,null,1000,"""","""","""","""","""","""","""","""","""",4/19/2021 2:38,68.112.112.176,Mozilla/5.0 (Windows NT 10.0; Win64; x64; rv:87.0) Gecko/20100101 Firefox/87.0,,Firefox,87,Windows,10
24,1,2966,"""",html-button-response,44,180096,0.0-44.0,"""","<img src='jspsych/CFDfaces/CFD-WM-019-003-N.jpg'height=""250px""></br><b>Marcus</b>",1,3,IntactOrRearranged,Practice,"""","""","""","""",CFD-WM-019-003-N.jpg,Marcus,1,1,"""","""","""",4/19/2021 2:38,68.112.112.176,Mozilla/5.0 (Windows NT 10.0; Win64; x64; rv:87.0) Gecko/20100101 Firefox/87.0,,Firefox,87,Windows,10
24,1,3205,"""",html-slider-response,45,183305,0.0-45.0,"""","<img src='jspsych/CFDfaces/CFD-WM-019-003-N.jpg'height=""250px""></br><b>Marcus</b>","""",3,ConfidenceQuery,Practice,"""","""","""","""",CFD-LM-248-089-N.jpg,Kenneth,1,"""",0,38,"""",4/19/2021 2:38,68.112.112.176,Mozilla/5.0 (Windows NT 10.0; Win64; x64; rv:87.0) Gecko/20100101 Firefox/87.0,,Firefox,87,Windows,10
24,1,1877,"""",html-button-response,46,185187,0.0-46.0,"""",You are Correct. You Called A Rearranged Pair Rearranged,0,3,feedback,Practice,"""","""","""","""","""","""","""","""","""","""","""",4/19/2021 2:38,68.112.112.176,Mozilla/5.0 (Windows NT 10.0; Win64; x64; rv:87.0) Gecko/20100101 Firefox/87.0,,Firefox,87,Windows,10
24,1,null,"""",html-keyboard-response,47,186204,0.0-47.0,"""","<div style=""font-size:60px;"">+</div>","""",4,ITI,Practice,null,1000,"""","""","""","""","""","""","""","""","""",4/19/2021 2:38,68.112.112.176,Mozilla/5.0 (Windows NT 10.0; Win64; x64; rv:87.0) Gecko/20100101 Firefox/87.0,,Firefox,87,Windows,10
24,1,null,"""",image-keyboard-response,48,186464,0.0-48.0,"""",jspsych/scrambledDisgustFaces/scrambledBM02DIS.JPG,"""",4,forwardMask,Practice,null,250,"""",d,"""","""","""","""","""","""","""",4/19/2021 2:38,68.112.112.176,Mozilla/5.0 (Windows NT 10.0; Win64; x64; rv:87.0) Gecko/20100101 Firefox/87.0,,Firefox,87,Windows,10
24,1,null,"""",image-keyboard-response,49,186494,0.0-49.0,"""",jspsych/disgustFaces/BM03DIS.JPG,"""",4,Cue,Practice,null,16,"""","""","""","""","""","""","""","""","""",4/19/2021 2:38,68.112.112.176,Mozilla/5.0 (Windows NT 10.0; Win64; x64; rv:87.0) Gecko/20100101 Firefox/87.0,,Firefox,87,Windows,10
24,1,null,"""",image-keyboard-response,50,186604,0.0-50.0,"""",jspsych/neutralFaces/BM24NES.JPG,"""",4,backwardMask,Practice,null,100,"""","""","""","""","""","""","""","""","""",4/19/2021 2:38,68.112.112.176,Mozilla/5.0 (Windows NT 10.0; Win64; x64; rv:87.0) Gecko/20100101 Firefox/87.0,,Firefox,87,Windows,10
24,1,null,"""",html-keyboard-response,51,187614,0.0-51.0,"""","<div style=""font-size:60px;"">+</div>","""",4,fixationBtwnNeutralMaskAndPrompt,Practice,null,1000,"""","""","""","""","""","""","""","""","""",4/19/2021 2:38,68.112.112.176,Mozilla/5.0 (Windows NT 10.0; Win64; x64; rv:87.0) Gecko/20100101 Firefox/87.0,,Firefox,87,Windows,10
24,1,2679,"""",html-button-response,52,190295,0.0-52.0,"""","<img src='jspsych/CFDfaces/CFD-AM-234-355-N.jpg'height=""250px""></br><b>Carlos</b>",1,4,IntactOrRearranged,Practice,"""","""","""","""",CFD-AM-234-355-N.jpg,Carlos,1,1,"""","""","""",4/19/2021 2:38,68.112.112.176,Mozilla/5.0 (Windows NT 10.0; Win64; x64; rv:87.0) Gecko/20100101 Firefox/87.0,,Firefox,87,Windows,10
24,1,3398,"""",html-slider-response,53,193694,0.0-53.0,"""","<img src='jspsych/CFDfaces/CFD-AM-234-355-N.jpg'height=""250px""></br><b>Carlos</b>","""",4,ConfidenceQuery,Practice,"""","""","""","""",CFD-LM-248-089-N.jpg,Kenneth,1,"""",0,82,"""",4/19/2021 2:38,68.112.112.176,Mozilla/5.0 (Windows NT 10.0; Win64; x64; rv:87.0) Gecko/20100101 Firefox/87.0,,Firefox,87,Windows,10
24,1,1762,"""",html-button-response,54,195459,0.0-54.0,"""",You are Correct. You Called A Rearranged Pair Rearranged,0,4,feedback,Practice,"""","""","""","""","""","""","""","""","""","""","""",4/19/2021 2:38,68.112.112.176,Mozilla/5.0 (Windows NT 10.0; Win64; x64; rv:87.0) Gecko/20100101 Firefox/87.0,,Firefox,87,Windows,10
24,1,null,"""",html-keyboard-response,55,196463,0.0-55.0,"""","<div style=""font-size:60px;"">+</div>","""",5,ITI,Practice,null,1000,"""","""","""","""","""","""","""","""","""",4/19/2021 2:38,68.112.112.176,Mozilla/5.0 (Windows NT 10.0; Win64; x64; rv:87.0) Gecko/20100101 Firefox/87.0,,Firefox,87,Windows,10
24,1,null,"""",image-keyboard-response,56,196725,0.0-56.0,"""",jspsych/scrambledDisgustFaces/scrambledBM04DIS.JPG,"""",5,forwardMask,Practice,null,250,"""",d,"""","""","""","""","""","""","""",4/19/2021 2:38,68.112.112.176,Mozilla/5.0 (Windows NT 10.0; Win64; x64; rv:87.0) Gecko/20100101 Firefox/87.0,,Firefox,87,Windows,10
24,1,null,"""",image-keyboard-response,57,196754,0.0-57.0,"""",jspsych/disgustFaces/BM05DIS.JPG,"""",5,Cue,Practice,null,16,"""","""","""","""","""","""","""","""","""",4/19/2021 2:38,68.112.112.176,Mozilla/5.0 (Windows NT 10.0; Win64; x64; rv:87.0) Gecko/20100101 Firefox/87.0,,Firefox,87,Windows,10
24,1,null,"""",image-keyboard-response,58,196864,0.0-58.0,"""",jspsych/neutralFaces/AM09NES.JPG,"""",5,backwardMask,Practice,null,100,"""","""","""","""","""","""","""","""","""",4/19/2021 2:38,68.112.112.176,Mozilla/5.0 (Windows NT 10.0; Win64; x64; rv:87.0) Gecko/20100101 Firefox/87.0,,Firefox,87,Windows,10
24,1,null,"""",html-keyboard-response,59,197875,0.0-59.0,"""","<div style=""font-size:60px;"">+</div>","""",5,fixationBtwnNeutralMaskAndPrompt,Practice,null,1000,"""","""","""","""","""","""","""","""","""",4/19/2021 2:38,68.112.112.176,Mozilla/5.0 (Windows NT 10.0; Win64; x64; rv:87.0) Gecko/20100101 Firefox/87.0,,Firefox,87,Windows,10
24,1,2528,"""",html-button-response,60,200405,0.0-60.0,"""","<img src='jspsych/CFDfaces/CFD-WM-041-021-N.jpg'height=""250px""></br><b>Samuel</b>",0,5,IntactOrRearranged,Practice,"""","""","""","""",CFD-WM-041-021-N.jpg,Samuel,0,0,"""","""","""",4/19/2021 2:38,68.112.112.176,Mozilla/5.0 (Windows NT 10.0; Win64; x64; rv:87.0) Gecko/20100101 Firefox/87.0,,Firefox,87,Windows,10
24,1,2129,"""",html-slider-response,61,202537,0.0-61.0,"""","<img src='jspsych/CFDfaces/CFD-WM-041-021-N.jpg'height=""250px""></br><b>Samuel</b>","""",5,ConfidenceQuery,Practice,"""","""","""","""",CFD-LM-248-089-N.jpg,Kenneth,0,"""",0,55,"""",4/19/2021 2:38,68.112.112.176,Mozilla/5.0 (Windows NT 10.0; Win64; x64; rv:87.0) Gecko/20100101 Firefox/87.0,,Firefox,87,Windows,10
24,1,1725,"""",html-button-response,62,204268,0.0-62.0,"""",You are Correct. You called an Intact Pair Intact,0,5,feedback,Practice,"""","""","""","""","""","""","""","""","""","""","""",4/19/2021 2:38,68.112.112.176,Mozilla/5.0 (Windows NT 10.0; Win64; x64; rv:87.0) Gecko/20100101 Firefox/87.0,,Firefox,87,Windows,10
24,1,null,"""",html-keyboard-response,63,205275,0.0-63.0,"""","<div style=""font-size:60px;"">+</div>","""",6,ITI,Practice,null,1000,"""","""","""","""","""","""","""","""","""",4/19/2021 2:38,68.112.112.176,Mozilla/5.0 (Windows NT 10.0; Win64; x64; rv:87.0) Gecko/20100101 Firefox/87.0,,Firefox,87,Windows,10
24,1,null,"""",image-keyboard-response,64,205535,0.0-64.0,"""",jspsych/scrambledDisgustFaces/scrambledAM27DIS.JPG,"""",6,forwardMask,Practice,null,250,"""",d,"""","""","""","""","""","""","""",4/19/2021 2:38,68.112.112.176,Mozilla/5.0 (Windows NT 10.0; Win64; x64; rv:87.0) Gecko/20100101 Firefox/87.0,,Firefox,87,Windows,10
24,1,null,"""",image-keyboard-response,65,205563,0.0-65.0,"""",jspsych/disgustFaces/AM27DIS.JPG,"""",6,Cue,Practice,null,16,"""","""","""","""","""","""","""","""","""",4/19/2021 2:38,68.112.112.176,Mozilla/5.0 (Windows NT 10.0; Win64; x64; rv:87.0) Gecko/20100101 Firefox/87.0,,Firefox,87,Windows,10
24,1,null,"""",image-keyboard-response,66,205674,0.0-66.0,"""",jspsych/neutralFaces/AM29NES.JPG,"""",6,backwardMask,Practice,null,100,"""","""","""","""","""","""","""","""","""",4/19/2021 2:38,68.112.112.176,Mozilla/5.0 (Windows NT 10.0; Win64; x64; rv:87.0) Gecko/20100101 Firefox/87.0,,Firefox,87,Windows,10
24,1,null,"""",html-keyboard-response,67,206695,0.0-67.0,"""","<div style=""font-size:60px;"">+</div>","""",6,fixationBtwnNeutralMaskAndPrompt,Practice,null,1000,"""","""","""","""","""","""","""","""","""",4/19/2021 2:38,68.112.112.176,Mozilla/5.0 (Windows NT 10.0; Win64; x64; rv:87.0) Gecko/20100101 Firefox/87.0,,Firefox,87,Windows,10
24,1,2951,"""",html-button-response,68,209646,0.0-68.0,"""","<img src='jspsych/CFDfaces/CFD-LF-200-058-N.jpg'height=""250px""></br><b>Tara</b>",0,6,IntactOrRearranged,Practice,"""","""","""","""",CFD-LF-200-058-N.jpg,Tara,0,0,"""","""","""",4/19/2021 2:38,68.112.112.176,Mozilla/5.0 (Windows NT 10.0; Win64; x64; rv:87.0) Gecko/20100101 Firefox/87.0,,Firefox,87,Windows,10
24,1,2806,"""",html-slider-response,69,212461,0.0-69.0,"""","<img src='jspsych/CFDfaces/CFD-LF-200-058-N.jpg'height=""250px""></br><b>Tara</b>","""",6,ConfidenceQuery,Practice,"""","""","""","""",CFD-LM-248-089-N.jpg,Kenneth,0,"""",0,52,"""",4/19/2021 2:38,68.112.112.176,Mozilla/5.0 (Windows NT 10.0; Win64; x64; rv:87.0) Gecko/20100101 Firefox/87.0,,Firefox,87,Windows,10
24,1,1523,"""",html-button-response,70,213987,0.0-70.0,"""",You are Correct. You called an Intact Pair Intact,0,6,feedback,Practice,"""","""","""","""","""","""","""","""","""","""","""",4/19/2021 2:38,68.112.112.176,Mozilla/5.0 (Windows NT 10.0; Win64; x64; rv:87.0) Gecko/20100101 Firefox/87.0,,Firefox,87,Windows,10
24,1,null,"""",html-keyboard-response,71,215004,0.0-71.0,"""","<div style=""font-size:60px;"">+</div>","""",7,ITI,Practice,null,1000,"""","""","""","""","""","""","""","""","""",4/19/2021 2:38,68.112.112.176,Mozilla/5.0 (Windows NT 10.0; Win64; x64; rv:87.0) Gecko/20100101 Firefox/87.0,,Firefox,87,Windows,10
24,1,null,"""",image-keyboard-response,72,215264,0.0-72.0,"""",jspsych/scrambledNeutralFaces/scrambledBM31NES.JPG,"""",7,forwardMask,Practice,null,250,"""",n,"""","""","""","""","""","""","""",4/19/2021 2:38,68.112.112.176,Mozilla/5.0 (Windows NT 10.0; Win64; x64; rv:87.0) Gecko/20100101 Firefox/87.0,,Firefox,87,Windows,10
24,1,null,"""",image-keyboard-response,73,215296,0.0-73.0,"""",jspsych/neutralFaces/BM31NES.JPG,"""",7,Cue,Practice,null,16,"""","""","""","""","""","""","""","""","""",4/19/2021 2:38,68.112.112.176,Mozilla/5.0 (Windows NT 10.0; Win64; x64; rv:87.0) Gecko/20100101 Firefox/87.0,,Firefox,87,Windows,10
24,1,null,"""",image-keyboard-response,74,215414,0.0-74.0,"""",jspsych/neutralFaces/AM14NES.JPG,"""",7,backwardMask,Practice,null,100,"""","""","""","""","""","""","""","""","""",4/19/2021 2:38,68.112.112.176,Mozilla/5.0 (Windows NT 10.0; Win64; x64; rv:87.0) Gecko/20100101 Firefox/87.0,,Firefox,87,Windows,10
24,1,null,"""",html-keyboard-response,75,216424,0.0-75.0,"""","<div style=""font-size:60px;"">+</div>","""",7,fixationBtwnNeutralMaskAndPrompt,Practice,null,1000,"""","""","""","""","""","""","""","""","""",4/19/2021 2:38,68.112.112.176,Mozilla/5.0 (Windows NT 10.0; Win64; x64; rv:87.0) Gecko/20100101 Firefox/87.0,,Firefox,87,Windows,10
24,1,1978,"""",html-button-response,76,218404,0.0-76.0,"""","<img src='jspsych/CFDfaces/CFD-WF-204-038-N.jpg'height=""250px""></br><b>Shannon</b>",0,7,IntactOrRearranged,Practice,"""","""","""","""",CFD-WF-204-038-N.jpg,Shannon,0,0,"""","""","""",4/19/2021 2:38,68.112.112.176,Mozilla/5.0 (Windows NT 10.0; Win64; x64; rv:87.0) Gecko/20100101 Firefox/87.0,,Firefox,87,Windows,10
24,1,2844,"""",html-slider-response,77,221252,0.0-77.0,"""","<img src='jspsych/CFDfaces/CFD-WF-204-038-N.jpg'height=""250px""></br><b>Shannon</b>","""",7,ConfidenceQuery,Practice,"""","""","""","""",CFD-LM-248-089-N.jpg,Kenneth,0,"""",0,100,"""",4/19/2021 2:38,68.112.112.176,Mozilla/5.0 (Windows NT 10.0; Win64; x64; rv:87.0) Gecko/20100101 Firefox/87.0,,Firefox,87,Windows,10
24,1,1538,"""",html-button-response,78,222798,0.0-78.0,"""",You are Correct. You called an Intact Pair Intact,0,7,feedback,Practice,"""","""","""","""","""","""","""","""","""","""","""",4/19/2021 2:38,68.112.112.176,Mozilla/5.0 (Windows NT 10.0; Win64; x64; rv:87.0) Gecko/20100101 Firefox/87.0,,Firefox,87,Windows,10
24,1,null,"""",html-keyboard-response,79,223805,0.0-79.0,"""","<div style=""font-size:60px;"">+</div>","""",8,ITI,Practice,null,1000,"""","""","""","""","""","""","""","""","""",4/19/2021 2:38,68.112.112.176,Mozilla/5.0 (Windows NT 10.0; Win64; x64; rv:87.0) Gecko/20100101 Firefox/87.0,,Firefox,87,Windows,10
24,1,null,"""",image-keyboard-response,80,224075,0.0-80.0,"""",jspsych/scrambledNeutralFaces/scrambledBF16NES.JPG,"""",8,forwardMask,Practice,null,250,"""",n,"""","""","""","""","""","""","""",4/19/2021 2:38,68.112.112.176,Mozilla/5.0 (Windows NT 10.0; Win64; x64; rv:87.0) Gecko/20100101 Firefox/87.0,,Firefox,87,Windows,10
24,1,null,"""",image-keyboard-response,81,224105,0.0-81.0,"""",jspsych/neutralFaces/BF16NES.JPG,"""",8,Cue,Practice,null,16,"""","""","""","""","""","""","""","""","""",4/19/2021 2:38,68.112.112.176,Mozilla/5.0 (Windows NT 10.0; Win64; x64; rv:87.0) Gecko/20100101 Firefox/87.0,,Firefox,87,Windows,10
24,1,null,"""",image-keyboard-response,82,224212,0.0-82.0,"""",jspsych/neutralFaces/BF20NES.JPG,"""",8,backwardMask,Practice,null,100,"""","""","""","""","""","""","""","""","""",4/19/2021 2:38,68.112.112.176,Mozilla/5.0 (Windows NT 10.0; Win64; x64; rv:87.0) Gecko/20100101 Firefox/87.0,,Firefox,87,Windows,10
24,1,null,"""",html-keyboard-response,83,225224,0.0-83.0,"""","<div style=""font-size:60px;"">+</div>","""",8,fixationBtwnNeutralMaskAndPrompt,Practice,null,1000,"""","""","""","""","""","""","""","""","""",4/19/2021 2:38,68.112.112.176,Mozilla/5.0 (Windows NT 10.0; Win64; x64; rv:87.0) Gecko/20100101 Firefox/87.0,,Firefox,87,Windows,10
24,1,2500,"""",html-button-response,84,227726,0.0-84.0,"""","<img src='jspsych/CFDfaces/CFD-WF-215-145-N.jpg'height=""250px""></br><b>Katelyn</b>",1,8,IntactOrRearranged,Practice,"""","""","""","""",CFD-WF-215-145-N.jpg,Katelyn,1,1,"""","""","""",4/19/2021 2:38,68.112.112.176,Mozilla/5.0 (Windows NT 10.0; Win64; x64; rv:87.0) Gecko/20100101 Firefox/87.0,,Firefox,87,Windows,10
24,1,2543,"""",html-slider-response,85,230278,0.0-85.0,"""","<img src='jspsych/CFDfaces/CFD-WF-215-145-N.jpg'height=""250px""></br><b>Katelyn</b>","""",8,ConfidenceQuery,Practice,"""","""","""","""",CFD-LM-248-089-N.jpg,Kenneth,1,"""",0,32,"""",4/19/2021 2:38,68.112.112.176,Mozilla/5.0 (Windows NT 10.0; Win64; x64; rv:87.0) Gecko/20100101 Firefox/87.0,,Firefox,87,Windows,10
24,1,1377,"""",html-button-response,86,231658,0.0-86.0,"""",You are Correct. You Called A Rearranged Pair Rearranged,0,8,feedback,Practice,"""","""","""","""","""","""","""","""","""","""","""",4/19/2021 2:38,68.112.112.176,Mozilla/5.0 (Windows NT 10.0; Win64; x64; rv:87.0) Gecko/20100101 Firefox/87.0,,Firefox,87,Windows,10
24,1,8775,"""",image-button-response,87,240449,0.0-87.0,"""",directionsMemoryAssociation3.JPG,0,128,DirectionsBeforeActualTEst,Break,"""","""","""","""","""","""","""","""","""","""","""",4/19/2021 2:38,68.112.112.176,Mozilla/5.0 (Windows NT 10.0; Win64; x64; rv:87.0) Gecko/20100101 Firefox/87.0,,Firefox,87,Windows,10
24,1,3819,"""",image-button-response,88,244271,0.0-88.0,"""",directionsForTest2.JPG,0,1,directionsForTest2,break,"""","""","""","""","""","""","""","""","""","""","""",4/19/2021 2:38,68.112.112.176,Mozilla/5.0 (Windows NT 10.0; Win64; x64; rv:87.0) Gecko/20100101 Firefox/87.0,,Firefox,87,Windows,10
24,1,10975,"""",html-button-response,89,255248,0.0-89.0,"""","<p>You will be asked to memorize and then recall four sets of face-name pairs. </p> <p> Each set will have 32 pairs. </p> <p>After the fourth set, there will be a brief follow-up experiment (<40 min alltogether)</p>",0,"""","""","""","""","""","""","""","""","""","""","""","""","""","""",4/19/2021 2:38,68.112.112.176,Mozilla/5.0 (Windows NT 10.0; Win64; x64; rv:87.0) Gecko/20100101 Firefox/87.0,,Firefox,87,Windows,10
24,1,2885,"""",html-keyboard-response,90,260259,0.0-90.0,"""","<img src='jspsych/CFDfaces/CFD-AM-231-136-N.jpg' height=""250px""></br><b>Peter</b>","""",256,IntactFace,Memorization,78,5000,n,"""",CFD-LF-204-133-N.jpg,Heather,0,"""","""","""",1,4/19/2021 2:38,68.112.112.176,Mozilla/5.0 (Windows NT 10.0; Win64; x64; rv:87.0) Gecko/20100101 Firefox/87.0,,Firefox,87,Windows,10
24,1,null,"""",html-keyboard-response,91,260769,0.0-91.0,"""","<div style=""font-size:60px;"">+</div>","""",256,fixation,Memorization,null,500,"""","""","""","""","""","""","""","""",1,4/19/2021 2:38,68.112.112.176,Mozilla/5.0 (Windows NT 10.0; Win64; x64; rv:87.0) Gecko/20100101 Firefox/87.0,,Firefox,87,Windows,10
24,1,2454,"""",html-keyboard-response,92,265775,0.0-92.0,"""","<img src='jspsych/CFDfaces/CFD-BM-027-001-N.jpg' height=""250px""></br><b>Nicholas</b>","""",256,IntactFace,Memorization,70,5000,f,"""",CFD-WM-216-061-N.jpg,Dustin,0,"""","""","""",1,4/19/2021 2:38,68.112.112.176,Mozilla/5.0 (Windows NT 10.0; Win64; x64; rv:87.0) Gecko/20100101 Firefox/87.0,,Firefox,87,Windows,10
24,1,null,"""",html-keyboard-response,93,266284,0.0-93.0,"""","<div style=""font-size:60px;"">+</div>","""",256,fixation,Memorization,null,500,"""","""","""","""","""","""","""","""",1,4/19/2021 2:38,68.112.112.176,Mozilla/5.0 (Windows NT 10.0; Win64; x64; rv:87.0) Gecko/20100101 Firefox/87.0,,Firefox,87,Windows,10
24,1,2330,"""",html-keyboard-response,94,271295,0.0-94.0,"""","<img src='jspsych/CFDfaces/CFD-WF-223-133-N.jpg' height=""250px""></br><b>Ashley</b>","""",256,IntactFace,Memorization,70,5000,f,"""",CFD-WF-029-002-N.jpg,Taylor,0,"""","""","""",1,4/19/2021 2:38,68.112.112.176,Mozilla/5.0 (Windows NT 10.0; Win64; x64; rv:87.0) Gecko/20100101 Firefox/87.0,,Firefox,87,Windows,10
24,1,null,"""",html-keyboard-response,95,271814,0.0-95.0,"""","<div style=""font-size:60px;"">+</div>","""",256,fixation,Memorization,null,500,"""","""","""","""","""","""","""","""",1,4/19/2021 2:38,68.112.112.176,Mozilla/5.0 (Windows NT 10.0; Win64; x64; rv:87.0) Gecko/20100101 Firefox/87.0,,Firefox,87,Windows,10
24,1,1469,"""",html-keyboard-response,96,276835,0.0-96.0,"""","<img src='jspsych/CFDfaces/CFD-AF-214-139-N.jpg' height=""250px""></br><b>Elizabeth</b>","""",256,IntactFace,Memorization,78,5000,n,"""",CFD-BM-211-174-N.jpg,Ryan,0,"""","""","""",1,4/19/2021 2:38,68.112.112.176,Mozilla/5.0 (Windows NT 10.0; Win64; x64; rv:87.0) Gecko/20100101 Firefox/87.0,,Firefox,87,Windows,10
24,1,null,"""",html-keyboard-response,97,277344,0.0-97.0,"""","<div style=""font-size:60px;"">+</div>","""",256,fixation,Memorization,null,500,"""","""","""","""","""","""","""","""",1,4/19/2021 2:38,68.112.112.176,Mozilla/5.0 (Windows NT 10.0; Win64; x64; rv:87.0) Gecko/20100101 Firefox/87.0,,Firefox,87,Windows,10
24,1,2272,"""",html-keyboard-response,98,282359,0.0-98.0,"""","<img src='jspsych/CFDfaces/CFD-LF-243-175-N.jpg' height=""250px""></br><b>Christina</b>","""",256,IntactFace,Memorization,70,5000,f,"""",CFD-LM-239-075-N.jpg,Kenneth,0,"""","""","""",1,4/19/2021 2:38,68.112.112.176,Mozilla/5.0 (Windows NT 10.0; Win64; x64; rv:87.0) Gecko/20100101 Firefox/87.0,,Firefox,87,Windows,10
24,1,null,"""",html-keyboard-response,99,282870,0.0-99.0,"""","<div style=""font-size:60px;"">+</div>","""",256,fixation,Memorization,null,500,"""","""","""","""","""","""","""","""",1,4/19/2021 2:38,68.112.112.176,Mozilla/5.0 (Windows NT 10.0; Win64; x64; rv:87.0) Gecko/20100101 Firefox/87.0,,Firefox,87,Windows,10
24,1,1720,"""",html-keyboard-response,100,287881,0.0-100.0,"""","<img src='jspsych/CFDfaces/CFD-BM-017-021-N.jpg' height=""250px""></br><b>Robert</b>","""",256,IntactFace,Memorization,78,5000,n,"""",CFD-BM-029-024-N.jpg,Timothy,0,"""","""","""",1,4/19/2021 2:38,68.112.112.176,Mozilla/5.0 (Windows NT 10.0; Win64; x64; rv:87.0) Gecko/20100101 Firefox/87.0,,Firefox,87,Windows,10
24,1,null,"""",html-keyboard-response,101,288394,0.0-101.0,"""","<div style=""font-size:60px;"">+</div>","""",256,fixation,Memorization,null,500,"""","""","""","""","""","""","""","""",1,4/19/2021 2:38,68.112.112.176,Mozilla/5.0 (Windows NT 10.0; Win64; x64; rv:87.0) Gecko/20100101 Firefox/87.0,,Firefox,87,Windows,10
24,1,1958,"""",html-keyboard-response,102,293405,0.0-102.0,"""","<img src='jspsych/CFDfaces/CFD-AM-248-104-N.jpg' height=""250px""></br><b>Gregory</b>","""",256,IntactFace,Memorization,78,5000,n,"""",CFD-AF-242-158-N.jpg,Tiffany,0,"""","""","""",1,4/19/2021 2:38,68.112.112.176,Mozilla/5.0 (Windows NT 10.0; Win64; x64; rv:87.0) Gecko/20100101 Firefox/87.0,,Firefox,87,Windows,10
24,1,null,"""",html-keyboard-response,103,293914,0.0-103.0,"""","<div style=""font-size:60px;"">+</div>","""",256,fixation,Memorization,null,500,"""","""","""","""","""","""","""","""",1,4/19/2021 2:38,68.112.112.176,Mozilla/5.0 (Windows NT 10.0; Win64; x64; rv:87.0) Gecko/20100101 Firefox/87.0,,Firefox,87,Windows,10
24,1,1859,"""",html-keyboard-response,104,298920,0.0-104.0,"""","<img src='jspsych/CFDfaces/CFD-BF-218-207-N.jpg' height=""250px""></br><b>Vanessa</b>","""",256,IntactFace,Memorization,70,5000,f,"""",CFD-BF-221-223-N.jpg,Whitney,0,"""","""","""",1,4/19/2021 2:38,68.112.112.176,Mozilla/5.0 (Windows NT 10.0; Win64; x64; rv:87.0) Gecko/20100101 Firefox/87.0,,Firefox,87,Windows,10
24,1,null,"""",html-keyboard-response,105,299431,0.0-105.0,"""","<div style=""font-size:60px;"">+</div>","""",256,fixation,Memorization,null,500,"""","""","""","""","""","""","""","""",1,4/19/2021 2:38,68.112.112.176,Mozilla/5.0 (Windows NT 10.0; Win64; x64; rv:87.0) Gecko/20100101 Firefox/87.0,,Firefox,87,Windows,10
24,1,1837,"""",html-keyboard-response,106,304444,0.0-106.0,"""","<img src='jspsych/CFDfaces/CFD-LM-233-171-N.jpg' height=""250px""></br><b>Brian</b>","""",256,IntactFace,Memorization,78,5000,n,"""",CFD-BM-018-001-N.jpg,Travis,0,"""","""","""",1,4/19/2021 2:38,68.112.112.176,Mozilla/5.0 (Windows NT 10.0; Win64; x64; rv:87.0) Gecko/20100101 Firefox/87.0,,Firefox,87,Windows,10
24,1,null,"""",html-keyboard-response,107,304954,0.0-107.0,"""","<div style=""font-size:60px;"">+</div>","""",256,fixation,Memorization,null,500,"""","""","""","""","""","""","""","""",1,4/19/2021 2:38,68.112.112.176,Mozilla/5.0 (Windows NT 10.0; Win64; x64; rv:87.0) Gecko/20100101 Firefox/87.0,,Firefox,87,Windows,10
24,1,2178,"""",html-keyboard-response,108,309961,0.0-108.0,"""","<img src='jspsych/CFDfaces/CFD-BF-212-315-N.jpg' height=""250px""></br><b>Victoria</b>","""",256,IntactFace,Memorization,70,5000,f,"""",CFD-BF-025-002-N.jpg,Angela,0,"""","""","""",1,4/19/2021 2:38,68.112.112.176,Mozilla/5.0 (Windows NT 10.0; Win64; x64; rv:87.0) Gecko/20100101 Firefox/87.0,,Firefox,87,Windows,10
24,1,null,"""",html-keyboard-response,109,310471,0.0-109.0,"""","<div style=""font-size:60px;"">+</div>","""",256,fixation,Memorization,null,500,"""","""","""","""","""","""","""","""",1,4/19/2021 2:38,68.112.112.176,Mozilla/5.0 (Windows NT 10.0; Win64; x64; rv:87.0) Gecko/20100101 Firefox/87.0,,Firefox,87,Windows,10
24,1,1943,"""",html-keyboard-response,110,315485,0.0-110.0,"""","<img src='jspsych/CFDfaces/CFD-AM-237-154-N.jpg' height=""250px""></br><b>James</b>","""",256,IntactFace,Memorization,78,5000,n,"""",CFD-LM-248-089-N.jpg,Jesse,0,"""","""","""",1,4/19/2021 2:38,68.112.112.176,Mozilla/5.0 (Windows NT 10.0; Win64; x64; rv:87.0) Gecko/20100101 Firefox/87.0,,Firefox,87,Windows,10
24,1,null,"""",html-keyboard-response,111,315995,0.0-111.0,"""","<div style=""font-size:60px;"">+</div>","""",256,fixation,Memorization,null,500,"""","""","""","""","""","""","""","""",1,4/19/2021 2:38,68.112.112.176,Mozilla/5.0 (Windows NT 10.0; Win64; x64; rv:87.0) Gecko/20100101 Firefox/87.0,,Firefox,87,Windows,10
24,1,2634,"""",html-keyboard-response,112,321007,0.0-112.0,"""","<img src='jspsych/CFDfaces/CFD-LF-220-120-N.jpg' height=""250px""></br><b>Emily</b>","""",256,IntactFace,Memorization,78,5000,n,"""",CFD-WM-207-048-N.jpg,Luis,0,"""","""","""",1,4/19/2021 2:38,68.112.112.176,Mozilla/5.0 (Windows NT 10.0; Win64; x64; rv:87.0) Gecko/20100101 Firefox/87.0,,Firefox,87,Windows,10
24,1,null,"""",html-keyboard-response,113,321524,0.0-113.0,"""","<div style=""font-size:60px;"">+</div>","""",256,fixation,Memorization,null,500,"""","""","""","""","""","""","""","""",1,4/19/2021 2:38,68.112.112.176,Mozilla/5.0 (Windows NT 10.0; Win64; x64; rv:87.0) Gecko/20100101 Firefox/87.0,,Firefox,87,Windows,10
24,1,1681,"""",html-keyboard-response,114,326545,0.0-114.0,"""","<img src='jspsych/CFDfaces/CFD-BM-041-035-N.jpg' height=""250px""></br><b>Joshua</b>","""",256,IntactFace,Memorization,78,5000,n,"""",CFD-AF-215-70-N.jpg,Laura,0,"""","""","""",1,4/19/2021 2:38,68.112.112.176,Mozilla/5.0 (Windows NT 10.0; Win64; x64; rv:87.0) Gecko/20100101 Firefox/87.0,,Firefox,87,Windows,10
24,1,null,"""",html-keyboard-response,115,327065,0.0-115.0,"""","<div style=""font-size:60px;"">+</div>","""",256,fixation,Memorization,null,500,"""","""","""","""","""","""","""","""",1,4/19/2021 2:38,68.112.112.176,Mozilla/5.0 (Windows NT 10.0; Win64; x64; rv:87.0) Gecko/20100101 Firefox/87.0,,Firefox,87,Windows,10
24,1,1318,"""",html-keyboard-response,116,332074,0.0-116.0,"""","<img src='jspsych/CFDfaces/CFD-LM-221-216-N.jpg' height=""250px""></br><b>Jeffrey</b>","""",256,IntactFace,Memorization,70,5000,f,"""",CFD-WM-022-001-N.jpg,Jacob,0,"""","""","""",1,4/19/2021 2:38,68.112.112.176,Mozilla/5.0 (Windows NT 10.0; Win64; x64; rv:87.0) Gecko/20100101 Firefox/87.0,,Firefox,87,Windows,10
24,1,null,"""",html-keyboard-response,117,332591,0.0-117.0,"""","<div style=""font-size:60px;"">+</div>","""",256,fixation,Memorization,null,500,"""","""","""","""","""","""","""","""",1,4/19/2021 2:38,68.112.112.176,Mozilla/5.0 (Windows NT 10.0; Win64; x64; rv:87.0) Gecko/20100101 Firefox/87.0,,Firefox,87,Windows,10
24,1,1739,"""",html-keyboard-response,118,337605,0.0-118.0,"""","<img src='jspsych/CFDfaces/CFD-WM-213-076-N.jpg' height=""250px""></br><b>Brandon</b>","""",256,IntactFace,Memorization,70,5000,f,"""",CFD-LM-246-087-N.jpg,Cameron,0,"""","""","""",1,4/19/2021 2:38,68.112.112.176,Mozilla/5.0 (Windows NT 10.0; Win64; x64; rv:87.0) Gecko/20100101 Firefox/87.0,,Firefox,87,Windows,10
24,1,null,"""",html-keyboard-response,119,338122,0.0-119.0,"""","<div style=""font-size:60px;"">+</div>","""",256,fixation,Memorization,null,500,"""","""","""","""","""","""","""","""",1,4/19/2021 2:38,68.112.112.176,Mozilla/5.0 (Windows NT 10.0; Win64; x64; rv:87.0) Gecko/20100101 Firefox/87.0,,Firefox,87,Windows,10
24,1,2599,"""",html-keyboard-response,120,343134,0.0-120.0,"""","<img src='jspsych/CFDfaces/CFD-LM-220-329-N.jpg' height=""250px""></br><b>Juan</b>","""",256,IntactFace,Memorization,78,5000,n,"""",CFD-AF-235-170-N.jpg,Melissa,0,"""","""","""",1,4/19/2021 2:38,68.112.112.176,Mozilla/5.0 (Windows NT 10.0; Win64; x64; rv:87.0) Gecko/20100101 Firefox/87.0,,Firefox,87,Windows,10
24,1,null,"""",html-keyboard-response,121,343645,0.0-121.0,"""","<div style=""font-size:60px;"">+</div>","""",256,fixation,Memorization,null,500,"""","""","""","""","""","""","""","""",1,4/19/2021 2:38,68.112.112.176,Mozilla/5.0 (Windows NT 10.0; Win64; x64; rv:87.0) Gecko/20100101 Firefox/87.0,,Firefox,87,Windows,10
24,1,2008,"""",html-keyboard-response,122,348664,0.0-122.0,"""","<img src='jspsych/CFDfaces/CFD-BF-016-017-N.jpg' height=""250px""></br><b>Samantha</b>","""",256,IntactFace,Memorization,78,5000,n,"""",CFD-WF-200-099-N.jpg,Sara,0,"""","""","""",1,4/19/2021 2:38,68.112.112.176,Mozilla/5.0 (Windows NT 10.0; Win64; x64; rv:87.0) Gecko/20100101 Firefox/87.0,,Firefox,87,Windows,10
24,1,null,"""",html-keyboard-response,123,349174,0.0-123.0,"""","<div style=""font-size:60px;"">+</div>","""",256,fixation,Memorization,null,500,"""","""","""","""","""","""","""","""",1,4/19/2021 2:38,68.112.112.176,Mozilla/5.0 (Windows NT 10.0; Win64; x64; rv:87.0) Gecko/20100101 Firefox/87.0,,Firefox,87,Windows,10
24,1,1602,"""",html-keyboard-response,124,354194,0.0-124.0,"""","<img src='jspsych/CFDfaces/CFD-LM-225-130-N.jpg' height=""250px""></br><b>Jason</b>","""",256,IntactFace,Memorization,78,5000,n,"""",CFD-WM-009-002-N.jpg,Vincent,0,"""","""","""",1,4/19/2021 2:38,68.112.112.176,Mozilla/5.0 (Windows NT 10.0; Win64; x64; rv:87.0) Gecko/20100101 Firefox/87.0,,Firefox,87,Windows,10
24,1,null,"""",html-keyboard-response,125,354720,0.0-125.0,"""","<div style=""font-size:60px;"">+</div>","""",256,fixation,Memorization,null,500,"""","""","""","""","""","""","""","""",1,4/19/2021 2:38,68.112.112.176,Mozilla/5.0 (Windows NT 10.0; Win64; x64; rv:87.0) Gecko/20100101 Firefox/87.0,,Firefox,87,Windows,10
24,1,1721,"""",html-keyboard-response,126,359723,0.0-126.0,"""","<img src='jspsych/CFDfaces/CFD-BF-047-003-N.jpg' height=""250px""></br><b>Michelle</b>","""",256,IntactFace,Memorization,78,5000,n,"""",CFD-WM-003-002-N.jpg,Mark,0,"""","""","""",1,4/19/2021 2:38,68.112.112.176,Mozilla/5.0 (Windows NT 10.0; Win64; x64; rv:87.0) Gecko/20100101 Firefox/87.0,,Firefox,87,Windows,10
24,1,null,"""",html-keyboard-response,127,360241,0.0-127.0,"""","<div style=""font-size:60px;"">+</div>","""",256,fixation,Memorization,null,500,"""","""","""","""","""","""","""","""",1,4/19/2021 2:38,68.112.112.176,Mozilla/5.0 (Windows NT 10.0; Win64; x64; rv:87.0) Gecko/20100101 Firefox/87.0,,Firefox,87,Windows,10
24,1,1911,"""",html-keyboard-response,128,365255,0.0-128.0,"""","<img src='jspsych/CFDfaces/CFD-WM-020-001-N.jpg' height=""250px""></br><b>Ian</b>","""",256,IntactFace,Memorization,70,5000,f,"""",CFD-AF-208-003-N.jpg,Rebecca,0,"""","""","""",1,4/19/2021 2:38,68.112.112.176,Mozilla/5.0 (Windows NT 10.0; Win64; x64; rv:87.0) Gecko/20100101 Firefox/87.0,,Firefox,87,Windows,10
24,1,null,"""",html-keyboard-response,129,365773,0.0-129.0,"""","<div style=""font-size:60px;"">+</div>","""",256,fixation,Memorization,null,500,"""","""","""","""","""","""","""","""",1,4/19/2021 2:38,68.112.112.176,Mozilla/5.0 (Windows NT 10.0; Win64; x64; rv:87.0) Gecko/20100101 Firefox/87.0,,Firefox,87,Windows,10
24,1,1508,"""",html-keyboard-response,130,370785,0.0-130.0,"""","<img src='jspsych/CFDfaces/CFD-WM-212-097-N.jpg' height=""250px""></br><b>Christian</b>","""",256,IntactFace,Memorization,70,5000,f,"""",CFD-WF-016-015-N.jpg,Erin,0,"""","""","""",1,4/19/2021 2:38,68.112.112.176,Mozilla/5.0 (Windows NT 10.0; Win64; x64; rv:87.0) Gecko/20100101 Firefox/87.0,,Firefox,87,Windows,10
24,1,null,"""",html-keyboard-response,131,371305,0.0-131.0,"""","<div style=""font-size:60px;"">+</div>","""",256,fixation,Memorization,null,500,"""","""","""","""","""","""","""","""",1,4/19/2021 2:38,68.112.112.176,Mozilla/5.0 (Windows NT 10.0; Win64; x64; rv:87.0) Gecko/20100101 Firefox/87.0,,Firefox,87,Windows,10
24,1,1888,"""",html-keyboard-response,132,376315,0.0-132.0,"""","<img src='jspsych/CFDfaces/CFD-BF-209-172-N.jpg' height=""250px""></br><b>Brittany</b>","""",256,IntactFace,Memorization,78,5000,n,"""",CFD-BM-010-003-N.jpg,Austin,0,"""","""","""",1,4/19/2021 2:38,68.112.112.176,Mozilla/5.0 (Windows NT 10.0; Win64; x64; rv:87.0) Gecko/20100101 Firefox/87.0,,Firefox,87,Windows,10
24,1,null,"""",html-keyboard-response,133,376835,0.0-133.0,"""","<div style=""font-size:60px;"">+</div>","""",256,fixation,Memorization,null,500,"""","""","""","""","""","""","""","""",1,4/19/2021 2:38,68.112.112.176,Mozilla/5.0 (Windows NT 10.0; Win64; x64; rv:87.0) Gecko/20100101 Firefox/87.0,,Firefox,87,Windows,10
24,1,2069,"""",html-keyboard-response,134,381848,0.0-134.0,"""","<img src='jspsych/CFDfaces/CFD-BF-009-002-N.jpg' height=""250px""></br><b>Kimberly</b>","""",256,IntactFace,Memorization,78,5000,n,"""",CFD-WM-232-070-N.jpg,Sean,0,"""","""","""",1,4/19/2021 2:38,68.112.112.176,Mozilla/5.0 (Windows NT 10.0; Win64; x64; rv:87.0) Gecko/20100101 Firefox/87.0,,Firefox,87,Windows,10
24,1,null,"""",html-keyboard-response,135,382350,0.0-135.0,"""","<div style=""font-size:60px;"">+</div>","""",256,fixation,Memorization,null,500,"""","""","""","""","""","""","""","""",1,4/19/2021 2:38,68.112.112.176,Mozilla/5.0 (Windows NT 10.0; Win64; x64; rv:87.0) Gecko/20100101 Firefox/87.0,,Firefox,87,Windows,10
24,1,2646,"""",html-keyboard-response,136,387369,0.0-136.0,"""","<img src='jspsych/CFDfaces/CFD-LF-218-072-N.jpg' height=""250px""></br><b>Julie</b>","""",256,IntactFace,Memorization,78,5000,n,"""",CFD-BM-032-024-N.jpg,Steven,0,"""","""","""",1,4/19/2021 2:38,68.112.112.176,Mozilla/5.0 (Windows NT 10.0; Win64; x64; rv:87.0) Gecko/20100101 Firefox/87.0,,Firefox,87,Windows,10
24,1,null,"""",html-keyboard-response,137,387885,0.0-137.0,"""","<div style=""font-size:60px;"">+</div>","""",256,fixation,Memorization,null,500,"""","""","""","""","""","""","""","""",1,4/19/2021 2:38,68.112.112.176,Mozilla/5.0 (Windows NT 10.0; Win64; x64; rv:87.0) Gecko/20100101 Firefox/87.0,,Firefox,87,Windows,10
24,1,1729,"""",html-keyboard-response,138,392894,0.0-138.0,"""","<img src='jspsych/CFDfaces/CFD-AF-222-134-N.jpg' height=""250px""></br><b>Andrea</b>","""",256,IntactFace,Memorization,78,5000,n,"""",CFD-AM-207-108-N.jpg,Justin,0,"""","""","""",1,4/19/2021 2:38,68.112.112.176,Mozilla/5.0 (Windows NT 10.0; Win64; x64; rv:87.0) Gecko/20100101 Firefox/87.0,,Firefox,87,Windows,10
24,1,null,"""",html-keyboard-response,139,393405,0.0-139.0,"""","<div style=""font-size:60px;"">+</div>","""",256,fixation,Memorization,null,500,"""","""","""","""","""","""","""","""",1,4/19/2021 2:38,68.112.112.176,Mozilla/5.0 (Windows NT 10.0; Win64; x64; rv:87.0) Gecko/20100101 Firefox/87.0,,Firefox,87,Windows,10
24,1,2482,"""",html-keyboard-response,140,398414,0.0-140.0,"""","<img src='jspsych/CFDfaces/CFD-BM-022-022-N.jpg' height=""250px""></br><b>Daniel</b>","""",256,IntactFace,Memorization,78,5000,n,"""",CFD-WF-220-101-N.jpg,Lindsey,0,"""","""","""",1,4/19/2021 2:38,68.112.112.176,Mozilla/5.0 (Windows NT 10.0; Win64; x64; rv:87.0) Gecko/20100101 Firefox/87.0,,Firefox,87,Windows,10
24,1,null,"""",html-keyboard-response,141,398919,0.0-141.0,"""","<div style=""font-size:60px;"">+</div>","""",256,fixation,Memorization,null,500,"""","""","""","""","""","""","""","""",1,4/19/2021 2:38,68.112.112.176,Mozilla/5.0 (Windows NT 10.0; Win64; x64; rv:87.0) Gecko/20100101 Firefox/87.0,,Firefox,87,Windows,10
24,1,1981,"""",html-keyboard-response,142,403930,0.0-142.0,"""","<img src='jspsych/CFDfaces/CFD-LM-201-057-N.jpg' height=""250px""></br><b>Eric</b>","""",256,IntactFace,Memorization,70,5000,f,"""",CFD-BF-039-031-N.jpg,Jenna,0,"""","""","""",1,4/19/2021 2:38,68.112.112.176,Mozilla/5.0 (Windows NT 10.0; Win64; x64; rv:87.0) Gecko/20100101 Firefox/87.0,,Firefox,87,Windows,10
24,1,null,"""",html-keyboard-response,143,404446,0.0-143.0,"""","<div style=""font-size:60px;"">+</div>","""",256,fixation,Memorization,null,500,"""","""","""","""","""","""","""","""",1,4/19/2021 2:38,68.112.112.176,Mozilla/5.0 (Windows NT 10.0; Win64; x64; rv:87.0) Gecko/20100101 Firefox/87.0,,Firefox,87,Windows,10
24,1,1863,"""",html-keyboard-response,144,409457,0.0-144.0,"""","<img src='jspsych/CFDfaces/CFD-AF-230-193-N.jpg' height=""250px""></br><b>Meghan</b>","""",256,IntactFace,Memorization,78,5000,n,"""",CFD-BF-226-119-N.jpg,Jordan,0,"""","""","""",1,4/19/2021 2:38,68.112.112.176,Mozilla/5.0 (Windows NT 10.0; Win64; x64; rv:87.0) Gecko/20100101 Firefox/87.0,,Firefox,87,Windows,10
24,1,null,"""",html-keyboard-response,145,409959,0.0-145.0,"""","<div style=""font-size:60px;"">+</div>","""",256,fixation,Memorization,null,500,"""","""","""","""","""","""","""","""",1,4/19/2021 2:38,68.112.112.176,Mozilla/5.0 (Windows NT 10.0; Win64; x64; rv:87.0) Gecko/20100101 Firefox/87.0,,Firefox,87,Windows,10
24,1,1932,"""",html-keyboard-response,146,414965,0.0-146.0,"""","<img src='jspsych/CFDfaces/CFD-LF-244-096-N.jpg' height=""250px""></br><b>Stephanie</b>","""",256,IntactFace,Memorization,78,5000,n,"""",CFD-LF-236-221-N.jpg,Lauren,0,"""","""","""",1,4/19/2021 2:38,68.112.112.176,Mozilla/5.0 (Windows NT 10.0; Win64; x64; rv:87.0) Gecko/20100101 Firefox/87.0,,Firefox,87,Windows,10
24,1,null,"""",html-keyboard-response,147,415474,0.0-147.0,"""","<div style=""font-size:60px;"">+</div>","""",256,fixation,Memorization,null,500,"""","""","""","""","""","""","""","""",1,4/19/2021 2:38,68.112.112.176,Mozilla/5.0 (Windows NT 10.0; Win64; x64; rv:87.0) Gecko/20100101 Firefox/87.0,,Firefox,87,Windows,10
24,1,2051,"""",html-keyboard-response,148,420493,0.0-148.0,"""","<img src='jspsych/CFDfaces/CFD-AF-200-228-N.jpg' height=""250px""></br><b>Kayla</b>","""",256,IntactFace,Memorization,78,5000,n,"""",CFD-AF-220-107-N.jpg,Jasmine,0,"""","""","""",1,4/19/2021 2:38,68.112.112.176,Mozilla/5.0 (Windows NT 10.0; Win64; x64; rv:87.0) Gecko/20100101 Firefox/87.0,,Firefox,87,Windows,10
24,1,null,"""",html-keyboard-response,149,420999,0.0-149.0,"""","<div style=""font-size:60px;"">+</div>","""",256,fixation,Memorization,null,500,"""","""","""","""","""","""","""","""",1,4/19/2021 2:38,68.112.112.176,Mozilla/5.0 (Windows NT 10.0; Win64; x64; rv:87.0) Gecko/20100101 Firefox/87.0,,Firefox,87,Windows,10
24,1,2188,"""",html-keyboard-response,150,426010,0.0-150.0,"""","<img src='jspsych/CFDfaces/CFD-AM-211-052-N.jpg' height=""250px""></br><b>Richard</b>","""",256,IntactFace,Memorization,78,5000,n,"""",CFD-WF-207-014-N.jpg,Amy,0,"""","""","""",1,4/19/2021 2:38,68.112.112.176,Mozilla/5.0 (Windows NT 10.0; Win64; x64; rv:87.0) Gecko/20100101 Firefox/87.0,,Firefox,87,Windows,10
24,1,null,"""",html-keyboard-response,151,426515,0.0-151.0,"""","<div style=""font-size:60px;"">+</div>","""",256,fixation,Memorization,null,500,"""","""","""","""","""","""","""","""",1,4/19/2021 2:38,68.112.112.176,Mozilla/5.0 (Windows NT 10.0; Win64; x64; rv:87.0) Gecko/20100101 Firefox/87.0,,Firefox,87,Windows,10
24,1,1618,"""",html-keyboard-response,152,431524,0.0-152.0,"""","<img src='jspsych/CFDfaces/CFD-BF-023-010-N.jpg' height=""250px""></br><b>Amanda</b>","""",256,IntactFace,Memorization,78,5000,n,"""",CFD-AM-238-269-N.jpg,Jeremy,0,"""","""","""",1,4/19/2021 2:38,68.112.112.176,Mozilla/5.0 (Windows NT 10.0; Win64; x64; rv:87.0) Gecko/20100101 Firefox/87.0,,Firefox,87,Windows,10
24,1,null,"""",html-keyboard-response,153,432046,0.0-153.0,"""","<div style=""font-size:60px;"">+</div>","""",256,fixation,Memorization,null,500,"""","""","""","""","""","""","""","""",1,4/19/2021 2:38,68.112.112.176,Mozilla/5.0 (Windows NT 10.0; Win64; x64; rv:87.0) Gecko/20100101 Firefox/87.0,,Firefox,87,Windows,10
24,1,5924,"""",html-keyboard-response,154,437971,0.0-154.0,"""",Press Any Key to Begin Memory Test,"""",1,welcomeScreen,Break,32,"""","""","""","""","""","""","""","""","""",1,4/19/2021 2:38,68.112.112.176,Mozilla/5.0 (Windows NT 10.0; Win64; x64; rv:87.0) Gecko/20100101 Firefox/87.0,,Firefox,87,Windows,10
24,1,null,"""",html-keyboard-response,155,438995,0.0-155.0,"""","<div style=""font-size:60px;"">+</div>","""",256,ITI,Test,null,1000,"""","""","""","""","""","""","""","""",1,4/19/2021 2:38,68.112.112.176,Mozilla/5.0 (Windows NT 10.0; Win64; x64; rv:87.0) Gecko/20100101 Firefox/87.0,,Firefox,87,Windows,10
24,1,null,"""",image-keyboard-response,156,439261,0.0-156.0,"""",jspsych/scrambledDisgustFaces/scrambledAM04DIS.JPG,"""",256,forwardMask,Test,null,250,"""",d,"""","""","""","""","""","""",1,4/19/2021 2:38,68.112.112.176,Mozilla/5.0 (Windows NT 10.0; Win64; x64; rv:87.0) Gecko/20100101 Firefox/87.0,,Firefox,87,Windows,10
24,1,null,"""",image-keyboard-response,157,439294,0.0-157.0,"""",jspsych/disgustFaces/AM04DIS.JPG,"""",256,Cue,Test,null,16,"""","""","""","""","""","""","""","""",1,4/19/2021 2:38,68.112.112.176,Mozilla/5.0 (Windows NT 10.0; Win64; x64; rv:87.0) Gecko/20100101 Firefox/87.0,,Firefox,87,Windows,10
24,1,null,"""",image-keyboard-response,158,439410,0.0-158.0,"""",jspsych/neutralFaces/BM07NES.JPG,"""",256,backwardMask,Test,null,100,"""","""","""","""","""","""","""","""",1,4/19/2021 2:38,68.112.112.176,Mozilla/5.0 (Windows NT 10.0; Win64; x64; rv:87.0) Gecko/20100101 Firefox/87.0,,Firefox,87,Windows,10
24,1,null,"""",html-keyboard-response,159,440425,0.0-159.0,"""","<div style=""font-size:60px;"">+</div>","""",256,fixationBtwnNeutralMaskAndPrompt,Test,null,1000,"""","""","""","""","""","""","""","""",1,4/19/2021 2:38,68.112.112.176,Mozilla/5.0 (Windows NT 10.0; Win64; x64; rv:87.0) Gecko/20100101 Firefox/87.0,,Firefox,87,Windows,10
24,1,3489,"""",html-button-response,160,443916,0.0-160.0,"""","<img src='jspsych/CFDfaces/CFD-BF-047-003-N.jpg' height=""250px"">,</br><b>Michelle</b>",0,256,IntactOrRearranged,Test,"""","""","""","""",CFD-WM-232-070-N.jpg,Sean,0,0,"""","""",1,4/19/2021 2:38,68.112.112.176,Mozilla/5.0 (Windows NT 10.0; Win64; x64; rv:87.0) Gecko/20100101 Firefox/87.0,,Firefox,87,Windows,10
24,1,3206,"""",html-slider-response,161,447135,0.0-161.0,"""","<img src='jspsych/CFDfaces/CFD-BF-047-003-N.jpg' height=""250px"">,</br><b>Michelle</b>","""",256,ConfidenceQuery,Test,"""","""","""","""",CFD-WM-232-070-N.jpg,Sean,0,"""",0,62,1,4/19/2021 2:38,68.112.112.176,Mozilla/5.0 (Windows NT 10.0; Win64; x64; rv:87.0) Gecko/20100101 Firefox/87.0,,Firefox,87,Windows,10
24,1,null,"""",html-keyboard-response,162,448145,0.0-162.0,"""","<div style=""font-size:60px;"">+</div>","""",256,ITI,Test,null,1000,"""","""","""","""","""","""","""","""",1,4/19/2021 2:38,68.112.112.176,Mozilla/5.0 (Windows NT 10.0; Win64; x64; rv:87.0) Gecko/20100101 Firefox/87.0,,Firefox,87,Windows,10
24,1,null,"""",image-keyboard-response,163,448400,0.0-163.0,"""",jspsych/scrambledDisgustFaces/scrambledAM35DIS.JPG,"""",256,forwardMask,Test,null,250,"""",d,"""","""","""","""","""","""",1,4/19/2021 2:38,68.112.112.176,Mozilla/5.0 (Windows NT 10.0; Win64; x64; rv:87.0) Gecko/20100101 Firefox/87.0,,Firefox,87,Windows,10
24,1,null,"""",image-keyboard-response,164,448435,0.0-164.0,"""",jspsych/disgustFaces/AM35DIS.JPG,"""",256,Cue,Test,null,16,"""","""","""","""","""","""","""","""",1,4/19/2021 2:38,68.112.112.176,Mozilla/5.0 (Windows NT 10.0; Win64; x64; rv:87.0) Gecko/20100101 Firefox/87.0,,Firefox,87,Windows,10
24,1,null,"""",image-keyboard-response,165,448553,0.0-165.0,"""",jspsych/neutralFaces/BM21NES.JPG,"""",256,backwardMask,Test,null,100,"""","""","""","""","""","""","""","""",1,4/19/2021 2:38,68.112.112.176,Mozilla/5.0 (Windows NT 10.0; Win64; x64; rv:87.0) Gecko/20100101 Firefox/87.0,,Firefox,87,Windows,10
24,1,null,"""",html-keyboard-response,166,449554,0.0-166.0,"""","<div style=""font-size:60px;"">+</div>","""",256,fixationBtwnNeutralMaskAndPrompt,Test,null,1000,"""","""","""","""","""","""","""","""",1,4/19/2021 2:38,68.112.112.176,Mozilla/5.0 (Windows NT 10.0; Win64; x64; rv:87.0) Gecko/20100101 Firefox/87.0,,Firefox,87,Windows,10
24,1,3440,"""",html-button-response,167,453005,0.0-167.0,"""","<img src='jspsych/CFDfaces/CFD-AM-237-154-N.jpg' height=""250px"">,</br><b>Jeffrey</b>",1,256,IntactOrRearranged,Test,"""","""","""","""",CFD-AF-242-158-N.jpg,Tiffany,1,1,"""","""",1,4/19/2021 2:38,68.112.112.176,Mozilla/5.0 (Windows NT 10.0; Win64; x64; rv:87.0) Gecko/20100101 Firefox/87.0,,Firefox,87,Windows,10
24,1,2179,"""",html-slider-response,168,455189,0.0-168.0,"""","<img src='jspsych/CFDfaces/CFD-AM-237-154-N.jpg' height=""250px"">,</br><b>Jeffrey</b>","""",256,ConfidenceQuery,Test,"""","""","""","""",CFD-AF-242-158-N.jpg,Tiffany,1,"""",0,30,1,4/19/2021 2:38,68.112.112.176,Mozilla/5.0 (Windows NT 10.0; Win64; x64; rv:87.0) Gecko/20100101 Firefox/87.0,,Firefox,87,Windows,10
24,1,null,"""",html-keyboard-response,169,456194,0.0-169.0,"""","<div style=""font-size:60px;"">+</div>","""",256,ITI,Test,null,1000,"""","""","""","""","""","""","""","""",1,4/19/2021 2:38,68.112.112.176,Mozilla/5.0 (Windows NT 10.0; Win64; x64; rv:87.0) Gecko/20100101 Firefox/87.0,,Firefox,87,Windows,10
24,1,null,"""",image-keyboard-response,170,456474,0.0-170.0,"""",jspsych/scrambledNeutralFaces/scrambledAM29NES.JPG,"""",256,forwardMask,Test,null,250,"""",n,"""","""","""","""","""","""",1,4/19/2021 2:38,68.112.112.176,Mozilla/5.0 (Windows NT 10.0; Win64; x64; rv:87.0) Gecko/20100101 Firefox/87.0,,Firefox,87,Windows,10
24,1,null,"""",image-keyboard-response,171,456505,0.0-171.0,"""",jspsych/neutralFaces/AM29NES.JPG,"""",256,Cue,Test,null,16,"""","""","""","""","""","""","""","""",1,4/19/2021 2:38,68.112.112.176,Mozilla/5.0 (Windows NT 10.0; Win64; x64; rv:87.0) Gecko/20100101 Firefox/87.0,,Firefox,87,Windows,10
24,1,null,"""",image-keyboard-response,172,456625,0.0-172.0,"""",jspsych/neutralFaces/BM23NES.JPG,"""",256,backwardMask,Test,null,100,"""","""","""","""","""","""","""","""",1,4/19/2021 2:38,68.112.112.176,Mozilla/5.0 (Windows NT 10.0; Win64; x64; rv:87.0) Gecko/20100101 Firefox/87.0,,Firefox,87,Windows,10
24,1,null,"""",html-keyboard-response,173,457644,0.0-173.0,"""","<div style=""font-size:60px;"">+</div>","""",256,fixationBtwnNeutralMaskAndPrompt,Test,null,1000,"""","""","""","""","""","""","""","""",1,4/19/2021 2:38,68.112.112.176,Mozilla/5.0 (Windows NT 10.0; Win64; x64; rv:87.0) Gecko/20100101 Firefox/87.0,,Firefox,87,Windows,10
24,1,3369,"""",html-button-response,174,461016,0.0-174.0,"""","<img src='jspsych/CFDfaces/CFD-AF-230-193-N.jpg' height=""250px"">,</br><b>Meghan</b>",1,256,IntactOrRearranged,Test,"""","""","""","""",CFD-BM-010-003-N.jpg,Mark,0,1,"""","""",1,4/19/2021 2:38,68.112.112.176,Mozilla/5.0 (Windows NT 10.0; Win64; x64; rv:87.0) Gecko/20100101 Firefox/87.0,,Firefox,87,Windows,10
24,1,1548,"""",html-slider-response,175,462568,0.0-175.0,"""","<img src='jspsych/CFDfaces/CFD-AF-230-193-N.jpg' height=""250px"">,</br><b>Meghan</b>","""",256,ConfidenceQuery,Test,"""","""","""","""",CFD-BM-010-003-N.jpg,Mark,0,"""",0,23,1,4/19/2021 2:38,68.112.112.176,Mozilla/5.0 (Windows NT 10.0; Win64; x64; rv:87.0) Gecko/20100101 Firefox/87.0,,Firefox,87,Windows,10
24,1,null,"""",html-keyboard-response,176,463584,0.0-176.0,"""","<div style=""font-size:60px;"">+</div>","""",256,ITI,Test,null,1000,"""","""","""","""","""","""","""","""",1,4/19/2021 2:38,68.112.112.176,Mozilla/5.0 (Windows NT 10.0; Win64; x64; rv:87.0) Gecko/20100101 Firefox/87.0,,Firefox,87,Windows,10
24,1,null,"""",image-keyboard-response,177,463854,0.0-177.0,"""",jspsych/scrambledDisgustFaces/scrambledBM02DIS.JPG,"""",256,forwardMask,Test,null,250,"""",d,"""","""","""","""","""","""",1,4/19/2021 2:38,68.112.112.176,Mozilla/5.0 (Windows NT 10.0; Win64; x64; rv:87.0) Gecko/20100101 Firefox/87.0,,Firefox,87,Windows,10
24,1,null,"""",image-keyboard-response,178,463885,0.0-178.0,"""",jspsych/disgustFaces/BM03DIS.JPG,"""",256,Cue,Test,null,16,"""","""","""","""","""","""","""","""",1,4/19/2021 2:38,68.112.112.176,Mozilla/5.0 (Windows NT 10.0; Win64; x64; rv:87.0) Gecko/20100101 Firefox/87.0,,Firefox,87,Windows,10
24,1,null,"""",image-keyboard-response,179,464004,0.0-179.0,"""",jspsych/neutralFaces/BM24NES.JPG,"""",256,backwardMask,Test,null,100,"""","""","""","""","""","""","""","""",1,4/19/2021 2:38,68.112.112.176,Mozilla/5.0 (Windows NT 10.0; Win64; x64; rv:87.0) Gecko/20100101 Firefox/87.0,,Firefox,87,Windows,10
24,1,null,"""",html-keyboard-response,180,465010,0.0-180.0,"""","<div style=""font-size:60px;"">+</div>","""",256,fixationBtwnNeutralMaskAndPrompt,Test,null,1000,"""","""","""","""","""","""","""","""",1,4/19/2021 2:38,68.112.112.176,Mozilla/5.0 (Windows NT 10.0; Win64; x64; rv:87.0) Gecko/20100101 Firefox/87.0,,Firefox,87,Windows,10
24,1,2476,"""",html-button-response,181,467489,0.0-181.0,"""","<img src='jspsych/CFDfaces/CFD-WM-213-076-N.jpg' height=""250px"">,</br><b>Brandon</b>",0,256,IntactOrRearranged,Test,"""","""","""","""",CFD-LM-246-087-N.jpg,Timothy,0,0,"""","""",1,4/19/2021 2:38,68.112.112.176,Mozilla/5.0 (Windows NT 10.0; Win64; x64; rv:87.0) Gecko/20100101 Firefox/87.0,,Firefox,87,Windows,10
24,1,1894,"""",html-slider-response,182,469389,0.0-182.0,"""","<img src='jspsych/CFDfaces/CFD-WM-213-076-N.jpg' height=""250px"">,</br><b>Brandon</b>","""",256,ConfidenceQuery,Test,"""","""","""","""",CFD-LM-246-087-N.jpg,Timothy,0,"""",0,78,1,4/19/2021 2:38,68.112.112.176,Mozilla/5.0 (Windows NT 10.0; Win64; x64; rv:87.0) Gecko/20100101 Firefox/87.0,,Firefox,87,Windows,10
24,1,null,"""",html-keyboard-response,183,470404,0.0-183.0,"""","<div style=""font-size:60px;"">+</div>","""",256,ITI,Test,null,1000,"""","""","""","""","""","""","""","""",1,4/19/2021 2:38,68.112.112.176,Mozilla/5.0 (Windows NT 10.0; Win64; x64; rv:87.0) Gecko/20100101 Firefox/87.0,,Firefox,87,Windows,10
24,1,null,"""",image-keyboard-response,184,470665,0.0-184.0,"""",jspsych/scrambledDisgustFaces/scrambledBM04DIS.JPG,"""",256,forwardMask,Test,null,250,"""",d,"""","""","""","""","""","""",1,4/19/2021 2:38,68.112.112.176,Mozilla/5.0 (Windows NT 10.0; Win64; x64; rv:87.0) Gecko/20100101 Firefox/87.0,,Firefox,87,Windows,10
24,1,null,"""",image-keyboard-response,185,470698,0.0-185.0,"""",jspsych/disgustFaces/BM05DIS.JPG,"""",256,Cue,Test,null,16,"""","""","""","""","""","""","""","""",1,4/19/2021 2:38,68.112.112.176,Mozilla/5.0 (Windows NT 10.0; Win64; x64; rv:87.0) Gecko/20100101 Firefox/87.0,,Firefox,87,Windows,10
24,1,null,"""",image-keyboard-response,186,470814,0.0-186.0,"""",jspsych/neutralFaces/AM09NES.JPG,"""",256,backwardMask,Test,null,100,"""","""","""","""","""","""","""","""",1,4/19/2021 2:38,68.112.112.176,Mozilla/5.0 (Windows NT 10.0; Win64; x64; rv:87.0) Gecko/20100101 Firefox/87.0,,Firefox,87,Windows,10
24,1,null,"""",html-keyboard-response,187,471825,0.0-187.0,"""","<div style=""font-size:60px;"">+</div>","""",256,fixationBtwnNeutralMaskAndPrompt,Test,null,1000,"""","""","""","""","""","""","""","""",1,4/19/2021 2:38,68.112.112.176,Mozilla/5.0 (Windows NT 10.0; Win64; x64; rv:87.0) Gecko/20100101 Firefox/87.0,,Firefox,87,Windows,10
24,1,2908,"""",html-button-response,188,474734,0.0-188.0,"""","<img src='jspsych/CFDfaces/CFD-LF-244-096-N.jpg' height=""250px"">,</br><b>Stephanie</b>",0,256,IntactOrRearranged,Test,"""","""","""","""",CFD-AM-238-269-N.jpg,Ryan,0,0,"""","""",1,4/19/2021 2:38,68.112.112.176,Mozilla/5.0 (Windows NT 10.0; Win64; x64; rv:87.0) Gecko/20100101 Firefox/87.0,,Firefox,87,Windows,10
24,1,1541,"""",html-slider-response,189,476281,0.0-189.0,"""","<img src='jspsych/CFDfaces/CFD-LF-244-096-N.jpg' height=""250px"">,</br><b>Stephanie</b>","""",256,ConfidenceQuery,Test,"""","""","""","""",CFD-AM-238-269-N.jpg,Ryan,0,"""",0,48,1,4/19/2021 2:38,68.112.112.176,Mozilla/5.0 (Windows NT 10.0; Win64; x64; rv:87.0) Gecko/20100101 Firefox/87.0,,Firefox,87,Windows,10
24,1,null,"""",html-keyboard-response,190,477299,0.0-190.0,"""","<div style=""font-size:60px;"">+</div>","""",256,ITI,Test,null,1000,"""","""","""","""","""","""","""","""",1,4/19/2021 2:38,68.112.112.176,Mozilla/5.0 (Windows NT 10.0; Win64; x64; rv:87.0) Gecko/20100101 Firefox/87.0,,Firefox,87,Windows,10
24,1,null,"""",image-keyboard-response,191,477552,0.0-191.0,"""",jspsych/scrambledDisgustFaces/scrambledAM27DIS.JPG,"""",256,forwardMask,Test,null,250,"""",d,"""","""","""","""","""","""",1,4/19/2021 2:38,68.112.112.176,Mozilla/5.0 (Windows NT 10.0; Win64; x64; rv:87.0) Gecko/20100101 Firefox/87.0,,Firefox,87,Windows,10
24,1,null,"""",image-keyboard-response,192,477573,0.0-192.0,"""",jspsych/disgustFaces/AM27DIS.JPG,"""",256,Cue,Test,null,16,"""","""","""","""","""","""","""","""",1,4/19/2021 2:38,68.112.112.176,Mozilla/5.0 (Windows NT 10.0; Win64; x64; rv:87.0) Gecko/20100101 Firefox/87.0,,Firefox,87,Windows,10
24,1,null,"""",image-keyboard-response,193,477688,0.0-193.0,"""",jspsych/neutralFaces/AM29NES.JPG,"""",256,backwardMask,Test,null,100,"""","""","""","""","""","""","""","""",1,4/19/2021 2:38,68.112.112.176,Mozilla/5.0 (Windows NT 10.0; Win64; x64; rv:87.0) Gecko/20100101 Firefox/87.0,,Firefox,87,Windows,10
24,1,null,"""",html-keyboard-response,194,478697,0.0-194.0,"""","<div style=""font-size:60px;"">+</div>","""",256,fixationBtwnNeutralMaskAndPrompt,Test,null,1000,"""","""","""","""","""","""","""","""",1,4/19/2021 2:38,68.112.112.176,Mozilla/5.0 (Windows NT 10.0; Win64; x64; rv:87.0) Gecko/20100101 Firefox/87.0,,Firefox,87,Windows,10
24,1,3894,"""",html-button-response,195,482592,0.0-195.0,"""","<img src='jspsych/CFDfaces/CFD-AF-214-139-N.jpg' height=""250px"">,</br><b>Kimberly</b>",1,256,IntactOrRearranged,Test,"""","""","""","""",CFD-LM-239-075-N.jpg,Jeremy,1,1,"""","""",1,4/19/2021 2:38,68.112.112.176,Mozilla/5.0 (Windows NT 10.0; Win64; x64; rv:87.0) Gecko/20100101 Firefox/87.0,,Firefox,87,Windows,10
24,1,2051,"""",html-slider-response,196,484648,0.0-196.0,"""","<img src='jspsych/CFDfaces/CFD-AF-214-139-N.jpg' height=""250px"">,</br><b>Kimberly</b>","""",256,ConfidenceQuery,Test,"""","""","""","""",CFD-LM-239-075-N.jpg,Jeremy,1,"""",0,30,1,4/19/2021 2:38,68.112.112.176,Mozilla/5.0 (Windows NT 10.0; Win64; x64; rv:87.0) Gecko/20100101 Firefox/87.0,,Firefox,87,Windows,10
24,1,null,"""",html-keyboard-response,197,485665,0.0-197.0,"""","<div style=""font-size:60px;"">+</div>","""",256,ITI,Test,null,1000,"""","""","""","""","""","""","""","""",1,4/19/2021 2:38,68.112.112.176,Mozilla/5.0 (Windows NT 10.0; Win64; x64; rv:87.0) Gecko/20100101 Firefox/87.0,,Firefox,87,Windows,10
24,1,null,"""",image-keyboard-response,198,485919,0.0-198.0,"""",jspsych/scrambledNeutralFaces/scrambledBM31NES.JPG,"""",256,forwardMask,Test,null,250,"""",n,"""","""","""","""","""","""",1,4/19/2021 2:38,68.112.112.176,Mozilla/5.0 (Windows NT 10.0; Win64; x64; rv:87.0) Gecko/20100101 Firefox/87.0,,Firefox,87,Windows,10
24,1,null,"""",image-keyboard-response,199,485950,0.0-199.0,"""",jspsych/neutralFaces/BM31NES.JPG,"""",256,Cue,Test,null,16,"""","""","""","""","""","""","""","""",1,4/19/2021 2:38,68.112.112.176,Mozilla/5.0 (Windows NT 10.0; Win64; x64; rv:87.0) Gecko/20100101 Firefox/87.0,,Firefox,87,Windows,10
24,1,null,"""",image-keyboard-response,200,486065,0.0-200.0,"""",jspsych/neutralFaces/AM14NES.JPG,"""",256,backwardMask,Test,null,100,"""","""","""","""","""","""","""","""",1,4/19/2021 2:38,68.112.112.176,Mozilla/5.0 (Windows NT 10.0; Win64; x64; rv:87.0) Gecko/20100101 Firefox/87.0,,Firefox,87,Windows,10
24,1,null,"""",html-keyboard-response,201,487074,0.0-201.0,"""","<div style=""font-size:60px;"">+</div>","""",256,fixationBtwnNeutralMaskAndPrompt,Test,null,1000,"""","""","""","""","""","""","""","""",1,4/19/2021 2:38,68.112.112.176,Mozilla/5.0 (Windows NT 10.0; Win64; x64; rv:87.0) Gecko/20100101 Firefox/87.0,,Firefox,87,Windows,10
24,1,1689,"""",html-button-response,202,488766,0.0-202.0,"""","<img src='jspsych/CFDfaces/CFD-BM-027-001-N.jpg' height=""250px"">,</br><b>Nicholas</b>",0,256,IntactOrRearranged,Test,"""","""","""","""",CFD-AF-208-003-N.jpg,Rebecca,0,0,"""","""",1,4/19/2021 2:38,68.112.112.176,Mozilla/5.0 (Windows NT 10.0; Win64; x64; rv:87.0) Gecko/20100101 Firefox/87.0,,Firefox,87,Windows,10
24,1,2079,"""",html-slider-response,203,490859,0.0-203.0,"""","<img src='jspsych/CFDfaces/CFD-BM-027-001-N.jpg' height=""250px"">,</br><b>Nicholas</b>","""",256,ConfidenceQuery,Test,"""","""","""","""",CFD-AF-208-003-N.jpg,Rebecca,0,"""",0,100,1,4/19/2021 2:38,68.112.112.176,Mozilla/5.0 (Windows NT 10.0; Win64; x64; rv:87.0) Gecko/20100101 Firefox/87.0,,Firefox,87,Windows,10
24,1,null,"""",html-keyboard-response,204,491864,0.0-204.0,"""","<div style=""font-size:60px;"">+</div>","""",256,ITI,Test,null,1000,"""","""","""","""","""","""","""","""",1,4/19/2021 2:38,68.112.112.176,Mozilla/5.0 (Windows NT 10.0; Win64; x64; rv:87.0) Gecko/20100101 Firefox/87.0,,Firefox,87,Windows,10
24,1,null,"""",image-keyboard-response,205,492130,0.0-205.0,"""",jspsych/scrambledNeutralFaces/scrambledBF16NES.JPG,"""",256,forwardMask,Test,null,250,"""",n,"""","""","""","""","""","""",1,4/19/2021 2:38,68.112.112.176,Mozilla/5.0 (Windows NT 10.0; Win64; x64; rv:87.0) Gecko/20100101 Firefox/87.0,,Firefox,87,Windows,10
24,1,null,"""",image-keyboard-response,206,492162,0.0-206.0,"""",jspsych/neutralFaces/BF16NES.JPG,"""",256,Cue,Test,null,16,"""","""","""","""","""","""","""","""",1,4/19/2021 2:38,68.112.112.176,Mozilla/5.0 (Windows NT 10.0; Win64; x64; rv:87.0) Gecko/20100101 Firefox/87.0,,Firefox,87,Windows,10
24,1,null,"""",image-keyboard-response,207,492279,0.0-207.0,"""",jspsych/neutralFaces/BF20NES.JPG,"""",256,backwardMask,Test,null,100,"""","""","""","""","""","""","""","""",1,4/19/2021 2:38,68.112.112.176,Mozilla/5.0 (Windows NT 10.0; Win64; x64; rv:87.0) Gecko/20100101 Firefox/87.0,,Firefox,87,Windows,10
24,1,null,"""",html-keyboard-response,208,493285,0.0-208.0,"""","<div style=""font-size:60px;"">+</div>","""",256,fixationBtwnNeutralMaskAndPrompt,Test,null,1000,"""","""","""","""","""","""","""","""",1,4/19/2021 2:38,68.112.112.176,Mozilla/5.0 (Windows NT 10.0; Win64; x64; rv:87.0) Gecko/20100101 Firefox/87.0,,Firefox,87,Windows,10
24,1,4301,"""",html-button-response,209,497587,0.0-209.0,"""","<img src='jspsych/CFDfaces/CFD-AM-211-052-N.jpg' height=""250px"">,</br><b>Christian</b>",1,256,IntactOrRearranged,Test,"""","""","""","""",CFD-BF-226-119-N.jpg,Jenna,1,1,"""","""",1,4/19/2021 2:38,68.112.112.176,Mozilla/5.0 (Windows NT 10.0; Win64; x64; rv:87.0) Gecko/20100101 Firefox/87.0,,Firefox,87,Windows,10
24,1,2357,"""",html-slider-response,210,499960,0.0-210.0,"""","<img src='jspsych/CFDfaces/CFD-AM-211-052-N.jpg' height=""250px"">,</br><b>Christian</b>","""",256,ConfidenceQuery,Test,"""","""","""","""",CFD-BF-226-119-N.jpg,Jenna,1,"""",0,23,1,4/19/2021 2:38,68.112.112.176,Mozilla/5.0 (Windows NT 10.0; Win64; x64; rv:87.0) Gecko/20100101 Firefox/87.0,,Firefox,87,Windows,10
24,1,null,"""",html-keyboard-response,211,500971,0.0-211.0,"""","<div style=""font-size:60px;"">+</div>","""",256,ITI,Test,null,1000,"""","""","""","""","""","""","""","""",1,4/19/2021 2:38,68.112.112.176,Mozilla/5.0 (Windows NT 10.0; Win64; x64; rv:87.0) Gecko/20100101 Firefox/87.0,,Firefox,87,Windows,10
24,1,null,"""",image-keyboard-response,212,501236,0.0-212.0,"""",jspsych/scrambledNeutralFaces/scrambledBM16NES.JPG,"""",256,forwardMask,Test,null,250,"""",n,"""","""","""","""","""","""",1,4/19/2021 2:38,68.112.112.176,Mozilla/5.0 (Windows NT 10.0; Win64; x64; rv:87.0) Gecko/20100101 Firefox/87.0,,Firefox,87,Windows,10
24,1,null,"""",image-keyboard-response,213,501267,0.0-213.0,"""",jspsych/neutralFaces/BM16NES.JPG,"""",256,Cue,Test,null,16,"""","""","""","""","""","""","""","""",1,4/19/2021 2:38,68.112.112.176,Mozilla/5.0 (Windows NT 10.0; Win64; x64; rv:87.0) Gecko/20100101 Firefox/87.0,,Firefox,87,Windows,10
24,1,null,"""",image-keyboard-response,214,501385,0.0-214.0,"""",jspsych/neutralFaces/BM14NES.JPG,"""",256,backwardMask,Test,null,100,"""","""","""","""","""","""","""","""",1,4/19/2021 2:38,68.112.112.176,Mozilla/5.0 (Windows NT 10.0; Win64; x64; rv:87.0) Gecko/20100101 Firefox/87.0,,Firefox,87,Windows,10
24,1,null,"""",html-keyboard-response,215,502390,0.0-215.0,"""","<div style=""font-size:60px;"">+</div>","""",256,fixationBtwnNeutralMaskAndPrompt,Test,null,1000,"""","""","""","""","""","""","""","""",1,4/19/2021 2:38,68.112.112.176,Mozilla/5.0 (Windows NT 10.0; Win64; x64; rv:87.0) Gecko/20100101 Firefox/87.0,,Firefox,87,Windows,10
24,1,4276,"""",html-button-response,216,506668,0.0-216.0,"""","<img src='jspsych/CFDfaces/CFD-LM-221-216-N.jpg' height=""250px"">,</br><b>Richard</b>",1,256,IntactOrRearranged,Test,"""","""","""","""",CFD-BF-025-002-N.jpg,Erin,1,1,"""","""",1,4/19/2021 2:38,68.112.112.176,Mozilla/5.0 (Windows NT 10.0; Win64; x64; rv:87.0) Gecko/20100101 Firefox/87.0,,Firefox,87,Windows,10
24,1,1774,"""",html-slider-response,217,508457,0.0-217.0,"""","<img src='jspsych/CFDfaces/CFD-LM-221-216-N.jpg' height=""250px"">,</br><b>Richard</b>","""",256,ConfidenceQuery,Test,"""","""","""","""",CFD-BF-025-002-N.jpg,Erin,1,"""",0,32,1,4/19/2021 2:38,68.112.112.176,Mozilla/5.0 (Windows NT 10.0; Win64; x64; rv:87.0) Gecko/20100101 Firefox/87.0,,Firefox,87,Windows,10
24,1,null,"""",html-keyboard-response,218,509464,0.0-218.0,"""","<div style=""font-size:60px;"">+</div>","""",256,ITI,Test,null,1000,"""","""","""","""","""","""","""","""",1,4/19/2021 2:38,68.112.112.176,Mozilla/5.0 (Windows NT 10.0; Win64; x64; rv:87.0) Gecko/20100101 Firefox/87.0,,Firefox,87,Windows,10
24,1,null,"""",image-keyboard-response,219,509724,0.0-219.0,"""",jspsych/scrambledNeutralFaces/scrambledAF10NES.JPG,"""",256,forwardMask,Test,null,250,"""",n,"""","""","""","""","""","""",1,4/19/2021 2:38,68.112.112.176,Mozilla/5.0 (Windows NT 10.0; Win64; x64; rv:87.0) Gecko/20100101 Firefox/87.0,,Firefox,87,Windows,10
24,1,null,"""",image-keyboard-response,220,509761,0.0-220.0,"""",jspsych/neutralFaces/AF10NES.JPG,"""",256,Cue,Test,null,16,"""","""","""","""","""","""","""","""",1,4/19/2021 2:38,68.112.112.176,Mozilla/5.0 (Windows NT 10.0; Win64; x64; rv:87.0) Gecko/20100101 Firefox/87.0,,Firefox,87,Windows,10
24,1,null,"""",image-keyboard-response,221,509879,0.0-221.0,"""",jspsych/neutralFaces/BF29NES.JPG,"""",256,backwardMask,Test,null,100,"""","""","""","""","""","""","""","""",1,4/19/2021 2:38,68.112.112.176,Mozilla/5.0 (Windows NT 10.0; Win64; x64; rv:87.0) Gecko/20100101 Firefox/87.0,,Firefox,87,Windows,10
24,1,null,"""",html-keyboard-response,222,510885,0.0-222.0,"""","<div style=""font-size:60px;"">+</div>","""",256,fixationBtwnNeutralMaskAndPrompt,Test,null,1000,"""","""","""","""","""","""","""","""",1,4/19/2021 2:38,68.112.112.176,Mozilla/5.0 (Windows NT 10.0; Win64; x64; rv:87.0) Gecko/20100101 Firefox/87.0,,Firefox,87,Windows,10
24,1,4490,"""",html-button-response,223,515377,0.0-223.0,"""","<img src='jspsych/CFDfaces/CFD-LM-201-057-N.jpg' height=""250px"">,</br><b>Gregory</b>",1,256,IntactOrRearranged,Test,"""","""","""","""",CFD-LF-236-221-N.jpg,Jordan,1,1,"""","""",1,4/19/2021 2:38,68.112.112.176,Mozilla/5.0 (Windows NT 10.0; Win64; x64; rv:87.0) Gecko/20100101 Firefox/87.0,,Firefox,87,Windows,10
24,1,4275,"""",html-slider-response,224,519657,0.0-224.0,"""","<img src='jspsych/CFDfaces/CFD-LM-201-057-N.jpg' height=""250px"">,</br><b>Gregory</b>","""",256,ConfidenceQuery,Test,"""","""","""","""",CFD-LF-236-221-N.jpg,Jordan,1,"""",0,59,1,4/19/2021 2:38,68.112.112.176,Mozilla/5.0 (Windows NT 10.0; Win64; x64; rv:87.0) Gecko/20100101 Firefox/87.0,,Firefox,87,Windows,10
24,1,null,"""",html-keyboard-response,225,520660,0.0-225.0,"""","<div style=""font-size:60px;"">+</div>","""",256,ITI,Test,null,1000,"""","""","""","""","""","""","""","""",1,4/19/2021 2:38,68.112.112.176,Mozilla/5.0 (Windows NT 10.0; Win64; x64; rv:87.0) Gecko/20100101 Firefox/87.0,,Firefox,87,Windows,10
24,1,null,"""",image-keyboard-response,226,520914,0.0-226.0,"""",jspsych/scrambledNeutralFaces/scrambledAF20NES.JPG,"""",256,forwardMask,Test,null,250,"""",n,"""","""","""","""","""","""",1,4/19/2021 2:38,68.112.112.176,Mozilla/5.0 (Windows NT 10.0; Win64; x64; rv:87.0) Gecko/20100101 Firefox/87.0,,Firefox,87,Windows,10
24,1,null,"""",image-keyboard-response,227,520945,0.0-227.0,"""",jspsych/neutralFaces/AF20NES.JPG,"""",256,Cue,Test,null,16,"""","""","""","""","""","""","""","""",1,4/19/2021 2:38,68.112.112.176,Mozilla/5.0 (Windows NT 10.0; Win64; x64; rv:87.0) Gecko/20100101 Firefox/87.0,,Firefox,87,Windows,10
24,1,null,"""",image-keyboard-response,228,521061,0.0-228.0,"""",jspsych/neutralFaces/AF05NES.JPG,"""",256,backwardMask,Test,null,100,"""","""","""","""","""","""","""","""",1,4/19/2021 2:38,68.112.112.176,Mozilla/5.0 (Windows NT 10.0; Win64; x64; rv:87.0) Gecko/20100101 Firefox/87.0,,Firefox,87,Windows,10
24,1,null,"""",html-keyboard-response,229,522067,0.0-229.0,"""","<div style=""font-size:60px;"">+</div>","""",256,fixationBtwnNeutralMaskAndPrompt,Test,null,1000,"""","""","""","""","""","""","""","""",1,4/19/2021 2:38,68.112.112.176,Mozilla/5.0 (Windows NT 10.0; Win64; x64; rv:87.0) Gecko/20100101 Firefox/87.0,,Firefox,87,Windows,10
24,1,2656,"""",html-button-response,230,524735,0.0-230.0,"""","<img src='jspsych/CFDfaces/CFD-WF-223-133-N.jpg' height=""250px"">,</br><b>Elizabeth</b>",1,256,IntactOrRearranged,Test,"""","""","""","""",CFD-WM-003-002-N.jpg,Jesse,1,1,"""","""",1,4/19/2021 2:38,68.112.112.176,Mozilla/5.0 (Windows NT 10.0; Win64; x64; rv:87.0) Gecko/20100101 Firefox/87.0,,Firefox,87,Windows,10
24,1,2021,"""",html-slider-response,231,526762,0.0-231.0,"""","<img src='jspsych/CFDfaces/CFD-WF-223-133-N.jpg' height=""250px"">,</br><b>Elizabeth</b>","""",256,ConfidenceQuery,Test,"""","""","""","""",CFD-WM-003-002-N.jpg,Jesse,1,"""",0,35,1,4/19/2021 2:38,68.112.112.176,Mozilla/5.0 (Windows NT 10.0; Win64; x64; rv:87.0) Gecko/20100101 Firefox/87.0,,Firefox,87,Windows,10
24,1,null,"""",html-keyboard-response,232,527776,0.0-232.0,"""","<div style=""font-size:60px;"">+</div>","""",256,ITI,Test,null,1000,"""","""","""","""","""","""","""","""",1,4/19/2021 2:38,68.112.112.176,Mozilla/5.0 (Windows NT 10.0; Win64; x64; rv:87.0) Gecko/20100101 Firefox/87.0,,Firefox,87,Windows,10
24,1,null,"""",image-keyboard-response,233,528043,0.0-233.0,"""",jspsych/scrambledDisgustFaces/scrambledBF09DIS.JPG,"""",256,forwardMask,Test,null,250,"""",d,"""","""","""","""","""","""",1,4/19/2021 2:38,68.112.112.176,Mozilla/5.0 (Windows NT 10.0; Win64; x64; rv:87.0) Gecko/20100101 Firefox/87.0,,Firefox,87,Windows,10
24,1,null,"""",image-keyboard-response,234,528078,0.0-234.0,"""",jspsych/disgustFaces/BF09DIS.JPG,"""",256,Cue,Test,null,16,"""","""","""","""","""","""","""","""",1,4/19/2021 2:38,68.112.112.176,Mozilla/5.0 (Windows NT 10.0; Win64; x64; rv:87.0) Gecko/20100101 Firefox/87.0,,Firefox,87,Windows,10
24,1,null,"""",image-keyboard-response,235,528195,0.0-235.0,"""",jspsych/neutralFaces/AF19NES.JPG,"""",256,backwardMask,Test,null,100,"""","""","""","""","""","""","""","""",1,4/19/2021 2:38,68.112.112.176,Mozilla/5.0 (Windows NT 10.0; Win64; x64; rv:87.0) Gecko/20100101 Firefox/87.0,,Firefox,87,Windows,10
24,1,null,"""",html-keyboard-response,236,529219,0.0-236.0,"""","<div style=""font-size:60px;"">+</div>","""",256,fixationBtwnNeutralMaskAndPrompt,Test,null,1000,"""","""","""","""","""","""","""","""",1,4/19/2021 2:38,68.112.112.176,Mozilla/5.0 (Windows NT 10.0; Win64; x64; rv:87.0) Gecko/20100101 Firefox/87.0,,Firefox,87,Windows,10
24,1,null,"""",html-button-response,237,534223,0.0-237.0,"""","<img src='jspsych/CFDfaces/CFD-BF-218-207-N.jpg' height=""250px"">,</br><b>Vanessa</b>",null,256,IntactOrRearranged,Test,"""","""","""","""",CFD-AF-235-170-N.jpg,Melissa,0,"""","""","""",1,4/19/2021 2:38,68.112.112.176,Mozilla/5.0 (Windows NT 10.0; Win64; x64; rv:87.0) Gecko/20100101 Firefox/87.0,,Firefox,87,Windows,10
24,1,2596,"""",html-slider-response,238,536824,0.0-238.0,"""","<img src='jspsych/CFDfaces/CFD-BF-218-207-N.jpg' height=""250px"">,</br><b>Vanessa</b>","""",256,ConfidenceQuery,Test,"""","""","""","""",CFD-AF-235-170-N.jpg,Melissa,0,"""",0,24,1,4/19/2021 2:38,68.112.112.176,Mozilla/5.0 (Windows NT 10.0; Win64; x64; rv:87.0) Gecko/20100101 Firefox/87.0,,Firefox,87,Windows,10
24,1,null,"""",html-keyboard-response,239,537848,0.0-239.0,"""","<div style=""font-size:60px;"">+</div>","""",256,ITI,Test,null,1000,"""","""","""","""","""","""","""","""",1,4/19/2021 2:38,68.112.112.176,Mozilla/5.0 (Windows NT 10.0; Win64; x64; rv:87.0) Gecko/20100101 Firefox/87.0,,Firefox,87,Windows,10
24,1,null,"""",image-keyboard-response,240,538109,0.0-240.0,"""",jspsych/scrambledNeutralFaces/scrambledAF29NES.JPG,"""",256,forwardMask,Test,null,250,"""",n,"""","""","""","""","""","""",1,4/19/2021 2:38,68.112.112.176,Mozilla/5.0 (Windows NT 10.0; Win64; x64; rv:87.0) Gecko/20100101 Firefox/87.0,,Firefox,87,Windows,10
24,1,null,"""",image-keyboard-response,241,538143,0.0-241.0,"""",jspsych/neutralFaces/AF29NES.JPG,"""",256,Cue,Test,null,16,"""","""","""","""","""","""","""","""",1,4/19/2021 2:38,68.112.112.176,Mozilla/5.0 (Windows NT 10.0; Win64; x64; rv:87.0) Gecko/20100101 Firefox/87.0,,Firefox,87,Windows,10
24,1,null,"""",image-keyboard-response,242,538259,0.0-242.0,"""",jspsych/neutralFaces/BF29NES.JPG,"""",256,backwardMask,Test,null,100,"""","""","""","""","""","""","""","""",1,4/19/2021 2:38,68.112.112.176,Mozilla/5.0 (Windows NT 10.0; Win64; x64; rv:87.0) Gecko/20100101 Firefox/87.0,,Firefox,87,Windows,10
24,1,null,"""",html-keyboard-response,243,539263,0.0-243.0,"""","<div style=""font-size:60px;"">+</div>","""",256,fixationBtwnNeutralMaskAndPrompt,Test,null,1000,"""","""","""","""","""","""","""","""",1,4/19/2021 2:38,68.112.112.176,Mozilla/5.0 (Windows NT 10.0; Win64; x64; rv:87.0) Gecko/20100101 Firefox/87.0,,Firefox,87,Windows,10
24,1,2528,"""",html-button-response,244,541794,0.0-244.0,"""","<img src='jspsych/CFDfaces/CFD-AF-200-228-N.jpg' height=""250px"">,</br><b>Kayla</b>",1,256,IntactOrRearranged,Test,"""","""","""","""",CFD-AF-215-70-N.jpg,Sara,0,1,"""","""",1,4/19/2021 2:38,68.112.112.176,Mozilla/5.0 (Windows NT 10.0; Win64; x64; rv:87.0) Gecko/20100101 Firefox/87.0,,Firefox,87,Windows,10
24,1,1735,"""",html-slider-response,245,543532,0.0-245.0,"""","<img src='jspsych/CFDfaces/CFD-AF-200-228-N.jpg' height=""250px"">,</br><b>Kayla</b>","""",256,ConfidenceQuery,Test,"""","""","""","""",CFD-AF-215-70-N.jpg,Sara,0,"""",0,14,1,4/19/2021 2:38,68.112.112.176,Mozilla/5.0 (Windows NT 10.0; Win64; x64; rv:87.0) Gecko/20100101 Firefox/87.0,,Firefox,87,Windows,10
24,1,null,"""",html-keyboard-response,246,544562,0.0-246.0,"""","<div style=""font-size:60px;"">+</div>","""",256,ITI,Test,null,1000,"""","""","""","""","""","""","""","""",1,4/19/2021 2:38,68.112.112.176,Mozilla/5.0 (Windows NT 10.0; Win64; x64; rv:87.0) Gecko/20100101 Firefox/87.0,,Firefox,87,Windows,10
24,1,null,"""",image-keyboard-response,247,544828,0.0-247.0,"""",jspsych/scrambledDisgustFaces/scrambledAM08DIS.JPG,"""",256,forwardMask,Test,null,250,"""",d,"""","""","""","""","""","""",1,4/19/2021 2:38,68.112.112.176,Mozilla/5.0 (Windows NT 10.0; Win64; x64; rv:87.0) Gecko/20100101 Firefox/87.0,,Firefox,87,Windows,10
24,1,null,"""",image-keyboard-response,248,544861,0.0-248.0,"""",jspsych/disgustFaces/AM08DIS.JPG,"""",256,Cue,Test,null,16,"""","""","""","""","""","""","""","""",1,4/19/2021 2:38,68.112.112.176,Mozilla/5.0 (Windows NT 10.0; Win64; x64; rv:87.0) Gecko/20100101 Firefox/87.0,,Firefox,87,Windows,10
24,1,null,"""",image-keyboard-response,249,544976,0.0-249.0,"""",jspsych/neutralFaces/BM09NES.JPG,"""",256,backwardMask,Test,null,100,"""","""","""","""","""","""","""","""",1,4/19/2021 2:38,68.112.112.176,Mozilla/5.0 (Windows NT 10.0; Win64; x64; rv:87.0) Gecko/20100101 Firefox/87.0,,Firefox,87,Windows,10
24,1,null,"""",html-keyboard-response,250,545994,0.0-250.0,"""","<div style=""font-size:60px;"">+</div>","""",256,fixationBtwnNeutralMaskAndPrompt,Test,null,1000,"""","""","""","""","""","""","""","""",1,4/19/2021 2:38,68.112.112.176,Mozilla/5.0 (Windows NT 10.0; Win64; x64; rv:87.0) Gecko/20100101 Firefox/87.0,,Firefox,87,Windows,10
24,1,1866,"""",html-button-response,251,547863,0.0-251.0,"""","<img src='jspsych/CFDfaces/CFD-BM-017-021-N.jpg' height=""250px"">,</br><b>Robert</b>",0,256,IntactOrRearranged,Test,"""","""","""","""",CFD-BF-039-031-N.jpg,Jasmine,0,0,"""","""",1,4/19/2021 2:38,68.112.112.176,Mozilla/5.0 (Windows NT 10.0; Win64; x64; rv:87.0) Gecko/20100101 Firefox/87.0,,Firefox,87,Windows,10
24,1,2413,"""",html-slider-response,252,550282,0.0-252.0,"""","<img src='jspsych/CFDfaces/CFD-BM-017-021-N.jpg' height=""250px"">,</br><b>Robert</b>","""",256,ConfidenceQuery,Test,"""","""","""","""",CFD-BF-039-031-N.jpg,Jasmine,0,"""",0,82,1,4/19/2021 2:38,68.112.112.176,Mozilla/5.0 (Windows NT 10.0; Win64; x64; rv:87.0) Gecko/20100101 Firefox/87.0,,Firefox,87,Windows,10
24,1,null,"""",html-keyboard-response,253,551300,0.0-253.0,"""","<div style=""font-size:60px;"">+</div>","""",256,ITI,Test,null,1000,"""","""","""","""","""","""","""","""",1,4/19/2021 2:38,68.112.112.176,Mozilla/5.0 (Windows NT 10.0; Win64; x64; rv:87.0) Gecko/20100101 Firefox/87.0,,Firefox,87,Windows,10
24,1,null,"""",image-keyboard-response,254,551554,0.0-254.0,"""",jspsych/scrambledDisgustFaces/scrambledBM07DIS.JPG,"""",256,forwardMask,Test,null,250,"""",d,"""","""","""","""","""","""",1,4/19/2021 2:38,68.112.112.176,Mozilla/5.0 (Windows NT 10.0; Win64; x64; rv:87.0) Gecko/20100101 Firefox/87.0,,Firefox,87,Windows,10
24,1,null,"""",image-keyboard-response,255,551583,0.0-255.0,"""",jspsych/disgustFaces/BM08DIS.JPG,"""",256,Cue,Test,null,16,"""","""","""","""","""","""","""","""",1,4/19/2021 2:38,68.112.112.176,Mozilla/5.0 (Windows NT 10.0; Win64; x64; rv:87.0) Gecko/20100101 Firefox/87.0,,Firefox,87,Windows,10
24,1,null,"""",image-keyboard-response,256,551694,0.0-256.0,"""",jspsych/neutralFaces/AM14NES.JPG,"""",256,backwardMask,Test,null,100,"""","""","""","""","""","""","""","""",1,4/19/2021 2:38,68.112.112.176,Mozilla/5.0 (Windows NT 10.0; Win64; x64; rv:87.0) Gecko/20100101 Firefox/87.0,,Firefox,87,Windows,10
24,1,null,"""",html-keyboard-response,257,552703,0.0-257.0,"""","<div style=""font-size:60px;"">+</div>","""",256,fixationBtwnNeutralMaskAndPrompt,Test,null,1000,"""","""","""","""","""","""","""","""",1,4/19/2021 2:38,68.112.112.176,Mozilla/5.0 (Windows NT 10.0; Win64; x64; rv:87.0) Gecko/20100101 Firefox/87.0,,Firefox,87,Windows,10
24,1,2184,"""",html-button-response,258,554889,0.0-258.0,"""","<img src='jspsych/CFDfaces/CFD-BF-016-017-N.jpg' height=""250px"">,</br><b>Samantha</b>",0,256,IntactOrRearranged,Test,"""","""","""","""",CFD-AF-220-107-N.jpg,Angela,0,0,"""","""",1,4/19/2021 2:38,68.112.112.176,Mozilla/5.0 (Windows NT 10.0; Win64; x64; rv:87.0) Gecko/20100101 Firefox/87.0,,Firefox,87,Windows,10
24,1,1615,"""",html-slider-response,259,556507,0.0-259.0,"""","<img src='jspsych/CFDfaces/CFD-BF-016-017-N.jpg' height=""250px"">,</br><b>Samantha</b>","""",256,ConfidenceQuery,Test,"""","""","""","""",CFD-AF-220-107-N.jpg,Angela,0,"""",0,30,1,4/19/2021 2:38,68.112.112.176,Mozilla/5.0 (Windows NT 10.0; Win64; x64; rv:87.0) Gecko/20100101 Firefox/87.0,,Firefox,87,Windows,10
24,1,null,"""",html-keyboard-response,260,557511,0.0-260.0,"""","<div style=""font-size:60px;"">+</div>","""",256,ITI,Test,null,1000,"""","""","""","""","""","""","""","""",1,4/19/2021 2:38,68.112.112.176,Mozilla/5.0 (Windows NT 10.0; Win64; x64; rv:87.0) Gecko/20100101 Firefox/87.0,,Firefox,87,Windows,10
24,1,null,"""",image-keyboard-response,261,557783,0.0-261.0,"""",jspsych/scrambledNeutralFaces/scrambledBF13NES.JPG,"""",256,forwardMask,Test,null,250,"""",n,"""","""","""","""","""","""",1,4/19/2021 2:38,68.112.112.176,Mozilla/5.0 (Windows NT 10.0; Win64; x64; rv:87.0) Gecko/20100101 Firefox/87.0,,Firefox,87,Windows,10
24,1,null,"""",image-keyboard-response,262,557814,0.0-262.0,"""",jspsych/neutralFaces/BF13NES.JPG,"""",256,Cue,Test,null,16,"""","""","""","""","""","""","""","""",1,4/19/2021 2:38,68.112.112.176,Mozilla/5.0 (Windows NT 10.0; Win64; x64; rv:87.0) Gecko/20100101 Firefox/87.0,,Firefox,87,Windows,10
24,1,null,"""",image-keyboard-response,263,557922,0.0-263.0,"""",jspsych/neutralFaces/BF23NES.JPG,"""",256,backwardMask,Test,null,100,"""","""","""","""","""","""","""","""",1,4/19/2021 2:38,68.112.112.176,Mozilla/5.0 (Windows NT 10.0; Win64; x64; rv:87.0) Gecko/20100101 Firefox/87.0,,Firefox,87,Windows,10
24,1,null,"""",html-keyboard-response,264,558935,0.0-264.0,"""","<div style=""font-size:60px;"">+</div>","""",256,fixationBtwnNeutralMaskAndPrompt,Test,null,1000,"""","""","""","""","""","""","""","""",1,4/19/2021 2:38,68.112.112.176,Mozilla/5.0 (Windows NT 10.0; Win64; x64; rv:87.0) Gecko/20100101 Firefox/87.0,,Firefox,87,Windows,10
24,1,2336,"""",html-button-response,265,561272,0.0-265.0,"""","<img src='jspsych/CFDfaces/CFD-LM-233-171-N.jpg' height=""250px"">,</br><b>Brian</b>",0,256,IntactOrRearranged,Test,"""","""","""","""",CFD-WM-009-002-N.jpg,Vincent,0,0,"""","""",1,4/19/2021 2:38,68.112.112.176,Mozilla/5.0 (Windows NT 10.0; Win64; x64; rv:87.0) Gecko/20100101 Firefox/87.0,,Firefox,87,Windows,10
24,1,1725,"""",html-slider-response,266,563003,0.0-266.0,"""","<img src='jspsych/CFDfaces/CFD-LM-233-171-N.jpg' height=""250px"">,</br><b>Brian</b>","""",256,ConfidenceQuery,Test,"""","""","""","""",CFD-WM-009-002-N.jpg,Vincent,0,"""",0,73,1,4/19/2021 2:38,68.112.112.176,Mozilla/5.0 (Windows NT 10.0; Win64; x64; rv:87.0) Gecko/20100101 Firefox/87.0,,Firefox,87,Windows,10
24,1,null,"""",html-keyboard-response,267,564015,0.0-267.0,"""","<div style=""font-size:60px;"">+</div>","""",256,ITI,Test,null,1000,"""","""","""","""","""","""","""","""",1,4/19/2021 2:38,68.112.112.176,Mozilla/5.0 (Windows NT 10.0; Win64; x64; rv:87.0) Gecko/20100101 Firefox/87.0,,Firefox,87,Windows,10
24,1,null,"""",image-keyboard-response,268,564289,0.0-268.0,"""",jspsych/scrambledNeutralFaces/scrambledBM09NES.JPG,"""",256,forwardMask,Test,null,250,"""",n,"""","""","""","""","""","""",1,4/19/2021 2:38,68.112.112.176,Mozilla/5.0 (Windows NT 10.0; Win64; x64; rv:87.0) Gecko/20100101 Firefox/87.0,,Firefox,87,Windows,10
24,1,null,"""",image-keyboard-response,269,564325,0.0-269.0,"""",jspsych/neutralFaces/BM09NES.JPG,"""",256,Cue,Test,null,16,"""","""","""","""","""","""","""","""",1,4/19/2021 2:38,68.112.112.176,Mozilla/5.0 (Windows NT 10.0; Win64; x64; rv:87.0) Gecko/20100101 Firefox/87.0,,Firefox,87,Windows,10
24,1,null,"""",image-keyboard-response,270,564439,0.0-270.0,"""",jspsych/neutralFaces/BM01NES.JPG,"""",256,backwardMask,Test,null,100,"""","""","""","""","""","""","""","""",1,4/19/2021 2:38,68.112.112.176,Mozilla/5.0 (Windows NT 10.0; Win64; x64; rv:87.0) Gecko/20100101 Firefox/87.0,,Firefox,87,Windows,10
24,1,null,"""",html-keyboard-response,271,565444,0.0-271.0,"""","<div style=""font-size:60px;"">+</div>","""",256,fixationBtwnNeutralMaskAndPrompt,Test,null,1000,"""","""","""","""","""","""","""","""",1,4/19/2021 2:38,68.112.112.176,Mozilla/5.0 (Windows NT 10.0; Win64; x64; rv:87.0) Gecko/20100101 Firefox/87.0,,Firefox,87,Windows,10
24,1,2293,"""",html-button-response,272,567739,0.0-272.0,"""","<img src='jspsych/CFDfaces/CFD-WM-212-097-N.jpg' height=""250px"">,</br><b>Joshua</b>",1,256,IntactOrRearranged,Test,"""","""","""","""",CFD-LF-204-133-N.jpg,Heather,1,1,"""","""",1,4/19/2021 2:38,68.112.112.176,Mozilla/5.0 (Windows NT 10.0; Win64; x64; rv:87.0) Gecko/20100101 Firefox/87.0,,Firefox,87,Windows,10
24,1,2746,"""",html-slider-response,273,570489,0.0-273.0,"""","<img src='jspsych/CFDfaces/CFD-WM-212-097-N.jpg' height=""250px"">,</br><b>Joshua</b>","""",256,ConfidenceQuery,Test,"""","""","""","""",CFD-LF-204-133-N.jpg,Heather,1,"""",0,46,1,4/19/2021 2:38,68.112.112.176,Mozilla/5.0 (Windows NT 10.0; Win64; x64; rv:87.0) Gecko/20100101 Firefox/87.0,,Firefox,87,Windows,10
24,1,null,"""",html-keyboard-response,274,571504,0.0-274.0,"""","<div style=""font-size:60px;"">+</div>","""",256,ITI,Test,null,1000,"""","""","""","""","""","""","""","""",1,4/19/2021 2:38,68.112.112.176,Mozilla/5.0 (Windows NT 10.0; Win64; x64; rv:87.0) Gecko/20100101 Firefox/87.0,,Firefox,87,Windows,10
24,1,null,"""",image-keyboard-response,275,571774,0.0-275.0,"""",jspsych/scrambledDisgustFaces/scrambledAF29DIS.JPG,"""",256,forwardMask,Test,null,250,"""",d,"""","""","""","""","""","""",1,4/19/2021 2:38,68.112.112.176,Mozilla/5.0 (Windows NT 10.0; Win64; x64; rv:87.0) Gecko/20100101 Firefox/87.0,,Firefox,87,Windows,10
24,1,null,"""",image-keyboard-response,276,571806,0.0-276.0,"""",jspsych/disgustFaces/AF29DIS.JPG,"""",256,Cue,Test,null,16,"""","""","""","""","""","""","""","""",1,4/19/2021 2:38,68.112.112.176,Mozilla/5.0 (Windows NT 10.0; Win64; x64; rv:87.0) Gecko/20100101 Firefox/87.0,,Firefox,87,Windows,10
24,1,null,"""",image-keyboard-response,277,571918,0.0-277.0,"""",jspsych/neutralFaces/AF33NES.JPG,"""",256,backwardMask,Test,null,100,"""","""","""","""","""","""","""","""",1,4/19/2021 2:38,68.112.112.176,Mozilla/5.0 (Windows NT 10.0; Win64; x64; rv:87.0) Gecko/20100101 Firefox/87.0,,Firefox,87,Windows,10
24,1,null,"""",html-keyboard-response,278,572923,0.0-278.0,"""","<div style=""font-size:60px;"">+</div>","""",256,fixationBtwnNeutralMaskAndPrompt,Test,null,1000,"""","""","""","""","""","""","""","""",1,4/19/2021 2:38,68.112.112.176,Mozilla/5.0 (Windows NT 10.0; Win64; x64; rv:87.0) Gecko/20100101 Firefox/87.0,,Firefox,87,Windows,10
24,1,2234,"""",html-button-response,279,575159,0.0-279.0,"""","<img src='jspsych/CFDfaces/CFD-AF-222-134-N.jpg' height=""250px"">,</br><b>Amanda</b>",1,256,IntactOrRearranged,Test,"""","""","""","""",CFD-WF-220-101-N.jpg,Lindsey,1,1,"""","""",1,4/19/2021 2:38,68.112.112.176,Mozilla/5.0 (Windows NT 10.0; Win64; x64; rv:87.0) Gecko/20100101 Firefox/87.0,,Firefox,87,Windows,10
24,1,1456,"""",html-slider-response,280,576620,0.0-280.0,"""","<img src='jspsych/CFDfaces/CFD-AF-222-134-N.jpg' height=""250px"">,</br><b>Amanda</b>","""",256,ConfidenceQuery,Test,"""","""","""","""",CFD-WF-220-101-N.jpg,Lindsey,1,"""",0,35,1,4/19/2021 2:38,68.112.112.176,Mozilla/5.0 (Windows NT 10.0; Win64; x64; rv:87.0) Gecko/20100101 Firefox/87.0,,Firefox,87,Windows,10
24,1,null,"""",html-keyboard-response,281,577645,0.0-281.0,"""","<div style=""font-size:60px;"">+</div>","""",256,ITI,Test,null,1000,"""","""","""","""","""","""","""","""",1,4/19/2021 2:38,68.112.112.176,Mozilla/5.0 (Windows NT 10.0; Win64; x64; rv:87.0) Gecko/20100101 Firefox/87.0,,Firefox,87,Windows,10
24,1,null,"""",image-keyboard-response,282,577905,0.0-282.0,"""",jspsych/scrambledDisgustFaces/scrambledAM11DIS.JPG,"""",256,forwardMask,Test,null,250,"""",d,"""","""","""","""","""","""",1,4/19/2021 2:38,68.112.112.176,Mozilla/5.0 (Windows NT 10.0; Win64; x64; rv:87.0) Gecko/20100101 Firefox/87.0,,Firefox,87,Windows,10
24,1,null,"""",image-keyboard-response,283,577941,0.0-283.0,"""",jspsych/disgustFaces/AM11DIS.JPG,"""",256,Cue,Test,null,16,"""","""","""","""","""","""","""","""",1,4/19/2021 2:38,68.112.112.176,Mozilla/5.0 (Windows NT 10.0; Win64; x64; rv:87.0) Gecko/20100101 Firefox/87.0,,Firefox,87,Windows,10
24,1,null,"""",image-keyboard-response,284,578055,0.0-284.0,"""",jspsych/neutralFaces/AM04NES.JPG,"""",256,backwardMask,Test,null,100,"""","""","""","""","""","""","""","""",1,4/19/2021 2:38,68.112.112.176,Mozilla/5.0 (Windows NT 10.0; Win64; x64; rv:87.0) Gecko/20100101 Firefox/87.0,,Firefox,87,Windows,10
24,1,null,"""",html-keyboard-response,285,579074,0.0-285.0,"""","<div style=""font-size:60px;"">+</div>","""",256,fixationBtwnNeutralMaskAndPrompt,Test,null,1000,"""","""","""","""","""","""","""","""",1,4/19/2021 2:38,68.112.112.176,Mozilla/5.0 (Windows NT 10.0; Win64; x64; rv:87.0) Gecko/20100101 Firefox/87.0,,Firefox,87,Windows,10
24,1,2205,"""",html-button-response,286,581281,0.0-286.0,"""","<img src='jspsych/CFDfaces/CFD-BF-212-315-N.jpg' height=""250px"">,</br><b>Ashley</b>",1,256,IntactOrRearranged,Test,"""","""","""","""",CFD-WF-207-014-N.jpg,Amy,1,1,"""","""",1,4/19/2021 2:38,68.112.112.176,Mozilla/5.0 (Windows NT 10.0; Win64; x64; rv:87.0) Gecko/20100101 Firefox/87.0,,Firefox,87,Windows,10
24,1,1467,"""",html-slider-response,287,582752,0.0-287.0,"""","<img src='jspsych/CFDfaces/CFD-BF-212-315-N.jpg' height=""250px"">,</br><b>Ashley</b>","""",256,ConfidenceQuery,Test,"""","""","""","""",CFD-WF-207-014-N.jpg,Amy,1,"""",0,61,1,4/19/2021 2:38,68.112.112.176,Mozilla/5.0 (Windows NT 10.0; Win64; x64; rv:87.0) Gecko/20100101 Firefox/87.0,,Firefox,87,Windows,10
24,1,null,"""",html-keyboard-response,288,583754,0.0-288.0,"""","<div style=""font-size:60px;"">+</div>","""",256,ITI,Test,null,1000,"""","""","""","""","""","""","""","""",1,4/19/2021 2:38,68.112.112.176,Mozilla/5.0 (Windows NT 10.0; Win64; x64; rv:87.0) Gecko/20100101 Firefox/87.0,,Firefox,87,Windows,10
24,1,null,"""",image-keyboard-response,289,584024,0.0-289.0,"""",jspsych/scrambledDisgustFaces/scrambledBF03DIS.JPG,"""",256,forwardMask,Test,null,250,"""",d,"""","""","""","""","""","""",1,4/19/2021 2:38,68.112.112.176,Mozilla/5.0 (Windows NT 10.0; Win64; x64; rv:87.0) Gecko/20100101 Firefox/87.0,,Firefox,87,Windows,10
24,1,null,"""",image-keyboard-response,290,584055,0.0-290.0,"""",jspsych/disgustFaces/BF03DIS.JPG,"""",256,Cue,Test,null,16,"""","""","""","""","""","""","""","""",1,4/19/2021 2:38,68.112.112.176,Mozilla/5.0 (Windows NT 10.0; Win64; x64; rv:87.0) Gecko/20100101 Firefox/87.0,,Firefox,87,Windows,10
24,1,null,"""",image-keyboard-response,291,584168,0.0-291.0,"""",jspsych/neutralFaces/BF01NES.JPG,"""",256,backwardMask,Test,null,100,"""","""","""","""","""","""","""","""",1,4/19/2021 2:38,68.112.112.176,Mozilla/5.0 (Windows NT 10.0; Win64; x64; rv:87.0) Gecko/20100101 Firefox/87.0,,Firefox,87,Windows,10
24,1,null,"""",html-keyboard-response,292,585179,0.0-292.0,"""","<div style=""font-size:60px;"">+</div>","""",256,fixationBtwnNeutralMaskAndPrompt,Test,null,1000,"""","""","""","""","""","""","""","""",1,4/19/2021 2:38,68.112.112.176,Mozilla/5.0 (Windows NT 10.0; Win64; x64; rv:87.0) Gecko/20100101 Firefox/87.0,,Firefox,87,Windows,10
24,1,2678,"""",html-button-response,293,587859,0.0-293.0,"""","<img src='jspsych/CFDfaces/CFD-BM-041-035-N.jpg' height=""250px"">,</br><b>Eric</b>",1,256,IntactOrRearranged,Test,"""","""","""","""",CFD-BM-032-024-N.jpg,Steven,1,1,"""","""",1,4/19/2021 2:38,68.112.112.176,Mozilla/5.0 (Windows NT 10.0; Win64; x64; rv:87.0) Gecko/20100101 Firefox/87.0,,Firefox,87,Windows,10
24,1,1887,"""",html-slider-response,294,589754,0.0-294.0,"""","<img src='jspsych/CFDfaces/CFD-BM-041-035-N.jpg' height=""250px"">,</br><b>Eric</b>","""",256,ConfidenceQuery,Test,"""","""","""","""",CFD-BM-032-024-N.jpg,Steven,1,"""",0,17,1,4/19/2021 2:38,68.112.112.176,Mozilla/5.0 (Windows NT 10.0; Win64; x64; rv:87.0) Gecko/20100101 Firefox/87.0,,Firefox,87,Windows,10
24,1,null,"""",html-keyboard-response,295,590775,0.0-295.0,"""","<div style=""font-size:60px;"">+</div>","""",256,ITI,Test,null,1000,"""","""","""","""","""","""","""","""",1,4/19/2021 2:38,68.112.112.176,Mozilla/5.0 (Windows NT 10.0; Win64; x64; rv:87.0) Gecko/20100101 Firefox/87.0,,Firefox,87,Windows,10
24,1,null,"""",image-keyboard-response,296,591066,0.0-296.0,"""",jspsych/scrambledNeutralFaces/scrambledBF26NES.JPG,"""",256,forwardMask,Test,null,250,"""",n,"""","""","""","""","""","""",1,4/19/2021 2:38,68.112.112.176,Mozilla/5.0 (Windows NT 10.0; Win64; x64; rv:87.0) Gecko/20100101 Firefox/87.0,,Firefox,87,Windows,10
