run_id,condition,rt,responses,trial_type,trial_index,time_elapsed,internal_node_id,question_order,stimulus,button_pressed,iTrial,Phase,ExperimentPhase,key_press,StimulusDurationSetting,CharacterResponse,correctResponse,Face,Name,rearranged,slider_start,response,didSubjectEnterRearranged,Block,recorded_at,ip,user_agent,device,browser,browser_version,platform,platform_version
37,1,9385.49,"{""Q0"":""A2X3O8OGDVDPD6""}",survey-text,0,9390,0.0-0.0,"""","""","""","""","""","""","""","""","""","""","""","""","""","""","""","""","""",4/20/2021 0:07,68.168.191.42,Mozilla/5.0 (Macintosh; Intel Mac OS X 10.6; rv:48.0) Gecko/20100101 Firefox/48.0,Macintosh,Firefox,48,OS X,10.6
37,1,3751.535,"{""Q0"":""42""}",survey-text,1,13156,0.0-1.0,"""","""","""","""","""","""","""","""","""","""","""","""","""","""","""","""","""",4/20/2021 0:07,68.168.191.42,Mozilla/5.0 (Macintosh; Intel Mac OS X 10.6; rv:48.0) Gecko/20100101 Firefox/48.0,Macintosh,Firefox,48,OS X,10.6
37,1,5878.14,"{""Q0"":""male"",""Q1"":""Not Hispanic/Latino"",""Q2"":""White or Caucasian""}",survey-multi-choice,2,19041,0.0-2.0,"[0,1,2]","""","""","""","""","""","""","""","""","""","""","""","""","""","""","""","""",4/20/2021 0:07,68.168.191.42,Mozilla/5.0 (Macintosh; Intel Mac OS X 10.6; rv:48.0) Gecko/20100101 Firefox/48.0,Macintosh,Firefox,48,OS X,10.6
37,1,36933.32,"""",image-button-response,3,55994,0.0-3.0,"""",directionsMemoryAssociation1.JPG,0,1,IntroDirections1,break,"""","""","""","""","""","""","""","""","""","""","""",4/20/2021 0:07,68.168.191.42,Mozilla/5.0 (Macintosh; Intel Mac OS X 10.6; rv:48.0) Gecko/20100101 Firefox/48.0,Macintosh,Firefox,48,OS X,10.6
37,1,66392.76,"""",image-button-response,4,122403,0.0-4.0,"""",directionsMemoryAssociation2.JPG,0,1,IntroDirections2,break,"""","""","""","""","""","""","""","""","""","""","""",4/20/2021 0:07,68.168.191.42,Mozilla/5.0 (Macintosh; Intel Mac OS X 10.6; rv:48.0) Gecko/20100101 Firefox/48.0,Macintosh,Firefox,48,OS X,10.6
37,1,null,"""",html-keyboard-response,5,127418,0.0-5.0,"""","<img src='jspsych/CFDfaces/CFD-BF-021-013-N.jpg' height=""250px"">,</br><b>Katelyn</b>","""",1,IntactFace,Practice,null,5000,"""","""","""","""","""","""","""","""","""",4/20/2021 0:07,68.168.191.42,Mozilla/5.0 (Macintosh; Intel Mac OS X 10.6; rv:48.0) Gecko/20100101 Firefox/48.0,Macintosh,Firefox,48,OS X,10.6
37,1,null,"""",html-keyboard-response,6,127925,0.0-6.0,"""","<div style=""font-size:60px;"">+</div>","""",1,ITI,Practice,null,1000,"""","""","""","""","""","""","""","""","""",4/20/2021 0:07,68.168.191.42,Mozilla/5.0 (Macintosh; Intel Mac OS X 10.6; rv:48.0) Gecko/20100101 Firefox/48.0,Macintosh,Firefox,48,OS X,10.6
37,1,3270.66,"""",html-keyboard-response,7,132934,0.0-7.0,"""","<img src='jspsych/CFDfaces/CFD-LM-220-329-N.jpg' height=""250px"">,</br><b>Samuel</b>","""",2,IntactFace,Practice,78,5000,n,"""","""","""","""","""","""","""","""",4/20/2021 0:07,68.168.191.42,Mozilla/5.0 (Macintosh; Intel Mac OS X 10.6; rv:48.0) Gecko/20100101 Firefox/48.0,Macintosh,Firefox,48,OS X,10.6
37,1,null,"""",html-keyboard-response,8,133437,0.0-8.0,"""","<div style=""font-size:60px;"">+</div>","""",2,ITI,Practice,null,1000,"""","""","""","""","""","""","""","""","""",4/20/2021 0:07,68.168.191.42,Mozilla/5.0 (Macintosh; Intel Mac OS X 10.6; rv:48.0) Gecko/20100101 Firefox/48.0,Macintosh,Firefox,48,OS X,10.6
37,1,2558.685,"""",html-keyboard-response,9,138446,0.0-9.0,"""","<img src='jspsych/CFDfaces/CFD-LF-218-072-N.jpg' height=""250px"">,</br><b>Cassandra</b>","""",3,IntactFace,Practice,70,5000,f,"""","""","""","""","""","""","""","""",4/20/2021 0:07,68.168.191.42,Mozilla/5.0 (Macintosh; Intel Mac OS X 10.6; rv:48.0) Gecko/20100101 Firefox/48.0,Macintosh,Firefox,48,OS X,10.6
37,1,null,"""",html-keyboard-response,10,138951,0.0-10.0,"""","<div style=""font-size:60px;"">+</div>","""",3,ITI,Practice,null,1000,"""","""","""","""","""","""","""","""","""",4/20/2021 0:07,68.168.191.42,Mozilla/5.0 (Macintosh; Intel Mac OS X 10.6; rv:48.0) Gecko/20100101 Firefox/48.0,Macintosh,Firefox,48,OS X,10.6
37,1,2549.89,"""",html-keyboard-response,11,143959,0.0-11.0,"""","<img src='jspsych/CFDfaces/CFD-WF-018-017-N.jpg' height=""250px"">,</br><b>Shannon</b>","""",4,IntactFace,Practice,70,5000,f,"""","""","""","""","""","""","""","""",4/20/2021 0:07,68.168.191.42,Mozilla/5.0 (Macintosh; Intel Mac OS X 10.6; rv:48.0) Gecko/20100101 Firefox/48.0,Macintosh,Firefox,48,OS X,10.6
37,1,null,"""",html-keyboard-response,12,144464,0.0-12.0,"""","<div style=""font-size:60px;"">+</div>","""",4,ITI,Practice,null,1000,"""","""","""","""","""","""","""","""","""",4/20/2021 0:07,68.168.191.42,Mozilla/5.0 (Macintosh; Intel Mac OS X 10.6; rv:48.0) Gecko/20100101 Firefox/48.0,Macintosh,Firefox,48,OS X,10.6
37,1,2724.49,"""",html-keyboard-response,13,149472,0.0-13.0,"""","<img src='jspsych/CFDfaces/CFD-WM-237-052-N.jpg' height=""250px"">,</br><b>Marcus</b>","""",5,IntactFace,Practice,78,5000,n,"""","""","""","""","""","""","""","""",4/20/2021 0:07,68.168.191.42,Mozilla/5.0 (Macintosh; Intel Mac OS X 10.6; rv:48.0) Gecko/20100101 Firefox/48.0,Macintosh,Firefox,48,OS X,10.6
37,1,null,"""",html-keyboard-response,14,149977,0.0-14.0,"""","<div style=""font-size:60px;"">+</div>","""",5,ITI,Practice,null,1000,"""","""","""","""","""","""","""","""","""",4/20/2021 0:07,68.168.191.42,Mozilla/5.0 (Macintosh; Intel Mac OS X 10.6; rv:48.0) Gecko/20100101 Firefox/48.0,Macintosh,Firefox,48,OS X,10.6
37,1,1989.025,"""",html-keyboard-response,15,154984,0.0-15.0,"""","<img src='jspsych/CFDfaces/CFD-LF-230-203-N.jpg' height=""250px"">,</br><b>Tara</b>","""",6,IntactFace,Practice,70,5000,f,"""","""","""","""","""","""","""","""",4/20/2021 0:07,68.168.191.42,Mozilla/5.0 (Macintosh; Intel Mac OS X 10.6; rv:48.0) Gecko/20100101 Firefox/48.0,Macintosh,Firefox,48,OS X,10.6
37,1,null,"""",html-keyboard-response,16,155494,0.0-16.0,"""","<div style=""font-size:60px;"">+</div>","""",6,ITI,Practice,null,1000,"""","""","""","""","""","""","""","""","""",4/20/2021 0:07,68.168.191.42,Mozilla/5.0 (Macintosh; Intel Mac OS X 10.6; rv:48.0) Gecko/20100101 Firefox/48.0,Macintosh,Firefox,48,OS X,10.6
37,1,1753.575,"""",html-keyboard-response,17,160499,0.0-17.0,"""","<img src='jspsych/CFDfaces/CFD-LM-201-057-N.jpg' height=""250px"">,</br><b>Patrick</b>","""",7,IntactFace,Practice,70,5000,f,"""","""","""","""","""","""","""","""",4/20/2021 0:07,68.168.191.42,Mozilla/5.0 (Macintosh; Intel Mac OS X 10.6; rv:48.0) Gecko/20100101 Firefox/48.0,Macintosh,Firefox,48,OS X,10.6
37,1,null,"""",html-keyboard-response,18,161003,0.0-18.0,"""","<div style=""font-size:60px;"">+</div>","""",7,ITI,Practice,null,1000,"""","""","""","""","""","""","""","""","""",4/20/2021 0:07,68.168.191.42,Mozilla/5.0 (Macintosh; Intel Mac OS X 10.6; rv:48.0) Gecko/20100101 Firefox/48.0,Macintosh,Firefox,48,OS X,10.6
37,1,2058.415,"""",html-keyboard-response,19,166010,0.0-19.0,"""","<img src='jspsych/CFDfaces/CFD-LM-221-216-N.jpg' height=""250px"">,</br><b>Carlos</b>","""",8,IntactFace,Practice,70,5000,f,"""","""","""","""","""","""","""","""",4/20/2021 0:07,68.168.191.42,Mozilla/5.0 (Macintosh; Intel Mac OS X 10.6; rv:48.0) Gecko/20100101 Firefox/48.0,Macintosh,Firefox,48,OS X,10.6
37,1,null,"""",html-keyboard-response,20,166514,0.0-20.0,"""","<div style=""font-size:60px;"">+</div>","""",8,ITI,Practice,null,1000,"""","""","""","""","""","""","""","""","""",4/20/2021 0:07,68.168.191.42,Mozilla/5.0 (Macintosh; Intel Mac OS X 10.6; rv:48.0) Gecko/20100101 Firefox/48.0,Macintosh,Firefox,48,OS X,10.6
37,1,38625.335,"""",image-button-response,21,205157,0.0-21.0,"""",directionsForTest.JPG,0,1,directionsForTest,break,"""","""","""","""","""","""","""","""","""","""","""",4/20/2021 0:07,68.168.191.42,Mozilla/5.0 (Macintosh; Intel Mac OS X 10.6; rv:48.0) Gecko/20100101 Firefox/48.0,Macintosh,Firefox,48,OS X,10.6
37,1,48171.43,"""",image-button-response,22,253343,0.0-22.0,"""",directionsForTest2.JPG,0,1,directionsForTest2,break,"""","""","""","""","""","""","""","""","""","""","""",4/20/2021 0:07,68.168.191.42,Mozilla/5.0 (Macintosh; Intel Mac OS X 10.6; rv:48.0) Gecko/20100101 Firefox/48.0,Macintosh,Firefox,48,OS X,10.6
37,1,null,"""",html-keyboard-response,23,254349,0.0-23.0,"""","<div style=""font-size:60px;"">+</div>","""",1,ITI,Practice,null,1000,"""","""","""","""","""","""","""","""","""",4/20/2021 0:07,68.168.191.42,Mozilla/5.0 (Macintosh; Intel Mac OS X 10.6; rv:48.0) Gecko/20100101 Firefox/48.0,Macintosh,Firefox,48,OS X,10.6
37,1,null,"""",image-keyboard-response,24,254607,0.0-24.0,"""",jspsych/scrambledDisgustFaces/scrambledBM11DIS.JPG,"""",1,forwardMask,Practice,null,250,"""",d,"""","""","""","""","""","""","""",4/20/2021 0:07,68.168.191.42,Mozilla/5.0 (Macintosh; Intel Mac OS X 10.6; rv:48.0) Gecko/20100101 Firefox/48.0,Macintosh,Firefox,48,OS X,10.6
37,1,null,"""",image-keyboard-response,25,254629,0.0-25.0,"""",jspsych/disgustFaces/BM12DIS.JPG,"""",1,Cue,Practice,null,16,"""","""","""","""","""","""","""","""","""",4/20/2021 0:07,68.168.191.42,Mozilla/5.0 (Macintosh; Intel Mac OS X 10.6; rv:48.0) Gecko/20100101 Firefox/48.0,Macintosh,Firefox,48,OS X,10.6
37,1,null,"""",image-keyboard-response,26,254733,0.0-26.0,"""",jspsych/neutralFaces/BM16NES.JPG,"""",1,backwardMask,Practice,null,100,"""","""","""","""","""","""","""","""","""",4/20/2021 0:07,68.168.191.42,Mozilla/5.0 (Macintosh; Intel Mac OS X 10.6; rv:48.0) Gecko/20100101 Firefox/48.0,Macintosh,Firefox,48,OS X,10.6
37,1,null,"""",html-keyboard-response,27,255736,0.0-27.0,"""","<div style=""font-size:60px;"">+</div>","""",1,fixationBtwnNeutralMaskAndPrompt,Practice,null,1000,"""","""","""","""","""","""","""","""","""",4/20/2021 0:07,68.168.191.42,Mozilla/5.0 (Macintosh; Intel Mac OS X 10.6; rv:48.0) Gecko/20100101 Firefox/48.0,Macintosh,Firefox,48,OS X,10.6
37,1,null,"""",html-button-response,28,260742,0.0-28.0,"""","<img src='jspsych/CFDfaces/CFD-WF-018-017-N.jpg'height=""250px""></br><b>Shannon</b>",null,1,IntactOrRearranged,Practice,"""","""","""","""",CFD-WF-018-017-N.jpg,Shannon,0,"""","""","""","""",4/20/2021 0:07,68.168.191.42,Mozilla/5.0 (Macintosh; Intel Mac OS X 10.6; rv:48.0) Gecko/20100101 Firefox/48.0,Macintosh,Firefox,48,OS X,10.6
37,1,null,"""",html-slider-response,29,265749,0.0-29.0,"""","<img src='jspsych/CFDfaces/CFD-WF-018-017-N.jpg'height=""250px""></br><b>Shannon</b>","""",1,ConfidenceQuery,Practice,"""","""","""","""",CFD-BM-041-035-N.jpg,Jesse,0,0,null,"""","""",4/20/2021 0:07,68.168.191.42,Mozilla/5.0 (Macintosh; Intel Mac OS X 10.6; rv:48.0) Gecko/20100101 Firefox/48.0,Macintosh,Firefox,48,OS X,10.6
37,1,3750.26,"""",html-button-response,30,269506,0.0-30.0,"""",<p>Please click either button: REARRANGED or INTACT before the 5-second time limit.</p>,0,1,feedback,Practice,"""","""","""","""","""","""","""","""","""","""","""",4/20/2021 0:07,68.168.191.42,Mozilla/5.0 (Macintosh; Intel Mac OS X 10.6; rv:48.0) Gecko/20100101 Firefox/48.0,Macintosh,Firefox,48,OS X,10.6
37,1,null,"""",html-keyboard-response,31,270516,0.0-31.0,"""","<div style=""font-size:60px;"">+</div>","""",2,ITI,Practice,null,1000,"""","""","""","""","""","""","""","""","""",4/20/2021 0:07,68.168.191.42,Mozilla/5.0 (Macintosh; Intel Mac OS X 10.6; rv:48.0) Gecko/20100101 Firefox/48.0,Macintosh,Firefox,48,OS X,10.6
37,1,null,"""",image-keyboard-response,32,270772,0.0-32.0,"""",jspsych/scrambledDisgustFaces/scrambledBM07DIS.JPG,"""",2,forwardMask,Practice,null,250,"""",d,"""","""","""","""","""","""","""",4/20/2021 0:07,68.168.191.42,Mozilla/5.0 (Macintosh; Intel Mac OS X 10.6; rv:48.0) Gecko/20100101 Firefox/48.0,Macintosh,Firefox,48,OS X,10.6
37,1,null,"""",image-keyboard-response,33,270793,0.0-33.0,"""",jspsych/disgustFaces/BM08DIS.JPG,"""",2,Cue,Practice,null,16,"""","""","""","""","""","""","""","""","""",4/20/2021 0:07,68.168.191.42,Mozilla/5.0 (Macintosh; Intel Mac OS X 10.6; rv:48.0) Gecko/20100101 Firefox/48.0,Macintosh,Firefox,48,OS X,10.6
37,1,null,"""",image-keyboard-response,34,270898,0.0-34.0,"""",jspsych/neutralFaces/BM08NES.JPG,"""",2,backwardMask,Practice,null,100,"""","""","""","""","""","""","""","""","""",4/20/2021 0:07,68.168.191.42,Mozilla/5.0 (Macintosh; Intel Mac OS X 10.6; rv:48.0) Gecko/20100101 Firefox/48.0,Macintosh,Firefox,48,OS X,10.6
37,1,null,"""",html-keyboard-response,35,271902,0.0-35.0,"""","<div style=""font-size:60px;"">+</div>","""",2,fixationBtwnNeutralMaskAndPrompt,Practice,null,1000,"""","""","""","""","""","""","""","""","""",4/20/2021 0:07,68.168.191.42,Mozilla/5.0 (Macintosh; Intel Mac OS X 10.6; rv:48.0) Gecko/20100101 Firefox/48.0,Macintosh,Firefox,48,OS X,10.6
37,1,1868.9,"""",html-button-response,36,273773,0.0-36.0,"""","<img src='jspsych/CFDfaces/CFD-LF-218-072-N.jpg'height=""250px""></br><b>Katelyn</b>",1,2,IntactOrRearranged,Practice,"""","""","""","""",CFD-LF-218-072-N.jpg,Katelyn,1,"""","""",1,"""",4/20/2021 0:07,68.168.191.42,Mozilla/5.0 (Macintosh; Intel Mac OS X 10.6; rv:48.0) Gecko/20100101 Firefox/48.0,Macintosh,Firefox,48,OS X,10.6
37,1,4335.06,"""",html-slider-response,37,278111,0.0-37.0,"""","<img src='jspsych/CFDfaces/CFD-LF-218-072-N.jpg'height=""250px""></br><b>Katelyn</b>","""",2,ConfidenceQuery,Practice,"""","""","""","""",CFD-BM-041-035-N.jpg,Jesse,1,0,64,"""","""",4/20/2021 0:07,68.168.191.42,Mozilla/5.0 (Macintosh; Intel Mac OS X 10.6; rv:48.0) Gecko/20100101 Firefox/48.0,Macintosh,Firefox,48,OS X,10.6
37,1,4108.615,"""",html-button-response,38,282224,0.0-38.0,"""",You are Correct. You Called A Rearranged Pair Rearranged,0,2,feedback,Practice,"""","""","""","""","""","""","""","""","""","""","""",4/20/2021 0:07,68.168.191.42,Mozilla/5.0 (Macintosh; Intel Mac OS X 10.6; rv:48.0) Gecko/20100101 Firefox/48.0,Macintosh,Firefox,48,OS X,10.6
37,1,null,"""",html-keyboard-response,39,283227,0.0-39.0,"""","<div style=""font-size:60px;"">+</div>","""",3,ITI,Practice,null,1000,"""","""","""","""","""","""","""","""","""",4/20/2021 0:07,68.168.191.42,Mozilla/5.0 (Macintosh; Intel Mac OS X 10.6; rv:48.0) Gecko/20100101 Firefox/48.0,Macintosh,Firefox,48,OS X,10.6
37,1,null,"""",image-keyboard-response,40,283483,0.0-40.0,"""",jspsych/scrambledDisgustFaces/scrambledBM14DIS.JPG,"""",3,forwardMask,Practice,null,250,"""",d,"""","""","""","""","""","""","""",4/20/2021 0:07,68.168.191.42,Mozilla/5.0 (Macintosh; Intel Mac OS X 10.6; rv:48.0) Gecko/20100101 Firefox/48.0,Macintosh,Firefox,48,OS X,10.6
37,1,null,"""",image-keyboard-response,41,283504,0.0-41.0,"""",jspsych/disgustFaces/BM15DIS.JPG,"""",3,Cue,Practice,null,16,"""","""","""","""","""","""","""","""","""",4/20/2021 0:07,68.168.191.42,Mozilla/5.0 (Macintosh; Intel Mac OS X 10.6; rv:48.0) Gecko/20100101 Firefox/48.0,Macintosh,Firefox,48,OS X,10.6
37,1,null,"""",image-keyboard-response,42,283611,0.0-42.0,"""",jspsych/neutralFaces/BM23NES.JPG,"""",3,backwardMask,Practice,null,100,"""","""","""","""","""","""","""","""","""",4/20/2021 0:07,68.168.191.42,Mozilla/5.0 (Macintosh; Intel Mac OS X 10.6; rv:48.0) Gecko/20100101 Firefox/48.0,Macintosh,Firefox,48,OS X,10.6
37,1,null,"""",html-keyboard-response,43,284615,0.0-43.0,"""","<div style=""font-size:60px;"">+</div>","""",3,fixationBtwnNeutralMaskAndPrompt,Practice,null,1000,"""","""","""","""","""","""","""","""","""",4/20/2021 0:07,68.168.191.42,Mozilla/5.0 (Macintosh; Intel Mac OS X 10.6; rv:48.0) Gecko/20100101 Firefox/48.0,Macintosh,Firefox,48,OS X,10.6
37,1,2245.325,"""",html-button-response,44,286872,0.0-44.0,"""","<img src='jspsych/CFDfaces/CFD-LM-221-216-N.jpg'height=""250px""></br><b>Marcus</b>",1,3,IntactOrRearranged,Practice,"""","""","""","""",CFD-LM-221-216-N.jpg,Marcus,1,"""","""",1,"""",4/20/2021 0:07,68.168.191.42,Mozilla/5.0 (Macintosh; Intel Mac OS X 10.6; rv:48.0) Gecko/20100101 Firefox/48.0,Macintosh,Firefox,48,OS X,10.6
37,1,4265.555,"""",html-slider-response,45,291140,0.0-45.0,"""","<img src='jspsych/CFDfaces/CFD-LM-221-216-N.jpg'height=""250px""></br><b>Marcus</b>","""",3,ConfidenceQuery,Practice,"""","""","""","""",CFD-BM-041-035-N.jpg,Jesse,1,0,18,"""","""",4/20/2021 0:07,68.168.191.42,Mozilla/5.0 (Macintosh; Intel Mac OS X 10.6; rv:48.0) Gecko/20100101 Firefox/48.0,Macintosh,Firefox,48,OS X,10.6
37,1,6432.995,"""",html-button-response,46,297578,0.0-46.0,"""",You are Correct. You Called A Rearranged Pair Rearranged,0,3,feedback,Practice,"""","""","""","""","""","""","""","""","""","""","""",4/20/2021 0:07,68.168.191.42,Mozilla/5.0 (Macintosh; Intel Mac OS X 10.6; rv:48.0) Gecko/20100101 Firefox/48.0,Macintosh,Firefox,48,OS X,10.6
37,1,null,"""",html-keyboard-response,47,298581,0.0-47.0,"""","<div style=""font-size:60px;"">+</div>","""",4,ITI,Practice,null,1000,"""","""","""","""","""","""","""","""","""",4/20/2021 0:07,68.168.191.42,Mozilla/5.0 (Macintosh; Intel Mac OS X 10.6; rv:48.0) Gecko/20100101 Firefox/48.0,Macintosh,Firefox,48,OS X,10.6
37,1,null,"""",image-keyboard-response,48,298840,0.0-48.0,"""",jspsych/scrambledDisgustFaces/scrambledBF23DIS.JPG,"""",4,forwardMask,Practice,null,250,"""",d,"""","""","""","""","""","""","""",4/20/2021 0:07,68.168.191.42,Mozilla/5.0 (Macintosh; Intel Mac OS X 10.6; rv:48.0) Gecko/20100101 Firefox/48.0,Macintosh,Firefox,48,OS X,10.6
37,1,null,"""",image-keyboard-response,49,298862,0.0-49.0,"""",jspsych/disgustFaces/BF23DIS.JPG,"""",4,Cue,Practice,null,16,"""","""","""","""","""","""","""","""","""",4/20/2021 0:07,68.168.191.42,Mozilla/5.0 (Macintosh; Intel Mac OS X 10.6; rv:48.0) Gecko/20100101 Firefox/48.0,Macintosh,Firefox,48,OS X,10.6
37,1,null,"""",image-keyboard-response,50,298969,0.0-50.0,"""",jspsych/neutralFaces/BF27NES.JPG,"""",4,backwardMask,Practice,null,100,"""","""","""","""","""","""","""","""","""",4/20/2021 0:07,68.168.191.42,Mozilla/5.0 (Macintosh; Intel Mac OS X 10.6; rv:48.0) Gecko/20100101 Firefox/48.0,Macintosh,Firefox,48,OS X,10.6
37,1,null,"""",html-keyboard-response,51,299973,0.0-51.0,"""","<div style=""font-size:60px;"">+</div>","""",4,fixationBtwnNeutralMaskAndPrompt,Practice,null,1000,"""","""","""","""","""","""","""","""","""",4/20/2021 0:07,68.168.191.42,Mozilla/5.0 (Macintosh; Intel Mac OS X 10.6; rv:48.0) Gecko/20100101 Firefox/48.0,Macintosh,Firefox,48,OS X,10.6
37,1,2360.845,"""",html-button-response,52,302336,0.0-52.0,"""","<img src='jspsych/CFDfaces/CFD-WM-237-052-N.jpg'height=""250px""></br><b>Carlos</b>",1,4,IntactOrRearranged,Practice,"""","""","""","""",CFD-WM-237-052-N.jpg,Carlos,1,"""","""",1,"""",4/20/2021 0:07,68.168.191.42,Mozilla/5.0 (Macintosh; Intel Mac OS X 10.6; rv:48.0) Gecko/20100101 Firefox/48.0,Macintosh,Firefox,48,OS X,10.6
37,1,4153.565,"""",html-slider-response,53,306491,0.0-53.0,"""","<img src='jspsych/CFDfaces/CFD-WM-237-052-N.jpg'height=""250px""></br><b>Carlos</b>","""",4,ConfidenceQuery,Practice,"""","""","""","""",CFD-BM-041-035-N.jpg,Jesse,1,0,41,"""","""",4/20/2021 0:07,68.168.191.42,Mozilla/5.0 (Macintosh; Intel Mac OS X 10.6; rv:48.0) Gecko/20100101 Firefox/48.0,Macintosh,Firefox,48,OS X,10.6
37,1,5100.375,"""",html-button-response,54,311597,0.0-54.0,"""",You are Correct. You Called A Rearranged Pair Rearranged,0,4,feedback,Practice,"""","""","""","""","""","""","""","""","""","""","""",4/20/2021 0:07,68.168.191.42,Mozilla/5.0 (Macintosh; Intel Mac OS X 10.6; rv:48.0) Gecko/20100101 Firefox/48.0,Macintosh,Firefox,48,OS X,10.6
37,1,null,"""",html-keyboard-response,55,312601,0.0-55.0,"""","<div style=""font-size:60px;"">+</div>","""",5,ITI,Practice,null,1000,"""","""","""","""","""","""","""","""","""",4/20/2021 0:07,68.168.191.42,Mozilla/5.0 (Macintosh; Intel Mac OS X 10.6; rv:48.0) Gecko/20100101 Firefox/48.0,Macintosh,Firefox,48,OS X,10.6
37,1,null,"""",image-keyboard-response,56,312861,0.0-56.0,"""",jspsych/scrambledDisgustFaces/scrambledBM15DIS.JPG,"""",5,forwardMask,Practice,null,250,"""",d,"""","""","""","""","""","""","""",4/20/2021 0:07,68.168.191.42,Mozilla/5.0 (Macintosh; Intel Mac OS X 10.6; rv:48.0) Gecko/20100101 Firefox/48.0,Macintosh,Firefox,48,OS X,10.6
37,1,null,"""",image-keyboard-response,57,312881,0.0-57.0,"""",jspsych/disgustFaces/BM16DIS.JPG,"""",5,Cue,Practice,null,16,"""","""","""","""","""","""","""","""","""",4/20/2021 0:07,68.168.191.42,Mozilla/5.0 (Macintosh; Intel Mac OS X 10.6; rv:48.0) Gecko/20100101 Firefox/48.0,Macintosh,Firefox,48,OS X,10.6
37,1,null,"""",image-keyboard-response,58,312986,0.0-58.0,"""",jspsych/neutralFaces/AM34NES.JPG,"""",5,backwardMask,Practice,null,100,"""","""","""","""","""","""","""","""","""",4/20/2021 0:07,68.168.191.42,Mozilla/5.0 (Macintosh; Intel Mac OS X 10.6; rv:48.0) Gecko/20100101 Firefox/48.0,Macintosh,Firefox,48,OS X,10.6
37,1,null,"""",html-keyboard-response,59,313990,0.0-59.0,"""","<div style=""font-size:60px;"">+</div>","""",5,fixationBtwnNeutralMaskAndPrompt,Practice,null,1000,"""","""","""","""","""","""","""","""","""",4/20/2021 0:07,68.168.191.42,Mozilla/5.0 (Macintosh; Intel Mac OS X 10.6; rv:48.0) Gecko/20100101 Firefox/48.0,Macintosh,Firefox,48,OS X,10.6
37,1,2133.72,"""",html-button-response,60,316126,0.0-60.0,"""","<img src='jspsych/CFDfaces/CFD-LM-220-329-N.jpg'height=""250px""></br><b>Samuel</b>",1,5,IntactOrRearranged,Practice,"""","""","""","""",CFD-LM-220-329-N.jpg,Samuel,0,"""","""",1,"""",4/20/2021 0:07,68.168.191.42,Mozilla/5.0 (Macintosh; Intel Mac OS X 10.6; rv:48.0) Gecko/20100101 Firefox/48.0,Macintosh,Firefox,48,OS X,10.6
37,1,3997.485,"""",html-slider-response,61,320125,0.0-61.0,"""","<img src='jspsych/CFDfaces/CFD-LM-220-329-N.jpg'height=""250px""></br><b>Samuel</b>","""",5,ConfidenceQuery,Practice,"""","""","""","""",CFD-BM-041-035-N.jpg,Jesse,0,0,29,"""","""",4/20/2021 0:07,68.168.191.42,Mozilla/5.0 (Macintosh; Intel Mac OS X 10.6; rv:48.0) Gecko/20100101 Firefox/48.0,Macintosh,Firefox,48,OS X,10.6
37,1,2271.06,"""",html-button-response,62,322403,0.0-62.0,"""",You are Incorrect. You Called an Intact Pair Rearranged,0,5,feedback,Practice,"""","""","""","""","""","""","""","""","""","""","""",4/20/2021 0:07,68.168.191.42,Mozilla/5.0 (Macintosh; Intel Mac OS X 10.6; rv:48.0) Gecko/20100101 Firefox/48.0,Macintosh,Firefox,48,OS X,10.6
37,1,null,"""",html-keyboard-response,63,323407,0.0-63.0,"""","<div style=""font-size:60px;"">+</div>","""",6,ITI,Practice,null,1000,"""","""","""","""","""","""","""","""","""",4/20/2021 0:07,68.168.191.42,Mozilla/5.0 (Macintosh; Intel Mac OS X 10.6; rv:48.0) Gecko/20100101 Firefox/48.0,Macintosh,Firefox,48,OS X,10.6
37,1,null,"""",image-keyboard-response,64,323663,0.0-64.0,"""",jspsych/scrambledDisgustFaces/scrambledAF22DIS.JPG,"""",6,forwardMask,Practice,null,250,"""",d,"""","""","""","""","""","""","""",4/20/2021 0:07,68.168.191.42,Mozilla/5.0 (Macintosh; Intel Mac OS X 10.6; rv:48.0) Gecko/20100101 Firefox/48.0,Macintosh,Firefox,48,OS X,10.6
37,1,null,"""",image-keyboard-response,65,323684,0.0-65.0,"""",jspsych/disgustFaces/AF22DIS.JPG,"""",6,Cue,Practice,null,16,"""","""","""","""","""","""","""","""","""",4/20/2021 0:07,68.168.191.42,Mozilla/5.0 (Macintosh; Intel Mac OS X 10.6; rv:48.0) Gecko/20100101 Firefox/48.0,Macintosh,Firefox,48,OS X,10.6
37,1,null,"""",image-keyboard-response,66,323790,0.0-66.0,"""",jspsych/neutralFaces/BF01NES.JPG,"""",6,backwardMask,Practice,null,100,"""","""","""","""","""","""","""","""","""",4/20/2021 0:07,68.168.191.42,Mozilla/5.0 (Macintosh; Intel Mac OS X 10.6; rv:48.0) Gecko/20100101 Firefox/48.0,Macintosh,Firefox,48,OS X,10.6
37,1,null,"""",html-keyboard-response,67,324794,0.0-67.0,"""","<div style=""font-size:60px;"">+</div>","""",6,fixationBtwnNeutralMaskAndPrompt,Practice,null,1000,"""","""","""","""","""","""","""","""","""",4/20/2021 0:07,68.168.191.42,Mozilla/5.0 (Macintosh; Intel Mac OS X 10.6; rv:48.0) Gecko/20100101 Firefox/48.0,Macintosh,Firefox,48,OS X,10.6
37,1,1839.555,"""",html-button-response,68,326636,0.0-68.0,"""","<img src='jspsych/CFDfaces/CFD-LF-230-203-N.jpg'height=""250px""></br><b>Tara</b>",0,6,IntactOrRearranged,Practice,"""","""","""","""",CFD-LF-230-203-N.jpg,Tara,0,"""","""",0,"""",4/20/2021 0:07,68.168.191.42,Mozilla/5.0 (Macintosh; Intel Mac OS X 10.6; rv:48.0) Gecko/20100101 Firefox/48.0,Macintosh,Firefox,48,OS X,10.6
37,1,4093.51,"""",html-slider-response,69,330739,0.0-69.0,"""","<img src='jspsych/CFDfaces/CFD-LF-230-203-N.jpg'height=""250px""></br><b>Tara</b>","""",6,ConfidenceQuery,Practice,"""","""","""","""",CFD-BM-041-035-N.jpg,Jesse,0,0,74,"""","""",4/20/2021 0:07,68.168.191.42,Mozilla/5.0 (Macintosh; Intel Mac OS X 10.6; rv:48.0) Gecko/20100101 Firefox/48.0,Macintosh,Firefox,48,OS X,10.6
37,1,1569.445,"""",html-button-response,70,332312,0.0-70.0,"""",You are Correct. You called an Intact Pair Intact,0,6,feedback,Practice,"""","""","""","""","""","""","""","""","""","""","""",4/20/2021 0:07,68.168.191.42,Mozilla/5.0 (Macintosh; Intel Mac OS X 10.6; rv:48.0) Gecko/20100101 Firefox/48.0,Macintosh,Firefox,48,OS X,10.6
37,1,null,"""",html-keyboard-response,71,333316,0.0-71.0,"""","<div style=""font-size:60px;"">+</div>","""",7,ITI,Practice,null,1000,"""","""","""","""","""","""","""","""","""",4/20/2021 0:07,68.168.191.42,Mozilla/5.0 (Macintosh; Intel Mac OS X 10.6; rv:48.0) Gecko/20100101 Firefox/48.0,Macintosh,Firefox,48,OS X,10.6
37,1,null,"""",image-keyboard-response,72,333576,0.0-72.0,"""",jspsych/scrambledNeutralFaces/scrambledBM28NES.JPG,"""",7,forwardMask,Practice,null,250,"""",n,"""","""","""","""","""","""","""",4/20/2021 0:07,68.168.191.42,Mozilla/5.0 (Macintosh; Intel Mac OS X 10.6; rv:48.0) Gecko/20100101 Firefox/48.0,Macintosh,Firefox,48,OS X,10.6
37,1,null,"""",image-keyboard-response,73,333598,0.0-73.0,"""",jspsych/neutralFaces/BM28NES.JPG,"""",7,Cue,Practice,null,16,"""","""","""","""","""","""","""","""","""",4/20/2021 0:07,68.168.191.42,Mozilla/5.0 (Macintosh; Intel Mac OS X 10.6; rv:48.0) Gecko/20100101 Firefox/48.0,Macintosh,Firefox,48,OS X,10.6
37,1,null,"""",image-keyboard-response,74,333702,0.0-74.0,"""",jspsych/neutralFaces/BM22NES.JPG,"""",7,backwardMask,Practice,null,100,"""","""","""","""","""","""","""","""","""",4/20/2021 0:07,68.168.191.42,Mozilla/5.0 (Macintosh; Intel Mac OS X 10.6; rv:48.0) Gecko/20100101 Firefox/48.0,Macintosh,Firefox,48,OS X,10.6
37,1,null,"""",html-keyboard-response,75,334707,0.0-75.0,"""","<div style=""font-size:60px;"">+</div>","""",7,fixationBtwnNeutralMaskAndPrompt,Practice,null,1000,"""","""","""","""","""","""","""","""","""",4/20/2021 0:07,68.168.191.42,Mozilla/5.0 (Macintosh; Intel Mac OS X 10.6; rv:48.0) Gecko/20100101 Firefox/48.0,Macintosh,Firefox,48,OS X,10.6
37,1,1858.575,"""",html-button-response,76,336567,0.0-76.0,"""","<img src='jspsych/CFDfaces/CFD-BF-021-013-N.jpg'height=""250px""></br><b>Cassandra</b>",1,7,IntactOrRearranged,Practice,"""","""","""","""",CFD-BF-021-013-N.jpg,Cassandra,1,"""","""",1,"""",4/20/2021 0:07,68.168.191.42,Mozilla/5.0 (Macintosh; Intel Mac OS X 10.6; rv:48.0) Gecko/20100101 Firefox/48.0,Macintosh,Firefox,48,OS X,10.6
37,1,3803.92,"""",html-slider-response,77,340373,0.0-77.0,"""","<img src='jspsych/CFDfaces/CFD-BF-021-013-N.jpg'height=""250px""></br><b>Cassandra</b>","""",7,ConfidenceQuery,Practice,"""","""","""","""",CFD-BM-041-035-N.jpg,Jesse,1,0,40,"""","""",4/20/2021 0:07,68.168.191.42,Mozilla/5.0 (Macintosh; Intel Mac OS X 10.6; rv:48.0) Gecko/20100101 Firefox/48.0,Macintosh,Firefox,48,OS X,10.6
37,1,1597.685,"""",html-button-response,78,341977,0.0-78.0,"""",You are Correct. You Called A Rearranged Pair Rearranged,0,7,feedback,Practice,"""","""","""","""","""","""","""","""","""","""","""",4/20/2021 0:07,68.168.191.42,Mozilla/5.0 (Macintosh; Intel Mac OS X 10.6; rv:48.0) Gecko/20100101 Firefox/48.0,Macintosh,Firefox,48,OS X,10.6
37,1,null,"""",html-keyboard-response,79,342981,0.0-79.0,"""","<div style=""font-size:60px;"">+</div>","""",8,ITI,Practice,null,1000,"""","""","""","""","""","""","""","""","""",4/20/2021 0:07,68.168.191.42,Mozilla/5.0 (Macintosh; Intel Mac OS X 10.6; rv:48.0) Gecko/20100101 Firefox/48.0,Macintosh,Firefox,48,OS X,10.6
37,1,null,"""",image-keyboard-response,80,343237,0.0-80.0,"""",jspsych/scrambledNeutralFaces/scrambledBF29NES.JPG,"""",8,forwardMask,Practice,null,250,"""",n,"""","""","""","""","""","""","""",4/20/2021 0:07,68.168.191.42,Mozilla/5.0 (Macintosh; Intel Mac OS X 10.6; rv:48.0) Gecko/20100101 Firefox/48.0,Macintosh,Firefox,48,OS X,10.6
37,1,null,"""",image-keyboard-response,81,343258,0.0-81.0,"""",jspsych/neutralFaces/BF29NES.JPG,"""",8,Cue,Practice,null,16,"""","""","""","""","""","""","""","""","""",4/20/2021 0:07,68.168.191.42,Mozilla/5.0 (Macintosh; Intel Mac OS X 10.6; rv:48.0) Gecko/20100101 Firefox/48.0,Macintosh,Firefox,48,OS X,10.6
37,1,null,"""",image-keyboard-response,82,343362,0.0-82.0,"""",jspsych/neutralFaces/BF23NES.JPG,"""",8,backwardMask,Practice,null,100,"""","""","""","""","""","""","""","""","""",4/20/2021 0:07,68.168.191.42,Mozilla/5.0 (Macintosh; Intel Mac OS X 10.6; rv:48.0) Gecko/20100101 Firefox/48.0,Macintosh,Firefox,48,OS X,10.6
37,1,null,"""",html-keyboard-response,83,344366,0.0-83.0,"""","<div style=""font-size:60px;"">+</div>","""",8,fixationBtwnNeutralMaskAndPrompt,Practice,null,1000,"""","""","""","""","""","""","""","""","""",4/20/2021 0:07,68.168.191.42,Mozilla/5.0 (Macintosh; Intel Mac OS X 10.6; rv:48.0) Gecko/20100101 Firefox/48.0,Macintosh,Firefox,48,OS X,10.6
37,1,1639.055,"""",html-button-response,84,346007,0.0-84.0,"""","<img src='jspsych/CFDfaces/CFD-LM-201-057-N.jpg'height=""250px""></br><b>Patrick</b>",0,8,IntactOrRearranged,Practice,"""","""","""","""",CFD-LM-201-057-N.jpg,Patrick,0,"""","""",0,"""",4/20/2021 0:07,68.168.191.42,Mozilla/5.0 (Macintosh; Intel Mac OS X 10.6; rv:48.0) Gecko/20100101 Firefox/48.0,Macintosh,Firefox,48,OS X,10.6
37,1,null,"""",html-slider-response,85,351012,0.0-85.0,"""","<img src='jspsych/CFDfaces/CFD-LM-201-057-N.jpg'height=""250px""></br><b>Patrick</b>","""",8,ConfidenceQuery,Practice,"""","""","""","""",CFD-BM-041-035-N.jpg,Jesse,0,0,null,"""","""",4/20/2021 0:07,68.168.191.42,Mozilla/5.0 (Macintosh; Intel Mac OS X 10.6; rv:48.0) Gecko/20100101 Firefox/48.0,Macintosh,Firefox,48,OS X,10.6
37,1,2558.86,"""",html-button-response,86,353577,0.0-86.0,"""",You are Correct. You called an Intact Pair Intact,0,8,feedback,Practice,"""","""","""","""","""","""","""","""","""","""","""",4/20/2021 0:07,68.168.191.42,Mozilla/5.0 (Macintosh; Intel Mac OS X 10.6; rv:48.0) Gecko/20100101 Firefox/48.0,Macintosh,Firefox,48,OS X,10.6
37,1,29770.345,"""",image-button-response,87,383360,0.0-87.0,"""",directionsMemoryAssociation3.JPG,0,128,DirectionsBeforeActualTEst,Break,"""","""","""","""","""","""","""","""","""","""","""",4/20/2021 0:07,68.168.191.42,Mozilla/5.0 (Macintosh; Intel Mac OS X 10.6; rv:48.0) Gecko/20100101 Firefox/48.0,Macintosh,Firefox,48,OS X,10.6
37,1,9969.58,"""",image-button-response,88,393343,0.0-88.0,"""",directionsForTest2.JPG,0,1,directionsForTest2,break,"""","""","""","""","""","""","""","""","""","""","""",4/20/2021 0:07,68.168.191.42,Mozilla/5.0 (Macintosh; Intel Mac OS X 10.6; rv:48.0) Gecko/20100101 Firefox/48.0,Macintosh,Firefox,48,OS X,10.6
37,1,7812.305,"""",html-button-response,89,401157,0.0-89.0,"""","<p>You will be asked to memorize and then recall four sets of face-name pairs. </p> <p> Each set will have 32 pairs. </p> <p>After the fourth set, there will be a brief follow-up experiment (<40 min alltogether)</p>",0,"""","""","""","""","""","""","""","""","""","""","""","""","""","""",4/20/2021 0:07,68.168.191.42,Mozilla/5.0 (Macintosh; Intel Mac OS X 10.6; rv:48.0) Gecko/20100101 Firefox/48.0,Macintosh,Firefox,48,OS X,10.6
37,1,3014.375,"""",html-keyboard-response,90,406166,0.0-90.0,"""","<img src='jspsych/CFDfaces/CFD-BF-016-017-N.jpg' height=""250px""></br><b>Elizabeth</b>","""",256,IntactFace,Memorization,78,5000,n,"""",CFD-LM-224-162-N.jpg,Ryan,0,"""","""","""",1,4/20/2021 0:07,68.168.191.42,Mozilla/5.0 (Macintosh; Intel Mac OS X 10.6; rv:48.0) Gecko/20100101 Firefox/48.0,Macintosh,Firefox,48,OS X,10.6
37,1,null,"""",html-keyboard-response,91,406670,0.0-91.0,"""","<div style=""font-size:60px;"">+</div>","""",256,fixation,Memorization,null,500,"""","""","""","""","""","""","""","""",1,4/20/2021 0:07,68.168.191.42,Mozilla/5.0 (Macintosh; Intel Mac OS X 10.6; rv:48.0) Gecko/20100101 Firefox/48.0,Macintosh,Firefox,48,OS X,10.6
37,1,2762.36,"""",html-keyboard-response,92,411675,0.0-92.0,"""","<img src='jspsych/CFDfaces/CFD-BF-023-010-N.jpg' height=""250px""></br><b>Meghan</b>","""",256,IntactFace,Memorization,78,5000,n,"""",CFD-AF-201-060-N.jpg,Tiffany,0,"""","""","""",1,4/20/2021 0:07,68.168.191.42,Mozilla/5.0 (Macintosh; Intel Mac OS X 10.6; rv:48.0) Gecko/20100101 Firefox/48.0,Macintosh,Firefox,48,OS X,10.6
37,1,null,"""",html-keyboard-response,93,412183,0.0-93.0,"""","<div style=""font-size:60px;"">+</div>","""",256,fixation,Memorization,null,500,"""","""","""","""","""","""","""","""",1,4/20/2021 0:07,68.168.191.42,Mozilla/5.0 (Macintosh; Intel Mac OS X 10.6; rv:48.0) Gecko/20100101 Firefox/48.0,Macintosh,Firefox,48,OS X,10.6
37,1,1831.875,"""",html-keyboard-response,94,417189,0.0-94.0,"""","<img src='jspsych/CFDfaces/CFD-LF-220-120-N.jpg' height=""250px""></br><b>Kayla</b>","""",256,IntactFace,Memorization,70,5000,f,"""",CFD-AF-235-170-N.jpg,Angela,0,"""","""","""",1,4/20/2021 0:07,68.168.191.42,Mozilla/5.0 (Macintosh; Intel Mac OS X 10.6; rv:48.0) Gecko/20100101 Firefox/48.0,Macintosh,Firefox,48,OS X,10.6
37,1,null,"""",html-keyboard-response,95,417693,0.0-95.0,"""","<div style=""font-size:60px;"">+</div>","""",256,fixation,Memorization,null,500,"""","""","""","""","""","""","""","""",1,4/20/2021 0:07,68.168.191.42,Mozilla/5.0 (Macintosh; Intel Mac OS X 10.6; rv:48.0) Gecko/20100101 Firefox/48.0,Macintosh,Firefox,48,OS X,10.6
37,1,2294.805,"""",html-keyboard-response,96,422702,0.0-96.0,"""","<img src='jspsych/CFDfaces/CFD-BM-211-174-N.jpg' height=""250px""></br><b>Jason</b>","""",256,IntactFace,Memorization,70,5000,f,"""",CFD-WF-202-056-N.jpg,Jenna,0,"""","""","""",1,4/20/2021 0:07,68.168.191.42,Mozilla/5.0 (Macintosh; Intel Mac OS X 10.6; rv:48.0) Gecko/20100101 Firefox/48.0,Macintosh,Firefox,48,OS X,10.6
37,1,null,"""",html-keyboard-response,97,423207,0.0-97.0,"""","<div style=""font-size:60px;"">+</div>","""",256,fixation,Memorization,null,500,"""","""","""","""","""","""","""","""",1,4/20/2021 0:07,68.168.191.42,Mozilla/5.0 (Macintosh; Intel Mac OS X 10.6; rv:48.0) Gecko/20100101 Firefox/48.0,Macintosh,Firefox,48,OS X,10.6
37,1,2168.855,"""",html-keyboard-response,98,428212,0.0-98.0,"""","<img src='jspsych/CFDfaces/CFD-BM-018-001-N.jpg' height=""250px""></br><b>Nicholas</b>","""",256,IntactFace,Memorization,78,5000,n,"""",CFD-AF-214-139-N.jpg,Sara,0,"""","""","""",1,4/20/2021 0:07,68.168.191.42,Mozilla/5.0 (Macintosh; Intel Mac OS X 10.6; rv:48.0) Gecko/20100101 Firefox/48.0,Macintosh,Firefox,48,OS X,10.6
37,1,null,"""",html-keyboard-response,99,428721,0.0-99.0,"""","<div style=""font-size:60px;"">+</div>","""",256,fixation,Memorization,null,500,"""","""","""","""","""","""","""","""",1,4/20/2021 0:07,68.168.191.42,Mozilla/5.0 (Macintosh; Intel Mac OS X 10.6; rv:48.0) Gecko/20100101 Firefox/48.0,Macintosh,Firefox,48,OS X,10.6
37,1,1566.255,"""",html-keyboard-response,100,433726,0.0-100.0,"""","<img src='jspsych/CFDfaces/CFD-BF-221-223-N.jpg' height=""250px""></br><b>Kimberly</b>","""",256,IntactFace,Memorization,70,5000,f,"""",CFD-WF-016-015-N.jpg,Laura,0,"""","""","""",1,4/20/2021 0:07,68.168.191.42,Mozilla/5.0 (Macintosh; Intel Mac OS X 10.6; rv:48.0) Gecko/20100101 Firefox/48.0,Macintosh,Firefox,48,OS X,10.6
37,1,null,"""",html-keyboard-response,101,434231,0.0-101.0,"""","<div style=""font-size:60px;"">+</div>","""",256,fixation,Memorization,null,500,"""","""","""","""","""","""","""","""",1,4/20/2021 0:07,68.168.191.42,Mozilla/5.0 (Macintosh; Intel Mac OS X 10.6; rv:48.0) Gecko/20100101 Firefox/48.0,Macintosh,Firefox,48,OS X,10.6
37,1,2364.895,"""",html-keyboard-response,102,439241,0.0-102.0,"""","<img src='jspsych/CFDfaces/CFD-BM-207-024-N.jpg' height=""250px""></br><b>Jeffrey</b>","""",256,IntactFace,Memorization,70,5000,f,"""",CFD-AM-231-136-N.jpg,Jesse,0,"""","""","""",1,4/20/2021 0:07,68.168.191.42,Mozilla/5.0 (Macintosh; Intel Mac OS X 10.6; rv:48.0) Gecko/20100101 Firefox/48.0,Macintosh,Firefox,48,OS X,10.6
37,1,null,"""",html-keyboard-response,103,439746,0.0-103.0,"""","<div style=""font-size:60px;"">+</div>","""",256,fixation,Memorization,null,500,"""","""","""","""","""","""","""","""",1,4/20/2021 0:07,68.168.191.42,Mozilla/5.0 (Macintosh; Intel Mac OS X 10.6; rv:48.0) Gecko/20100101 Firefox/48.0,Macintosh,Firefox,48,OS X,10.6
37,1,2158.12,"""",html-keyboard-response,104,444750,0.0-104.0,"""","<img src='jspsych/CFDfaces/CFD-AF-242-158-N.jpg' height=""250px""></br><b>Victoria</b>","""",256,IntactFace,Memorization,70,5000,f,"""",CFD-WF-217-085-N.jpg,Erin,0,"""","""","""",1,4/20/2021 0:07,68.168.191.42,Mozilla/5.0 (Macintosh; Intel Mac OS X 10.6; rv:48.0) Gecko/20100101 Firefox/48.0,Macintosh,Firefox,48,OS X,10.6
37,1,null,"""",html-keyboard-response,105,445259,0.0-105.0,"""","<div style=""font-size:60px;"">+</div>","""",256,fixation,Memorization,null,500,"""","""","""","""","""","""","""","""",1,4/20/2021 0:07,68.168.191.42,Mozilla/5.0 (Macintosh; Intel Mac OS X 10.6; rv:48.0) Gecko/20100101 Firefox/48.0,Macintosh,Firefox,48,OS X,10.6
37,1,1828.1,"""",html-keyboard-response,106,450265,0.0-106.0,"""","<img src='jspsych/CFDfaces/CFD-AM-242-176-N.jpg' height=""250px""></br><b>Christian</b>","""",256,IntactFace,Memorization,78,5000,n,"""",CFD-BM-208-065-N.jpg,Jeremy,0,"""","""","""",1,4/20/2021 0:07,68.168.191.42,Mozilla/5.0 (Macintosh; Intel Mac OS X 10.6; rv:48.0) Gecko/20100101 Firefox/48.0,Macintosh,Firefox,48,OS X,10.6
37,1,null,"""",html-keyboard-response,107,450768,0.0-107.0,"""","<div style=""font-size:60px;"">+</div>","""",256,fixation,Memorization,null,500,"""","""","""","""","""","""","""","""",1,4/20/2021 0:07,68.168.191.42,Mozilla/5.0 (Macintosh; Intel Mac OS X 10.6; rv:48.0) Gecko/20100101 Firefox/48.0,Macintosh,Firefox,48,OS X,10.6
37,1,2210.53,"""",html-keyboard-response,108,455778,0.0-108.0,"""","<img src='jspsych/CFDfaces/CFD-WM-020-001-N.jpg' height=""250px""></br><b>Gregory</b>","""",256,IntactFace,Memorization,70,5000,f,"""",CFD-WM-207-048-N.jpg,Justin,0,"""","""","""",1,4/20/2021 0:07,68.168.191.42,Mozilla/5.0 (Macintosh; Intel Mac OS X 10.6; rv:48.0) Gecko/20100101 Firefox/48.0,Macintosh,Firefox,48,OS X,10.6
37,1,null,"""",html-keyboard-response,109,456282,0.0-109.0,"""","<div style=""font-size:60px;"">+</div>","""",256,fixation,Memorization,null,500,"""","""","""","""","""","""","""","""",1,4/20/2021 0:07,68.168.191.42,Mozilla/5.0 (Macintosh; Intel Mac OS X 10.6; rv:48.0) Gecko/20100101 Firefox/48.0,Macintosh,Firefox,48,OS X,10.6
37,1,1525.92,"""",html-keyboard-response,110,461287,0.0-110.0,"""","<img src='jspsych/CFDfaces/CFD-BF-004-014-N.jpg' height=""250px""></br><b>Vanessa</b>","""",256,IntactFace,Memorization,70,5000,f,"""",CFD-LM-213-061-N.jpg,Timothy,0,"""","""","""",1,4/20/2021 0:07,68.168.191.42,Mozilla/5.0 (Macintosh; Intel Mac OS X 10.6; rv:48.0) Gecko/20100101 Firefox/48.0,Macintosh,Firefox,48,OS X,10.6
37,1,null,"""",html-keyboard-response,111,461796,0.0-111.0,"""","<div style=""font-size:60px;"">+</div>","""",256,fixation,Memorization,null,500,"""","""","""","""","""","""","""","""",1,4/20/2021 0:07,68.168.191.42,Mozilla/5.0 (Macintosh; Intel Mac OS X 10.6; rv:48.0) Gecko/20100101 Firefox/48.0,Macintosh,Firefox,48,OS X,10.6
37,1,1659.175,"""",html-keyboard-response,112,466802,0.0-112.0,"""","<img src='jspsych/CFDfaces/CFD-AM-213-056-N.jpg' height=""250px""></br><b>Eric</b>","""",256,IntactFace,Memorization,78,5000,n,"""",CFD-LF-232-199-N.jpg,Lauren,0,"""","""","""",1,4/20/2021 0:07,68.168.191.42,Mozilla/5.0 (Macintosh; Intel Mac OS X 10.6; rv:48.0) Gecko/20100101 Firefox/48.0,Macintosh,Firefox,48,OS X,10.6
37,1,null,"""",html-keyboard-response,113,467306,0.0-113.0,"""","<div style=""font-size:60px;"">+</div>","""",256,fixation,Memorization,null,500,"""","""","""","""","""","""","""","""",1,4/20/2021 0:07,68.168.191.42,Mozilla/5.0 (Macintosh; Intel Mac OS X 10.6; rv:48.0) Gecko/20100101 Firefox/48.0,Macintosh,Firefox,48,OS X,10.6
37,1,1976.39,"""",html-keyboard-response,114,472317,0.0-114.0,"""","<img src='jspsych/CFDfaces/CFD-BM-017-021-N.jpg' height=""250px""></br><b>Brian</b>","""",256,IntactFace,Memorization,70,5000,f,"""",CFD-AM-205-153-N.jpg,Jacob,0,"""","""","""",1,4/20/2021 0:07,68.168.191.42,Mozilla/5.0 (Macintosh; Intel Mac OS X 10.6; rv:48.0) Gecko/20100101 Firefox/48.0,Macintosh,Firefox,48,OS X,10.6
37,1,null,"""",html-keyboard-response,115,472820,0.0-115.0,"""","<div style=""font-size:60px;"">+</div>","""",256,fixation,Memorization,null,500,"""","""","""","""","""","""","""","""",1,4/20/2021 0:07,68.168.191.42,Mozilla/5.0 (Macintosh; Intel Mac OS X 10.6; rv:48.0) Gecko/20100101 Firefox/48.0,Macintosh,Firefox,48,OS X,10.6
37,1,2283.38,"""",html-keyboard-response,116,477825,0.0-116.0,"""","<img src='jspsych/CFDfaces/CFD-BM-210-148-N.jpg' height=""250px""></br><b>Ian</b>","""",256,IntactFace,Memorization,78,5000,n,"""",CFD-LM-233-171-N.jpg,Luis,0,"""","""","""",1,4/20/2021 0:07,68.168.191.42,Mozilla/5.0 (Macintosh; Intel Mac OS X 10.6; rv:48.0) Gecko/20100101 Firefox/48.0,Macintosh,Firefox,48,OS X,10.6
37,1,null,"""",html-keyboard-response,117,478341,0.0-117.0,"""","<div style=""font-size:60px;"">+</div>","""",256,fixation,Memorization,null,500,"""","""","""","""","""","""","""","""",1,4/20/2021 0:07,68.168.191.42,Mozilla/5.0 (Macintosh; Intel Mac OS X 10.6; rv:48.0) Gecko/20100101 Firefox/48.0,Macintosh,Firefox,48,OS X,10.6
37,1,2528.865,"""",html-keyboard-response,118,483348,0.0-118.0,"""","<img src='jspsych/CFDfaces/CFD-LF-204-133-N.jpg' height=""250px""></br><b>Emily</b>","""",256,IntactFace,Memorization,70,5000,f,"""",CFD-AF-237-223-N.jpg,Heather,0,"""","""","""",1,4/20/2021 0:07,68.168.191.42,Mozilla/5.0 (Macintosh; Intel Mac OS X 10.6; rv:48.0) Gecko/20100101 Firefox/48.0,Macintosh,Firefox,48,OS X,10.6
37,1,null,"""",html-keyboard-response,119,483851,0.0-119.0,"""","<div style=""font-size:60px;"">+</div>","""",256,fixation,Memorization,null,500,"""","""","""","""","""","""","""","""",1,4/20/2021 0:07,68.168.191.42,Mozilla/5.0 (Macintosh; Intel Mac OS X 10.6; rv:48.0) Gecko/20100101 Firefox/48.0,Macintosh,Firefox,48,OS X,10.6
37,1,2582.585,"""",html-keyboard-response,120,488862,0.0-120.0,"""","<img src='jspsych/CFDfaces/CFD-AM-220-134-N.jpg' height=""250px""></br><b>Richard</b>","""",256,IntactFace,Memorization,78,5000,n,"""",CFD-AM-214-168-N.jpg,Dustin,0,"""","""","""",1,4/20/2021 0:07,68.168.191.42,Mozilla/5.0 (Macintosh; Intel Mac OS X 10.6; rv:48.0) Gecko/20100101 Firefox/48.0,Macintosh,Firefox,48,OS X,10.6
37,1,null,"""",html-keyboard-response,121,489366,0.0-121.0,"""","<div style=""font-size:60px;"">+</div>","""",256,fixation,Memorization,null,500,"""","""","""","""","""","""","""","""",1,4/20/2021 0:07,68.168.191.42,Mozilla/5.0 (Macintosh; Intel Mac OS X 10.6; rv:48.0) Gecko/20100101 Firefox/48.0,Macintosh,Firefox,48,OS X,10.6
37,1,2081.615,"""",html-keyboard-response,122,494371,0.0-122.0,"""","<img src='jspsych/CFDfaces/CFD-LF-244-096-N.jpg' height=""250px""></br><b>Christina</b>","""",256,IntactFace,Memorization,70,5000,f,"""",CFD-AF-243-170-N.jpg,Taylor,0,"""","""","""",1,4/20/2021 0:07,68.168.191.42,Mozilla/5.0 (Macintosh; Intel Mac OS X 10.6; rv:48.0) Gecko/20100101 Firefox/48.0,Macintosh,Firefox,48,OS X,10.6
37,1,null,"""",html-keyboard-response,123,494881,0.0-123.0,"""","<div style=""font-size:60px;"">+</div>","""",256,fixation,Memorization,null,500,"""","""","""","""","""","""","""","""",1,4/20/2021 0:07,68.168.191.42,Mozilla/5.0 (Macintosh; Intel Mac OS X 10.6; rv:48.0) Gecko/20100101 Firefox/48.0,Macintosh,Firefox,48,OS X,10.6
37,1,2206.47,"""",html-keyboard-response,124,499886,0.0-124.0,"""","<img src='jspsych/CFDfaces/CFD-AM-221-184-N.jpg' height=""250px""></br><b>James</b>","""",256,IntactFace,Memorization,70,5000,f,"""",CFD-BM-041-035-N.jpg,Mark,0,"""","""","""",1,4/20/2021 0:07,68.168.191.42,Mozilla/5.0 (Macintosh; Intel Mac OS X 10.6; rv:48.0) Gecko/20100101 Firefox/48.0,Macintosh,Firefox,48,OS X,10.6
37,1,null,"""",html-keyboard-response,125,500390,0.0-125.0,"""","<div style=""font-size:60px;"">+</div>","""",256,fixation,Memorization,null,500,"""","""","""","""","""","""","""","""",1,4/20/2021 0:07,68.168.191.42,Mozilla/5.0 (Macintosh; Intel Mac OS X 10.6; rv:48.0) Gecko/20100101 Firefox/48.0,Macintosh,Firefox,48,OS X,10.6
37,1,1948.6,"""",html-keyboard-response,126,505400,0.0-126.0,"""","<img src='jspsych/CFDfaces/CFD-WF-223-133-N.jpg' height=""250px""></br><b>Samantha</b>","""",256,IntactFace,Memorization,70,5000,f,"""",CFD-AF-215-70-N.jpg,Jasmine,0,"""","""","""",1,4/20/2021 0:07,68.168.191.42,Mozilla/5.0 (Macintosh; Intel Mac OS X 10.6; rv:48.0) Gecko/20100101 Firefox/48.0,Macintosh,Firefox,48,OS X,10.6
37,1,null,"""",html-keyboard-response,127,505904,0.0-127.0,"""","<div style=""font-size:60px;"">+</div>","""",256,fixation,Memorization,null,500,"""","""","""","""","""","""","""","""",1,4/20/2021 0:07,68.168.191.42,Mozilla/5.0 (Macintosh; Intel Mac OS X 10.6; rv:48.0) Gecko/20100101 Firefox/48.0,Macintosh,Firefox,48,OS X,10.6
37,1,1966.975,"""",html-keyboard-response,128,510910,0.0-128.0,"""","<img src='jspsych/CFDfaces/CFD-LM-217-162-N.jpg' height=""250px""></br><b>Peter</b>","""",256,IntactFace,Memorization,70,5000,f,"""",CFD-BM-029-024-N.jpg,Steven,0,"""","""","""",1,4/20/2021 0:07,68.168.191.42,Mozilla/5.0 (Macintosh; Intel Mac OS X 10.6; rv:48.0) Gecko/20100101 Firefox/48.0,Macintosh,Firefox,48,OS X,10.6
37,1,null,"""",html-keyboard-response,129,511419,0.0-129.0,"""","<div style=""font-size:60px;"">+</div>","""",256,fixation,Memorization,null,500,"""","""","""","""","""","""","""","""",1,4/20/2021 0:07,68.168.191.42,Mozilla/5.0 (Macintosh; Intel Mac OS X 10.6; rv:48.0) Gecko/20100101 Firefox/48.0,Macintosh,Firefox,48,OS X,10.6
37,1,1516.935,"""",html-keyboard-response,130,516424,0.0-130.0,"""","<img src='jspsych/CFDfaces/CFD-BF-212-315-N.jpg' height=""250px""></br><b>Michelle</b>","""",256,IntactFace,Memorization,70,5000,f,"""",CFD-BF-009-002-N.jpg,Whitney,0,"""","""","""",1,4/20/2021 0:07,68.168.191.42,Mozilla/5.0 (Macintosh; Intel Mac OS X 10.6; rv:48.0) Gecko/20100101 Firefox/48.0,Macintosh,Firefox,48,OS X,10.6
37,1,null,"""",html-keyboard-response,131,516928,0.0-131.0,"""","<div style=""font-size:60px;"">+</div>","""",256,fixation,Memorization,null,500,"""","""","""","""","""","""","""","""",1,4/20/2021 0:07,68.168.191.42,Mozilla/5.0 (Macintosh; Intel Mac OS X 10.6; rv:48.0) Gecko/20100101 Firefox/48.0,Macintosh,Firefox,48,OS X,10.6
37,1,1450.61,"""",html-keyboard-response,132,521938,0.0-132.0,"""","<img src='jspsych/CFDfaces/CFD-BM-011-016-N.jpg' height=""250px""></br><b>Daniel</b>","""",256,IntactFace,Memorization,70,5000,f,"""",CFD-LM-252-076-N.jpg,Sean,0,"""","""","""",1,4/20/2021 0:07,68.168.191.42,Mozilla/5.0 (Macintosh; Intel Mac OS X 10.6; rv:48.0) Gecko/20100101 Firefox/48.0,Macintosh,Firefox,48,OS X,10.6
37,1,null,"""",html-keyboard-response,133,522442,0.0-133.0,"""","<div style=""font-size:60px;"">+</div>","""",256,fixation,Memorization,null,500,"""","""","""","""","""","""","""","""",1,4/20/2021 0:07,68.168.191.42,Mozilla/5.0 (Macintosh; Intel Mac OS X 10.6; rv:48.0) Gecko/20100101 Firefox/48.0,Macintosh,Firefox,48,OS X,10.6
37,1,1269.68,"""",html-keyboard-response,134,527447,0.0-134.0,"""","<img src='jspsych/CFDfaces/CFD-WM-216-061-N.jpg' height=""250px""></br><b>Robert</b>","""",256,IntactFace,Memorization,70,5000,f,"""",CFD-LF-215-157-N.jpg,Lindsey,0,"""","""","""",1,4/20/2021 0:07,68.168.191.42,Mozilla/5.0 (Macintosh; Intel Mac OS X 10.6; rv:48.0) Gecko/20100101 Firefox/48.0,Macintosh,Firefox,48,OS X,10.6
37,1,null,"""",html-keyboard-response,135,527957,0.0-135.0,"""","<div style=""font-size:60px;"">+</div>","""",256,fixation,Memorization,null,500,"""","""","""","""","""","""","""","""",1,4/20/2021 0:07,68.168.191.42,Mozilla/5.0 (Macintosh; Intel Mac OS X 10.6; rv:48.0) Gecko/20100101 Firefox/48.0,Macintosh,Firefox,48,OS X,10.6
37,1,2050.225,"""",html-keyboard-response,136,532962,0.0-136.0,"""","<img src='jspsych/CFDfaces/CFD-AM-246-184-N.jpg' height=""250px""></br><b>Juan</b>","""",256,IntactFace,Memorization,78,5000,n,"""",CFD-BF-019-001-N.jpg,Jordan,0,"""","""","""",1,4/20/2021 0:07,68.168.191.42,Mozilla/5.0 (Macintosh; Intel Mac OS X 10.6; rv:48.0) Gecko/20100101 Firefox/48.0,Macintosh,Firefox,48,OS X,10.6
37,1,null,"""",html-keyboard-response,137,533466,0.0-137.0,"""","<div style=""font-size:60px;"">+</div>","""",256,fixation,Memorization,null,500,"""","""","""","""","""","""","""","""",1,4/20/2021 0:07,68.168.191.42,Mozilla/5.0 (Macintosh; Intel Mac OS X 10.6; rv:48.0) Gecko/20100101 Firefox/48.0,Macintosh,Firefox,48,OS X,10.6
37,1,1910.34,"""",html-keyboard-response,138,538479,0.0-138.0,"""","<img src='jspsych/CFDfaces/CFD-WF-038-021-N.jpg' height=""250px""></br><b>Andrea</b>","""",256,IntactFace,Memorization,70,5000,f,"""",CFD-AM-212-050-N.jpg,Vincent,0,"""","""","""",1,4/20/2021 0:07,68.168.191.42,Mozilla/5.0 (Macintosh; Intel Mac OS X 10.6; rv:48.0) Gecko/20100101 Firefox/48.0,Macintosh,Firefox,48,OS X,10.6
37,1,null,"""",html-keyboard-response,139,538983,0.0-139.0,"""","<div style=""font-size:60px;"">+</div>","""",256,fixation,Memorization,null,500,"""","""","""","""","""","""","""","""",1,4/20/2021 0:07,68.168.191.42,Mozilla/5.0 (Macintosh; Intel Mac OS X 10.6; rv:48.0) Gecko/20100101 Firefox/48.0,Macintosh,Firefox,48,OS X,10.6
37,1,1416.53,"""",html-keyboard-response,140,543988,0.0-140.0,"""","<img src='jspsych/CFDfaces/CFD-LF-206-078-N.jpg' height=""250px""></br><b>Stephanie</b>","""",256,IntactFace,Memorization,70,5000,f,"""",CFD-LM-200-045-N.jpg,Cameron,0,"""","""","""",1,4/20/2021 0:07,68.168.191.42,Mozilla/5.0 (Macintosh; Intel Mac OS X 10.6; rv:48.0) Gecko/20100101 Firefox/48.0,Macintosh,Firefox,48,OS X,10.6
37,1,null,"""",html-keyboard-response,141,544499,0.0-141.0,"""","<div style=""font-size:60px;"">+</div>","""",256,fixation,Memorization,null,500,"""","""","""","""","""","""","""","""",1,4/20/2021 0:07,68.168.191.42,Mozilla/5.0 (Macintosh; Intel Mac OS X 10.6; rv:48.0) Gecko/20100101 Firefox/48.0,Macintosh,Firefox,48,OS X,10.6
37,1,1293.095,"""",html-keyboard-response,142,549504,0.0-142.0,"""","<img src='jspsych/CFDfaces/CFD-BM-043-071-N.jpg' height=""250px""></br><b>Joshua</b>","""",256,IntactFace,Memorization,70,5000,f,"""",CFD-BM-039-029-N.jpg,Austin,0,"""","""","""",1,4/20/2021 0:07,68.168.191.42,Mozilla/5.0 (Macintosh; Intel Mac OS X 10.6; rv:48.0) Gecko/20100101 Firefox/48.0,Macintosh,Firefox,48,OS X,10.6
37,1,null,"""",html-keyboard-response,143,550008,0.0-143.0,"""","<div style=""font-size:60px;"">+</div>","""",256,fixation,Memorization,null,500,"""","""","""","""","""","""","""","""",1,4/20/2021 0:07,68.168.191.42,Mozilla/5.0 (Macintosh; Intel Mac OS X 10.6; rv:48.0) Gecko/20100101 Firefox/48.0,Macintosh,Firefox,48,OS X,10.6
37,1,2025.66,"""",html-keyboard-response,144,555019,0.0-144.0,"""","<img src='jspsych/CFDfaces/CFD-AM-202-079-N.jpg' height=""250px""></br><b>Brandon</b>","""",256,IntactFace,Memorization,70,5000,f,"""",CFD-LF-213-079-N.jpg,Melissa,0,"""","""","""",1,4/20/2021 0:07,68.168.191.42,Mozilla/5.0 (Macintosh; Intel Mac OS X 10.6; rv:48.0) Gecko/20100101 Firefox/48.0,Macintosh,Firefox,48,OS X,10.6
37,1,null,"""",html-keyboard-response,145,555523,0.0-145.0,"""","<div style=""font-size:60px;"">+</div>","""",256,fixation,Memorization,null,500,"""","""","""","""","""","""","""","""",1,4/20/2021 0:07,68.168.191.42,Mozilla/5.0 (Macintosh; Intel Mac OS X 10.6; rv:48.0) Gecko/20100101 Firefox/48.0,Macintosh,Firefox,48,OS X,10.6
37,1,1628.455,"""",html-keyboard-response,146,560528,0.0-146.0,"""","<img src='jspsych/CFDfaces/CFD-AF-209-006-N.jpg' height=""250px""></br><b>Julie</b>","""",256,IntactFace,Memorization,78,5000,n,"""",CFD-WM-011-002-N.jpg,Kenneth,0,"""","""","""",1,4/20/2021 0:07,68.168.191.42,Mozilla/5.0 (Macintosh; Intel Mac OS X 10.6; rv:48.0) Gecko/20100101 Firefox/48.0,Macintosh,Firefox,48,OS X,10.6
37,1,null,"""",html-keyboard-response,147,561039,0.0-147.0,"""","<div style=""font-size:60px;"">+</div>","""",256,fixation,Memorization,null,500,"""","""","""","""","""","""","""","""",1,4/20/2021 0:07,68.168.191.42,Mozilla/5.0 (Macintosh; Intel Mac OS X 10.6; rv:48.0) Gecko/20100101 Firefox/48.0,Macintosh,Firefox,48,OS X,10.6
37,1,1561.055,"""",html-keyboard-response,148,566044,0.0-148.0,"""","<img src='jspsych/CFDfaces/CFD-BF-209-172-N.jpg' height=""250px""></br><b>Ashley</b>","""",256,IntactFace,Memorization,78,5000,n,"""",CFD-AF-222-134-N.jpg,Rebecca,0,"""","""","""",1,4/20/2021 0:07,68.168.191.42,Mozilla/5.0 (Macintosh; Intel Mac OS X 10.6; rv:48.0) Gecko/20100101 Firefox/48.0,Macintosh,Firefox,48,OS X,10.6
37,1,null,"""",html-keyboard-response,149,566548,0.0-149.0,"""","<div style=""font-size:60px;"">+</div>","""",256,fixation,Memorization,null,500,"""","""","""","""","""","""","""","""",1,4/20/2021 0:07,68.168.191.42,Mozilla/5.0 (Macintosh; Intel Mac OS X 10.6; rv:48.0) Gecko/20100101 Firefox/48.0,Macintosh,Firefox,48,OS X,10.6
37,1,2197.85,"""",html-keyboard-response,150,571559,0.0-150.0,"""","<img src='jspsych/CFDfaces/CFD-AF-226-251-N.jpg' height=""250px""></br><b>Brittany</b>","""",256,IntactFace,Memorization,78,5000,n,"""",CFD-WF-023-003-N.jpg,Amy,0,"""","""","""",1,4/20/2021 0:07,68.168.191.42,Mozilla/5.0 (Macintosh; Intel Mac OS X 10.6; rv:48.0) Gecko/20100101 Firefox/48.0,Macintosh,Firefox,48,OS X,10.6
37,1,null,"""",html-keyboard-response,151,572063,0.0-151.0,"""","<div style=""font-size:60px;"">+</div>","""",256,fixation,Memorization,null,500,"""","""","""","""","""","""","""","""",1,4/20/2021 0:07,68.168.191.42,Mozilla/5.0 (Macintosh; Intel Mac OS X 10.6; rv:48.0) Gecko/20100101 Firefox/48.0,Macintosh,Firefox,48,OS X,10.6
37,1,1480.755,"""",html-keyboard-response,152,577068,0.0-152.0,"""","<img src='jspsych/CFDfaces/CFD-WF-003-003-N.jpg' height=""250px""></br><b>Amanda</b>","""",256,IntactFace,Memorization,70,5000,f,"""",CFD-BM-010-003-N.jpg,Travis,0,"""","""","""",1,4/20/2021 0:07,68.168.191.42,Mozilla/5.0 (Macintosh; Intel Mac OS X 10.6; rv:48.0) Gecko/20100101 Firefox/48.0,Macintosh,Firefox,48,OS X,10.6
37,1,null,"""",html-keyboard-response,153,577578,0.0-153.0,"""","<div style=""font-size:60px;"">+</div>","""",256,fixation,Memorization,null,500,"""","""","""","""","""","""","""","""",1,4/20/2021 0:07,68.168.191.42,Mozilla/5.0 (Macintosh; Intel Mac OS X 10.6; rv:48.0) Gecko/20100101 Firefox/48.0,Macintosh,Firefox,48,OS X,10.6
37,1,1893.43,"""",html-keyboard-response,154,579476,0.0-154.0,"""",Press Any Key to Begin Memory Test,"""",1,welcomeScreen,Break,75,"""","""","""","""","""","""","""","""","""",1,4/20/2021 0:07,68.168.191.42,Mozilla/5.0 (Macintosh; Intel Mac OS X 10.6; rv:48.0) Gecko/20100101 Firefox/48.0,Macintosh,Firefox,48,OS X,10.6
37,1,null,"""",html-keyboard-response,155,580479,0.0-155.0,"""","<div style=""font-size:60px;"">+</div>","""",256,ITI,Test,null,1000,"""","""","""","""","""","""","""","""",1,4/20/2021 0:07,68.168.191.42,Mozilla/5.0 (Macintosh; Intel Mac OS X 10.6; rv:48.0) Gecko/20100101 Firefox/48.0,Macintosh,Firefox,48,OS X,10.6
37,1,null,"""",image-keyboard-response,156,580737,0.0-156.0,"""",jspsych/scrambledDisgustFaces/scrambledBM11DIS.JPG,"""",256,forwardMask,Test,null,250,"""",d,"""","""","""","""","""","""",1,4/20/2021 0:07,68.168.191.42,Mozilla/5.0 (Macintosh; Intel Mac OS X 10.6; rv:48.0) Gecko/20100101 Firefox/48.0,Macintosh,Firefox,48,OS X,10.6
37,1,null,"""",image-keyboard-response,157,580758,0.0-157.0,"""",jspsych/disgustFaces/BM12DIS.JPG,"""",256,Cue,Test,null,16,"""","""","""","""","""","""","""","""",1,4/20/2021 0:07,68.168.191.42,Mozilla/5.0 (Macintosh; Intel Mac OS X 10.6; rv:48.0) Gecko/20100101 Firefox/48.0,Macintosh,Firefox,48,OS X,10.6
37,1,null,"""",image-keyboard-response,158,580864,0.0-158.0,"""",jspsych/neutralFaces/BM16NES.JPG,"""",256,backwardMask,Test,null,100,"""","""","""","""","""","""","""","""",1,4/20/2021 0:07,68.168.191.42,Mozilla/5.0 (Macintosh; Intel Mac OS X 10.6; rv:48.0) Gecko/20100101 Firefox/48.0,Macintosh,Firefox,48,OS X,10.6
37,1,null,"""",html-keyboard-response,159,581867,0.0-159.0,"""","<div style=""font-size:60px;"">+</div>","""",256,fixationBtwnNeutralMaskAndPrompt,Test,null,1000,"""","""","""","""","""","""","""","""",1,4/20/2021 0:07,68.168.191.42,Mozilla/5.0 (Macintosh; Intel Mac OS X 10.6; rv:48.0) Gecko/20100101 Firefox/48.0,Macintosh,Firefox,48,OS X,10.6
37,1,3508.55,"""",html-button-response,160,585379,0.0-160.0,"""","<img src='jspsych/CFDfaces/CFD-BF-221-223-N.jpg' height=""250px"">,</br><b>Emily</b>",1,256,IntactOrRearranged,Test,"""","""","""","""",CFD-WF-016-015-N.jpg,Sara,1,"""","""",1,1,4/20/2021 0:07,68.168.191.42,Mozilla/5.0 (Macintosh; Intel Mac OS X 10.6; rv:48.0) Gecko/20100101 Firefox/48.0,Macintosh,Firefox,48,OS X,10.6
37,1,4794.46,"""",html-slider-response,161,590183,0.0-161.0,"""","<img src='jspsych/CFDfaces/CFD-BF-221-223-N.jpg' height=""250px"">,</br><b>Emily</b>","""",256,ConfidenceQuery,Test,"""","""","""","""",CFD-WF-016-015-N.jpg,Sara,1,0,85,"""",1,4/20/2021 0:07,68.168.191.42,Mozilla/5.0 (Macintosh; Intel Mac OS X 10.6; rv:48.0) Gecko/20100101 Firefox/48.0,Macintosh,Firefox,48,OS X,10.6
37,1,null,"""",html-keyboard-response,162,591186,0.0-162.0,"""","<div style=""font-size:60px;"">+</div>","""",256,ITI,Test,null,1000,"""","""","""","""","""","""","""","""",1,4/20/2021 0:07,68.168.191.42,Mozilla/5.0 (Macintosh; Intel Mac OS X 10.6; rv:48.0) Gecko/20100101 Firefox/48.0,Macintosh,Firefox,48,OS X,10.6
37,1,null,"""",image-keyboard-response,163,591443,0.0-163.0,"""",jspsych/scrambledDisgustFaces/scrambledBM07DIS.JPG,"""",256,forwardMask,Test,null,250,"""",d,"""","""","""","""","""","""",1,4/20/2021 0:07,68.168.191.42,Mozilla/5.0 (Macintosh; Intel Mac OS X 10.6; rv:48.0) Gecko/20100101 Firefox/48.0,Macintosh,Firefox,48,OS X,10.6
37,1,null,"""",image-keyboard-response,164,591471,0.0-164.0,"""",jspsych/disgustFaces/BM08DIS.JPG,"""",256,Cue,Test,null,16,"""","""","""","""","""","""","""","""",1,4/20/2021 0:07,68.168.191.42,Mozilla/5.0 (Macintosh; Intel Mac OS X 10.6; rv:48.0) Gecko/20100101 Firefox/48.0,Macintosh,Firefox,48,OS X,10.6
37,1,null,"""",image-keyboard-response,165,591575,0.0-165.0,"""",jspsych/neutralFaces/BM08NES.JPG,"""",256,backwardMask,Test,null,100,"""","""","""","""","""","""","""","""",1,4/20/2021 0:07,68.168.191.42,Mozilla/5.0 (Macintosh; Intel Mac OS X 10.6; rv:48.0) Gecko/20100101 Firefox/48.0,Macintosh,Firefox,48,OS X,10.6
37,1,null,"""",html-keyboard-response,166,592577,0.0-166.0,"""","<div style=""font-size:60px;"">+</div>","""",256,fixationBtwnNeutralMaskAndPrompt,Test,null,1000,"""","""","""","""","""","""","""","""",1,4/20/2021 0:07,68.168.191.42,Mozilla/5.0 (Macintosh; Intel Mac OS X 10.6; rv:48.0) Gecko/20100101 Firefox/48.0,Macintosh,Firefox,48,OS X,10.6
37,1,3254.06,"""",html-button-response,167,595833,0.0-167.0,"""","<img src='jspsych/CFDfaces/CFD-BM-207-024-N.jpg' height=""250px"">,</br><b>Richard</b>",0,256,IntactOrRearranged,Test,"""","""","""","""",CFD-LF-232-199-N.jpg,Jordan,1,"""","""",0,1,4/20/2021 0:07,68.168.191.42,Mozilla/5.0 (Macintosh; Intel Mac OS X 10.6; rv:48.0) Gecko/20100101 Firefox/48.0,Macintosh,Firefox,48,OS X,10.6
37,1,3723.835,"""",html-slider-response,168,599559,0.0-168.0,"""","<img src='jspsych/CFDfaces/CFD-BM-207-024-N.jpg' height=""250px"">,</br><b>Richard</b>","""",256,ConfidenceQuery,Test,"""","""","""","""",CFD-LF-232-199-N.jpg,Jordan,1,0,39,"""",1,4/20/2021 0:07,68.168.191.42,Mozilla/5.0 (Macintosh; Intel Mac OS X 10.6; rv:48.0) Gecko/20100101 Firefox/48.0,Macintosh,Firefox,48,OS X,10.6
37,1,null,"""",html-keyboard-response,169,600570,0.0-169.0,"""","<div style=""font-size:60px;"">+</div>","""",256,ITI,Test,null,1000,"""","""","""","""","""","""","""","""",1,4/20/2021 0:07,68.168.191.42,Mozilla/5.0 (Macintosh; Intel Mac OS X 10.6; rv:48.0) Gecko/20100101 Firefox/48.0,Macintosh,Firefox,48,OS X,10.6
37,1,null,"""",image-keyboard-response,170,600826,0.0-170.0,"""",jspsych/scrambledDisgustFaces/scrambledBM14DIS.JPG,"""",256,forwardMask,Test,null,250,"""",d,"""","""","""","""","""","""",1,4/20/2021 0:07,68.168.191.42,Mozilla/5.0 (Macintosh; Intel Mac OS X 10.6; rv:48.0) Gecko/20100101 Firefox/48.0,Macintosh,Firefox,48,OS X,10.6
37,1,null,"""",image-keyboard-response,171,600848,0.0-171.0,"""",jspsych/disgustFaces/BM15DIS.JPG,"""",256,Cue,Test,null,16,"""","""","""","""","""","""","""","""",1,4/20/2021 0:07,68.168.191.42,Mozilla/5.0 (Macintosh; Intel Mac OS X 10.6; rv:48.0) Gecko/20100101 Firefox/48.0,Macintosh,Firefox,48,OS X,10.6
37,1,null,"""",image-keyboard-response,172,600955,0.0-172.0,"""",jspsych/neutralFaces/BM23NES.JPG,"""",256,backwardMask,Test,null,100,"""","""","""","""","""","""","""","""",1,4/20/2021 0:07,68.168.191.42,Mozilla/5.0 (Macintosh; Intel Mac OS X 10.6; rv:48.0) Gecko/20100101 Firefox/48.0,Macintosh,Firefox,48,OS X,10.6
37,1,null,"""",html-keyboard-response,173,601959,0.0-173.0,"""","<div style=""font-size:60px;"">+</div>","""",256,fixationBtwnNeutralMaskAndPrompt,Test,null,1000,"""","""","""","""","""","""","""","""",1,4/20/2021 0:07,68.168.191.42,Mozilla/5.0 (Macintosh; Intel Mac OS X 10.6; rv:48.0) Gecko/20100101 Firefox/48.0,Macintosh,Firefox,48,OS X,10.6
37,1,2598.185,"""",html-button-response,174,604559,0.0-174.0,"""","<img src='jspsych/CFDfaces/CFD-AF-226-251-N.jpg' height=""250px"">,</br><b>Brittany</b>",0,256,IntactOrRearranged,Test,"""","""","""","""",CFD-AF-243-170-N.jpg,Taylor,0,"""","""",0,1,4/20/2021 0:07,68.168.191.42,Mozilla/5.0 (Macintosh; Intel Mac OS X 10.6; rv:48.0) Gecko/20100101 Firefox/48.0,Macintosh,Firefox,48,OS X,10.6
37,1,4175.705,"""",html-slider-response,175,608738,0.0-175.0,"""","<img src='jspsych/CFDfaces/CFD-AF-226-251-N.jpg' height=""250px"">,</br><b>Brittany</b>","""",256,ConfidenceQuery,Test,"""","""","""","""",CFD-AF-243-170-N.jpg,Taylor,0,0,82,"""",1,4/20/2021 0:07,68.168.191.42,Mozilla/5.0 (Macintosh; Intel Mac OS X 10.6; rv:48.0) Gecko/20100101 Firefox/48.0,Macintosh,Firefox,48,OS X,10.6
37,1,null,"""",html-keyboard-response,176,609741,0.0-176.0,"""","<div style=""font-size:60px;"">+</div>","""",256,ITI,Test,null,1000,"""","""","""","""","""","""","""","""",1,4/20/2021 0:07,68.168.191.42,Mozilla/5.0 (Macintosh; Intel Mac OS X 10.6; rv:48.0) Gecko/20100101 Firefox/48.0,Macintosh,Firefox,48,OS X,10.6
37,1,null,"""",image-keyboard-response,177,610005,0.0-177.0,"""",jspsych/scrambledDisgustFaces/scrambledBF23DIS.JPG,"""",256,forwardMask,Test,null,250,"""",d,"""","""","""","""","""","""",1,4/20/2021 0:07,68.168.191.42,Mozilla/5.0 (Macintosh; Intel Mac OS X 10.6; rv:48.0) Gecko/20100101 Firefox/48.0,Macintosh,Firefox,48,OS X,10.6
37,1,null,"""",image-keyboard-response,178,610027,0.0-178.0,"""",jspsych/disgustFaces/BF23DIS.JPG,"""",256,Cue,Test,null,16,"""","""","""","""","""","""","""","""",1,4/20/2021 0:07,68.168.191.42,Mozilla/5.0 (Macintosh; Intel Mac OS X 10.6; rv:48.0) Gecko/20100101 Firefox/48.0,Macintosh,Firefox,48,OS X,10.6
37,1,null,"""",image-keyboard-response,179,610133,0.0-179.0,"""",jspsych/neutralFaces/BF27NES.JPG,"""",256,backwardMask,Test,null,100,"""","""","""","""","""","""","""","""",1,4/20/2021 0:07,68.168.191.42,Mozilla/5.0 (Macintosh; Intel Mac OS X 10.6; rv:48.0) Gecko/20100101 Firefox/48.0,Macintosh,Firefox,48,OS X,10.6
37,1,null,"""",html-keyboard-response,180,611137,0.0-180.0,"""","<div style=""font-size:60px;"">+</div>","""",256,fixationBtwnNeutralMaskAndPrompt,Test,null,1000,"""","""","""","""","""","""","""","""",1,4/20/2021 0:07,68.168.191.42,Mozilla/5.0 (Macintosh; Intel Mac OS X 10.6; rv:48.0) Gecko/20100101 Firefox/48.0,Macintosh,Firefox,48,OS X,10.6
37,1,1786.265,"""",html-button-response,181,612925,0.0-181.0,"""","<img src='jspsych/CFDfaces/CFD-BF-004-014-N.jpg' height=""250px"">,</br><b>Vanessa</b>",0,256,IntactOrRearranged,Test,"""","""","""","""",CFD-BM-010-003-N.jpg,Travis,0,"""","""",0,1,4/20/2021 0:07,68.168.191.42,Mozilla/5.0 (Macintosh; Intel Mac OS X 10.6; rv:48.0) Gecko/20100101 Firefox/48.0,Macintosh,Firefox,48,OS X,10.6
37,1,4493.51,"""",html-slider-response,182,617421,0.0-182.0,"""","<img src='jspsych/CFDfaces/CFD-BF-004-014-N.jpg' height=""250px"">,</br><b>Vanessa</b>","""",256,ConfidenceQuery,Test,"""","""","""","""",CFD-BM-010-003-N.jpg,Travis,0,0,63,"""",1,4/20/2021 0:07,68.168.191.42,Mozilla/5.0 (Macintosh; Intel Mac OS X 10.6; rv:48.0) Gecko/20100101 Firefox/48.0,Macintosh,Firefox,48,OS X,10.6
37,1,null,"""",html-keyboard-response,183,618432,0.0-183.0,"""","<div style=""font-size:60px;"">+</div>","""",256,ITI,Test,null,1000,"""","""","""","""","""","""","""","""",1,4/20/2021 0:07,68.168.191.42,Mozilla/5.0 (Macintosh; Intel Mac OS X 10.6; rv:48.0) Gecko/20100101 Firefox/48.0,Macintosh,Firefox,48,OS X,10.6
37,1,null,"""",image-keyboard-response,184,618689,0.0-184.0,"""",jspsych/scrambledDisgustFaces/scrambledBM15DIS.JPG,"""",256,forwardMask,Test,null,250,"""",d,"""","""","""","""","""","""",1,4/20/2021 0:07,68.168.191.42,Mozilla/5.0 (Macintosh; Intel Mac OS X 10.6; rv:48.0) Gecko/20100101 Firefox/48.0,Macintosh,Firefox,48,OS X,10.6
37,1,null,"""",image-keyboard-response,185,618710,0.0-185.0,"""",jspsych/disgustFaces/BM16DIS.JPG,"""",256,Cue,Test,null,16,"""","""","""","""","""","""","""","""",1,4/20/2021 0:07,68.168.191.42,Mozilla/5.0 (Macintosh; Intel Mac OS X 10.6; rv:48.0) Gecko/20100101 Firefox/48.0,Macintosh,Firefox,48,OS X,10.6
37,1,null,"""",image-keyboard-response,186,618817,0.0-186.0,"""",jspsych/neutralFaces/AM34NES.JPG,"""",256,backwardMask,Test,null,100,"""","""","""","""","""","""","""","""",1,4/20/2021 0:07,68.168.191.42,Mozilla/5.0 (Macintosh; Intel Mac OS X 10.6; rv:48.0) Gecko/20100101 Firefox/48.0,Macintosh,Firefox,48,OS X,10.6
37,1,null,"""",html-keyboard-response,187,619821,0.0-187.0,"""","<div style=""font-size:60px;"">+</div>","""",256,fixationBtwnNeutralMaskAndPrompt,Test,null,1000,"""","""","""","""","""","""","""","""",1,4/20/2021 0:07,68.168.191.42,Mozilla/5.0 (Macintosh; Intel Mac OS X 10.6; rv:48.0) Gecko/20100101 Firefox/48.0,Macintosh,Firefox,48,OS X,10.6
37,1,2466.69,"""",html-button-response,188,622289,0.0-188.0,"""","<img src='jspsych/CFDfaces/CFD-WF-223-133-N.jpg' height=""250px"">,</br><b>Samantha</b>",0,256,IntactOrRearranged,Test,"""","""","""","""",CFD-WF-023-003-N.jpg,Amy,0,"""","""",0,1,4/20/2021 0:07,68.168.191.42,Mozilla/5.0 (Macintosh; Intel Mac OS X 10.6; rv:48.0) Gecko/20100101 Firefox/48.0,Macintosh,Firefox,48,OS X,10.6
37,1,null,"""",html-slider-response,189,627294,0.0-189.0,"""","<img src='jspsych/CFDfaces/CFD-WF-223-133-N.jpg' height=""250px"">,</br><b>Samantha</b>","""",256,ConfidenceQuery,Test,"""","""","""","""",CFD-WF-023-003-N.jpg,Amy,0,0,null,"""",1,4/20/2021 0:07,68.168.191.42,Mozilla/5.0 (Macintosh; Intel Mac OS X 10.6; rv:48.0) Gecko/20100101 Firefox/48.0,Macintosh,Firefox,48,OS X,10.6
37,1,null,"""",html-keyboard-response,190,628309,0.0-190.0,"""","<div style=""font-size:60px;"">+</div>","""",256,ITI,Test,null,1000,"""","""","""","""","""","""","""","""",1,4/20/2021 0:07,68.168.191.42,Mozilla/5.0 (Macintosh; Intel Mac OS X 10.6; rv:48.0) Gecko/20100101 Firefox/48.0,Macintosh,Firefox,48,OS X,10.6
37,1,null,"""",image-keyboard-response,191,628566,0.0-191.0,"""",jspsych/scrambledDisgustFaces/scrambledAF22DIS.JPG,"""",256,forwardMask,Test,null,250,"""",d,"""","""","""","""","""","""",1,4/20/2021 0:07,68.168.191.42,Mozilla/5.0 (Macintosh; Intel Mac OS X 10.6; rv:48.0) Gecko/20100101 Firefox/48.0,Macintosh,Firefox,48,OS X,10.6
37,1,null,"""",image-keyboard-response,192,628587,0.0-192.0,"""",jspsych/disgustFaces/AF22DIS.JPG,"""",256,Cue,Test,null,16,"""","""","""","""","""","""","""","""",1,4/20/2021 0:07,68.168.191.42,Mozilla/5.0 (Macintosh; Intel Mac OS X 10.6; rv:48.0) Gecko/20100101 Firefox/48.0,Macintosh,Firefox,48,OS X,10.6
37,1,null,"""",image-keyboard-response,193,628754,0.0-193.0,"""",jspsych/neutralFaces/BF01NES.JPG,"""",256,backwardMask,Test,null,100,"""","""","""","""","""","""","""","""",1,4/20/2021 0:07,68.168.191.42,Mozilla/5.0 (Macintosh; Intel Mac OS X 10.6; rv:48.0) Gecko/20100101 Firefox/48.0,Macintosh,Firefox,48,OS X,10.6
37,1,null,"""",html-keyboard-response,194,629756,0.0-194.0,"""","<div style=""font-size:60px;"">+</div>","""",256,fixationBtwnNeutralMaskAndPrompt,Test,null,1000,"""","""","""","""","""","""","""","""",1,4/20/2021 0:07,68.168.191.42,Mozilla/5.0 (Macintosh; Intel Mac OS X 10.6; rv:48.0) Gecko/20100101 Firefox/48.0,Macintosh,Firefox,48,OS X,10.6
37,1,1846.505,"""",html-button-response,195,631605,0.0-195.0,"""","<img src='jspsych/CFDfaces/CFD-BF-023-010-N.jpg' height=""250px"">,</br><b>Meghan</b>",0,256,IntactOrRearranged,Test,"""","""","""","""",CFD-LM-213-061-N.jpg,Austin,0,"""","""",0,1,4/20/2021 0:07,68.168.191.42,Mozilla/5.0 (Macintosh; Intel Mac OS X 10.6; rv:48.0) Gecko/20100101 Firefox/48.0,Macintosh,Firefox,48,OS X,10.6
37,1,3333.57,"""",html-slider-response,196,634941,0.0-196.0,"""","<img src='jspsych/CFDfaces/CFD-BF-023-010-N.jpg' height=""250px"">,</br><b>Meghan</b>","""",256,ConfidenceQuery,Test,"""","""","""","""",CFD-LM-213-061-N.jpg,Austin,0,0,39,"""",1,4/20/2021 0:07,68.168.191.42,Mozilla/5.0 (Macintosh; Intel Mac OS X 10.6; rv:48.0) Gecko/20100101 Firefox/48.0,Macintosh,Firefox,48,OS X,10.6
37,1,null,"""",html-keyboard-response,197,635952,0.0-197.0,"""","<div style=""font-size:60px;"">+</div>","""",256,ITI,Test,null,1000,"""","""","""","""","""","""","""","""",1,4/20/2021 0:07,68.168.191.42,Mozilla/5.0 (Macintosh; Intel Mac OS X 10.6; rv:48.0) Gecko/20100101 Firefox/48.0,Macintosh,Firefox,48,OS X,10.6
37,1,null,"""",image-keyboard-response,198,636208,0.0-198.0,"""",jspsych/scrambledNeutralFaces/scrambledBM28NES.JPG,"""",256,forwardMask,Test,null,250,"""",n,"""","""","""","""","""","""",1,4/20/2021 0:07,68.168.191.42,Mozilla/5.0 (Macintosh; Intel Mac OS X 10.6; rv:48.0) Gecko/20100101 Firefox/48.0,Macintosh,Firefox,48,OS X,10.6
37,1,null,"""",image-keyboard-response,199,636229,0.0-199.0,"""",jspsych/neutralFaces/BM28NES.JPG,"""",256,Cue,Test,null,16,"""","""","""","""","""","""","""","""",1,4/20/2021 0:07,68.168.191.42,Mozilla/5.0 (Macintosh; Intel Mac OS X 10.6; rv:48.0) Gecko/20100101 Firefox/48.0,Macintosh,Firefox,48,OS X,10.6
37,1,null,"""",image-keyboard-response,200,636334,0.0-200.0,"""",jspsych/neutralFaces/BM22NES.JPG,"""",256,backwardMask,Test,null,100,"""","""","""","""","""","""","""","""",1,4/20/2021 0:07,68.168.191.42,Mozilla/5.0 (Macintosh; Intel Mac OS X 10.6; rv:48.0) Gecko/20100101 Firefox/48.0,Macintosh,Firefox,48,OS X,10.6
37,1,null,"""",html-keyboard-response,201,637336,0.0-201.0,"""","<div style=""font-size:60px;"">+</div>","""",256,fixationBtwnNeutralMaskAndPrompt,Test,null,1000,"""","""","""","""","""","""","""","""",1,4/20/2021 0:07,68.168.191.42,Mozilla/5.0 (Macintosh; Intel Mac OS X 10.6; rv:48.0) Gecko/20100101 Firefox/48.0,Macintosh,Firefox,48,OS X,10.6
37,1,1892.585,"""",html-button-response,202,639231,0.0-202.0,"""","<img src='jspsych/CFDfaces/CFD-LF-220-120-N.jpg' height=""250px"">,</br><b>Kayla</b>",0,256,IntactOrRearranged,Test,"""","""","""","""",CFD-LM-200-045-N.jpg,Timothy,0,"""","""",0,1,4/20/2021 0:07,68.168.191.42,Mozilla/5.0 (Macintosh; Intel Mac OS X 10.6; rv:48.0) Gecko/20100101 Firefox/48.0,Macintosh,Firefox,48,OS X,10.6
37,1,3640.395,"""",html-slider-response,203,642874,0.0-203.0,"""","<img src='jspsych/CFDfaces/CFD-LF-220-120-N.jpg' height=""250px"">,</br><b>Kayla</b>","""",256,ConfidenceQuery,Test,"""","""","""","""",CFD-LM-200-045-N.jpg,Timothy,0,0,68,"""",1,4/20/2021 0:07,68.168.191.42,Mozilla/5.0 (Macintosh; Intel Mac OS X 10.6; rv:48.0) Gecko/20100101 Firefox/48.0,Macintosh,Firefox,48,OS X,10.6
37,1,null,"""",html-keyboard-response,204,643885,0.0-204.0,"""","<div style=""font-size:60px;"">+</div>","""",256,ITI,Test,null,1000,"""","""","""","""","""","""","""","""",1,4/20/2021 0:07,68.168.191.42,Mozilla/5.0 (Macintosh; Intel Mac OS X 10.6; rv:48.0) Gecko/20100101 Firefox/48.0,Macintosh,Firefox,48,OS X,10.6
37,1,null,"""",image-keyboard-response,205,644139,0.0-205.0,"""",jspsych/scrambledNeutralFaces/scrambledBF29NES.JPG,"""",256,forwardMask,Test,null,250,"""",n,"""","""","""","""","""","""",1,4/20/2021 0:07,68.168.191.42,Mozilla/5.0 (Macintosh; Intel Mac OS X 10.6; rv:48.0) Gecko/20100101 Firefox/48.0,Macintosh,Firefox,48,OS X,10.6
37,1,null,"""",image-keyboard-response,206,644161,0.0-206.0,"""",jspsych/neutralFaces/BF29NES.JPG,"""",256,Cue,Test,null,16,"""","""","""","""","""","""","""","""",1,4/20/2021 0:07,68.168.191.42,Mozilla/5.0 (Macintosh; Intel Mac OS X 10.6; rv:48.0) Gecko/20100101 Firefox/48.0,Macintosh,Firefox,48,OS X,10.6
37,1,null,"""",image-keyboard-response,207,644266,0.0-207.0,"""",jspsych/neutralFaces/BF23NES.JPG,"""",256,backwardMask,Test,null,100,"""","""","""","""","""","""","""","""",1,4/20/2021 0:07,68.168.191.42,Mozilla/5.0 (Macintosh; Intel Mac OS X 10.6; rv:48.0) Gecko/20100101 Firefox/48.0,Macintosh,Firefox,48,OS X,10.6
37,1,null,"""",html-keyboard-response,208,645270,0.0-208.0,"""","<div style=""font-size:60px;"">+</div>","""",256,fixationBtwnNeutralMaskAndPrompt,Test,null,1000,"""","""","""","""","""","""","""","""",1,4/20/2021 0:07,68.168.191.42,Mozilla/5.0 (Macintosh; Intel Mac OS X 10.6; rv:48.0) Gecko/20100101 Firefox/48.0,Macintosh,Firefox,48,OS X,10.6
37,1,3306.59,"""",html-button-response,209,648579,0.0-209.0,"""","<img src='jspsych/CFDfaces/CFD-BM-043-071-N.jpg' height=""250px"">,</br><b>Eric</b>",0,256,IntactOrRearranged,Test,"""","""","""","""",CFD-WM-011-002-N.jpg,Jeremy,1,"""","""",0,1,4/20/2021 0:07,68.168.191.42,Mozilla/5.0 (Macintosh; Intel Mac OS X 10.6; rv:48.0) Gecko/20100101 Firefox/48.0,Macintosh,Firefox,48,OS X,10.6
37,1,3487.605,"""",html-slider-response,210,652069,0.0-210.0,"""","<img src='jspsych/CFDfaces/CFD-BM-043-071-N.jpg' height=""250px"">,</br><b>Eric</b>","""",256,ConfidenceQuery,Test,"""","""","""","""",CFD-WM-011-002-N.jpg,Jeremy,1,0,33,"""",1,4/20/2021 0:07,68.168.191.42,Mozilla/5.0 (Macintosh; Intel Mac OS X 10.6; rv:48.0) Gecko/20100101 Firefox/48.0,Macintosh,Firefox,48,OS X,10.6
37,1,null,"""",html-keyboard-response,211,653080,0.0-211.0,"""","<div style=""font-size:60px;"">+</div>","""",256,ITI,Test,null,1000,"""","""","""","""","""","""","""","""",1,4/20/2021 0:07,68.168.191.42,Mozilla/5.0 (Macintosh; Intel Mac OS X 10.6; rv:48.0) Gecko/20100101 Firefox/48.0,Macintosh,Firefox,48,OS X,10.6
37,1,null,"""",image-keyboard-response,212,653337,0.0-212.0,"""",jspsych/scrambledNeutralFaces/scrambledBF17NES.JPG,"""",256,forwardMask,Test,null,250,"""",n,"""","""","""","""","""","""",1,4/20/2021 0:07,68.168.191.42,Mozilla/5.0 (Macintosh; Intel Mac OS X 10.6; rv:48.0) Gecko/20100101 Firefox/48.0,Macintosh,Firefox,48,OS X,10.6
37,1,null,"""",image-keyboard-response,213,653359,0.0-213.0,"""",jspsych/neutralFaces/BF17NES.JPG,"""",256,Cue,Test,null,16,"""","""","""","""","""","""","""","""",1,4/20/2021 0:07,68.168.191.42,Mozilla/5.0 (Macintosh; Intel Mac OS X 10.6; rv:48.0) Gecko/20100101 Firefox/48.0,Macintosh,Firefox,48,OS X,10.6
37,1,null,"""",image-keyboard-response,214,653464,0.0-214.0,"""",jspsych/neutralFaces/BF33NES.JPG,"""",256,backwardMask,Test,null,100,"""","""","""","""","""","""","""","""",1,4/20/2021 0:07,68.168.191.42,Mozilla/5.0 (Macintosh; Intel Mac OS X 10.6; rv:48.0) Gecko/20100101 Firefox/48.0,Macintosh,Firefox,48,OS X,10.6
37,1,null,"""",html-keyboard-response,215,654467,0.0-215.0,"""","<div style=""font-size:60px;"">+</div>","""",256,fixationBtwnNeutralMaskAndPrompt,Test,null,1000,"""","""","""","""","""","""","""","""",1,4/20/2021 0:07,68.168.191.42,Mozilla/5.0 (Macintosh; Intel Mac OS X 10.6; rv:48.0) Gecko/20100101 Firefox/48.0,Macintosh,Firefox,48,OS X,10.6
37,1,2904.705,"""",html-button-response,216,657374,0.0-216.0,"""","<img src='jspsych/CFDfaces/CFD-AM-242-176-N.jpg' height=""250px"">,</br><b>Joshua</b>",1,256,IntactOrRearranged,Test,"""","""","""","""",CFD-AF-235-170-N.jpg,Erin,1,"""","""",1,1,4/20/2021 0:07,68.168.191.42,Mozilla/5.0 (Macintosh; Intel Mac OS X 10.6; rv:48.0) Gecko/20100101 Firefox/48.0,Macintosh,Firefox,48,OS X,10.6
37,1,3269.145,"""",html-slider-response,217,660645,0.0-217.0,"""","<img src='jspsych/CFDfaces/CFD-AM-242-176-N.jpg' height=""250px"">,</br><b>Joshua</b>","""",256,ConfidenceQuery,Test,"""","""","""","""",CFD-AF-235-170-N.jpg,Erin,1,0,31,"""",1,4/20/2021 0:07,68.168.191.42,Mozilla/5.0 (Macintosh; Intel Mac OS X 10.6; rv:48.0) Gecko/20100101 Firefox/48.0,Macintosh,Firefox,48,OS X,10.6
37,1,null,"""",html-keyboard-response,218,661650,0.0-218.0,"""","<div style=""font-size:60px;"">+</div>","""",256,ITI,Test,null,1000,"""","""","""","""","""","""","""","""",1,4/20/2021 0:07,68.168.191.42,Mozilla/5.0 (Macintosh; Intel Mac OS X 10.6; rv:48.0) Gecko/20100101 Firefox/48.0,Macintosh,Firefox,48,OS X,10.6
37,1,null,"""",image-keyboard-response,219,661906,0.0-219.0,"""",jspsych/scrambledDisgustFaces/scrambledBF20DIS.JPG,"""",256,forwardMask,Test,null,250,"""",d,"""","""","""","""","""","""",1,4/20/2021 0:07,68.168.191.42,Mozilla/5.0 (Macintosh; Intel Mac OS X 10.6; rv:48.0) Gecko/20100101 Firefox/48.0,Macintosh,Firefox,48,OS X,10.6
37,1,null,"""",image-keyboard-response,220,661927,0.0-220.0,"""",jspsych/disgustFaces/BF20DIS.JPG,"""",256,Cue,Test,null,16,"""","""","""","""","""","""","""","""",1,4/20/2021 0:07,68.168.191.42,Mozilla/5.0 (Macintosh; Intel Mac OS X 10.6; rv:48.0) Gecko/20100101 Firefox/48.0,Macintosh,Firefox,48,OS X,10.6
37,1,null,"""",image-keyboard-response,221,662031,0.0-221.0,"""",jspsych/neutralFaces/BF17NES.JPG,"""",256,backwardMask,Test,null,100,"""","""","""","""","""","""","""","""",1,4/20/2021 0:07,68.168.191.42,Mozilla/5.0 (Macintosh; Intel Mac OS X 10.6; rv:48.0) Gecko/20100101 Firefox/48.0,Macintosh,Firefox,48,OS X,10.6
37,1,null,"""",html-keyboard-response,222,663034,0.0-222.0,"""","<div style=""font-size:60px;"">+</div>","""",256,fixationBtwnNeutralMaskAndPrompt,Test,null,1000,"""","""","""","""","""","""","""","""",1,4/20/2021 0:07,68.168.191.42,Mozilla/5.0 (Macintosh; Intel Mac OS X 10.6; rv:48.0) Gecko/20100101 Firefox/48.0,Macintosh,Firefox,48,OS X,10.6
37,1,2200.765,"""",html-button-response,223,665245,0.0-223.0,"""","<img src='jspsych/CFDfaces/CFD-LF-204-133-N.jpg' height=""250px"">,</br><b>Andrea</b>",0,256,IntactOrRearranged,Test,"""","""","""","""",CFD-AM-231-136-N.jpg,Kenneth,1,"""","""",0,1,4/20/2021 0:07,68.168.191.42,Mozilla/5.0 (Macintosh; Intel Mac OS X 10.6; rv:48.0) Gecko/20100101 Firefox/48.0,Macintosh,Firefox,48,OS X,10.6
37,1,3071.45,"""",html-slider-response,224,668319,0.0-224.0,"""","<img src='jspsych/CFDfaces/CFD-LF-204-133-N.jpg' height=""250px"">,</br><b>Andrea</b>","""",256,ConfidenceQuery,Test,"""","""","""","""",CFD-AM-231-136-N.jpg,Kenneth,1,0,52,"""",1,4/20/2021 0:07,68.168.191.42,Mozilla/5.0 (Macintosh; Intel Mac OS X 10.6; rv:48.0) Gecko/20100101 Firefox/48.0,Macintosh,Firefox,48,OS X,10.6
37,1,null,"""",html-keyboard-response,225,669323,0.0-225.0,"""","<div style=""font-size:60px;"">+</div>","""",256,ITI,Test,null,1000,"""","""","""","""","""","""","""","""",1,4/20/2021 0:07,68.168.191.42,Mozilla/5.0 (Macintosh; Intel Mac OS X 10.6; rv:48.0) Gecko/20100101 Firefox/48.0,Macintosh,Firefox,48,OS X,10.6
37,1,null,"""",image-keyboard-response,226,669588,0.0-226.0,"""",jspsych/scrambledNeutralFaces/scrambledBM05NES.JPG,"""",256,forwardMask,Test,null,250,"""",n,"""","""","""","""","""","""",1,4/20/2021 0:07,68.168.191.42,Mozilla/5.0 (Macintosh; Intel Mac OS X 10.6; rv:48.0) Gecko/20100101 Firefox/48.0,Macintosh,Firefox,48,OS X,10.6
37,1,null,"""",image-keyboard-response,227,669609,0.0-227.0,"""",jspsych/neutralFaces/BM05NES.JPG,"""",256,Cue,Test,null,16,"""","""","""","""","""","""","""","""",1,4/20/2021 0:07,68.168.191.42,Mozilla/5.0 (Macintosh; Intel Mac OS X 10.6; rv:48.0) Gecko/20100101 Firefox/48.0,Macintosh,Firefox,48,OS X,10.6
37,1,null,"""",image-keyboard-response,228,669717,0.0-228.0,"""",jspsych/neutralFaces/AM25NES.JPG,"""",256,backwardMask,Test,null,100,"""","""","""","""","""","""","""","""",1,4/20/2021 0:07,68.168.191.42,Mozilla/5.0 (Macintosh; Intel Mac OS X 10.6; rv:48.0) Gecko/20100101 Firefox/48.0,Macintosh,Firefox,48,OS X,10.6
37,1,null,"""",html-keyboard-response,229,670720,0.0-229.0,"""","<div style=""font-size:60px;"">+</div>","""",256,fixationBtwnNeutralMaskAndPrompt,Test,null,1000,"""","""","""","""","""","""","""","""",1,4/20/2021 0:07,68.168.191.42,Mozilla/5.0 (Macintosh; Intel Mac OS X 10.6; rv:48.0) Gecko/20100101 Firefox/48.0,Macintosh,Firefox,48,OS X,10.6
37,1,2620.785,"""",html-button-response,230,673343,0.0-230.0,"""","<img src='jspsych/CFDfaces/CFD-AM-221-184-N.jpg' height=""250px"">,</br><b>Jeffrey</b>",1,256,IntactOrRearranged,Test,"""","""","""","""",CFD-LM-252-076-N.jpg,Sean,1,"""","""",1,1,4/20/2021 0:07,68.168.191.42,Mozilla/5.0 (Macintosh; Intel Mac OS X 10.6; rv:48.0) Gecko/20100101 Firefox/48.0,Macintosh,Firefox,48,OS X,10.6
37,1,4017.645,"""",html-slider-response,231,677363,0.0-231.0,"""","<img src='jspsych/CFDfaces/CFD-AM-221-184-N.jpg' height=""250px"">,</br><b>Jeffrey</b>","""",256,ConfidenceQuery,Test,"""","""","""","""",CFD-LM-252-076-N.jpg,Sean,1,0,86,"""",1,4/20/2021 0:07,68.168.191.42,Mozilla/5.0 (Macintosh; Intel Mac OS X 10.6; rv:48.0) Gecko/20100101 Firefox/48.0,Macintosh,Firefox,48,OS X,10.6
37,1,null,"""",html-keyboard-response,232,678376,0.0-232.0,"""","<div style=""font-size:60px;"">+</div>","""",256,ITI,Test,null,1000,"""","""","""","""","""","""","""","""",1,4/20/2021 0:07,68.168.191.42,Mozilla/5.0 (Macintosh; Intel Mac OS X 10.6; rv:48.0) Gecko/20100101 Firefox/48.0,Macintosh,Firefox,48,OS X,10.6
37,1,null,"""",image-keyboard-response,233,678632,0.0-233.0,"""",jspsych/scrambledDisgustFaces/scrambledBF04DIS.JPG,"""",256,forwardMask,Test,null,250,"""",d,"""","""","""","""","""","""",1,4/20/2021 0:07,68.168.191.42,Mozilla/5.0 (Macintosh; Intel Mac OS X 10.6; rv:48.0) Gecko/20100101 Firefox/48.0,Macintosh,Firefox,48,OS X,10.6
37,1,null,"""",image-keyboard-response,234,678656,0.0-234.0,"""",jspsych/disgustFaces/BF04DIS.JPG,"""",256,Cue,Test,null,16,"""","""","""","""","""","""","""","""",1,4/20/2021 0:07,68.168.191.42,Mozilla/5.0 (Macintosh; Intel Mac OS X 10.6; rv:48.0) Gecko/20100101 Firefox/48.0,Macintosh,Firefox,48,OS X,10.6
37,1,null,"""",image-keyboard-response,235,678763,0.0-235.0,"""",jspsych/neutralFaces/AF03NES.JPG,"""",256,backwardMask,Test,null,100,"""","""","""","""","""","""","""","""",1,4/20/2021 0:07,68.168.191.42,Mozilla/5.0 (Macintosh; Intel Mac OS X 10.6; rv:48.0) Gecko/20100101 Firefox/48.0,Macintosh,Firefox,48,OS X,10.6
37,1,null,"""",html-keyboard-response,236,679769,0.0-236.0,"""","<div style=""font-size:60px;"">+</div>","""",256,fixationBtwnNeutralMaskAndPrompt,Test,null,1000,"""","""","""","""","""","""","""","""",1,4/20/2021 0:07,68.168.191.42,Mozilla/5.0 (Macintosh; Intel Mac OS X 10.6; rv:48.0) Gecko/20100101 Firefox/48.0,Macintosh,Firefox,48,OS X,10.6
37,1,1512.23,"""",html-button-response,237,681285,0.0-237.0,"""","<img src='jspsych/CFDfaces/CFD-LF-206-078-N.jpg' height=""250px"">,</br><b>Stephanie</b>",0,256,IntactOrRearranged,Test,"""","""","""","""",CFD-LM-224-162-N.jpg,Cameron,0,"""","""",0,1,4/20/2021 0:07,68.168.191.42,Mozilla/5.0 (Macintosh; Intel Mac OS X 10.6; rv:48.0) Gecko/20100101 Firefox/48.0,Macintosh,Firefox,48,OS X,10.6
37,1,3562.765,"""",html-slider-response,238,684851,0.0-238.0,"""","<img src='jspsych/CFDfaces/CFD-LF-206-078-N.jpg' height=""250px"">,</br><b>Stephanie</b>","""",256,ConfidenceQuery,Test,"""","""","""","""",CFD-LM-224-162-N.jpg,Cameron,0,0,83,"""",1,4/20/2021 0:07,68.168.191.42,Mozilla/5.0 (Macintosh; Intel Mac OS X 10.6; rv:48.0) Gecko/20100101 Firefox/48.0,Macintosh,Firefox,48,OS X,10.6
37,1,null,"""",html-keyboard-response,239,685866,0.0-239.0,"""","<div style=""font-size:60px;"">+</div>","""",256,ITI,Test,null,1000,"""","""","""","""","""","""","""","""",1,4/20/2021 0:07,68.168.191.42,Mozilla/5.0 (Macintosh; Intel Mac OS X 10.6; rv:48.0) Gecko/20100101 Firefox/48.0,Macintosh,Firefox,48,OS X,10.6
37,1,null,"""",image-keyboard-response,240,686122,0.0-240.0,"""",jspsych/scrambledNeutralFaces/scrambledAM13NES.JPG,"""",256,forwardMask,Test,null,250,"""",n,"""","""","""","""","""","""",1,4/20/2021 0:07,68.168.191.42,Mozilla/5.0 (Macintosh; Intel Mac OS X 10.6; rv:48.0) Gecko/20100101 Firefox/48.0,Macintosh,Firefox,48,OS X,10.6
37,1,null,"""",image-keyboard-response,241,686144,0.0-241.0,"""",jspsych/neutralFaces/AM13NES.JPG,"""",256,Cue,Test,null,16,"""","""","""","""","""","""","""","""",1,4/20/2021 0:07,68.168.191.42,Mozilla/5.0 (Macintosh; Intel Mac OS X 10.6; rv:48.0) Gecko/20100101 Firefox/48.0,Macintosh,Firefox,48,OS X,10.6
37,1,null,"""",image-keyboard-response,242,686252,0.0-242.0,"""",jspsych/neutralFaces/AM33NES.JPG,"""",256,backwardMask,Test,null,100,"""","""","""","""","""","""","""","""",1,4/20/2021 0:07,68.168.191.42,Mozilla/5.0 (Macintosh; Intel Mac OS X 10.6; rv:48.0) Gecko/20100101 Firefox/48.0,Macintosh,Firefox,48,OS X,10.6
37,1,null,"""",html-keyboard-response,243,687256,0.0-243.0,"""","<div style=""font-size:60px;"">+</div>","""",256,fixationBtwnNeutralMaskAndPrompt,Test,null,1000,"""","""","""","""","""","""","""","""",1,4/20/2021 0:07,68.168.191.42,Mozilla/5.0 (Macintosh; Intel Mac OS X 10.6; rv:48.0) Gecko/20100101 Firefox/48.0,Macintosh,Firefox,48,OS X,10.6
37,1,2031.235,"""",html-button-response,244,689289,0.0-244.0,"""","<img src='jspsych/CFDfaces/CFD-LM-217-162-N.jpg' height=""250px"">,</br><b>Peter</b>",0,256,IntactOrRearranged,Test,"""","""","""","""",CFD-AF-201-060-N.jpg,Tiffany,0,"""","""",0,1,4/20/2021 0:07,68.168.191.42,Mozilla/5.0 (Macintosh; Intel Mac OS X 10.6; rv:48.0) Gecko/20100101 Firefox/48.0,Macintosh,Firefox,48,OS X,10.6
37,1,3803.605,"""",html-slider-response,245,693096,0.0-245.0,"""","<img src='jspsych/CFDfaces/CFD-LM-217-162-N.jpg' height=""250px"">,</br><b>Peter</b>","""",256,ConfidenceQuery,Test,"""","""","""","""",CFD-AF-201-060-N.jpg,Tiffany,0,0,51,"""",1,4/20/2021 0:07,68.168.191.42,Mozilla/5.0 (Macintosh; Intel Mac OS X 10.6; rv:48.0) Gecko/20100101 Firefox/48.0,Macintosh,Firefox,48,OS X,10.6
37,1,null,"""",html-keyboard-response,246,694108,0.0-246.0,"""","<div style=""font-size:60px;"">+</div>","""",256,ITI,Test,null,1000,"""","""","""","""","""","""","""","""",1,4/20/2021 0:07,68.168.191.42,Mozilla/5.0 (Macintosh; Intel Mac OS X 10.6; rv:48.0) Gecko/20100101 Firefox/48.0,Macintosh,Firefox,48,OS X,10.6
37,1,null,"""",image-keyboard-response,247,694365,0.0-247.0,"""",jspsych/scrambledNeutralFaces/scrambledBF25NES.JPG,"""",256,forwardMask,Test,null,250,"""",n,"""","""","""","""","""","""",1,4/20/2021 0:07,68.168.191.42,Mozilla/5.0 (Macintosh; Intel Mac OS X 10.6; rv:48.0) Gecko/20100101 Firefox/48.0,Macintosh,Firefox,48,OS X,10.6
37,1,null,"""",image-keyboard-response,248,694386,0.0-248.0,"""",jspsych/neutralFaces/BF25NES.JPG,"""",256,Cue,Test,null,16,"""","""","""","""","""","""","""","""",1,4/20/2021 0:07,68.168.191.42,Mozilla/5.0 (Macintosh; Intel Mac OS X 10.6; rv:48.0) Gecko/20100101 Firefox/48.0,Macintosh,Firefox,48,OS X,10.6
37,1,null,"""",image-keyboard-response,249,694491,0.0-249.0,"""",jspsych/neutralFaces/BF35NES.JPG,"""",256,backwardMask,Test,null,100,"""","""","""","""","""","""","""","""",1,4/20/2021 0:07,68.168.191.42,Mozilla/5.0 (Macintosh; Intel Mac OS X 10.6; rv:48.0) Gecko/20100101 Firefox/48.0,Macintosh,Firefox,48,OS X,10.6
37,1,null,"""",html-keyboard-response,250,695495,0.0-250.0,"""","<div style=""font-size:60px;"">+</div>","""",256,fixationBtwnNeutralMaskAndPrompt,Test,null,1000,"""","""","""","""","""","""","""","""",1,4/20/2021 0:07,68.168.191.42,Mozilla/5.0 (Macintosh; Intel Mac OS X 10.6; rv:48.0) Gecko/20100101 Firefox/48.0,Macintosh,Firefox,48,OS X,10.6
37,1,2399.765,"""",html-button-response,251,697897,0.0-251.0,"""","<img src='jspsych/CFDfaces/CFD-AM-220-134-N.jpg' height=""250px"">,</br><b>Christian</b>",1,256,IntactOrRearranged,Test,"""","""","""","""",CFD-LF-215-157-N.jpg,Lindsey,1,"""","""",1,1,4/20/2021 0:07,68.168.191.42,Mozilla/5.0 (Macintosh; Intel Mac OS X 10.6; rv:48.0) Gecko/20100101 Firefox/48.0,Macintosh,Firefox,48,OS X,10.6
37,1,3501.915,"""",html-slider-response,252,701401,0.0-252.0,"""","<img src='jspsych/CFDfaces/CFD-AM-220-134-N.jpg' height=""250px"">,</br><b>Christian</b>","""",256,ConfidenceQuery,Test,"""","""","""","""",CFD-LF-215-157-N.jpg,Lindsey,1,0,91,"""",1,4/20/2021 0:07,68.168.191.42,Mozilla/5.0 (Macintosh; Intel Mac OS X 10.6; rv:48.0) Gecko/20100101 Firefox/48.0,Macintosh,Firefox,48,OS X,10.6
37,1,null,"""",html-keyboard-response,253,702416,0.0-253.0,"""","<div style=""font-size:60px;"">+</div>","""",256,ITI,Test,null,1000,"""","""","""","""","""","""","""","""",1,4/20/2021 0:07,68.168.191.42,Mozilla/5.0 (Macintosh; Intel Mac OS X 10.6; rv:48.0) Gecko/20100101 Firefox/48.0,Macintosh,Firefox,48,OS X,10.6
37,1,null,"""",image-keyboard-response,254,702672,0.0-254.0,"""",jspsych/scrambledNeutralFaces/scrambledBF14NES.JPG,"""",256,forwardMask,Test,null,250,"""",n,"""","""","""","""","""","""",1,4/20/2021 0:07,68.168.191.42,Mozilla/5.0 (Macintosh; Intel Mac OS X 10.6; rv:48.0) Gecko/20100101 Firefox/48.0,Macintosh,Firefox,48,OS X,10.6
37,1,null,"""",image-keyboard-response,255,702694,0.0-255.0,"""",jspsych/neutralFaces/BF14NES.JPG,"""",256,Cue,Test,null,16,"""","""","""","""","""","""","""","""",1,4/20/2021 0:07,68.168.191.42,Mozilla/5.0 (Macintosh; Intel Mac OS X 10.6; rv:48.0) Gecko/20100101 Firefox/48.0,Macintosh,Firefox,48,OS X,10.6
37,1,null,"""",image-keyboard-response,256,702799,0.0-256.0,"""",jspsych/neutralFaces/AF30NES.JPG,"""",256,backwardMask,Test,null,100,"""","""","""","""","""","""","""","""",1,4/20/2021 0:07,68.168.191.42,Mozilla/5.0 (Macintosh; Intel Mac OS X 10.6; rv:48.0) Gecko/20100101 Firefox/48.0,Macintosh,Firefox,48,OS X,10.6
37,1,null,"""",html-keyboard-response,257,703804,0.0-257.0,"""","<div style=""font-size:60px;"">+</div>","""",256,fixationBtwnNeutralMaskAndPrompt,Test,null,1000,"""","""","""","""","""","""","""","""",1,4/20/2021 0:07,68.168.191.42,Mozilla/5.0 (Macintosh; Intel Mac OS X 10.6; rv:48.0) Gecko/20100101 Firefox/48.0,Macintosh,Firefox,48,OS X,10.6
37,1,2579.805,"""",html-button-response,258,706386,0.0-258.0,"""","<img src='jspsych/CFDfaces/CFD-BM-211-174-N.jpg' height=""250px"">,</br><b>Jason</b>",0,256,IntactOrRearranged,Test,"""","""","""","""",CFD-AM-212-050-N.jpg,Vincent,0,"""","""",0,1,4/20/2021 0:07,68.168.191.42,Mozilla/5.0 (Macintosh; Intel Mac OS X 10.6; rv:48.0) Gecko/20100101 Firefox/48.0,Macintosh,Firefox,48,OS X,10.6
37,1,3531.455,"""",html-slider-response,259,709919,0.0-259.0,"""","<img src='jspsych/CFDfaces/CFD-BM-211-174-N.jpg' height=""250px"">,</br><b>Jason</b>","""",256,ConfidenceQuery,Test,"""","""","""","""",CFD-AM-212-050-N.jpg,Vincent,0,0,54,"""",1,4/20/2021 0:07,68.168.191.42,Mozilla/5.0 (Macintosh; Intel Mac OS X 10.6; rv:48.0) Gecko/20100101 Firefox/48.0,Macintosh,Firefox,48,OS X,10.6
37,1,null,"""",html-keyboard-response,260,710933,0.0-260.0,"""","<div style=""font-size:60px;"">+</div>","""",256,ITI,Test,null,1000,"""","""","""","""","""","""","""","""",1,4/20/2021 0:07,68.168.191.42,Mozilla/5.0 (Macintosh; Intel Mac OS X 10.6; rv:48.0) Gecko/20100101 Firefox/48.0,Macintosh,Firefox,48,OS X,10.6
37,1,null,"""",image-keyboard-response,261,711190,0.0-261.0,"""",jspsych/scrambledDisgustFaces/scrambledAM06DIS.JPG,"""",256,forwardMask,Test,null,250,"""",d,"""","""","""","""","""","""",1,4/20/2021 0:07,68.168.191.42,Mozilla/5.0 (Macintosh; Intel Mac OS X 10.6; rv:48.0) Gecko/20100101 Firefox/48.0,Macintosh,Firefox,48,OS X,10.6
37,1,null,"""",image-keyboard-response,262,711212,0.0-262.0,"""",jspsych/disgustFaces/AM06DIS.JPG,"""",256,Cue,Test,null,16,"""","""","""","""","""","""","""","""",1,4/20/2021 0:07,68.168.191.42,Mozilla/5.0 (Macintosh; Intel Mac OS X 10.6; rv:48.0) Gecko/20100101 Firefox/48.0,Macintosh,Firefox,48,OS X,10.6
37,1,null,"""",image-keyboard-response,263,711318,0.0-263.0,"""",jspsych/neutralFaces/BM14NES.JPG,"""",256,backwardMask,Test,null,100,"""","""","""","""","""","""","""","""",1,4/20/2021 0:07,68.168.191.42,Mozilla/5.0 (Macintosh; Intel Mac OS X 10.6; rv:48.0) Gecko/20100101 Firefox/48.0,Macintosh,Firefox,48,OS X,10.6
37,1,null,"""",html-keyboard-response,264,712323,0.0-264.0,"""","<div style=""font-size:60px;"">+</div>","""",256,fixationBtwnNeutralMaskAndPrompt,Test,null,1000,"""","""","""","""","""","""","""","""",1,4/20/2021 0:07,68.168.191.42,Mozilla/5.0 (Macintosh; Intel Mac OS X 10.6; rv:48.0) Gecko/20100101 Firefox/48.0,Macintosh,Firefox,48,OS X,10.6
37,1,1800.37,"""",html-button-response,265,714125,0.0-265.0,"""","<img src='jspsych/CFDfaces/CFD-BM-011-016-N.jpg' height=""250px"">,</br><b>James</b>",0,256,IntactOrRearranged,Test,"""","""","""","""",CFD-AM-214-168-N.jpg,Dustin,1,"""","""",0,1,4/20/2021 0:07,68.168.191.42,Mozilla/5.0 (Macintosh; Intel Mac OS X 10.6; rv:48.0) Gecko/20100101 Firefox/48.0,Macintosh,Firefox,48,OS X,10.6
37,1,4653.915,"""",html-slider-response,266,718781,0.0-266.0,"""","<img src='jspsych/CFDfaces/CFD-BM-011-016-N.jpg' height=""250px"">,</br><b>James</b>","""",256,ConfidenceQuery,Test,"""","""","""","""",CFD-AM-214-168-N.jpg,Dustin,1,0,62,"""",1,4/20/2021 0:07,68.168.191.42,Mozilla/5.0 (Macintosh; Intel Mac OS X 10.6; rv:48.0) Gecko/20100101 Firefox/48.0,Macintosh,Firefox,48,OS X,10.6
37,1,null,"""",html-keyboard-response,267,719795,0.0-267.0,"""","<div style=""font-size:60px;"">+</div>","""",256,ITI,Test,null,1000,"""","""","""","""","""","""","""","""",1,4/20/2021 0:07,68.168.191.42,Mozilla/5.0 (Macintosh; Intel Mac OS X 10.6; rv:48.0) Gecko/20100101 Firefox/48.0,Macintosh,Firefox,48,OS X,10.6
37,1,null,"""",image-keyboard-response,268,720051,0.0-268.0,"""",jspsych/scrambledDisgustFaces/scrambledAF15DIS.JPG,"""",256,forwardMask,Test,null,250,"""",d,"""","""","""","""","""","""",1,4/20/2021 0:07,68.168.191.42,Mozilla/5.0 (Macintosh; Intel Mac OS X 10.6; rv:48.0) Gecko/20100101 Firefox/48.0,Macintosh,Firefox,48,OS X,10.6
37,1,null,"""",image-keyboard-response,269,720072,0.0-269.0,"""",jspsych/disgustFaces/AF15DIS.JPG,"""",256,Cue,Test,null,16,"""","""","""","""","""","""","""","""",1,4/20/2021 0:07,68.168.191.42,Mozilla/5.0 (Macintosh; Intel Mac OS X 10.6; rv:48.0) Gecko/20100101 Firefox/48.0,Macintosh,Firefox,48,OS X,10.6
37,1,null,"""",image-keyboard-response,270,720177,0.0-270.0,"""",jspsych/neutralFaces/BF26NES.JPG,"""",256,backwardMask,Test,null,100,"""","""","""","""","""","""","""","""",1,4/20/2021 0:07,68.168.191.42,Mozilla/5.0 (Macintosh; Intel Mac OS X 10.6; rv:48.0) Gecko/20100101 Firefox/48.0,Macintosh,Firefox,48,OS X,10.6
37,1,null,"""",html-keyboard-response,271,721181,0.0-271.0,"""","<div style=""font-size:60px;"">+</div>","""",256,fixationBtwnNeutralMaskAndPrompt,Test,null,1000,"""","""","""","""","""","""","""","""",1,4/20/2021 0:07,68.168.191.42,Mozilla/5.0 (Macintosh; Intel Mac OS X 10.6; rv:48.0) Gecko/20100101 Firefox/48.0,Macintosh,Firefox,48,OS X,10.6
37,1,3190.215,"""",html-button-response,272,724373,0.0-272.0,"""","<img src='jspsych/CFDfaces/CFD-AF-209-006-N.jpg' height=""250px"">,</br><b>Julie</b>",1,256,IntactOrRearranged,Test,"""","""","""","""",CFD-BM-029-024-N.jpg,Steven,0,"""","""",1,1,4/20/2021 0:07,68.168.191.42,Mozilla/5.0 (Macintosh; Intel Mac OS X 10.6; rv:48.0) Gecko/20100101 Firefox/48.0,Macintosh,Firefox,48,OS X,10.6
37,1,3479.865,"""",html-slider-response,273,727855,0.0-273.0,"""","<img src='jspsych/CFDfaces/CFD-AF-209-006-N.jpg' height=""250px"">,</br><b>Julie</b>","""",256,ConfidenceQuery,Test,"""","""","""","""",CFD-BM-029-024-N.jpg,Steven,0,0,62,"""",1,4/20/2021 0:07,68.168.191.42,Mozilla/5.0 (Macintosh; Intel Mac OS X 10.6; rv:48.0) Gecko/20100101 Firefox/48.0,Macintosh,Firefox,48,OS X,10.6
37,1,null,"""",html-keyboard-response,274,728872,0.0-274.0,"""","<div style=""font-size:60px;"">+</div>","""",256,ITI,Test,null,1000,"""","""","""","""","""","""","""","""",1,4/20/2021 0:07,68.168.191.42,Mozilla/5.0 (Macintosh; Intel Mac OS X 10.6; rv:48.0) Gecko/20100101 Firefox/48.0,Macintosh,Firefox,48,OS X,10.6
37,1,null,"""",image-keyboard-response,275,729129,0.0-275.0,"""",jspsych/scrambledDisgustFaces/scrambledAF04DIS.JPG,"""",256,forwardMask,Test,null,250,"""",d,"""","""","""","""","""","""",1,4/20/2021 0:07,68.168.191.42,Mozilla/5.0 (Macintosh; Intel Mac OS X 10.6; rv:48.0) Gecko/20100101 Firefox/48.0,Macintosh,Firefox,48,OS X,10.6
37,1,null,"""",image-keyboard-response,276,729150,0.0-276.0,"""",jspsych/disgustFaces/AF04DIS.JPG,"""",256,Cue,Test,null,16,"""","""","""","""","""","""","""","""",1,4/20/2021 0:07,68.168.191.42,Mozilla/5.0 (Macintosh; Intel Mac OS X 10.6; rv:48.0) Gecko/20100101 Firefox/48.0,Macintosh,Firefox,48,OS X,10.6
37,1,null,"""",image-keyboard-response,277,729255,0.0-277.0,"""",jspsych/neutralFaces/BF07NES.JPG,"""",256,backwardMask,Test,null,100,"""","""","""","""","""","""","""","""",1,4/20/2021 0:07,68.168.191.42,Mozilla/5.0 (Macintosh; Intel Mac OS X 10.6; rv:48.0) Gecko/20100101 Firefox/48.0,Macintosh,Firefox,48,OS X,10.6
37,1,null,"""",html-keyboard-response,278,730259,0.0-278.0,"""","<div style=""font-size:60px;"">+</div>","""",256,fixationBtwnNeutralMaskAndPrompt,Test,null,1000,"""","""","""","""","""","""","""","""",1,4/20/2021 0:07,68.168.191.42,Mozilla/5.0 (Macintosh; Intel Mac OS X 10.6; rv:48.0) Gecko/20100101 Firefox/48.0,Macintosh,Firefox,48,OS X,10.6
37,1,1834.15,"""",html-button-response,279,732095,0.0-279.0,"""","<img src='jspsych/CFDfaces/CFD-BM-017-021-N.jpg' height=""250px"">,</br><b>Brian</b>",0,256,IntactOrRearranged,Test,"""","""","""","""",CFD-LF-213-079-N.jpg,Melissa,0,"""","""",0,1,4/20/2021 0:07,68.168.191.42,Mozilla/5.0 (Macintosh; Intel Mac OS X 10.6; rv:48.0) Gecko/20100101 Firefox/48.0,Macintosh,Firefox,48,OS X,10.6
37,1,4641.145,"""",html-slider-response,280,736739,0.0-280.0,"""","<img src='jspsych/CFDfaces/CFD-BM-017-021-N.jpg' height=""250px"">,</br><b>Brian</b>","""",256,ConfidenceQuery,Test,"""","""","""","""",CFD-LF-213-079-N.jpg,Melissa,0,0,76,"""",1,4/20/2021 0:07,68.168.191.42,Mozilla/5.0 (Macintosh; Intel Mac OS X 10.6; rv:48.0) Gecko/20100101 Firefox/48.0,Macintosh,Firefox,48,OS X,10.6
37,1,null,"""",html-keyboard-response,281,737755,0.0-281.0,"""","<div style=""font-size:60px;"">+</div>","""",256,ITI,Test,null,1000,"""","""","""","""","""","""","""","""",1,4/20/2021 0:07,68.168.191.42,Mozilla/5.0 (Macintosh; Intel Mac OS X 10.6; rv:48.0) Gecko/20100101 Firefox/48.0,Macintosh,Firefox,48,OS X,10.6
37,1,null,"""",image-keyboard-response,282,738011,0.0-282.0,"""",jspsych/scrambledNeutralFaces/scrambledAF29NES.JPG,"""",256,forwardMask,Test,null,250,"""",n,"""","""","""","""","""","""",1,4/20/2021 0:07,68.168.191.42,Mozilla/5.0 (Macintosh; Intel Mac OS X 10.6; rv:48.0) Gecko/20100101 Firefox/48.0,Macintosh,Firefox,48,OS X,10.6
37,1,null,"""",image-keyboard-response,283,738033,0.0-283.0,"""",jspsych/neutralFaces/AF29NES.JPG,"""",256,Cue,Test,null,16,"""","""","""","""","""","""","""","""",1,4/20/2021 0:07,68.168.191.42,Mozilla/5.0 (Macintosh; Intel Mac OS X 10.6; rv:48.0) Gecko/20100101 Firefox/48.0,Macintosh,Firefox,48,OS X,10.6
37,1,null,"""",image-keyboard-response,284,738137,0.0-284.0,"""",jspsych/neutralFaces/BF26NES.JPG,"""",256,backwardMask,Test,null,100,"""","""","""","""","""","""","""","""",1,4/20/2021 0:07,68.168.191.42,Mozilla/5.0 (Macintosh; Intel Mac OS X 10.6; rv:48.0) Gecko/20100101 Firefox/48.0,Macintosh,Firefox,48,OS X,10.6
37,1,null,"""",html-keyboard-response,285,739140,0.0-285.0,"""","<div style=""font-size:60px;"">+</div>","""",256,fixationBtwnNeutralMaskAndPrompt,Test,null,1000,"""","""","""","""","""","""","""","""",1,4/20/2021 0:07,68.168.191.42,Mozilla/5.0 (Macintosh; Intel Mac OS X 10.6; rv:48.0) Gecko/20100101 Firefox/48.0,Macintosh,Firefox,48,OS X,10.6
37,1,2392.86,"""",html-button-response,286,741535,0.0-286.0,"""","<img src='jspsych/CFDfaces/CFD-BF-209-172-N.jpg' height=""250px"">,</br><b>Elizabeth</b>",1,256,IntactOrRearranged,Test,"""","""","""","""",CFD-LM-233-171-N.jpg,Luis,1,"""","""",1,1,4/20/2021 0:07,68.168.191.42,Mozilla/5.0 (Macintosh; Intel Mac OS X 10.6; rv:48.0) Gecko/20100101 Firefox/48.0,Macintosh,Firefox,48,OS X,10.6
