run_id,condition,rt,responses,trial_type,trial_index,time_elapsed,internal_node_id,question_order,stimulus,button_pressed,iTrial,Phase,ExperimentPhase,key_press,StimulusDurationSetting,CharacterResponse,correctResponse,Face,Name,rearranged,slider_start,response,didSubjectEnterRearranged,Block,recorded_at,ip,user_agent,device,browser,browser_version,platform,platform_version
7,1,7108.09,"{""Q0"":""A2KNV8X9K7F80Y""}",survey-text,0,7114,0.0-0.0,"""","""","""","""","""","""","""","""","""","""","""","""","""","""","""","""","""",4/18/2021 19:11,67.168.49.96,Mozilla/5.0 (Windows NT 10.0; WOW64; rv:47.0) Gecko/20100101 Firefox/47.0,,Firefox,47,Windows,10
7,1,3122.475,"{""Q0"":""47""}",survey-text,1,10248,0.0-1.0,"""","""","""","""","""","""","""","""","""","""","""","""","""","""","""","""","""",4/18/2021 19:11,67.168.49.96,Mozilla/5.0 (Windows NT 10.0; WOW64; rv:47.0) Gecko/20100101 Firefox/47.0,,Firefox,47,Windows,10
7,1,4791.195,"{""Q0"":""male"",""Q1"":""Not Hispanic/Latino"",""Q2"":""White or Caucasian""}",survey-multi-choice,2,15045,0.0-2.0,"[0,1,2]","""","""","""","""","""","""","""","""","""","""","""","""","""","""","""","""",4/18/2021 19:11,67.168.49.96,Mozilla/5.0 (Windows NT 10.0; WOW64; rv:47.0) Gecko/20100101 Firefox/47.0,,Firefox,47,Windows,10
7,1,12083.305,"""",image-button-response,3,27143,0.0-3.0,"""",directionsMemoryAssociation1.JPG,0,1,IntroDirections1,break,"""","""","""","""","""","""","""","""","""","""","""",4/18/2021 19:11,67.168.49.96,Mozilla/5.0 (Windows NT 10.0; WOW64; rv:47.0) Gecko/20100101 Firefox/47.0,,Firefox,47,Windows,10
7,1,20898.27,"""",image-button-response,4,48049,0.0-4.0,"""",directionsMemoryAssociation2.JPG,0,1,IntroDirections2,break,"""","""","""","""","""","""","""","""","""","""","""",4/18/2021 19:11,67.168.49.96,Mozilla/5.0 (Windows NT 10.0; WOW64; rv:47.0) Gecko/20100101 Firefox/47.0,,Firefox,47,Windows,10
7,1,null,"""",html-keyboard-response,5,53064,0.0-5.0,"""","<img src='jspsych/CFDfaces/CFD-AF-201-060-N.jpg' height=""250px"">,</br><b>Katelyn</b>","""",1,IntactFace,Practice,null,5000,"""","""","""","""","""","""","""","""","""",4/18/2021 19:11,67.168.49.96,Mozilla/5.0 (Windows NT 10.0; WOW64; rv:47.0) Gecko/20100101 Firefox/47.0,,Firefox,47,Windows,10
7,1,null,"""",html-keyboard-response,6,53605,0.0-6.0,"""","<div style=""font-size:60px;"">+</div>","""",1,ITI,Practice,null,1000,"""","""","""","""","""","""","""","""","""",4/18/2021 19:11,67.168.49.96,Mozilla/5.0 (Windows NT 10.0; WOW64; rv:47.0) Gecko/20100101 Firefox/47.0,,Firefox,47,Windows,10
7,1,1552.215,"""",html-keyboard-response,7,58627,0.0-7.0,"""","<img src='jspsych/CFDfaces/CFD-AM-202-079-N.jpg' height=""250px"">,</br><b>Samuel</b>","""",2,IntactFace,Practice,78,5000,n,"""","""","""","""","""","""","""","""",4/18/2021 19:11,67.168.49.96,Mozilla/5.0 (Windows NT 10.0; WOW64; rv:47.0) Gecko/20100101 Firefox/47.0,,Firefox,47,Windows,10
7,1,null,"""",html-keyboard-response,8,59140,0.0-8.0,"""","<div style=""font-size:60px;"">+</div>","""",2,ITI,Practice,null,1000,"""","""","""","""","""","""","""","""","""",4/18/2021 19:11,67.168.49.96,Mozilla/5.0 (Windows NT 10.0; WOW64; rv:47.0) Gecko/20100101 Firefox/47.0,,Firefox,47,Windows,10
7,1,3308.25,"""",html-keyboard-response,9,64159,0.0-9.0,"""","<img src='jspsych/CFDfaces/CFD-BF-001-025-N.jpg' height=""250px"">,</br><b>Tara</b>","""",3,IntactFace,Practice,70,5000,f,"""","""","""","""","""","""","""","""",4/18/2021 19:11,67.168.49.96,Mozilla/5.0 (Windows NT 10.0; WOW64; rv:47.0) Gecko/20100101 Firefox/47.0,,Firefox,47,Windows,10
7,1,null,"""",html-keyboard-response,10,64673,0.0-10.0,"""","<div style=""font-size:60px;"">+</div>","""",3,ITI,Practice,null,1000,"""","""","""","""","""","""","""","""","""",4/18/2021 19:11,67.168.49.96,Mozilla/5.0 (Windows NT 10.0; WOW64; rv:47.0) Gecko/20100101 Firefox/47.0,,Firefox,47,Windows,10
7,1,2496.16,"""",html-keyboard-response,11,69691,0.0-11.0,"""","<img src='jspsych/CFDfaces/CFD-BM-027-001-N.jpg' height=""250px"">,</br><b>Marcus</b>","""",4,IntactFace,Practice,70,5000,f,"""","""","""","""","""","""","""","""",4/18/2021 19:11,67.168.49.96,Mozilla/5.0 (Windows NT 10.0; WOW64; rv:47.0) Gecko/20100101 Firefox/47.0,,Firefox,47,Windows,10
7,1,null,"""",html-keyboard-response,12,70204,0.0-12.0,"""","<div style=""font-size:60px;"">+</div>","""",4,ITI,Practice,null,1000,"""","""","""","""","""","""","""","""","""",4/18/2021 19:11,67.168.49.96,Mozilla/5.0 (Windows NT 10.0; WOW64; rv:47.0) Gecko/20100101 Firefox/47.0,,Firefox,47,Windows,10
7,1,2518.63,"""",html-keyboard-response,13,75220,0.0-13.0,"""","<img src='jspsych/CFDfaces/CFD-WM-232-070-N.jpg' height=""250px"">,</br><b>Patrick</b>","""",5,IntactFace,Practice,70,5000,f,"""","""","""","""","""","""","""","""",4/18/2021 19:11,67.168.49.96,Mozilla/5.0 (Windows NT 10.0; WOW64; rv:47.0) Gecko/20100101 Firefox/47.0,,Firefox,47,Windows,10
7,1,null,"""",html-keyboard-response,14,75731,0.0-14.0,"""","<div style=""font-size:60px;"">+</div>","""",5,ITI,Practice,null,1000,"""","""","""","""","""","""","""","""","""",4/18/2021 19:11,67.168.49.96,Mozilla/5.0 (Windows NT 10.0; WOW64; rv:47.0) Gecko/20100101 Firefox/47.0,,Firefox,47,Windows,10
7,1,3420.67,"""",html-keyboard-response,15,80751,0.0-15.0,"""","<img src='jspsych/CFDfaces/CFD-LF-244-096-N.jpg' height=""250px"">,</br><b>Cassandra</b>","""",6,IntactFace,Practice,78,5000,n,"""","""","""","""","""","""","""","""",4/18/2021 19:11,67.168.49.96,Mozilla/5.0 (Windows NT 10.0; WOW64; rv:47.0) Gecko/20100101 Firefox/47.0,,Firefox,47,Windows,10
7,1,null,"""",html-keyboard-response,16,81267,0.0-16.0,"""","<div style=""font-size:60px;"">+</div>","""",6,ITI,Practice,null,1000,"""","""","""","""","""","""","""","""","""",4/18/2021 19:11,67.168.49.96,Mozilla/5.0 (Windows NT 10.0; WOW64; rv:47.0) Gecko/20100101 Firefox/47.0,,Firefox,47,Windows,10
7,1,1917.975,"""",html-keyboard-response,17,86276,0.0-17.0,"""","<img src='jspsych/CFDfaces/CFD-LM-252-076-N.jpg' height=""250px"">,</br><b>Carlos</b>","""",7,IntactFace,Practice,70,5000,f,"""","""","""","""","""","""","""","""",4/18/2021 19:11,67.168.49.96,Mozilla/5.0 (Windows NT 10.0; WOW64; rv:47.0) Gecko/20100101 Firefox/47.0,,Firefox,47,Windows,10
7,1,null,"""",html-keyboard-response,18,86790,0.0-18.0,"""","<div style=""font-size:60px;"">+</div>","""",7,ITI,Practice,null,1000,"""","""","""","""","""","""","""","""","""",4/18/2021 19:11,67.168.49.96,Mozilla/5.0 (Windows NT 10.0; WOW64; rv:47.0) Gecko/20100101 Firefox/47.0,,Firefox,47,Windows,10
7,1,1951.66,"""",html-keyboard-response,19,91804,0.0-19.0,"""","<img src='jspsych/CFDfaces/CFD-LF-204-133-N.jpg' height=""250px"">,</br><b>Shannon</b>","""",8,IntactFace,Practice,70,5000,f,"""","""","""","""","""","""","""","""",4/18/2021 19:11,67.168.49.96,Mozilla/5.0 (Windows NT 10.0; WOW64; rv:47.0) Gecko/20100101 Firefox/47.0,,Firefox,47,Windows,10
7,1,null,"""",html-keyboard-response,20,92319,0.0-20.0,"""","<div style=""font-size:60px;"">+</div>","""",8,ITI,Practice,null,1000,"""","""","""","""","""","""","""","""","""",4/18/2021 19:11,67.168.49.96,Mozilla/5.0 (Windows NT 10.0; WOW64; rv:47.0) Gecko/20100101 Firefox/47.0,,Firefox,47,Windows,10
7,1,9827.64,"""",image-button-response,21,102160,0.0-21.0,"""",directionsForTest.JPG,0,1,directionsForTest,break,"""","""","""","""","""","""","""","""","""","""","""",4/18/2021 19:11,67.168.49.96,Mozilla/5.0 (Windows NT 10.0; WOW64; rv:47.0) Gecko/20100101 Firefox/47.0,,Firefox,47,Windows,10
7,1,10919.625,"""",image-button-response,22,113086,0.0-22.0,"""",directionsForTest2.JPG,0,1,directionsForTest2,break,"""","""","""","""","""","""","""","""","""","""","""",4/18/2021 19:11,67.168.49.96,Mozilla/5.0 (Windows NT 10.0; WOW64; rv:47.0) Gecko/20100101 Firefox/47.0,,Firefox,47,Windows,10
7,1,null,"""",html-keyboard-response,23,114094,0.0-23.0,"""","<div style=""font-size:60px;"">+</div>","""",1,ITI,Practice,null,1000,"""","""","""","""","""","""","""","""","""",4/18/2021 19:11,67.168.49.96,Mozilla/5.0 (Windows NT 10.0; WOW64; rv:47.0) Gecko/20100101 Firefox/47.0,,Firefox,47,Windows,10
7,1,null,"""",image-keyboard-response,24,114363,0.0-24.0,"""",jspsych/scrambledNeutralFaces/scrambledBM08NES.JPG,"""",1,forwardMask,Practice,null,250,"""",n,"""","""","""","""","""","""","""",4/18/2021 19:11,67.168.49.96,Mozilla/5.0 (Windows NT 10.0; WOW64; rv:47.0) Gecko/20100101 Firefox/47.0,,Firefox,47,Windows,10
7,1,null,"""",image-keyboard-response,25,114385,0.0-25.0,"""",jspsych/neutralFaces/BM08NES.JPG,"""",1,Cue,Practice,null,16,"""","""","""","""","""","""","""","""","""",4/18/2021 19:11,67.168.49.96,Mozilla/5.0 (Windows NT 10.0; WOW64; rv:47.0) Gecko/20100101 Firefox/47.0,,Firefox,47,Windows,10
7,1,null,"""",image-keyboard-response,26,114504,0.0-26.0,"""",jspsych/neutralFaces/AM06NES.JPG,"""",1,backwardMask,Practice,null,100,"""","""","""","""","""","""","""","""","""",4/18/2021 19:11,67.168.49.96,Mozilla/5.0 (Windows NT 10.0; WOW64; rv:47.0) Gecko/20100101 Firefox/47.0,,Firefox,47,Windows,10
7,1,null,"""",html-keyboard-response,27,115511,0.0-27.0,"""","<div style=""font-size:60px;"">+</div>","""",1,fixationBtwnNeutralMaskAndPrompt,Practice,null,1000,"""","""","""","""","""","""","""","""","""",4/18/2021 19:11,67.168.49.96,Mozilla/5.0 (Windows NT 10.0; WOW64; rv:47.0) Gecko/20100101 Firefox/47.0,,Firefox,47,Windows,10
7,1,null,"""",html-button-response,28,120516,0.0-28.0,"""","<img src='jspsych/CFDfaces/CFD-WM-232-070-N.jpg'height=""250px""></br><b>Patrick</b>",null,1,IntactOrRearranged,Practice,"""","""","""","""",CFD-WM-232-070-N.jpg,Patrick,0,"""","""","""","""",4/18/2021 19:11,67.168.49.96,Mozilla/5.0 (Windows NT 10.0; WOW64; rv:47.0) Gecko/20100101 Firefox/47.0,,Firefox,47,Windows,10
7,1,4048.45,"""",html-slider-response,29,124573,0.0-29.0,"""","<img src='jspsych/CFDfaces/CFD-WM-232-070-N.jpg'height=""250px""></br><b>Patrick</b>","""",1,ConfidenceQuery,Practice,"""","""","""","""",CFD-AM-228-214-N.jpg,Ryan,0,0,76,"""","""",4/18/2021 19:11,67.168.49.96,Mozilla/5.0 (Windows NT 10.0; WOW64; rv:47.0) Gecko/20100101 Firefox/47.0,,Firefox,47,Windows,10
7,1,3095.99,"""",html-button-response,30,127672,0.0-30.0,"""",<p>Please click either button: REARRANGED or INTACT before the 5-second time limit.</p>,0,1,feedback,Practice,"""","""","""","""","""","""","""","""","""","""","""",4/18/2021 19:11,67.168.49.96,Mozilla/5.0 (Windows NT 10.0; WOW64; rv:47.0) Gecko/20100101 Firefox/47.0,,Firefox,47,Windows,10
7,1,null,"""",html-keyboard-response,31,128679,0.0-31.0,"""","<div style=""font-size:60px;"">+</div>","""",2,ITI,Practice,null,1000,"""","""","""","""","""","""","""","""","""",4/18/2021 19:11,67.168.49.96,Mozilla/5.0 (Windows NT 10.0; WOW64; rv:47.0) Gecko/20100101 Firefox/47.0,,Firefox,47,Windows,10
7,1,null,"""",image-keyboard-response,32,128942,0.0-32.0,"""",jspsych/scrambledDisgustFaces/scrambledAF28DIS.JPG,"""",2,forwardMask,Practice,null,250,"""",d,"""","""","""","""","""","""","""",4/18/2021 19:11,67.168.49.96,Mozilla/5.0 (Windows NT 10.0; WOW64; rv:47.0) Gecko/20100101 Firefox/47.0,,Firefox,47,Windows,10
7,1,null,"""",image-keyboard-response,33,128974,0.0-33.0,"""",jspsych/disgustFaces/AF28DIS.JPG,"""",2,Cue,Practice,null,16,"""","""","""","""","""","""","""","""","""",4/18/2021 19:11,67.168.49.96,Mozilla/5.0 (Windows NT 10.0; WOW64; rv:47.0) Gecko/20100101 Firefox/47.0,,Firefox,47,Windows,10
7,1,null,"""",image-keyboard-response,34,129087,0.0-34.0,"""",jspsych/neutralFaces/BF03NES.JPG,"""",2,backwardMask,Practice,null,100,"""","""","""","""","""","""","""","""","""",4/18/2021 19:11,67.168.49.96,Mozilla/5.0 (Windows NT 10.0; WOW64; rv:47.0) Gecko/20100101 Firefox/47.0,,Firefox,47,Windows,10
7,1,null,"""",html-keyboard-response,35,130101,0.0-35.0,"""","<div style=""font-size:60px;"">+</div>","""",2,fixationBtwnNeutralMaskAndPrompt,Practice,null,1000,"""","""","""","""","""","""","""","""","""",4/18/2021 19:11,67.168.49.96,Mozilla/5.0 (Windows NT 10.0; WOW64; rv:47.0) Gecko/20100101 Firefox/47.0,,Firefox,47,Windows,10
7,1,2278.355,"""",html-button-response,36,132386,0.0-36.0,"""","<img src='jspsych/CFDfaces/CFD-AM-202-079-N.jpg'height=""250px""></br><b>Samuel</b>",0,2,IntactOrRearranged,Practice,"""","""","""","""",CFD-AM-202-079-N.jpg,Samuel,0,"""","""",0,"""",4/18/2021 19:11,67.168.49.96,Mozilla/5.0 (Windows NT 10.0; WOW64; rv:47.0) Gecko/20100101 Firefox/47.0,,Firefox,47,Windows,10
7,1,2808.195,"""",html-slider-response,37,135198,0.0-37.0,"""","<img src='jspsych/CFDfaces/CFD-AM-202-079-N.jpg'height=""250px""></br><b>Samuel</b>","""",2,ConfidenceQuery,Practice,"""","""","""","""",CFD-AM-228-214-N.jpg,Ryan,0,0,75,"""","""",4/18/2021 19:11,67.168.49.96,Mozilla/5.0 (Windows NT 10.0; WOW64; rv:47.0) Gecko/20100101 Firefox/47.0,,Firefox,47,Windows,10
7,1,1375.945,"""",html-button-response,38,136585,0.0-38.0,"""",You are Correct. You called an Intact Pair Intact,0,2,feedback,Practice,"""","""","""","""","""","""","""","""","""","""","""",4/18/2021 19:11,67.168.49.96,Mozilla/5.0 (Windows NT 10.0; WOW64; rv:47.0) Gecko/20100101 Firefox/47.0,,Firefox,47,Windows,10
7,1,null,"""",html-keyboard-response,39,137592,0.0-39.0,"""","<div style=""font-size:60px;"">+</div>","""",3,ITI,Practice,null,1000,"""","""","""","""","""","""","""","""","""",4/18/2021 19:11,67.168.49.96,Mozilla/5.0 (Windows NT 10.0; WOW64; rv:47.0) Gecko/20100101 Firefox/47.0,,Firefox,47,Windows,10
7,1,null,"""",image-keyboard-response,40,137848,0.0-40.0,"""",jspsych/scrambledDisgustFaces/scrambledAF03DIS.JPG,"""",3,forwardMask,Practice,null,250,"""",d,"""","""","""","""","""","""","""",4/18/2021 19:11,67.168.49.96,Mozilla/5.0 (Windows NT 10.0; WOW64; rv:47.0) Gecko/20100101 Firefox/47.0,,Firefox,47,Windows,10
7,1,null,"""",image-keyboard-response,41,137869,0.0-41.0,"""",jspsych/disgustFaces/AF03DIS.JPG,"""",3,Cue,Practice,null,16,"""","""","""","""","""","""","""","""","""",4/18/2021 19:11,67.168.49.96,Mozilla/5.0 (Windows NT 10.0; WOW64; rv:47.0) Gecko/20100101 Firefox/47.0,,Firefox,47,Windows,10
7,1,null,"""",image-keyboard-response,42,137976,0.0-42.0,"""",jspsych/neutralFaces/AF35NES.JPG,"""",3,backwardMask,Practice,null,100,"""","""","""","""","""","""","""","""","""",4/18/2021 19:11,67.168.49.96,Mozilla/5.0 (Windows NT 10.0; WOW64; rv:47.0) Gecko/20100101 Firefox/47.0,,Firefox,47,Windows,10
7,1,null,"""",html-keyboard-response,43,138980,0.0-43.0,"""","<div style=""font-size:60px;"">+</div>","""",3,fixationBtwnNeutralMaskAndPrompt,Practice,null,1000,"""","""","""","""","""","""","""","""","""",4/18/2021 19:11,67.168.49.96,Mozilla/5.0 (Windows NT 10.0; WOW64; rv:47.0) Gecko/20100101 Firefox/47.0,,Firefox,47,Windows,10
7,1,3874.73,"""",html-button-response,44,142858,0.0-44.0,"""","<img src='jspsych/CFDfaces/CFD-LF-244-096-N.jpg'height=""250px""></br><b>Katelyn</b>",1,3,IntactOrRearranged,Practice,"""","""","""","""",CFD-LF-244-096-N.jpg,Katelyn,1,"""","""",1,"""",4/18/2021 19:11,67.168.49.96,Mozilla/5.0 (Windows NT 10.0; WOW64; rv:47.0) Gecko/20100101 Firefox/47.0,,Firefox,47,Windows,10
7,1,2738.485,"""",html-slider-response,45,145603,0.0-45.0,"""","<img src='jspsych/CFDfaces/CFD-LF-244-096-N.jpg'height=""250px""></br><b>Katelyn</b>","""",3,ConfidenceQuery,Practice,"""","""","""","""",CFD-AM-228-214-N.jpg,Ryan,1,0,59,"""","""",4/18/2021 19:11,67.168.49.96,Mozilla/5.0 (Windows NT 10.0; WOW64; rv:47.0) Gecko/20100101 Firefox/47.0,,Firefox,47,Windows,10
7,1,1180.62,"""",html-button-response,46,146785,0.0-46.0,"""",You are Correct. You Called A Rearranged Pair Rearranged,0,3,feedback,Practice,"""","""","""","""","""","""","""","""","""","""","""",4/18/2021 19:11,67.168.49.96,Mozilla/5.0 (Windows NT 10.0; WOW64; rv:47.0) Gecko/20100101 Firefox/47.0,,Firefox,47,Windows,10
7,1,null,"""",html-keyboard-response,47,147792,0.0-47.0,"""","<div style=""font-size:60px;"">+</div>","""",4,ITI,Practice,null,1000,"""","""","""","""","""","""","""","""","""",4/18/2021 19:11,67.168.49.96,Mozilla/5.0 (Windows NT 10.0; WOW64; rv:47.0) Gecko/20100101 Firefox/47.0,,Firefox,47,Windows,10
7,1,null,"""",image-keyboard-response,48,148047,0.0-48.0,"""",jspsych/scrambledNeutralFaces/scrambledBM31NES.JPG,"""",4,forwardMask,Practice,null,250,"""",n,"""","""","""","""","""","""","""",4/18/2021 19:11,67.168.49.96,Mozilla/5.0 (Windows NT 10.0; WOW64; rv:47.0) Gecko/20100101 Firefox/47.0,,Firefox,47,Windows,10
7,1,null,"""",image-keyboard-response,49,148068,0.0-49.0,"""",jspsych/neutralFaces/BM31NES.JPG,"""",4,Cue,Practice,null,16,"""","""","""","""","""","""","""","""","""",4/18/2021 19:11,67.168.49.96,Mozilla/5.0 (Windows NT 10.0; WOW64; rv:47.0) Gecko/20100101 Firefox/47.0,,Firefox,47,Windows,10
7,1,null,"""",image-keyboard-response,50,148172,0.0-50.0,"""",jspsych/neutralFaces/AM35NES.JPG,"""",4,backwardMask,Practice,null,100,"""","""","""","""","""","""","""","""","""",4/18/2021 19:11,67.168.49.96,Mozilla/5.0 (Windows NT 10.0; WOW64; rv:47.0) Gecko/20100101 Firefox/47.0,,Firefox,47,Windows,10
7,1,null,"""",html-keyboard-response,51,149185,0.0-51.0,"""","<div style=""font-size:60px;"">+</div>","""",4,fixationBtwnNeutralMaskAndPrompt,Practice,null,1000,"""","""","""","""","""","""","""","""","""",4/18/2021 19:11,67.168.49.96,Mozilla/5.0 (Windows NT 10.0; WOW64; rv:47.0) Gecko/20100101 Firefox/47.0,,Firefox,47,Windows,10
7,1,3283.3,"""",html-button-response,52,152475,0.0-52.0,"""","<img src='jspsych/CFDfaces/CFD-LF-204-133-N.jpg'height=""250px""></br><b>Shannon</b>",0,4,IntactOrRearranged,Practice,"""","""","""","""",CFD-LF-204-133-N.jpg,Shannon,0,"""","""",0,"""",4/18/2021 19:11,67.168.49.96,Mozilla/5.0 (Windows NT 10.0; WOW64; rv:47.0) Gecko/20100101 Firefox/47.0,,Firefox,47,Windows,10
7,1,2534.235,"""",html-slider-response,53,155011,0.0-53.0,"""","<img src='jspsych/CFDfaces/CFD-LF-204-133-N.jpg'height=""250px""></br><b>Shannon</b>","""",4,ConfidenceQuery,Practice,"""","""","""","""",CFD-AM-228-214-N.jpg,Ryan,0,0,36,"""","""",4/18/2021 19:11,67.168.49.96,Mozilla/5.0 (Windows NT 10.0; WOW64; rv:47.0) Gecko/20100101 Firefox/47.0,,Firefox,47,Windows,10
7,1,1469.905,"""",html-button-response,54,156482,0.0-54.0,"""",You are Correct. You called an Intact Pair Intact,0,4,feedback,Practice,"""","""","""","""","""","""","""","""","""","""","""",4/18/2021 19:11,67.168.49.96,Mozilla/5.0 (Windows NT 10.0; WOW64; rv:47.0) Gecko/20100101 Firefox/47.0,,Firefox,47,Windows,10
7,1,null,"""",html-keyboard-response,55,157489,0.0-55.0,"""","<div style=""font-size:60px;"">+</div>","""",5,ITI,Practice,null,1000,"""","""","""","""","""","""","""","""","""",4/18/2021 19:11,67.168.49.96,Mozilla/5.0 (Windows NT 10.0; WOW64; rv:47.0) Gecko/20100101 Firefox/47.0,,Firefox,47,Windows,10
7,1,null,"""",image-keyboard-response,56,157745,0.0-56.0,"""",jspsych/scrambledDisgustFaces/scrambledBM06DIS.JPG,"""",5,forwardMask,Practice,null,250,"""",d,"""","""","""","""","""","""","""",4/18/2021 19:11,67.168.49.96,Mozilla/5.0 (Windows NT 10.0; WOW64; rv:47.0) Gecko/20100101 Firefox/47.0,,Firefox,47,Windows,10
7,1,null,"""",image-keyboard-response,57,157769,0.0-57.0,"""",jspsych/disgustFaces/BM07DIS.JPG,"""",5,Cue,Practice,null,16,"""","""","""","""","""","""","""","""","""",4/18/2021 19:11,67.168.49.96,Mozilla/5.0 (Windows NT 10.0; WOW64; rv:47.0) Gecko/20100101 Firefox/47.0,,Firefox,47,Windows,10
7,1,null,"""",image-keyboard-response,58,157874,0.0-58.0,"""",jspsych/neutralFaces/BM10NES.JPG,"""",5,backwardMask,Practice,null,100,"""","""","""","""","""","""","""","""","""",4/18/2021 19:11,67.168.49.96,Mozilla/5.0 (Windows NT 10.0; WOW64; rv:47.0) Gecko/20100101 Firefox/47.0,,Firefox,47,Windows,10
7,1,null,"""",html-keyboard-response,59,158881,0.0-59.0,"""","<div style=""font-size:60px;"">+</div>","""",5,fixationBtwnNeutralMaskAndPrompt,Practice,null,1000,"""","""","""","""","""","""","""","""","""",4/18/2021 19:11,67.168.49.96,Mozilla/5.0 (Windows NT 10.0; WOW64; rv:47.0) Gecko/20100101 Firefox/47.0,,Firefox,47,Windows,10
7,1,1520.4,"""",html-button-response,60,160403,0.0-60.0,"""","<img src='jspsych/CFDfaces/CFD-BM-027-001-N.jpg'height=""250px""></br><b>Carlos</b>",0,5,IntactOrRearranged,Practice,"""","""","""","""",CFD-BM-027-001-N.jpg,Carlos,1,"""","""",0,"""",4/18/2021 19:11,67.168.49.96,Mozilla/5.0 (Windows NT 10.0; WOW64; rv:47.0) Gecko/20100101 Firefox/47.0,,Firefox,47,Windows,10
7,1,2085.47,"""",html-slider-response,61,162492,0.0-61.0,"""","<img src='jspsych/CFDfaces/CFD-BM-027-001-N.jpg'height=""250px""></br><b>Carlos</b>","""",5,ConfidenceQuery,Practice,"""","""","""","""",CFD-AM-228-214-N.jpg,Ryan,1,0,71,"""","""",4/18/2021 19:11,67.168.49.96,Mozilla/5.0 (Windows NT 10.0; WOW64; rv:47.0) Gecko/20100101 Firefox/47.0,,Firefox,47,Windows,10
7,1,2356.945,"""",html-button-response,62,164852,0.0-62.0,"""",You are Incorrect. You called a Rearranged Pair Intact,0,5,feedback,Practice,"""","""","""","""","""","""","""","""","""","""","""",4/18/2021 19:11,67.168.49.96,Mozilla/5.0 (Windows NT 10.0; WOW64; rv:47.0) Gecko/20100101 Firefox/47.0,,Firefox,47,Windows,10
7,1,null,"""",html-keyboard-response,63,165858,0.0-63.0,"""","<div style=""font-size:60px;"">+</div>","""",6,ITI,Practice,null,1000,"""","""","""","""","""","""","""","""","""",4/18/2021 19:11,67.168.49.96,Mozilla/5.0 (Windows NT 10.0; WOW64; rv:47.0) Gecko/20100101 Firefox/47.0,,Firefox,47,Windows,10
7,1,null,"""",image-keyboard-response,64,166121,0.0-64.0,"""",jspsych/scrambledDisgustFaces/scrambledAF25DIS.JPG,"""",6,forwardMask,Practice,null,250,"""",d,"""","""","""","""","""","""","""",4/18/2021 19:11,67.168.49.96,Mozilla/5.0 (Windows NT 10.0; WOW64; rv:47.0) Gecko/20100101 Firefox/47.0,,Firefox,47,Windows,10
7,1,null,"""",image-keyboard-response,65,166153,0.0-65.0,"""",jspsych/disgustFaces/AF25DIS.JPG,"""",6,Cue,Practice,null,16,"""","""","""","""","""","""","""","""","""",4/18/2021 19:11,67.168.49.96,Mozilla/5.0 (Windows NT 10.0; WOW64; rv:47.0) Gecko/20100101 Firefox/47.0,,Firefox,47,Windows,10
7,1,null,"""",image-keyboard-response,66,166263,0.0-66.0,"""",jspsych/neutralFaces/BF21NES.JPG,"""",6,backwardMask,Practice,null,100,"""","""","""","""","""","""","""","""","""",4/18/2021 19:11,67.168.49.96,Mozilla/5.0 (Windows NT 10.0; WOW64; rv:47.0) Gecko/20100101 Firefox/47.0,,Firefox,47,Windows,10
7,1,null,"""",html-keyboard-response,67,167273,0.0-67.0,"""","<div style=""font-size:60px;"">+</div>","""",6,fixationBtwnNeutralMaskAndPrompt,Practice,null,1000,"""","""","""","""","""","""","""","""","""",4/18/2021 19:11,67.168.49.96,Mozilla/5.0 (Windows NT 10.0; WOW64; rv:47.0) Gecko/20100101 Firefox/47.0,,Firefox,47,Windows,10
7,1,1545.59,"""",html-button-response,68,168820,0.0-68.0,"""","<img src='jspsych/CFDfaces/CFD-BF-001-025-N.jpg'height=""250px""></br><b>Tara</b>",0,6,IntactOrRearranged,Practice,"""","""","""","""",CFD-BF-001-025-N.jpg,Tara,0,"""","""",0,"""",4/18/2021 19:11,67.168.49.96,Mozilla/5.0 (Windows NT 10.0; WOW64; rv:47.0) Gecko/20100101 Firefox/47.0,,Firefox,47,Windows,10
7,1,2112.94,"""",html-slider-response,69,170940,0.0-69.0,"""","<img src='jspsych/CFDfaces/CFD-BF-001-025-N.jpg'height=""250px""></br><b>Tara</b>","""",6,ConfidenceQuery,Practice,"""","""","""","""",CFD-AM-228-214-N.jpg,Ryan,0,0,81,"""","""",4/18/2021 19:11,67.168.49.96,Mozilla/5.0 (Windows NT 10.0; WOW64; rv:47.0) Gecko/20100101 Firefox/47.0,,Firefox,47,Windows,10
7,1,998.935,"""",html-button-response,70,171940,0.0-70.0,"""",You are Correct. You called an Intact Pair Intact,0,6,feedback,Practice,"""","""","""","""","""","""","""","""","""","""","""",4/18/2021 19:11,67.168.49.96,Mozilla/5.0 (Windows NT 10.0; WOW64; rv:47.0) Gecko/20100101 Firefox/47.0,,Firefox,47,Windows,10
7,1,null,"""",html-keyboard-response,71,172947,0.0-71.0,"""","<div style=""font-size:60px;"">+</div>","""",7,ITI,Practice,null,1000,"""","""","""","""","""","""","""","""","""",4/18/2021 19:11,67.168.49.96,Mozilla/5.0 (Windows NT 10.0; WOW64; rv:47.0) Gecko/20100101 Firefox/47.0,,Firefox,47,Windows,10
7,1,null,"""",image-keyboard-response,72,173201,0.0-72.0,"""",jspsych/scrambledNeutralFaces/scrambledAF05NES.JPG,"""",7,forwardMask,Practice,null,250,"""",n,"""","""","""","""","""","""","""",4/18/2021 19:11,67.168.49.96,Mozilla/5.0 (Windows NT 10.0; WOW64; rv:47.0) Gecko/20100101 Firefox/47.0,,Firefox,47,Windows,10
7,1,null,"""",image-keyboard-response,73,173227,0.0-73.0,"""",jspsych/neutralFaces/AF05NES.JPG,"""",7,Cue,Practice,null,16,"""","""","""","""","""","""","""","""","""",4/18/2021 19:11,67.168.49.96,Mozilla/5.0 (Windows NT 10.0; WOW64; rv:47.0) Gecko/20100101 Firefox/47.0,,Firefox,47,Windows,10
7,1,null,"""",image-keyboard-response,74,173342,0.0-74.0,"""",jspsych/neutralFaces/BF20NES.JPG,"""",7,backwardMask,Practice,null,100,"""","""","""","""","""","""","""","""","""",4/18/2021 19:11,67.168.49.96,Mozilla/5.0 (Windows NT 10.0; WOW64; rv:47.0) Gecko/20100101 Firefox/47.0,,Firefox,47,Windows,10
7,1,null,"""",html-keyboard-response,75,174353,0.0-75.0,"""","<div style=""font-size:60px;"">+</div>","""",7,fixationBtwnNeutralMaskAndPrompt,Practice,null,1000,"""","""","""","""","""","""","""","""","""",4/18/2021 19:11,67.168.49.96,Mozilla/5.0 (Windows NT 10.0; WOW64; rv:47.0) Gecko/20100101 Firefox/47.0,,Firefox,47,Windows,10
7,1,4620.345,"""",html-button-response,76,178980,0.0-76.0,"""","<img src='jspsych/CFDfaces/CFD-LM-252-076-N.jpg'height=""250px""></br><b>Marcus</b>",1,7,IntactOrRearranged,Practice,"""","""","""","""",CFD-LM-252-076-N.jpg,Marcus,1,"""","""",1,"""",4/18/2021 19:11,67.168.49.96,Mozilla/5.0 (Windows NT 10.0; WOW64; rv:47.0) Gecko/20100101 Firefox/47.0,,Firefox,47,Windows,10
7,1,2614.785,"""",html-slider-response,77,181597,0.0-77.0,"""","<img src='jspsych/CFDfaces/CFD-LM-252-076-N.jpg'height=""250px""></br><b>Marcus</b>","""",7,ConfidenceQuery,Practice,"""","""","""","""",CFD-AM-228-214-N.jpg,Ryan,1,0,44,"""","""",4/18/2021 19:11,67.168.49.96,Mozilla/5.0 (Windows NT 10.0; WOW64; rv:47.0) Gecko/20100101 Firefox/47.0,,Firefox,47,Windows,10
7,1,1524,"""",html-button-response,78,183124,0.0-78.0,"""",You are Correct. You Called A Rearranged Pair Rearranged,0,7,feedback,Practice,"""","""","""","""","""","""","""","""","""","""","""",4/18/2021 19:11,67.168.49.96,Mozilla/5.0 (Windows NT 10.0; WOW64; rv:47.0) Gecko/20100101 Firefox/47.0,,Firefox,47,Windows,10
7,1,null,"""",html-keyboard-response,79,184129,0.0-79.0,"""","<div style=""font-size:60px;"">+</div>","""",8,ITI,Practice,null,1000,"""","""","""","""","""","""","""","""","""",4/18/2021 19:11,67.168.49.96,Mozilla/5.0 (Windows NT 10.0; WOW64; rv:47.0) Gecko/20100101 Firefox/47.0,,Firefox,47,Windows,10
7,1,null,"""",image-keyboard-response,80,184389,0.0-80.0,"""",jspsych/scrambledDisgustFaces/scrambledBM18DIS.JPG,"""",8,forwardMask,Practice,null,250,"""",d,"""","""","""","""","""","""","""",4/18/2021 19:11,67.168.49.96,Mozilla/5.0 (Windows NT 10.0; WOW64; rv:47.0) Gecko/20100101 Firefox/47.0,,Firefox,47,Windows,10
7,1,null,"""",image-keyboard-response,81,184412,0.0-81.0,"""",jspsych/disgustFaces/BM19DIS.JPG,"""",8,Cue,Practice,null,16,"""","""","""","""","""","""","""","""","""",4/18/2021 19:11,67.168.49.96,Mozilla/5.0 (Windows NT 10.0; WOW64; rv:47.0) Gecko/20100101 Firefox/47.0,,Firefox,47,Windows,10
7,1,null,"""",image-keyboard-response,82,184515,0.0-82.0,"""",jspsych/neutralFaces/AM35NES.JPG,"""",8,backwardMask,Practice,null,100,"""","""","""","""","""","""","""","""","""",4/18/2021 19:11,67.168.49.96,Mozilla/5.0 (Windows NT 10.0; WOW64; rv:47.0) Gecko/20100101 Firefox/47.0,,Firefox,47,Windows,10
7,1,null,"""",html-keyboard-response,83,185523,0.0-83.0,"""","<div style=""font-size:60px;"">+</div>","""",8,fixationBtwnNeutralMaskAndPrompt,Practice,null,1000,"""","""","""","""","""","""","""","""","""",4/18/2021 19:11,67.168.49.96,Mozilla/5.0 (Windows NT 10.0; WOW64; rv:47.0) Gecko/20100101 Firefox/47.0,,Firefox,47,Windows,10
7,1,3384.725,"""",html-button-response,84,188909,0.0-84.0,"""","<img src='jspsych/CFDfaces/CFD-AF-201-060-N.jpg'height=""250px""></br><b>Cassandra</b>",0,8,IntactOrRearranged,Practice,"""","""","""","""",CFD-AF-201-060-N.jpg,Cassandra,1,"""","""",0,"""",4/18/2021 19:11,67.168.49.96,Mozilla/5.0 (Windows NT 10.0; WOW64; rv:47.0) Gecko/20100101 Firefox/47.0,,Firefox,47,Windows,10
7,1,2084.225,"""",html-slider-response,85,190998,0.0-85.0,"""","<img src='jspsych/CFDfaces/CFD-AF-201-060-N.jpg'height=""250px""></br><b>Cassandra</b>","""",8,ConfidenceQuery,Practice,"""","""","""","""",CFD-AM-228-214-N.jpg,Ryan,1,0,15,"""","""",4/18/2021 19:11,67.168.49.96,Mozilla/5.0 (Windows NT 10.0; WOW64; rv:47.0) Gecko/20100101 Firefox/47.0,,Firefox,47,Windows,10
7,1,3191.865,"""",html-button-response,86,194193,0.0-86.0,"""",You are Incorrect. You called a Rearranged Pair Intact,0,8,feedback,Practice,"""","""","""","""","""","""","""","""","""","""","""",4/18/2021 19:11,67.168.49.96,Mozilla/5.0 (Windows NT 10.0; WOW64; rv:47.0) Gecko/20100101 Firefox/47.0,,Firefox,47,Windows,10
7,1,3516.955,"""",image-button-response,87,197719,0.0-87.0,"""",directionsMemoryAssociation3.JPG,0,128,DirectionsBeforeActualTEst,Break,"""","""","""","""","""","""","""","""","""","""","""",4/18/2021 19:11,67.168.49.96,Mozilla/5.0 (Windows NT 10.0; WOW64; rv:47.0) Gecko/20100101 Firefox/47.0,,Firefox,47,Windows,10
7,1,2371.265,"""",image-button-response,88,200107,0.0-88.0,"""",directionsForTest2.JPG,0,1,directionsForTest2,break,"""","""","""","""","""","""","""","""","""","""","""",4/18/2021 19:11,67.168.49.96,Mozilla/5.0 (Windows NT 10.0; WOW64; rv:47.0) Gecko/20100101 Firefox/47.0,,Firefox,47,Windows,10
7,1,7545.66,"""",html-button-response,89,207656,0.0-89.0,"""","<p>You will be asked to memorize and then recall four sets of face-name pairs. </p> <p> Each set will have 32 pairs. </p> <p>After the fourth set, there will be a brief follow-up experiment (<40 min alltogether)</p>",0,"""","""","""","""","""","""","""","""","""","""","""","""","""","""",4/18/2021 19:11,67.168.49.96,Mozilla/5.0 (Windows NT 10.0; WOW64; rv:47.0) Gecko/20100101 Firefox/47.0,,Firefox,47,Windows,10
7,1,2563.735,"""",html-keyboard-response,90,212671,0.0-90.0,"""","<img src='jspsych/CFDfaces/CFD-AF-203-077-N.jpg' height=""250px""></br><b>Ashley</b>","""",256,IntactFace,Memorization,70,5000,f,"""",CFD-LM-213-061-N.jpg,Kenneth,0,"""","""","""",1,4/18/2021 19:11,67.168.49.96,Mozilla/5.0 (Windows NT 10.0; WOW64; rv:47.0) Gecko/20100101 Firefox/47.0,,Firefox,47,Windows,10
7,1,null,"""",html-keyboard-response,91,213175,0.0-91.0,"""","<div style=""font-size:60px;"">+</div>","""",256,fixation,Memorization,null,500,"""","""","""","""","""","""","""","""",1,4/18/2021 19:11,67.168.49.96,Mozilla/5.0 (Windows NT 10.0; WOW64; rv:47.0) Gecko/20100101 Firefox/47.0,,Firefox,47,Windows,10
7,1,1853.755,"""",html-keyboard-response,92,218183,0.0-92.0,"""","<img src='jspsych/CFDfaces/CFD-LF-239-148-N.jpg' height=""250px""></br><b>Kimberly</b>","""",256,IntactFace,Memorization,78,5000,n,"""",CFD-AF-230-193-N.jpg,Angela,0,"""","""","""",1,4/18/2021 19:11,67.168.49.96,Mozilla/5.0 (Windows NT 10.0; WOW64; rv:47.0) Gecko/20100101 Firefox/47.0,,Firefox,47,Windows,10
7,1,null,"""",html-keyboard-response,93,218705,0.0-93.0,"""","<div style=""font-size:60px;"">+</div>","""",256,fixation,Memorization,null,500,"""","""","""","""","""","""","""","""",1,4/18/2021 19:11,67.168.49.96,Mozilla/5.0 (Windows NT 10.0; WOW64; rv:47.0) Gecko/20100101 Firefox/47.0,,Firefox,47,Windows,10
7,1,1503.65,"""",html-keyboard-response,94,223726,0.0-94.0,"""","<img src='jspsych/CFDfaces/CFD-AM-237-154-N.jpg' height=""250px""></br><b>Eric</b>","""",256,IntactFace,Memorization,78,5000,n,"""",CFD-WM-015-002-N.jpg,Vincent,0,"""","""","""",1,4/18/2021 19:11,67.168.49.96,Mozilla/5.0 (Windows NT 10.0; WOW64; rv:47.0) Gecko/20100101 Firefox/47.0,,Firefox,47,Windows,10
7,1,null,"""",html-keyboard-response,95,224240,0.0-95.0,"""","<div style=""font-size:60px;"">+</div>","""",256,fixation,Memorization,null,500,"""","""","""","""","""","""","""","""",1,4/18/2021 19:11,67.168.49.96,Mozilla/5.0 (Windows NT 10.0; WOW64; rv:47.0) Gecko/20100101 Firefox/47.0,,Firefox,47,Windows,10
7,1,2491.055,"""",html-keyboard-response,96,229264,0.0-96.0,"""","<img src='jspsych/CFDfaces/CFD-AM-248-104-N.jpg' height=""250px""></br><b>Christian</b>","""",256,IntactFace,Memorization,70,5000,f,"""",CFD-LM-219-295-N.jpg,Ryan,0,"""","""","""",1,4/18/2021 19:11,67.168.49.96,Mozilla/5.0 (Windows NT 10.0; WOW64; rv:47.0) Gecko/20100101 Firefox/47.0,,Firefox,47,Windows,10
7,1,null,"""",html-keyboard-response,97,229780,0.0-97.0,"""","<div style=""font-size:60px;"">+</div>","""",256,fixation,Memorization,null,500,"""","""","""","""","""","""","""","""",1,4/18/2021 19:11,67.168.49.96,Mozilla/5.0 (Windows NT 10.0; WOW64; rv:47.0) Gecko/20100101 Firefox/47.0,,Firefox,47,Windows,10
7,1,1457.54,"""",html-keyboard-response,98,234788,0.0-98.0,"""","<img src='jspsych/CFDfaces/CFD-WM-222-057-N.jpg' height=""250px""></br><b>Juan</b>","""",256,IntactFace,Memorization,78,5000,n,"""",CFD-LM-201-057-N.jpg,Mark,0,"""","""","""",1,4/18/2021 19:11,67.168.49.96,Mozilla/5.0 (Windows NT 10.0; WOW64; rv:47.0) Gecko/20100101 Firefox/47.0,,Firefox,47,Windows,10
7,1,null,"""",html-keyboard-response,99,235306,0.0-99.0,"""","<div style=""font-size:60px;"">+</div>","""",256,fixation,Memorization,null,500,"""","""","""","""","""","""","""","""",1,4/18/2021 19:11,67.168.49.96,Mozilla/5.0 (Windows NT 10.0; WOW64; rv:47.0) Gecko/20100101 Firefox/47.0,,Firefox,47,Windows,10
7,1,1322.805,"""",html-keyboard-response,100,240321,0.0-100.0,"""","<img src='jspsych/CFDfaces/CFD-AF-208-003-N.jpg' height=""250px""></br><b>Christina</b>","""",256,IntactFace,Memorization,78,5000,n,"""",CFD-AM-214-168-N.jpg,Timothy,0,"""","""","""",1,4/18/2021 19:11,67.168.49.96,Mozilla/5.0 (Windows NT 10.0; WOW64; rv:47.0) Gecko/20100101 Firefox/47.0,,Firefox,47,Windows,10
7,1,null,"""",html-keyboard-response,101,240834,0.0-101.0,"""","<div style=""font-size:60px;"">+</div>","""",256,fixation,Memorization,null,500,"""","""","""","""","""","""","""","""",1,4/18/2021 19:11,67.168.49.96,Mozilla/5.0 (Windows NT 10.0; WOW64; rv:47.0) Gecko/20100101 Firefox/47.0,,Firefox,47,Windows,10
7,1,1981.905,"""",html-keyboard-response,102,245847,0.0-102.0,"""","<img src='jspsych/CFDfaces/CFD-WF-217-085-N.jpg' height=""250px""></br><b>Meghan</b>","""",256,IntactFace,Memorization,70,5000,f,"""",CFD-AM-228-214-N.jpg,Jeremy,0,"""","""","""",1,4/18/2021 19:11,67.168.49.96,Mozilla/5.0 (Windows NT 10.0; WOW64; rv:47.0) Gecko/20100101 Firefox/47.0,,Firefox,47,Windows,10
7,1,null,"""",html-keyboard-response,103,246350,0.0-103.0,"""","<div style=""font-size:60px;"">+</div>","""",256,fixation,Memorization,null,500,"""","""","""","""","""","""","""","""",1,4/18/2021 19:11,67.168.49.96,Mozilla/5.0 (Windows NT 10.0; WOW64; rv:47.0) Gecko/20100101 Firefox/47.0,,Firefox,47,Windows,10
7,1,1638.965,"""",html-keyboard-response,104,251359,0.0-104.0,"""","<img src='jspsych/CFDfaces/CFD-BM-029-024-N.jpg' height=""250px""></br><b>Daniel</b>","""",256,IntactFace,Memorization,70,5000,f,"""",CFD-BF-009-002-N.jpg,Whitney,0,"""","""","""",1,4/18/2021 19:11,67.168.49.96,Mozilla/5.0 (Windows NT 10.0; WOW64; rv:47.0) Gecko/20100101 Firefox/47.0,,Firefox,47,Windows,10
7,1,null,"""",html-keyboard-response,105,251875,0.0-105.0,"""","<div style=""font-size:60px;"">+</div>","""",256,fixation,Memorization,null,500,"""","""","""","""","""","""","""","""",1,4/18/2021 19:11,67.168.49.96,Mozilla/5.0 (Windows NT 10.0; WOW64; rv:47.0) Gecko/20100101 Firefox/47.0,,Firefox,47,Windows,10
7,1,2401.745,"""",html-keyboard-response,106,256885,0.0-106.0,"""","<img src='jspsych/CFDfaces/CFD-LM-233-171-N.jpg' height=""250px""></br><b>Gregory</b>","""",256,IntactFace,Memorization,78,5000,n,"""",CFD-AM-220-134-N.jpg,Jacob,0,"""","""","""",1,4/18/2021 19:11,67.168.49.96,Mozilla/5.0 (Windows NT 10.0; WOW64; rv:47.0) Gecko/20100101 Firefox/47.0,,Firefox,47,Windows,10
7,1,null,"""",html-keyboard-response,107,257402,0.0-107.0,"""","<div style=""font-size:60px;"">+</div>","""",256,fixation,Memorization,null,500,"""","""","""","""","""","""","""","""",1,4/18/2021 19:11,67.168.49.96,Mozilla/5.0 (Windows NT 10.0; WOW64; rv:47.0) Gecko/20100101 Firefox/47.0,,Firefox,47,Windows,10
7,1,1551.93,"""",html-keyboard-response,108,262419,0.0-108.0,"""","<img src='jspsych/CFDfaces/CFD-WF-024-003-N.jpg' height=""250px""></br><b>Amanda</b>","""",256,IntactFace,Memorization,70,5000,f,"""",CFD-BM-203-001-N.jpg,Luis,0,"""","""","""",1,4/18/2021 19:11,67.168.49.96,Mozilla/5.0 (Windows NT 10.0; WOW64; rv:47.0) Gecko/20100101 Firefox/47.0,,Firefox,47,Windows,10
7,1,null,"""",html-keyboard-response,109,262933,0.0-109.0,"""","<div style=""font-size:60px;"">+</div>","""",256,fixation,Memorization,null,500,"""","""","""","""","""","""","""","""",1,4/18/2021 19:11,67.168.49.96,Mozilla/5.0 (Windows NT 10.0; WOW64; rv:47.0) Gecko/20100101 Firefox/47.0,,Firefox,47,Windows,10
7,1,1629.68,"""",html-keyboard-response,110,267943,0.0-110.0,"""","<img src='jspsych/CFDfaces/CFD-AF-242-158-N.jpg' height=""250px""></br><b>Emily</b>","""",256,IntactFace,Memorization,70,5000,f,"""",CFD-LM-223-175-N.jpg,Steven,0,"""","""","""",1,4/18/2021 19:11,67.168.49.96,Mozilla/5.0 (Windows NT 10.0; WOW64; rv:47.0) Gecko/20100101 Firefox/47.0,,Firefox,47,Windows,10
7,1,null,"""",html-keyboard-response,111,268477,0.0-111.0,"""","<div style=""font-size:60px;"">+</div>","""",256,fixation,Memorization,null,500,"""","""","""","""","""","""","""","""",1,4/18/2021 19:11,67.168.49.96,Mozilla/5.0 (Windows NT 10.0; WOW64; rv:47.0) Gecko/20100101 Firefox/47.0,,Firefox,47,Windows,10
7,1,3012.65,"""",html-keyboard-response,112,273495,0.0-112.0,"""","<img src='jspsych/CFDfaces/CFD-BM-032-024-N.jpg' height=""250px""></br><b>Jason</b>","""",256,IntactFace,Memorization,78,5000,n,"""",CFD-AF-209-006-N.jpg,Jasmine,0,"""","""","""",1,4/18/2021 19:11,67.168.49.96,Mozilla/5.0 (Windows NT 10.0; WOW64; rv:47.0) Gecko/20100101 Firefox/47.0,,Firefox,47,Windows,10
7,1,null,"""",html-keyboard-response,113,274011,0.0-113.0,"""","<div style=""font-size:60px;"">+</div>","""",256,fixation,Memorization,null,500,"""","""","""","""","""","""","""","""",1,4/18/2021 19:11,67.168.49.96,Mozilla/5.0 (Windows NT 10.0; WOW64; rv:47.0) Gecko/20100101 Firefox/47.0,,Firefox,47,Windows,10
7,1,2013.99,"""",html-keyboard-response,114,279030,0.0-114.0,"""","<img src='jspsych/CFDfaces/CFD-BM-043-071-N.jpg' height=""250px""></br><b>Brian</b>","""",256,IntactFace,Memorization,70,5000,f,"""",CFD-BF-222-240-N.jpg,Taylor,0,"""","""","""",1,4/18/2021 19:11,67.168.49.96,Mozilla/5.0 (Windows NT 10.0; WOW64; rv:47.0) Gecko/20100101 Firefox/47.0,,Firefox,47,Windows,10
7,1,null,"""",html-keyboard-response,115,279535,0.0-115.0,"""","<div style=""font-size:60px;"">+</div>","""",256,fixation,Memorization,null,500,"""","""","""","""","""","""","""","""",1,4/18/2021 19:11,67.168.49.96,Mozilla/5.0 (Windows NT 10.0; WOW64; rv:47.0) Gecko/20100101 Firefox/47.0,,Firefox,47,Windows,10
7,1,1542.5,"""",html-keyboard-response,116,284538,0.0-116.0,"""","<img src='jspsych/CFDfaces/CFD-WM-009-002-N.jpg' height=""250px""></br><b>James</b>","""",256,IntactFace,Memorization,70,5000,f,"""",CFD-LF-230-203-N.jpg,Sara,0,"""","""","""",1,4/18/2021 19:11,67.168.49.96,Mozilla/5.0 (Windows NT 10.0; WOW64; rv:47.0) Gecko/20100101 Firefox/47.0,,Firefox,47,Windows,10
7,1,null,"""",html-keyboard-response,117,285050,0.0-117.0,"""","<div style=""font-size:60px;"">+</div>","""",256,fixation,Memorization,null,500,"""","""","""","""","""","""","""","""",1,4/18/2021 19:11,67.168.49.96,Mozilla/5.0 (Windows NT 10.0; WOW64; rv:47.0) Gecko/20100101 Firefox/47.0,,Firefox,47,Windows,10
7,1,null,"""",html-keyboard-response,118,290058,0.0-118.0,"""","<img src='jspsych/CFDfaces/CFD-BM-010-003-N.jpg' height=""250px""></br><b>Richard</b>","""",256,IntactFace,Memorization,null,5000,"""","""",CFD-AM-234-355-N.jpg,Cameron,0,"""","""","""",1,4/18/2021 19:11,67.168.49.96,Mozilla/5.0 (Windows NT 10.0; WOW64; rv:47.0) Gecko/20100101 Firefox/47.0,,Firefox,47,Windows,10
7,1,null,"""",html-keyboard-response,119,290567,0.0-119.0,"""","<div style=""font-size:60px;"">+</div>","""",256,fixation,Memorization,null,500,"""","""","""","""","""","""","""","""",1,4/18/2021 19:11,67.168.49.96,Mozilla/5.0 (Windows NT 10.0; WOW64; rv:47.0) Gecko/20100101 Firefox/47.0,,Firefox,47,Windows,10
7,1,1797.805,"""",html-keyboard-response,120,295585,0.0-120.0,"""","<img src='jspsych/CFDfaces/CFD-BF-218-207-N.jpg' height=""250px""></br><b>Vanessa</b>","""",256,IntactFace,Memorization,70,5000,f,"""",CFD-AF-235-170-N.jpg,Melissa,0,"""","""","""",1,4/18/2021 19:11,67.168.49.96,Mozilla/5.0 (Windows NT 10.0; WOW64; rv:47.0) Gecko/20100101 Firefox/47.0,,Firefox,47,Windows,10
7,1,null,"""",html-keyboard-response,121,296097,0.0-121.0,"""","<div style=""font-size:60px;"">+</div>","""",256,fixation,Memorization,null,500,"""","""","""","""","""","""","""","""",1,4/18/2021 19:11,67.168.49.96,Mozilla/5.0 (Windows NT 10.0; WOW64; rv:47.0) Gecko/20100101 Firefox/47.0,,Firefox,47,Windows,10
7,1,1604,"""",html-keyboard-response,122,301102,0.0-122.0,"""","<img src='jspsych/CFDfaces/CFD-BF-039-031-N.jpg' height=""250px""></br><b>Victoria</b>","""",256,IntactFace,Memorization,78,5000,n,"""",CFD-BF-004-014-N.jpg,Erin,0,"""","""","""",1,4/18/2021 19:11,67.168.49.96,Mozilla/5.0 (Windows NT 10.0; WOW64; rv:47.0) Gecko/20100101 Firefox/47.0,,Firefox,47,Windows,10
7,1,null,"""",html-keyboard-response,123,301619,0.0-123.0,"""","<div style=""font-size:60px;"">+</div>","""",256,fixation,Memorization,null,500,"""","""","""","""","""","""","""","""",1,4/18/2021 19:11,67.168.49.96,Mozilla/5.0 (Windows NT 10.0; WOW64; rv:47.0) Gecko/20100101 Firefox/47.0,,Firefox,47,Windows,10
7,1,2368.345,"""",html-keyboard-response,124,306630,0.0-124.0,"""","<img src='jspsych/CFDfaces/CFD-WM-215-041-N.jpg' height=""250px""></br><b>Brandon</b>","""",256,IntactFace,Memorization,70,5000,f,"""",CFD-BM-022-022-N.jpg,Sean,0,"""","""","""",1,4/18/2021 19:11,67.168.49.96,Mozilla/5.0 (Windows NT 10.0; WOW64; rv:47.0) Gecko/20100101 Firefox/47.0,,Firefox,47,Windows,10
7,1,null,"""",html-keyboard-response,125,307142,0.0-125.0,"""","<div style=""font-size:60px;"">+</div>","""",256,fixation,Memorization,null,500,"""","""","""","""","""","""","""","""",1,4/18/2021 19:11,67.168.49.96,Mozilla/5.0 (Windows NT 10.0; WOW64; rv:47.0) Gecko/20100101 Firefox/47.0,,Firefox,47,Windows,10
7,1,1623.42,"""",html-keyboard-response,126,312162,0.0-126.0,"""","<img src='jspsych/CFDfaces/CFD-WM-020-001-N.jpg' height=""250px""></br><b>Nicholas</b>","""",256,IntactFace,Memorization,78,5000,n,"""",CFD-LF-215-157-N.jpg,Lindsey,0,"""","""","""",1,4/18/2021 19:11,67.168.49.96,Mozilla/5.0 (Windows NT 10.0; WOW64; rv:47.0) Gecko/20100101 Firefox/47.0,,Firefox,47,Windows,10
7,1,null,"""",html-keyboard-response,127,312675,0.0-127.0,"""","<div style=""font-size:60px;"">+</div>","""",256,fixation,Memorization,null,500,"""","""","""","""","""","""","""","""",1,4/18/2021 19:11,67.168.49.96,Mozilla/5.0 (Windows NT 10.0; WOW64; rv:47.0) Gecko/20100101 Firefox/47.0,,Firefox,47,Windows,10
7,1,1761.305,"""",html-keyboard-response,128,317687,0.0-128.0,"""","<img src='jspsych/CFDfaces/CFD-WM-207-048-N.jpg' height=""250px""></br><b>Robert</b>","""",256,IntactFace,Memorization,70,5000,f,"""",CFD-LM-234-176-N.jpg,Dustin,0,"""","""","""",1,4/18/2021 19:11,67.168.49.96,Mozilla/5.0 (Windows NT 10.0; WOW64; rv:47.0) Gecko/20100101 Firefox/47.0,,Firefox,47,Windows,10
7,1,null,"""",html-keyboard-response,129,318201,0.0-129.0,"""","<div style=""font-size:60px;"">+</div>","""",256,fixation,Memorization,null,500,"""","""","""","""","""","""","""","""",1,4/18/2021 19:11,67.168.49.96,Mozilla/5.0 (Windows NT 10.0; WOW64; rv:47.0) Gecko/20100101 Firefox/47.0,,Firefox,47,Windows,10
7,1,1515.295,"""",html-keyboard-response,130,323209,0.0-130.0,"""","<img src='jspsych/CFDfaces/CFD-BF-226-119-N.jpg' height=""250px""></br><b>Julie</b>","""",256,IntactFace,Memorization,70,5000,f,"""",CFD-BM-002-013-N.jpg,Austin,0,"""","""","""",1,4/18/2021 19:11,67.168.49.96,Mozilla/5.0 (Windows NT 10.0; WOW64; rv:47.0) Gecko/20100101 Firefox/47.0,,Firefox,47,Windows,10
7,1,null,"""",html-keyboard-response,131,323722,0.0-131.0,"""","<div style=""font-size:60px;"">+</div>","""",256,fixation,Memorization,null,500,"""","""","""","""","""","""","""","""",1,4/18/2021 19:11,67.168.49.96,Mozilla/5.0 (Windows NT 10.0; WOW64; rv:47.0) Gecko/20100101 Firefox/47.0,,Firefox,47,Windows,10
7,1,2141.855,"""",html-keyboard-response,132,328747,0.0-132.0,"""","<img src='jspsych/CFDfaces/CFD-AF-237-223-N.jpg' height=""250px""></br><b>Brittany</b>","""",256,IntactFace,Memorization,78,5000,n,"""",CFD-LF-218-072-N.jpg,Rebecca,0,"""","""","""",1,4/18/2021 19:11,67.168.49.96,Mozilla/5.0 (Windows NT 10.0; WOW64; rv:47.0) Gecko/20100101 Firefox/47.0,,Firefox,47,Windows,10
7,1,null,"""",html-keyboard-response,133,329260,0.0-133.0,"""","<div style=""font-size:60px;"">+</div>","""",256,fixation,Memorization,null,500,"""","""","""","""","""","""","""","""",1,4/18/2021 19:11,67.168.49.96,Mozilla/5.0 (Windows NT 10.0; WOW64; rv:47.0) Gecko/20100101 Firefox/47.0,,Firefox,47,Windows,10
7,1,4232.98,"""",html-keyboard-response,134,334274,0.0-134.0,"""","<img src='jspsych/CFDfaces/CFD-BM-210-148-N.jpg' height=""250px""></br><b>Joshua</b>","""",256,IntactFace,Memorization,78,5000,n,"""",CFD-WF-220-101-N.jpg,Jordan,0,"""","""","""",1,4/18/2021 19:11,67.168.49.96,Mozilla/5.0 (Windows NT 10.0; WOW64; rv:47.0) Gecko/20100101 Firefox/47.0,,Firefox,47,Windows,10
7,1,null,"""",html-keyboard-response,135,334787,0.0-135.0,"""","<div style=""font-size:60px;"">+</div>","""",256,fixation,Memorization,null,500,"""","""","""","""","""","""","""","""",1,4/18/2021 19:11,67.168.49.96,Mozilla/5.0 (Windows NT 10.0; WOW64; rv:47.0) Gecko/20100101 Firefox/47.0,,Firefox,47,Windows,10
7,1,1905.32,"""",html-keyboard-response,136,339790,0.0-136.0,"""","<img src='jspsych/CFDfaces/CFD-WM-212-097-N.jpg' height=""250px""></br><b>Peter</b>","""",256,IntactFace,Memorization,70,5000,f,"""",CFD-WF-038-021-N.jpg,Heather,0,"""","""","""",1,4/18/2021 19:11,67.168.49.96,Mozilla/5.0 (Windows NT 10.0; WOW64; rv:47.0) Gecko/20100101 Firefox/47.0,,Firefox,47,Windows,10
7,1,null,"""",html-keyboard-response,137,340293,0.0-137.0,"""","<div style=""font-size:60px;"">+</div>","""",256,fixation,Memorization,null,500,"""","""","""","""","""","""","""","""",1,4/18/2021 19:11,67.168.49.96,Mozilla/5.0 (Windows NT 10.0; WOW64; rv:47.0) Gecko/20100101 Firefox/47.0,,Firefox,47,Windows,10
7,1,1767.45,"""",html-keyboard-response,138,345307,0.0-138.0,"""","<img src='jspsych/CFDfaces/CFD-BF-008-001-N.jpg' height=""250px""></br><b>Stephanie</b>","""",256,IntactFace,Memorization,78,5000,n,"""",CFD-LM-239-075-N.jpg,Justin,0,"""","""","""",1,4/18/2021 19:11,67.168.49.96,Mozilla/5.0 (Windows NT 10.0; WOW64; rv:47.0) Gecko/20100101 Firefox/47.0,,Firefox,47,Windows,10
7,1,null,"""",html-keyboard-response,139,345817,0.0-139.0,"""","<div style=""font-size:60px;"">+</div>","""",256,fixation,Memorization,null,500,"""","""","""","""","""","""","""","""",1,4/18/2021 19:11,67.168.49.96,Mozilla/5.0 (Windows NT 10.0; WOW64; rv:47.0) Gecko/20100101 Firefox/47.0,,Firefox,47,Windows,10
7,1,2139.41,"""",html-keyboard-response,140,350829,0.0-140.0,"""","<img src='jspsych/CFDfaces/CFD-WM-006-002-N.jpg' height=""250px""></br><b>Jeffrey</b>","""",256,IntactFace,Memorization,70,5000,f,"""",CFD-WF-017-003-N.jpg,Laura,0,"""","""","""",1,4/18/2021 19:11,67.168.49.96,Mozilla/5.0 (Windows NT 10.0; WOW64; rv:47.0) Gecko/20100101 Firefox/47.0,,Firefox,47,Windows,10
7,1,null,"""",html-keyboard-response,141,351358,0.0-141.0,"""","<div style=""font-size:60px;"">+</div>","""",256,fixation,Memorization,null,500,"""","""","""","""","""","""","""","""",1,4/18/2021 19:11,67.168.49.96,Mozilla/5.0 (Windows NT 10.0; WOW64; rv:47.0) Gecko/20100101 Firefox/47.0,,Firefox,47,Windows,10
7,1,1686.83,"""",html-keyboard-response,142,356367,0.0-142.0,"""","<img src='jspsych/CFDfaces/CFD-AF-222-134-N.jpg' height=""250px""></br><b>Andrea</b>","""",256,IntactFace,Memorization,78,5000,n,"""",CFD-LF-201-035-N.jpg,Amy,0,"""","""","""",1,4/18/2021 19:11,67.168.49.96,Mozilla/5.0 (Windows NT 10.0; WOW64; rv:47.0) Gecko/20100101 Firefox/47.0,,Firefox,47,Windows,10
7,1,null,"""",html-keyboard-response,143,356881,0.0-143.0,"""","<div style=""font-size:60px;"">+</div>","""",256,fixation,Memorization,null,500,"""","""","""","""","""","""","""","""",1,4/18/2021 19:11,67.168.49.96,Mozilla/5.0 (Windows NT 10.0; WOW64; rv:47.0) Gecko/20100101 Firefox/47.0,,Firefox,47,Windows,10
7,1,2916.355,"""",html-keyboard-response,144,361886,0.0-144.0,"""","<img src='jspsych/CFDfaces/CFD-AF-233-190-N.jpg' height=""250px""></br><b>Michelle</b>","""",256,IntactFace,Memorization,70,5000,f,"""",CFD-WM-237-052-N.jpg,Jesse,0,"""","""","""",1,4/18/2021 19:11,67.168.49.96,Mozilla/5.0 (Windows NT 10.0; WOW64; rv:47.0) Gecko/20100101 Firefox/47.0,,Firefox,47,Windows,10
7,1,null,"""",html-keyboard-response,145,362405,0.0-145.0,"""","<div style=""font-size:60px;"">+</div>","""",256,fixation,Memorization,null,500,"""","""","""","""","""","""","""","""",1,4/18/2021 19:11,67.168.49.96,Mozilla/5.0 (Windows NT 10.0; WOW64; rv:47.0) Gecko/20100101 Firefox/47.0,,Firefox,47,Windows,10
7,1,1663.81,"""",html-keyboard-response,146,367418,0.0-146.0,"""","<img src='jspsych/CFDfaces/CFD-BF-221-223-N.jpg' height=""250px""></br><b>Elizabeth</b>","""",256,IntactFace,Memorization,70,5000,f,"""",CFD-BF-005-001-N.jpg,Jenna,0,"""","""","""",1,4/18/2021 19:11,67.168.49.96,Mozilla/5.0 (Windows NT 10.0; WOW64; rv:47.0) Gecko/20100101 Firefox/47.0,,Firefox,47,Windows,10
7,1,null,"""",html-keyboard-response,147,367928,0.0-147.0,"""","<div style=""font-size:60px;"">+</div>","""",256,fixation,Memorization,null,500,"""","""","""","""","""","""","""","""",1,4/18/2021 19:11,67.168.49.96,Mozilla/5.0 (Windows NT 10.0; WOW64; rv:47.0) Gecko/20100101 Firefox/47.0,,Firefox,47,Windows,10
7,1,1730.48,"""",html-keyboard-response,148,372943,0.0-148.0,"""","<img src='jspsych/CFDfaces/CFD-LF-232-199-N.jpg' height=""250px""></br><b>Samantha</b>","""",256,IntactFace,Memorization,78,5000,n,"""",CFD-AF-228-173-N.jpg,Lauren,0,"""","""","""",1,4/18/2021 19:11,67.168.49.96,Mozilla/5.0 (Windows NT 10.0; WOW64; rv:47.0) Gecko/20100101 Firefox/47.0,,Firefox,47,Windows,10
7,1,null,"""",html-keyboard-response,149,373448,0.0-149.0,"""","<div style=""font-size:60px;"">+</div>","""",256,fixation,Memorization,null,500,"""","""","""","""","""","""","""","""",1,4/18/2021 19:11,67.168.49.96,Mozilla/5.0 (Windows NT 10.0; WOW64; rv:47.0) Gecko/20100101 Firefox/47.0,,Firefox,47,Windows,10
7,1,1996.63,"""",html-keyboard-response,150,378464,0.0-150.0,"""","<img src='jspsych/CFDfaces/CFD-LM-221-216-N.jpg' height=""250px""></br><b>Ian</b>","""",256,IntactFace,Memorization,78,5000,n,"""",CFD-LF-213-079-N.jpg,Tiffany,0,"""","""","""",1,4/18/2021 19:11,67.168.49.96,Mozilla/5.0 (Windows NT 10.0; WOW64; rv:47.0) Gecko/20100101 Firefox/47.0,,Firefox,47,Windows,10
7,1,null,"""",html-keyboard-response,151,378977,0.0-151.0,"""","<div style=""font-size:60px;"">+</div>","""",256,fixation,Memorization,null,500,"""","""","""","""","""","""","""","""",1,4/18/2021 19:11,67.168.49.96,Mozilla/5.0 (Windows NT 10.0; WOW64; rv:47.0) Gecko/20100101 Firefox/47.0,,Firefox,47,Windows,10
7,1,2979.62,"""",html-keyboard-response,152,383982,0.0-152.0,"""","<img src='jspsych/CFDfaces/CFD-AF-226-251-N.jpg' height=""250px""></br><b>Kayla</b>","""",256,IntactFace,Memorization,78,5000,n,"""",CFD-LM-248-089-N.jpg,Travis,0,"""","""","""",1,4/18/2021 19:11,67.168.49.96,Mozilla/5.0 (Windows NT 10.0; WOW64; rv:47.0) Gecko/20100101 Firefox/47.0,,Firefox,47,Windows,10
7,1,null,"""",html-keyboard-response,153,384487,0.0-153.0,"""","<div style=""font-size:60px;"">+</div>","""",256,fixation,Memorization,null,500,"""","""","""","""","""","""","""","""",1,4/18/2021 19:11,67.168.49.96,Mozilla/5.0 (Windows NT 10.0; WOW64; rv:47.0) Gecko/20100101 Firefox/47.0,,Firefox,47,Windows,10
7,1,1237.06,"""",html-keyboard-response,154,385734,0.0-154.0,"""",Press Any Key to Begin Memory Test,"""",1,welcomeScreen,Break,32,"""","""","""","""","""","""","""","""","""",1,4/18/2021 19:11,67.168.49.96,Mozilla/5.0 (Windows NT 10.0; WOW64; rv:47.0) Gecko/20100101 Firefox/47.0,,Firefox,47,Windows,10
7,1,null,"""",html-keyboard-response,155,386736,0.0-155.0,"""","<div style=""font-size:60px;"">+</div>","""",256,ITI,Test,null,1000,"""","""","""","""","""","""","""","""",1,4/18/2021 19:11,67.168.49.96,Mozilla/5.0 (Windows NT 10.0; WOW64; rv:47.0) Gecko/20100101 Firefox/47.0,,Firefox,47,Windows,10
7,1,null,"""",image-keyboard-response,156,387002,0.0-156.0,"""",jspsych/scrambledNeutralFaces/scrambledBM08NES.JPG,"""",256,forwardMask,Test,null,250,"""",n,"""","""","""","""","""","""",1,4/18/2021 19:11,67.168.49.96,Mozilla/5.0 (Windows NT 10.0; WOW64; rv:47.0) Gecko/20100101 Firefox/47.0,,Firefox,47,Windows,10
7,1,null,"""",image-keyboard-response,157,387024,0.0-157.0,"""",jspsych/neutralFaces/BM08NES.JPG,"""",256,Cue,Test,null,16,"""","""","""","""","""","""","""","""",1,4/18/2021 19:11,67.168.49.96,Mozilla/5.0 (Windows NT 10.0; WOW64; rv:47.0) Gecko/20100101 Firefox/47.0,,Firefox,47,Windows,10
7,1,null,"""",image-keyboard-response,158,387129,0.0-158.0,"""",jspsych/neutralFaces/AM06NES.JPG,"""",256,backwardMask,Test,null,100,"""","""","""","""","""","""","""","""",1,4/18/2021 19:11,67.168.49.96,Mozilla/5.0 (Windows NT 10.0; WOW64; rv:47.0) Gecko/20100101 Firefox/47.0,,Firefox,47,Windows,10
7,1,null,"""",html-keyboard-response,159,388137,0.0-159.0,"""","<div style=""font-size:60px;"">+</div>","""",256,fixationBtwnNeutralMaskAndPrompt,Test,null,1000,"""","""","""","""","""","""","""","""",1,4/18/2021 19:11,67.168.49.96,Mozilla/5.0 (Windows NT 10.0; WOW64; rv:47.0) Gecko/20100101 Firefox/47.0,,Firefox,47,Windows,10
7,1,3272.095,"""",html-button-response,160,391411,0.0-160.0,"""","<img src='jspsych/CFDfaces/CFD-AM-237-154-N.jpg' height=""250px"">,</br><b>Gregory</b>",1,256,IntactOrRearranged,Test,"""","""","""","""",CFD-AM-234-355-N.jpg,Timothy,1,"""","""",1,1,4/18/2021 19:11,67.168.49.96,Mozilla/5.0 (Windows NT 10.0; WOW64; rv:47.0) Gecko/20100101 Firefox/47.0,,Firefox,47,Windows,10
7,1,3200.035,"""",html-slider-response,161,394618,0.0-161.0,"""","<img src='jspsych/CFDfaces/CFD-AM-237-154-N.jpg' height=""250px"">,</br><b>Gregory</b>","""",256,ConfidenceQuery,Test,"""","""","""","""",CFD-AM-234-355-N.jpg,Timothy,1,0,67,"""",1,4/18/2021 19:11,67.168.49.96,Mozilla/5.0 (Windows NT 10.0; WOW64; rv:47.0) Gecko/20100101 Firefox/47.0,,Firefox,47,Windows,10
7,1,null,"""",html-keyboard-response,162,395623,0.0-162.0,"""","<div style=""font-size:60px;"">+</div>","""",256,ITI,Test,null,1000,"""","""","""","""","""","""","""","""",1,4/18/2021 19:11,67.168.49.96,Mozilla/5.0 (Windows NT 10.0; WOW64; rv:47.0) Gecko/20100101 Firefox/47.0,,Firefox,47,Windows,10
7,1,null,"""",image-keyboard-response,163,395888,0.0-163.0,"""",jspsych/scrambledDisgustFaces/scrambledAF28DIS.JPG,"""",256,forwardMask,Test,null,250,"""",d,"""","""","""","""","""","""",1,4/18/2021 19:11,67.168.49.96,Mozilla/5.0 (Windows NT 10.0; WOW64; rv:47.0) Gecko/20100101 Firefox/47.0,,Firefox,47,Windows,10
7,1,null,"""",image-keyboard-response,164,395913,0.0-164.0,"""",jspsych/disgustFaces/AF28DIS.JPG,"""",256,Cue,Test,null,16,"""","""","""","""","""","""","""","""",1,4/18/2021 19:11,67.168.49.96,Mozilla/5.0 (Windows NT 10.0; WOW64; rv:47.0) Gecko/20100101 Firefox/47.0,,Firefox,47,Windows,10
7,1,null,"""",image-keyboard-response,165,396024,0.0-165.0,"""",jspsych/neutralFaces/BF03NES.JPG,"""",256,backwardMask,Test,null,100,"""","""","""","""","""","""","""","""",1,4/18/2021 19:11,67.168.49.96,Mozilla/5.0 (Windows NT 10.0; WOW64; rv:47.0) Gecko/20100101 Firefox/47.0,,Firefox,47,Windows,10
7,1,null,"""",html-keyboard-response,166,397032,0.0-166.0,"""","<div style=""font-size:60px;"">+</div>","""",256,fixationBtwnNeutralMaskAndPrompt,Test,null,1000,"""","""","""","""","""","""","""","""",1,4/18/2021 19:11,67.168.49.96,Mozilla/5.0 (Windows NT 10.0; WOW64; rv:47.0) Gecko/20100101 Firefox/47.0,,Firefox,47,Windows,10
7,1,2257.78,"""",html-button-response,167,399292,0.0-167.0,"""","<img src='jspsych/CFDfaces/CFD-BF-039-031-N.jpg' height=""250px"">,</br><b>Ashley</b>",0,256,IntactOrRearranged,Test,"""","""","""","""",CFD-AF-228-173-N.jpg,Jordan,1,"""","""",0,1,4/18/2021 19:11,67.168.49.96,Mozilla/5.0 (Windows NT 10.0; WOW64; rv:47.0) Gecko/20100101 Firefox/47.0,,Firefox,47,Windows,10
7,1,2096.985,"""",html-slider-response,168,401396,0.0-168.0,"""","<img src='jspsych/CFDfaces/CFD-BF-039-031-N.jpg' height=""250px"">,</br><b>Ashley</b>","""",256,ConfidenceQuery,Test,"""","""","""","""",CFD-AF-228-173-N.jpg,Jordan,1,0,16,"""",1,4/18/2021 19:11,67.168.49.96,Mozilla/5.0 (Windows NT 10.0; WOW64; rv:47.0) Gecko/20100101 Firefox/47.0,,Firefox,47,Windows,10
7,1,null,"""",html-keyboard-response,169,402405,0.0-169.0,"""","<div style=""font-size:60px;"">+</div>","""",256,ITI,Test,null,1000,"""","""","""","""","""","""","""","""",1,4/18/2021 19:11,67.168.49.96,Mozilla/5.0 (Windows NT 10.0; WOW64; rv:47.0) Gecko/20100101 Firefox/47.0,,Firefox,47,Windows,10
7,1,null,"""",image-keyboard-response,170,402664,0.0-170.0,"""",jspsych/scrambledDisgustFaces/scrambledAF03DIS.JPG,"""",256,forwardMask,Test,null,250,"""",d,"""","""","""","""","""","""",1,4/18/2021 19:11,67.168.49.96,Mozilla/5.0 (Windows NT 10.0; WOW64; rv:47.0) Gecko/20100101 Firefox/47.0,,Firefox,47,Windows,10
7,1,null,"""",image-keyboard-response,171,402689,0.0-171.0,"""",jspsych/disgustFaces/AF03DIS.JPG,"""",256,Cue,Test,null,16,"""","""","""","""","""","""","""","""",1,4/18/2021 19:11,67.168.49.96,Mozilla/5.0 (Windows NT 10.0; WOW64; rv:47.0) Gecko/20100101 Firefox/47.0,,Firefox,47,Windows,10
7,1,null,"""",image-keyboard-response,172,402807,0.0-172.0,"""",jspsych/neutralFaces/AF35NES.JPG,"""",256,backwardMask,Test,null,100,"""","""","""","""","""","""","""","""",1,4/18/2021 19:11,67.168.49.96,Mozilla/5.0 (Windows NT 10.0; WOW64; rv:47.0) Gecko/20100101 Firefox/47.0,,Firefox,47,Windows,10
7,1,null,"""",html-keyboard-response,173,403816,0.0-173.0,"""","<div style=""font-size:60px;"">+</div>","""",256,fixationBtwnNeutralMaskAndPrompt,Test,null,1000,"""","""","""","""","""","""","""","""",1,4/18/2021 19:11,67.168.49.96,Mozilla/5.0 (Windows NT 10.0; WOW64; rv:47.0) Gecko/20100101 Firefox/47.0,,Firefox,47,Windows,10
7,1,null,"""",html-button-response,174,408830,0.0-174.0,"""","<img src='jspsych/CFDfaces/CFD-AF-208-003-N.jpg' height=""250px"">,</br><b>Victoria</b>",null,256,IntactOrRearranged,Test,"""","""","""","""",CFD-BM-002-013-N.jpg,Mark,1,"""","""","""",1,4/18/2021 19:11,67.168.49.96,Mozilla/5.0 (Windows NT 10.0; WOW64; rv:47.0) Gecko/20100101 Firefox/47.0,,Firefox,47,Windows,10
7,1,2336.185,"""",html-slider-response,175,411199,0.0-175.0,"""","<img src='jspsych/CFDfaces/CFD-AF-208-003-N.jpg' height=""250px"">,</br><b>Victoria</b>","""",256,ConfidenceQuery,Test,"""","""","""","""",CFD-BM-002-013-N.jpg,Mark,1,0,18,"""",1,4/18/2021 19:11,67.168.49.96,Mozilla/5.0 (Windows NT 10.0; WOW64; rv:47.0) Gecko/20100101 Firefox/47.0,,Firefox,47,Windows,10
7,1,null,"""",html-keyboard-response,176,412209,0.0-176.0,"""","<div style=""font-size:60px;"">+</div>","""",256,ITI,Test,null,1000,"""","""","""","""","""","""","""","""",1,4/18/2021 19:11,67.168.49.96,Mozilla/5.0 (Windows NT 10.0; WOW64; rv:47.0) Gecko/20100101 Firefox/47.0,,Firefox,47,Windows,10
7,1,null,"""",image-keyboard-response,177,412471,0.0-177.0,"""",jspsych/scrambledNeutralFaces/scrambledBM31NES.JPG,"""",256,forwardMask,Test,null,250,"""",n,"""","""","""","""","""","""",1,4/18/2021 19:11,67.168.49.96,Mozilla/5.0 (Windows NT 10.0; WOW64; rv:47.0) Gecko/20100101 Firefox/47.0,,Firefox,47,Windows,10
7,1,null,"""",image-keyboard-response,178,412502,0.0-178.0,"""",jspsych/neutralFaces/BM31NES.JPG,"""",256,Cue,Test,null,16,"""","""","""","""","""","""","""","""",1,4/18/2021 19:11,67.168.49.96,Mozilla/5.0 (Windows NT 10.0; WOW64; rv:47.0) Gecko/20100101 Firefox/47.0,,Firefox,47,Windows,10
7,1,null,"""",image-keyboard-response,179,412612,0.0-179.0,"""",jspsych/neutralFaces/AM35NES.JPG,"""",256,backwardMask,Test,null,100,"""","""","""","""","""","""","""","""",1,4/18/2021 19:11,67.168.49.96,Mozilla/5.0 (Windows NT 10.0; WOW64; rv:47.0) Gecko/20100101 Firefox/47.0,,Firefox,47,Windows,10
7,1,null,"""",html-keyboard-response,180,413618,0.0-180.0,"""","<div style=""font-size:60px;"">+</div>","""",256,fixationBtwnNeutralMaskAndPrompt,Test,null,1000,"""","""","""","""","""","""","""","""",1,4/18/2021 19:11,67.168.49.96,Mozilla/5.0 (Windows NT 10.0; WOW64; rv:47.0) Gecko/20100101 Firefox/47.0,,Firefox,47,Windows,10
7,1,2415.92,"""",html-button-response,181,416037,0.0-181.0,"""","<img src='jspsych/CFDfaces/CFD-AF-203-077-N.jpg' height=""250px"">,</br><b>Elizabeth</b>",0,256,IntactOrRearranged,Test,"""","""","""","""",CFD-LF-201-035-N.jpg,Amy,1,"""","""",0,1,4/18/2021 19:11,67.168.49.96,Mozilla/5.0 (Windows NT 10.0; WOW64; rv:47.0) Gecko/20100101 Firefox/47.0,,Firefox,47,Windows,10
7,1,2241.555,"""",html-slider-response,182,418294,0.0-182.0,"""","<img src='jspsych/CFDfaces/CFD-AF-203-077-N.jpg' height=""250px"">,</br><b>Elizabeth</b>","""",256,ConfidenceQuery,Test,"""","""","""","""",CFD-LF-201-035-N.jpg,Amy,1,0,7,"""",1,4/18/2021 19:11,67.168.49.96,Mozilla/5.0 (Windows NT 10.0; WOW64; rv:47.0) Gecko/20100101 Firefox/47.0,,Firefox,47,Windows,10
7,1,null,"""",html-keyboard-response,183,419299,0.0-183.0,"""","<div style=""font-size:60px;"">+</div>","""",256,ITI,Test,null,1000,"""","""","""","""","""","""","""","""",1,4/18/2021 19:11,67.168.49.96,Mozilla/5.0 (Windows NT 10.0; WOW64; rv:47.0) Gecko/20100101 Firefox/47.0,,Firefox,47,Windows,10
7,1,null,"""",image-keyboard-response,184,419561,0.0-184.0,"""",jspsych/scrambledDisgustFaces/scrambledBM06DIS.JPG,"""",256,forwardMask,Test,null,250,"""",d,"""","""","""","""","""","""",1,4/18/2021 19:11,67.168.49.96,Mozilla/5.0 (Windows NT 10.0; WOW64; rv:47.0) Gecko/20100101 Firefox/47.0,,Firefox,47,Windows,10
7,1,null,"""",image-keyboard-response,185,419591,0.0-185.0,"""",jspsych/disgustFaces/BM07DIS.JPG,"""",256,Cue,Test,null,16,"""","""","""","""","""","""","""","""",1,4/18/2021 19:11,67.168.49.96,Mozilla/5.0 (Windows NT 10.0; WOW64; rv:47.0) Gecko/20100101 Firefox/47.0,,Firefox,47,Windows,10
7,1,null,"""",image-keyboard-response,186,419699,0.0-186.0,"""",jspsych/neutralFaces/BM10NES.JPG,"""",256,backwardMask,Test,null,100,"""","""","""","""","""","""","""","""",1,4/18/2021 19:11,67.168.49.96,Mozilla/5.0 (Windows NT 10.0; WOW64; rv:47.0) Gecko/20100101 Firefox/47.0,,Firefox,47,Windows,10
7,1,null,"""",html-keyboard-response,187,420715,0.0-187.0,"""","<div style=""font-size:60px;"">+</div>","""",256,fixationBtwnNeutralMaskAndPrompt,Test,null,1000,"""","""","""","""","""","""","""","""",1,4/18/2021 19:11,67.168.49.96,Mozilla/5.0 (Windows NT 10.0; WOW64; rv:47.0) Gecko/20100101 Firefox/47.0,,Firefox,47,Windows,10
7,1,1702.41,"""",html-button-response,188,422421,0.0-188.0,"""","<img src='jspsych/CFDfaces/CFD-AF-233-190-N.jpg' height=""250px"">,</br><b>Michelle</b>",1,256,IntactOrRearranged,Test,"""","""","""","""",CFD-LM-234-176-N.jpg,Dustin,0,"""","""",1,1,4/18/2021 19:11,67.168.49.96,Mozilla/5.0 (Windows NT 10.0; WOW64; rv:47.0) Gecko/20100101 Firefox/47.0,,Firefox,47,Windows,10
7,1,2267.065,"""",html-slider-response,189,424702,0.0-189.0,"""","<img src='jspsych/CFDfaces/CFD-AF-233-190-N.jpg' height=""250px"">,</br><b>Michelle</b>","""",256,ConfidenceQuery,Test,"""","""","""","""",CFD-LM-234-176-N.jpg,Dustin,0,0,46,"""",1,4/18/2021 19:11,67.168.49.96,Mozilla/5.0 (Windows NT 10.0; WOW64; rv:47.0) Gecko/20100101 Firefox/47.0,,Firefox,47,Windows,10
7,1,null,"""",html-keyboard-response,190,425716,0.0-190.0,"""","<div style=""font-size:60px;"">+</div>","""",256,ITI,Test,null,1000,"""","""","""","""","""","""","""","""",1,4/18/2021 19:11,67.168.49.96,Mozilla/5.0 (Windows NT 10.0; WOW64; rv:47.0) Gecko/20100101 Firefox/47.0,,Firefox,47,Windows,10
7,1,null,"""",image-keyboard-response,191,425979,0.0-191.0,"""",jspsych/scrambledDisgustFaces/scrambledAF25DIS.JPG,"""",256,forwardMask,Test,null,250,"""",d,"""","""","""","""","""","""",1,4/18/2021 19:11,67.168.49.96,Mozilla/5.0 (Windows NT 10.0; WOW64; rv:47.0) Gecko/20100101 Firefox/47.0,,Firefox,47,Windows,10
7,1,null,"""",image-keyboard-response,192,426003,0.0-192.0,"""",jspsych/disgustFaces/AF25DIS.JPG,"""",256,Cue,Test,null,16,"""","""","""","""","""","""","""","""",1,4/18/2021 19:11,67.168.49.96,Mozilla/5.0 (Windows NT 10.0; WOW64; rv:47.0) Gecko/20100101 Firefox/47.0,,Firefox,47,Windows,10
7,1,null,"""",image-keyboard-response,193,426108,0.0-193.0,"""",jspsych/neutralFaces/BF21NES.JPG,"""",256,backwardMask,Test,null,100,"""","""","""","""","""","""","""","""",1,4/18/2021 19:11,67.168.49.96,Mozilla/5.0 (Windows NT 10.0; WOW64; rv:47.0) Gecko/20100101 Firefox/47.0,,Firefox,47,Windows,10
7,1,null,"""",html-keyboard-response,194,427122,0.0-194.0,"""","<div style=""font-size:60px;"">+</div>","""",256,fixationBtwnNeutralMaskAndPrompt,Test,null,1000,"""","""","""","""","""","""","""","""",1,4/18/2021 19:11,67.168.49.96,Mozilla/5.0 (Windows NT 10.0; WOW64; rv:47.0) Gecko/20100101 Firefox/47.0,,Firefox,47,Windows,10
7,1,1730.28,"""",html-button-response,195,428854,0.0-195.0,"""","<img src='jspsych/CFDfaces/CFD-BM-043-071-N.jpg' height=""250px"">,</br><b>Brian</b>",0,256,IntactOrRearranged,Test,"""","""","""","""",CFD-BM-203-001-N.jpg,Luis,0,"""","""",0,1,4/18/2021 19:11,67.168.49.96,Mozilla/5.0 (Windows NT 10.0; WOW64; rv:47.0) Gecko/20100101 Firefox/47.0,,Firefox,47,Windows,10
7,1,2264.045,"""",html-slider-response,196,431127,0.0-196.0,"""","<img src='jspsych/CFDfaces/CFD-BM-043-071-N.jpg' height=""250px"">,</br><b>Brian</b>","""",256,ConfidenceQuery,Test,"""","""","""","""",CFD-BM-203-001-N.jpg,Luis,0,0,33,"""",1,4/18/2021 19:11,67.168.49.96,Mozilla/5.0 (Windows NT 10.0; WOW64; rv:47.0) Gecko/20100101 Firefox/47.0,,Firefox,47,Windows,10
7,1,null,"""",html-keyboard-response,197,432140,0.0-197.0,"""","<div style=""font-size:60px;"">+</div>","""",256,ITI,Test,null,1000,"""","""","""","""","""","""","""","""",1,4/18/2021 19:11,67.168.49.96,Mozilla/5.0 (Windows NT 10.0; WOW64; rv:47.0) Gecko/20100101 Firefox/47.0,,Firefox,47,Windows,10
7,1,null,"""",image-keyboard-response,198,432404,0.0-198.0,"""",jspsych/scrambledNeutralFaces/scrambledAF05NES.JPG,"""",256,forwardMask,Test,null,250,"""",n,"""","""","""","""","""","""",1,4/18/2021 19:11,67.168.49.96,Mozilla/5.0 (Windows NT 10.0; WOW64; rv:47.0) Gecko/20100101 Firefox/47.0,,Firefox,47,Windows,10
7,1,null,"""",image-keyboard-response,199,432427,0.0-199.0,"""",jspsych/neutralFaces/AF05NES.JPG,"""",256,Cue,Test,null,16,"""","""","""","""","""","""","""","""",1,4/18/2021 19:11,67.168.49.96,Mozilla/5.0 (Windows NT 10.0; WOW64; rv:47.0) Gecko/20100101 Firefox/47.0,,Firefox,47,Windows,10
7,1,null,"""",image-keyboard-response,200,432533,0.0-200.0,"""",jspsych/neutralFaces/BF20NES.JPG,"""",256,backwardMask,Test,null,100,"""","""","""","""","""","""","""","""",1,4/18/2021 19:11,67.168.49.96,Mozilla/5.0 (Windows NT 10.0; WOW64; rv:47.0) Gecko/20100101 Firefox/47.0,,Firefox,47,Windows,10
7,1,null,"""",html-keyboard-response,201,433536,0.0-201.0,"""","<div style=""font-size:60px;"">+</div>","""",256,fixationBtwnNeutralMaskAndPrompt,Test,null,1000,"""","""","""","""","""","""","""","""",1,4/18/2021 19:11,67.168.49.96,Mozilla/5.0 (Windows NT 10.0; WOW64; rv:47.0) Gecko/20100101 Firefox/47.0,,Firefox,47,Windows,10
7,1,2637.175,"""",html-button-response,202,436175,0.0-202.0,"""","<img src='jspsych/CFDfaces/CFD-WM-009-002-N.jpg' height=""250px"">,</br><b>Jeffrey</b>",1,256,IntactOrRearranged,Test,"""","""","""","""",CFD-WF-017-003-N.jpg,Sara,1,"""","""",1,1,4/18/2021 19:11,67.168.49.96,Mozilla/5.0 (Windows NT 10.0; WOW64; rv:47.0) Gecko/20100101 Firefox/47.0,,Firefox,47,Windows,10
7,1,2408.695,"""",html-slider-response,203,438590,0.0-203.0,"""","<img src='jspsych/CFDfaces/CFD-WM-009-002-N.jpg' height=""250px"">,</br><b>Jeffrey</b>","""",256,ConfidenceQuery,Test,"""","""","""","""",CFD-WF-017-003-N.jpg,Sara,1,0,71,"""",1,4/18/2021 19:11,67.168.49.96,Mozilla/5.0 (Windows NT 10.0; WOW64; rv:47.0) Gecko/20100101 Firefox/47.0,,Firefox,47,Windows,10
7,1,null,"""",html-keyboard-response,204,439600,0.0-204.0,"""","<div style=""font-size:60px;"">+</div>","""",256,ITI,Test,null,1000,"""","""","""","""","""","""","""","""",1,4/18/2021 19:11,67.168.49.96,Mozilla/5.0 (Windows NT 10.0; WOW64; rv:47.0) Gecko/20100101 Firefox/47.0,,Firefox,47,Windows,10
7,1,null,"""",image-keyboard-response,205,439868,0.0-205.0,"""",jspsych/scrambledDisgustFaces/scrambledBM18DIS.JPG,"""",256,forwardMask,Test,null,250,"""",d,"""","""","""","""","""","""",1,4/18/2021 19:11,67.168.49.96,Mozilla/5.0 (Windows NT 10.0; WOW64; rv:47.0) Gecko/20100101 Firefox/47.0,,Firefox,47,Windows,10
7,1,null,"""",image-keyboard-response,206,439890,0.0-206.0,"""",jspsych/disgustFaces/BM19DIS.JPG,"""",256,Cue,Test,null,16,"""","""","""","""","""","""","""","""",1,4/18/2021 19:11,67.168.49.96,Mozilla/5.0 (Windows NT 10.0; WOW64; rv:47.0) Gecko/20100101 Firefox/47.0,,Firefox,47,Windows,10
7,1,null,"""",image-keyboard-response,207,439994,0.0-207.0,"""",jspsych/neutralFaces/AM35NES.JPG,"""",256,backwardMask,Test,null,100,"""","""","""","""","""","""","""","""",1,4/18/2021 19:11,67.168.49.96,Mozilla/5.0 (Windows NT 10.0; WOW64; rv:47.0) Gecko/20100101 Firefox/47.0,,Firefox,47,Windows,10
7,1,null,"""",html-keyboard-response,208,441002,0.0-208.0,"""","<div style=""font-size:60px;"">+</div>","""",256,fixationBtwnNeutralMaskAndPrompt,Test,null,1000,"""","""","""","""","""","""","""","""",1,4/18/2021 19:11,67.168.49.96,Mozilla/5.0 (Windows NT 10.0; WOW64; rv:47.0) Gecko/20100101 Firefox/47.0,,Firefox,47,Windows,10
7,1,1330.825,"""",html-button-response,209,442335,0.0-209.0,"""","<img src='jspsych/CFDfaces/CFD-WM-212-097-N.jpg' height=""250px"">,</br><b>Peter</b>",0,256,IntactOrRearranged,Test,"""","""","""","""",CFD-BM-022-022-N.jpg,Sean,0,"""","""",0,1,4/18/2021 19:11,67.168.49.96,Mozilla/5.0 (Windows NT 10.0; WOW64; rv:47.0) Gecko/20100101 Firefox/47.0,,Firefox,47,Windows,10
7,1,2662.38,"""",html-slider-response,210,444998,0.0-210.0,"""","<img src='jspsych/CFDfaces/CFD-WM-212-097-N.jpg' height=""250px"">,</br><b>Peter</b>","""",256,ConfidenceQuery,Test,"""","""","""","""",CFD-BM-022-022-N.jpg,Sean,0,0,71,"""",1,4/18/2021 19:11,67.168.49.96,Mozilla/5.0 (Windows NT 10.0; WOW64; rv:47.0) Gecko/20100101 Firefox/47.0,,Firefox,47,Windows,10
7,1,null,"""",html-keyboard-response,211,446005,0.0-211.0,"""","<div style=""font-size:60px;"">+</div>","""",256,ITI,Test,null,1000,"""","""","""","""","""","""","""","""",1,4/18/2021 19:11,67.168.49.96,Mozilla/5.0 (Windows NT 10.0; WOW64; rv:47.0) Gecko/20100101 Firefox/47.0,,Firefox,47,Windows,10
7,1,null,"""",image-keyboard-response,212,446270,0.0-212.0,"""",jspsych/scrambledNeutralFaces/scrambledBF22NES.JPG,"""",256,forwardMask,Test,null,250,"""",n,"""","""","""","""","""","""",1,4/18/2021 19:11,67.168.49.96,Mozilla/5.0 (Windows NT 10.0; WOW64; rv:47.0) Gecko/20100101 Firefox/47.0,,Firefox,47,Windows,10
7,1,null,"""",image-keyboard-response,213,446291,0.0-213.0,"""",jspsych/neutralFaces/BF22NES.JPG,"""",256,Cue,Test,null,16,"""","""","""","""","""","""","""","""",1,4/18/2021 19:11,67.168.49.96,Mozilla/5.0 (Windows NT 10.0; WOW64; rv:47.0) Gecko/20100101 Firefox/47.0,,Firefox,47,Windows,10
7,1,null,"""",image-keyboard-response,214,446410,0.0-214.0,"""",jspsych/neutralFaces/AF32NES.JPG,"""",256,backwardMask,Test,null,100,"""","""","""","""","""","""","""","""",1,4/18/2021 19:11,67.168.49.96,Mozilla/5.0 (Windows NT 10.0; WOW64; rv:47.0) Gecko/20100101 Firefox/47.0,,Firefox,47,Windows,10
7,1,null,"""",html-keyboard-response,215,447422,0.0-215.0,"""","<div style=""font-size:60px;"">+</div>","""",256,fixationBtwnNeutralMaskAndPrompt,Test,null,1000,"""","""","""","""","""","""","""","""",1,4/18/2021 19:11,67.168.49.96,Mozilla/5.0 (Windows NT 10.0; WOW64; rv:47.0) Gecko/20100101 Firefox/47.0,,Firefox,47,Windows,10
7,1,1647.895,"""",html-button-response,216,449072,0.0-216.0,"""","<img src='jspsych/CFDfaces/CFD-WM-222-057-N.jpg' height=""250px"">,</br><b>Juan</b>",0,256,IntactOrRearranged,Test,"""","""","""","""",CFD-AF-235-170-N.jpg,Melissa,0,"""","""",0,1,4/18/2021 19:11,67.168.49.96,Mozilla/5.0 (Windows NT 10.0; WOW64; rv:47.0) Gecko/20100101 Firefox/47.0,,Firefox,47,Windows,10
7,1,2478.18,"""",html-slider-response,217,451551,0.0-217.0,"""","<img src='jspsych/CFDfaces/CFD-WM-222-057-N.jpg' height=""250px"">,</br><b>Juan</b>","""",256,ConfidenceQuery,Test,"""","""","""","""",CFD-AF-235-170-N.jpg,Melissa,0,0,80,"""",1,4/18/2021 19:11,67.168.49.96,Mozilla/5.0 (Windows NT 10.0; WOW64; rv:47.0) Gecko/20100101 Firefox/47.0,,Firefox,47,Windows,10
7,1,null,"""",html-keyboard-response,218,452564,0.0-218.0,"""","<div style=""font-size:60px;"">+</div>","""",256,ITI,Test,null,1000,"""","""","""","""","""","""","""","""",1,4/18/2021 19:11,67.168.49.96,Mozilla/5.0 (Windows NT 10.0; WOW64; rv:47.0) Gecko/20100101 Firefox/47.0,,Firefox,47,Windows,10
7,1,null,"""",image-keyboard-response,219,452830,0.0-219.0,"""",jspsych/scrambledDisgustFaces/scrambledAF13DIS.JPG,"""",256,forwardMask,Test,null,250,"""",d,"""","""","""","""","""","""",1,4/18/2021 19:11,67.168.49.96,Mozilla/5.0 (Windows NT 10.0; WOW64; rv:47.0) Gecko/20100101 Firefox/47.0,,Firefox,47,Windows,10
7,1,null,"""",image-keyboard-response,220,452854,0.0-220.0,"""",jspsych/disgustFaces/AF13DIS.JPG,"""",256,Cue,Test,null,16,"""","""","""","""","""","""","""","""",1,4/18/2021 19:11,67.168.49.96,Mozilla/5.0 (Windows NT 10.0; WOW64; rv:47.0) Gecko/20100101 Firefox/47.0,,Firefox,47,Windows,10
7,1,null,"""",image-keyboard-response,221,452958,0.0-221.0,"""",jspsych/neutralFaces/AF18NES.JPG,"""",256,backwardMask,Test,null,100,"""","""","""","""","""","""","""","""",1,4/18/2021 19:11,67.168.49.96,Mozilla/5.0 (Windows NT 10.0; WOW64; rv:47.0) Gecko/20100101 Firefox/47.0,,Firefox,47,Windows,10
7,1,null,"""",html-keyboard-response,222,453966,0.0-222.0,"""","<div style=""font-size:60px;"">+</div>","""",256,fixationBtwnNeutralMaskAndPrompt,Test,null,1000,"""","""","""","""","""","""","""","""",1,4/18/2021 19:11,67.168.49.96,Mozilla/5.0 (Windows NT 10.0; WOW64; rv:47.0) Gecko/20100101 Firefox/47.0,,Firefox,47,Windows,10
7,1,1917.79,"""",html-button-response,223,455887,0.0-223.0,"""","<img src='jspsych/CFDfaces/CFD-AF-237-223-N.jpg' height=""250px"">,</br><b>Brittany</b>",0,256,IntactOrRearranged,Test,"""","""","""","""",CFD-WM-015-002-N.jpg,Vincent,0,"""","""",0,1,4/18/2021 19:11,67.168.49.96,Mozilla/5.0 (Windows NT 10.0; WOW64; rv:47.0) Gecko/20100101 Firefox/47.0,,Firefox,47,Windows,10
7,1,2318.635,"""",html-slider-response,224,458208,0.0-224.0,"""","<img src='jspsych/CFDfaces/CFD-AF-237-223-N.jpg' height=""250px"">,</br><b>Brittany</b>","""",256,ConfidenceQuery,Test,"""","""","""","""",CFD-WM-015-002-N.jpg,Vincent,0,0,16,"""",1,4/18/2021 19:11,67.168.49.96,Mozilla/5.0 (Windows NT 10.0; WOW64; rv:47.0) Gecko/20100101 Firefox/47.0,,Firefox,47,Windows,10
7,1,null,"""",html-keyboard-response,225,459222,0.0-225.0,"""","<div style=""font-size:60px;"">+</div>","""",256,ITI,Test,null,1000,"""","""","""","""","""","""","""","""",1,4/18/2021 19:11,67.168.49.96,Mozilla/5.0 (Windows NT 10.0; WOW64; rv:47.0) Gecko/20100101 Firefox/47.0,,Firefox,47,Windows,10
7,1,null,"""",image-keyboard-response,226,459478,0.0-226.0,"""",jspsych/scrambledNeutralFaces/scrambledBF03NES.JPG,"""",256,forwardMask,Test,null,250,"""",n,"""","""","""","""","""","""",1,4/18/2021 19:11,67.168.49.96,Mozilla/5.0 (Windows NT 10.0; WOW64; rv:47.0) Gecko/20100101 Firefox/47.0,,Firefox,47,Windows,10
7,1,null,"""",image-keyboard-response,227,459509,0.0-227.0,"""",jspsych/neutralFaces/BF03NES.JPG,"""",256,Cue,Test,null,16,"""","""","""","""","""","""","""","""",1,4/18/2021 19:11,67.168.49.96,Mozilla/5.0 (Windows NT 10.0; WOW64; rv:47.0) Gecko/20100101 Firefox/47.0,,Firefox,47,Windows,10
7,1,null,"""",image-keyboard-response,228,459619,0.0-228.0,"""",jspsych/neutralFaces/BF19NES.JPG,"""",256,backwardMask,Test,null,100,"""","""","""","""","""","""","""","""",1,4/18/2021 19:11,67.168.49.96,Mozilla/5.0 (Windows NT 10.0; WOW64; rv:47.0) Gecko/20100101 Firefox/47.0,,Firefox,47,Windows,10
7,1,null,"""",html-keyboard-response,229,460623,0.0-229.0,"""","<div style=""font-size:60px;"">+</div>","""",256,fixationBtwnNeutralMaskAndPrompt,Test,null,1000,"""","""","""","""","""","""","""","""",1,4/18/2021 19:11,67.168.49.96,Mozilla/5.0 (Windows NT 10.0; WOW64; rv:47.0) Gecko/20100101 Firefox/47.0,,Firefox,47,Windows,10
7,1,1718.33,"""",html-button-response,230,462343,0.0-230.0,"""","<img src='jspsych/CFDfaces/CFD-WF-024-003-N.jpg' height=""250px"">,</br><b>Christina</b>",0,256,IntactOrRearranged,Test,"""","""","""","""",CFD-LF-230-203-N.jpg,Lauren,1,"""","""",0,1,4/18/2021 19:11,67.168.49.96,Mozilla/5.0 (Windows NT 10.0; WOW64; rv:47.0) Gecko/20100101 Firefox/47.0,,Firefox,47,Windows,10
7,1,2199.775,"""",html-slider-response,231,464545,0.0-231.0,"""","<img src='jspsych/CFDfaces/CFD-WF-024-003-N.jpg' height=""250px"">,</br><b>Christina</b>","""",256,ConfidenceQuery,Test,"""","""","""","""",CFD-LF-230-203-N.jpg,Lauren,1,0,58,"""",1,4/18/2021 19:11,67.168.49.96,Mozilla/5.0 (Windows NT 10.0; WOW64; rv:47.0) Gecko/20100101 Firefox/47.0,,Firefox,47,Windows,10
7,1,null,"""",html-keyboard-response,232,465553,0.0-232.0,"""","<div style=""font-size:60px;"">+</div>","""",256,ITI,Test,null,1000,"""","""","""","""","""","""","""","""",1,4/18/2021 19:11,67.168.49.96,Mozilla/5.0 (Windows NT 10.0; WOW64; rv:47.0) Gecko/20100101 Firefox/47.0,,Firefox,47,Windows,10
7,1,null,"""",image-keyboard-response,233,465814,0.0-233.0,"""",jspsych/scrambledDisgustFaces/scrambledBF22DIS.JPG,"""",256,forwardMask,Test,null,250,"""",d,"""","""","""","""","""","""",1,4/18/2021 19:11,67.168.49.96,Mozilla/5.0 (Windows NT 10.0; WOW64; rv:47.0) Gecko/20100101 Firefox/47.0,,Firefox,47,Windows,10
7,1,null,"""",image-keyboard-response,234,465845,0.0-234.0,"""",jspsych/disgustFaces/BF22DIS.JPG,"""",256,Cue,Test,null,16,"""","""","""","""","""","""","""","""",1,4/18/2021 19:11,67.168.49.96,Mozilla/5.0 (Windows NT 10.0; WOW64; rv:47.0) Gecko/20100101 Firefox/47.0,,Firefox,47,Windows,10
7,1,null,"""",image-keyboard-response,235,465953,0.0-235.0,"""",jspsych/neutralFaces/BF24NES.JPG,"""",256,backwardMask,Test,null,100,"""","""","""","""","""","""","""","""",1,4/18/2021 19:11,67.168.49.96,Mozilla/5.0 (Windows NT 10.0; WOW64; rv:47.0) Gecko/20100101 Firefox/47.0,,Firefox,47,Windows,10
7,1,null,"""",html-keyboard-response,236,466965,0.0-236.0,"""","<div style=""font-size:60px;"">+</div>","""",256,fixationBtwnNeutralMaskAndPrompt,Test,null,1000,"""","""","""","""","""","""","""","""",1,4/18/2021 19:11,67.168.49.96,Mozilla/5.0 (Windows NT 10.0; WOW64; rv:47.0) Gecko/20100101 Firefox/47.0,,Firefox,47,Windows,10
7,1,1690.39,"""",html-button-response,237,468658,0.0-237.0,"""","<img src='jspsych/CFDfaces/CFD-LF-239-148-N.jpg' height=""250px"">,</br><b>Emily</b>",1,256,IntactOrRearranged,Test,"""","""","""","""",CFD-WF-220-101-N.jpg,Jenna,1,"""","""",1,1,4/18/2021 19:11,67.168.49.96,Mozilla/5.0 (Windows NT 10.0; WOW64; rv:47.0) Gecko/20100101 Firefox/47.0,,Firefox,47,Windows,10
7,1,2206.115,"""",html-slider-response,238,470866,0.0-238.0,"""","<img src='jspsych/CFDfaces/CFD-LF-239-148-N.jpg' height=""250px"">,</br><b>Emily</b>","""",256,ConfidenceQuery,Test,"""","""","""","""",CFD-WF-220-101-N.jpg,Jenna,1,0,55,"""",1,4/18/2021 19:11,67.168.49.96,Mozilla/5.0 (Windows NT 10.0; WOW64; rv:47.0) Gecko/20100101 Firefox/47.0,,Firefox,47,Windows,10
7,1,null,"""",html-keyboard-response,239,471888,0.0-239.0,"""","<div style=""font-size:60px;"">+</div>","""",256,ITI,Test,null,1000,"""","""","""","""","""","""","""","""",1,4/18/2021 19:11,67.168.49.96,Mozilla/5.0 (Windows NT 10.0; WOW64; rv:47.0) Gecko/20100101 Firefox/47.0,,Firefox,47,Windows,10
7,1,null,"""",image-keyboard-response,240,472147,0.0-240.0,"""",jspsych/scrambledDisgustFaces/scrambledBF17DIS.JPG,"""",256,forwardMask,Test,null,250,"""",d,"""","""","""","""","""","""",1,4/18/2021 19:11,67.168.49.96,Mozilla/5.0 (Windows NT 10.0; WOW64; rv:47.0) Gecko/20100101 Firefox/47.0,,Firefox,47,Windows,10
7,1,null,"""",image-keyboard-response,241,472172,0.0-241.0,"""",jspsych/disgustFaces/BF17DIS.JPG,"""",256,Cue,Test,null,16,"""","""","""","""","""","""","""","""",1,4/18/2021 19:11,67.168.49.96,Mozilla/5.0 (Windows NT 10.0; WOW64; rv:47.0) Gecko/20100101 Firefox/47.0,,Firefox,47,Windows,10
7,1,null,"""",image-keyboard-response,242,472280,0.0-242.0,"""",jspsych/neutralFaces/AF27NES.JPG,"""",256,backwardMask,Test,null,100,"""","""","""","""","""","""","""","""",1,4/18/2021 19:11,67.168.49.96,Mozilla/5.0 (Windows NT 10.0; WOW64; rv:47.0) Gecko/20100101 Firefox/47.0,,Firefox,47,Windows,10
7,1,null,"""",html-keyboard-response,243,473288,0.0-243.0,"""","<div style=""font-size:60px;"">+</div>","""",256,fixationBtwnNeutralMaskAndPrompt,Test,null,1000,"""","""","""","""","""","""","""","""",1,4/18/2021 19:11,67.168.49.96,Mozilla/5.0 (Windows NT 10.0; WOW64; rv:47.0) Gecko/20100101 Firefox/47.0,,Firefox,47,Windows,10
7,1,3265.65,"""",html-button-response,244,476556,0.0-244.0,"""","<img src='jspsych/CFDfaces/CFD-AM-248-104-N.jpg' height=""250px"">,</br><b>Joshua</b>",1,256,IntactOrRearranged,Test,"""","""","""","""",CFD-WF-038-021-N.jpg,Heather,1,"""","""",1,1,4/18/2021 19:11,67.168.49.96,Mozilla/5.0 (Windows NT 10.0; WOW64; rv:47.0) Gecko/20100101 Firefox/47.0,,Firefox,47,Windows,10
7,1,2046.645,"""",html-slider-response,245,478607,0.0-245.0,"""","<img src='jspsych/CFDfaces/CFD-AM-248-104-N.jpg' height=""250px"">,</br><b>Joshua</b>","""",256,ConfidenceQuery,Test,"""","""","""","""",CFD-WF-038-021-N.jpg,Heather,1,0,43,"""",1,4/18/2021 19:11,67.168.49.96,Mozilla/5.0 (Windows NT 10.0; WOW64; rv:47.0) Gecko/20100101 Firefox/47.0,,Firefox,47,Windows,10
7,1,null,"""",html-keyboard-response,246,479639,0.0-246.0,"""","<div style=""font-size:60px;"">+</div>","""",256,ITI,Test,null,1000,"""","""","""","""","""","""","""","""",1,4/18/2021 19:11,67.168.49.96,Mozilla/5.0 (Windows NT 10.0; WOW64; rv:47.0) Gecko/20100101 Firefox/47.0,,Firefox,47,Windows,10
7,1,null,"""",image-keyboard-response,247,479903,0.0-247.0,"""",jspsych/scrambledDisgustFaces/scrambledAF05DIS.JPG,"""",256,forwardMask,Test,null,250,"""",d,"""","""","""","""","""","""",1,4/18/2021 19:11,67.168.49.96,Mozilla/5.0 (Windows NT 10.0; WOW64; rv:47.0) Gecko/20100101 Firefox/47.0,,Firefox,47,Windows,10
7,1,null,"""",image-keyboard-response,248,479924,0.0-248.0,"""",jspsych/disgustFaces/AF05DIS.JPG,"""",256,Cue,Test,null,16,"""","""","""","""","""","""","""","""",1,4/18/2021 19:11,67.168.49.96,Mozilla/5.0 (Windows NT 10.0; WOW64; rv:47.0) Gecko/20100101 Firefox/47.0,,Firefox,47,Windows,10
7,1,null,"""",image-keyboard-response,249,480043,0.0-249.0,"""",jspsych/neutralFaces/AF02NES.JPG,"""",256,backwardMask,Test,null,100,"""","""","""","""","""","""","""","""",1,4/18/2021 19:11,67.168.49.96,Mozilla/5.0 (Windows NT 10.0; WOW64; rv:47.0) Gecko/20100101 Firefox/47.0,,Firefox,47,Windows,10
7,1,null,"""",html-keyboard-response,250,481051,0.0-250.0,"""","<div style=""font-size:60px;"">+</div>","""",256,fixationBtwnNeutralMaskAndPrompt,Test,null,1000,"""","""","""","""","""","""","""","""",1,4/18/2021 19:11,67.168.49.96,Mozilla/5.0 (Windows NT 10.0; WOW64; rv:47.0) Gecko/20100101 Firefox/47.0,,Firefox,47,Windows,10
7,1,2715.89,"""",html-button-response,251,483771,0.0-251.0,"""","<img src='jspsych/CFDfaces/CFD-BF-218-207-N.jpg' height=""250px"">,</br><b>Vanessa</b>",1,256,IntactOrRearranged,Test,"""","""","""","""",CFD-WM-237-052-N.jpg,Kenneth,0,"""","""",1,1,4/18/2021 19:11,67.168.49.96,Mozilla/5.0 (Windows NT 10.0; WOW64; rv:47.0) Gecko/20100101 Firefox/47.0,,Firefox,47,Windows,10
7,1,2071.935,"""",html-slider-response,252,485845,0.0-252.0,"""","<img src='jspsych/CFDfaces/CFD-BF-218-207-N.jpg' height=""250px"">,</br><b>Vanessa</b>","""",256,ConfidenceQuery,Test,"""","""","""","""",CFD-WM-237-052-N.jpg,Kenneth,0,0,35,"""",1,4/18/2021 19:11,67.168.49.96,Mozilla/5.0 (Windows NT 10.0; WOW64; rv:47.0) Gecko/20100101 Firefox/47.0,,Firefox,47,Windows,10
7,1,null,"""",html-keyboard-response,253,486858,0.0-253.0,"""","<div style=""font-size:60px;"">+</div>","""",256,ITI,Test,null,1000,"""","""","""","""","""","""","""","""",1,4/18/2021 19:11,67.168.49.96,Mozilla/5.0 (Windows NT 10.0; WOW64; rv:47.0) Gecko/20100101 Firefox/47.0,,Firefox,47,Windows,10
7,1,null,"""",image-keyboard-response,254,487113,0.0-254.0,"""",jspsych/scrambledDisgustFaces/scrambledAF25DIS.JPG,"""",256,forwardMask,Test,null,250,"""",d,"""","""","""","""","""","""",1,4/18/2021 19:11,67.168.49.96,Mozilla/5.0 (Windows NT 10.0; WOW64; rv:47.0) Gecko/20100101 Firefox/47.0,,Firefox,47,Windows,10
7,1,null,"""",image-keyboard-response,255,487139,0.0-255.0,"""",jspsych/disgustFaces/AF25DIS.JPG,"""",256,Cue,Test,null,16,"""","""","""","""","""","""","""","""",1,4/18/2021 19:11,67.168.49.96,Mozilla/5.0 (Windows NT 10.0; WOW64; rv:47.0) Gecko/20100101 Firefox/47.0,,Firefox,47,Windows,10
7,1,null,"""",image-keyboard-response,256,487249,0.0-256.0,"""",jspsych/neutralFaces/AF27NES.JPG,"""",256,backwardMask,Test,null,100,"""","""","""","""","""","""","""","""",1,4/18/2021 19:11,67.168.49.96,Mozilla/5.0 (Windows NT 10.0; WOW64; rv:47.0) Gecko/20100101 Firefox/47.0,,Firefox,47,Windows,10
7,1,null,"""",html-keyboard-response,257,488254,0.0-257.0,"""","<div style=""font-size:60px;"">+</div>","""",256,fixationBtwnNeutralMaskAndPrompt,Test,null,1000,"""","""","""","""","""","""","""","""",1,4/18/2021 19:11,67.168.49.96,Mozilla/5.0 (Windows NT 10.0; WOW64; rv:47.0) Gecko/20100101 Firefox/47.0,,Firefox,47,Windows,10
7,1,2691.02,"""",html-button-response,258,490948,0.0-258.0,"""","<img src='jspsych/CFDfaces/CFD-WM-207-048-N.jpg' height=""250px"">,</br><b>Robert</b>",0,256,IntactOrRearranged,Test,"""","""","""","""",CFD-LF-213-079-N.jpg,Tiffany,0,"""","""",0,1,4/18/2021 19:11,67.168.49.96,Mozilla/5.0 (Windows NT 10.0; WOW64; rv:47.0) Gecko/20100101 Firefox/47.0,,Firefox,47,Windows,10
7,1,2725.065,"""",html-slider-response,259,493675,0.0-259.0,"""","<img src='jspsych/CFDfaces/CFD-WM-207-048-N.jpg' height=""250px"">,</br><b>Robert</b>","""",256,ConfidenceQuery,Test,"""","""","""","""",CFD-LF-213-079-N.jpg,Tiffany,0,0,45,"""",1,4/18/2021 19:11,67.168.49.96,Mozilla/5.0 (Windows NT 10.0; WOW64; rv:47.0) Gecko/20100101 Firefox/47.0,,Firefox,47,Windows,10
7,1,null,"""",html-keyboard-response,260,494689,0.0-260.0,"""","<div style=""font-size:60px;"">+</div>","""",256,ITI,Test,null,1000,"""","""","""","""","""","""","""","""",1,4/18/2021 19:11,67.168.49.96,Mozilla/5.0 (Windows NT 10.0; WOW64; rv:47.0) Gecko/20100101 Firefox/47.0,,Firefox,47,Windows,10
7,1,null,"""",image-keyboard-response,261,494947,0.0-261.0,"""",jspsych/scrambledDisgustFaces/scrambledAF16DIS.JPG,"""",256,forwardMask,Test,null,250,"""",d,"""","""","""","""","""","""",1,4/18/2021 19:11,67.168.49.96,Mozilla/5.0 (Windows NT 10.0; WOW64; rv:47.0) Gecko/20100101 Firefox/47.0,,Firefox,47,Windows,10
7,1,null,"""",image-keyboard-response,262,494971,0.0-262.0,"""",jspsych/disgustFaces/AF16DIS.JPG,"""",256,Cue,Test,null,16,"""","""","""","""","""","""","""","""",1,4/18/2021 19:11,67.168.49.96,Mozilla/5.0 (Windows NT 10.0; WOW64; rv:47.0) Gecko/20100101 Firefox/47.0,,Firefox,47,Windows,10
7,1,null,"""",image-keyboard-response,263,495080,0.0-263.0,"""",jspsych/neutralFaces/AF17NES.JPG,"""",256,backwardMask,Test,null,100,"""","""","""","""","""","""","""","""",1,4/18/2021 19:11,67.168.49.96,Mozilla/5.0 (Windows NT 10.0; WOW64; rv:47.0) Gecko/20100101 Firefox/47.0,,Firefox,47,Windows,10
7,1,null,"""",html-keyboard-response,264,496083,0.0-264.0,"""","<div style=""font-size:60px;"">+</div>","""",256,fixationBtwnNeutralMaskAndPrompt,Test,null,1000,"""","""","""","""","""","""","""","""",1,4/18/2021 19:11,67.168.49.96,Mozilla/5.0 (Windows NT 10.0; WOW64; rv:47.0) Gecko/20100101 Firefox/47.0,,Firefox,47,Windows,10
7,1,2977.26,"""",html-button-response,265,499062,0.0-265.0,"""","<img src='jspsych/CFDfaces/CFD-BM-210-148-N.jpg' height=""250px"">,</br><b>Eric</b>",0,256,IntactOrRearranged,Test,"""","""","""","""",CFD-BF-004-014-N.jpg,Laura,1,"""","""",0,1,4/18/2021 19:11,67.168.49.96,Mozilla/5.0 (Windows NT 10.0; WOW64; rv:47.0) Gecko/20100101 Firefox/47.0,,Firefox,47,Windows,10
7,1,2164.665,"""",html-slider-response,266,501229,0.0-266.0,"""","<img src='jspsych/CFDfaces/CFD-BM-210-148-N.jpg' height=""250px"">,</br><b>Eric</b>","""",256,ConfidenceQuery,Test,"""","""","""","""",CFD-BF-004-014-N.jpg,Laura,1,0,16,"""",1,4/18/2021 19:11,67.168.49.96,Mozilla/5.0 (Windows NT 10.0; WOW64; rv:47.0) Gecko/20100101 Firefox/47.0,,Firefox,47,Windows,10
7,1,null,"""",html-keyboard-response,267,502239,0.0-267.0,"""","<div style=""font-size:60px;"">+</div>","""",256,ITI,Test,null,1000,"""","""","""","""","""","""","""","""",1,4/18/2021 19:11,67.168.49.96,Mozilla/5.0 (Windows NT 10.0; WOW64; rv:47.0) Gecko/20100101 Firefox/47.0,,Firefox,47,Windows,10
7,1,null,"""",image-keyboard-response,268,502499,0.0-268.0,"""",jspsych/scrambledDisgustFaces/scrambledBM02DIS.JPG,"""",256,forwardMask,Test,null,250,"""",d,"""","""","""","""","""","""",1,4/18/2021 19:11,67.168.49.96,Mozilla/5.0 (Windows NT 10.0; WOW64; rv:47.0) Gecko/20100101 Firefox/47.0,,Firefox,47,Windows,10
7,1,null,"""",image-keyboard-response,269,502525,0.0-269.0,"""",jspsych/disgustFaces/BM03DIS.JPG,"""",256,Cue,Test,null,16,"""","""","""","""","""","""","""","""",1,4/18/2021 19:11,67.168.49.96,Mozilla/5.0 (Windows NT 10.0; WOW64; rv:47.0) Gecko/20100101 Firefox/47.0,,Firefox,47,Windows,10
7,1,null,"""",image-keyboard-response,270,502634,0.0-270.0,"""",jspsych/neutralFaces/AM34NES.JPG,"""",256,backwardMask,Test,null,100,"""","""","""","""","""","""","""","""",1,4/18/2021 19:11,67.168.49.96,Mozilla/5.0 (Windows NT 10.0; WOW64; rv:47.0) Gecko/20100101 Firefox/47.0,,Firefox,47,Windows,10
7,1,null,"""",html-keyboard-response,271,503640,0.0-271.0,"""","<div style=""font-size:60px;"">+</div>","""",256,fixationBtwnNeutralMaskAndPrompt,Test,null,1000,"""","""","""","""","""","""","""","""",1,4/18/2021 19:11,67.168.49.96,Mozilla/5.0 (Windows NT 10.0; WOW64; rv:47.0) Gecko/20100101 Firefox/47.0,,Firefox,47,Windows,10
7,1,2272.885,"""",html-button-response,272,505916,0.0-272.0,"""","<img src='jspsych/CFDfaces/CFD-WM-215-041-N.jpg' height=""250px"">,</br><b>Brandon</b>",0,256,IntactOrRearranged,Test,"""","""","""","""",CFD-AF-209-006-N.jpg,Angela,0,"""","""",0,1,4/18/2021 19:11,67.168.49.96,Mozilla/5.0 (Windows NT 10.0; WOW64; rv:47.0) Gecko/20100101 Firefox/47.0,,Firefox,47,Windows,10
7,1,2143.445,"""",html-slider-response,273,508061,0.0-273.0,"""","<img src='jspsych/CFDfaces/CFD-WM-215-041-N.jpg' height=""250px"">,</br><b>Brandon</b>","""",256,ConfidenceQuery,Test,"""","""","""","""",CFD-AF-209-006-N.jpg,Angela,0,0,86,"""",1,4/18/2021 19:11,67.168.49.96,Mozilla/5.0 (Windows NT 10.0; WOW64; rv:47.0) Gecko/20100101 Firefox/47.0,,Firefox,47,Windows,10
7,1,null,"""",html-keyboard-response,274,509076,0.0-274.0,"""","<div style=""font-size:60px;"">+</div>","""",256,ITI,Test,null,1000,"""","""","""","""","""","""","""","""",1,4/18/2021 19:11,67.168.49.96,Mozilla/5.0 (Windows NT 10.0; WOW64; rv:47.0) Gecko/20100101 Firefox/47.0,,Firefox,47,Windows,10
7,1,null,"""",image-keyboard-response,275,509341,0.0-275.0,"""",jspsych/scrambledDisgustFaces/scrambledBM29DIS.JPG,"""",256,forwardMask,Test,null,250,"""",d,"""","""","""","""","""","""",1,4/18/2021 19:11,67.168.49.96,Mozilla/5.0 (Windows NT 10.0; WOW64; rv:47.0) Gecko/20100101 Firefox/47.0,,Firefox,47,Windows,10
7,1,null,"""",image-keyboard-response,276,509371,0.0-276.0,"""",jspsych/disgustFaces/BM30DIS.JPG,"""",256,Cue,Test,null,16,"""","""","""","""","""","""","""","""",1,4/18/2021 19:11,67.168.49.96,Mozilla/5.0 (Windows NT 10.0; WOW64; rv:47.0) Gecko/20100101 Firefox/47.0,,Firefox,47,Windows,10
7,1,null,"""",image-keyboard-response,277,509479,0.0-277.0,"""",jspsych/neutralFaces/AM10NES.JPG,"""",256,backwardMask,Test,null,100,"""","""","""","""","""","""","""","""",1,4/18/2021 19:11,67.168.49.96,Mozilla/5.0 (Windows NT 10.0; WOW64; rv:47.0) Gecko/20100101 Firefox/47.0,,Firefox,47,Windows,10
7,1,null,"""",html-keyboard-response,278,510481,0.0-278.0,"""","<div style=""font-size:60px;"">+</div>","""",256,fixationBtwnNeutralMaskAndPrompt,Test,null,1000,"""","""","""","""","""","""","""","""",1,4/18/2021 19:11,67.168.49.96,Mozilla/5.0 (Windows NT 10.0; WOW64; rv:47.0) Gecko/20100101 Firefox/47.0,,Firefox,47,Windows,10
7,1,2476.035,"""",html-button-response,279,512958,0.0-279.0,"""","<img src='jspsych/CFDfaces/CFD-WM-006-002-N.jpg' height=""250px"">,</br><b>Richard</b>",1,256,IntactOrRearranged,Test,"""","""","""","""",CFD-LM-219-295-N.jpg,Cameron,1,"""","""",1,1,4/18/2021 19:11,67.168.49.96,Mozilla/5.0 (Windows NT 10.0; WOW64; rv:47.0) Gecko/20100101 Firefox/47.0,,Firefox,47,Windows,10
7,1,3319.03,"""",html-slider-response,280,516279,0.0-280.0,"""","<img src='jspsych/CFDfaces/CFD-WM-006-002-N.jpg' height=""250px"">,</br><b>Richard</b>","""",256,ConfidenceQuery,Test,"""","""","""","""",CFD-LM-219-295-N.jpg,Cameron,1,0,98,"""",1,4/18/2021 19:11,67.168.49.96,Mozilla/5.0 (Windows NT 10.0; WOW64; rv:47.0) Gecko/20100101 Firefox/47.0,,Firefox,47,Windows,10
7,1,null,"""",html-keyboard-response,281,517290,0.0-281.0,"""","<div style=""font-size:60px;"">+</div>","""",256,ITI,Test,null,1000,"""","""","""","""","""","""","""","""",1,4/18/2021 19:11,67.168.49.96,Mozilla/5.0 (Windows NT 10.0; WOW64; rv:47.0) Gecko/20100101 Firefox/47.0,,Firefox,47,Windows,10
7,1,null,"""",image-keyboard-response,282,517548,0.0-282.0,"""",jspsych/scrambledNeutralFaces/scrambledAM35NES.JPG,"""",256,forwardMask,Test,null,250,"""",n,"""","""","""","""","""","""",1,4/18/2021 19:11,67.168.49.96,Mozilla/5.0 (Windows NT 10.0; WOW64; rv:47.0) Gecko/20100101 Firefox/47.0,,Firefox,47,Windows,10
7,1,null,"""",image-keyboard-response,283,517570,0.0-283.0,"""",jspsych/neutralFaces/AM35NES.JPG,"""",256,Cue,Test,null,16,"""","""","""","""","""","""","""","""",1,4/18/2021 19:11,67.168.49.96,Mozilla/5.0 (Windows NT 10.0; WOW64; rv:47.0) Gecko/20100101 Firefox/47.0,,Firefox,47,Windows,10
7,1,null,"""",image-keyboard-response,284,517677,0.0-284.0,"""",jspsych/neutralFaces/BM14NES.JPG,"""",256,backwardMask,Test,null,100,"""","""","""","""","""","""","""","""",1,4/18/2021 19:11,67.168.49.96,Mozilla/5.0 (Windows NT 10.0; WOW64; rv:47.0) Gecko/20100101 Firefox/47.0,,Firefox,47,Windows,10
7,1,null,"""",html-keyboard-response,285,518692,0.0-285.0,"""","<div style=""font-size:60px;"">+</div>","""",256,fixationBtwnNeutralMaskAndPrompt,Test,null,1000,"""","""","""","""","""","""","""","""",1,4/18/2021 19:11,67.168.49.96,Mozilla/5.0 (Windows NT 10.0; WOW64; rv:47.0) Gecko/20100101 Firefox/47.0,,Firefox,47,Windows,10
7,1,1903.48,"""",html-button-response,286,520598,0.0-286.0,"""","<img src='jspsych/CFDfaces/CFD-AF-226-251-N.jpg' height=""250px"">,</br><b>Kayla</b>",0,256,IntactOrRearranged,Test,"""","""","""","""",CFD-AM-214-168-N.jpg,Austin,0,"""","""",0,1,4/18/2021 19:11,67.168.49.96,Mozilla/5.0 (Windows NT 10.0; WOW64; rv:47.0) Gecko/20100101 Firefox/47.0,,Firefox,47,Windows,10
7,1,2198.215,"""",html-slider-response,287,522798,0.0-287.0,"""","<img src='jspsych/CFDfaces/CFD-AF-226-251-N.jpg' height=""250px"">,</br><b>Kayla</b>","""",256,ConfidenceQuery,Test,"""","""","""","""",CFD-AM-214-168-N.jpg,Austin,0,0,34,"""",1,4/18/2021 19:11,67.168.49.96,Mozilla/5.0 (Windows NT 10.0; WOW64; rv:47.0) Gecko/20100101 Firefox/47.0,,Firefox,47,Windows,10
7,1,null,"""",html-keyboard-response,288,523818,0.0-288.0,"""","<div style=""font-size:60px;"">+</div>","""",256,ITI,Test,null,1000,"""","""","""","""","""","""","""","""",1,4/18/2021 19:11,67.168.49.96,Mozilla/5.0 (Windows NT 10.0; WOW64; rv:47.0) Gecko/20100101 Firefox/47.0,,Firefox,47,Windows,10
7,1,null,"""",image-keyboard-response,289,524083,0.0-289.0,"""",jspsych/scrambledDisgustFaces/scrambledBF27DIS.JPG,"""",256,forwardMask,Test,null,250,"""",d,"""","""","""","""","""","""",1,4/18/2021 19:11,67.168.49.96,Mozilla/5.0 (Windows NT 10.0; WOW64; rv:47.0) Gecko/20100101 Firefox/47.0,,Firefox,47,Windows,10
7,1,null,"""",image-keyboard-response,290,524114,0.0-290.0,"""",jspsych/disgustFaces/BF27DIS.JPG,"""",256,Cue,Test,null,16,"""","""","""","""","""","""","""","""",1,4/18/2021 19:11,67.168.49.96,Mozilla/5.0 (Windows NT 10.0; WOW64; rv:47.0) Gecko/20100101 Firefox/47.0,,Firefox,47,Windows,10
7,1,null,"""",image-keyboard-response,291,524221,0.0-291.0,"""",jspsych/neutralFaces/AF17NES.JPG,"""",256,backwardMask,Test,null,100,"""","""","""","""","""","""","""","""",1,4/18/2021 19:11,67.168.49.96,Mozilla/5.0 (Windows NT 10.0; WOW64; rv:47.0) Gecko/20100101 Firefox/47.0,,Firefox,47,Windows,10
7,1,null,"""",html-keyboard-response,292,525228,0.0-292.0,"""","<div style=""font-size:60px;"">+</div>","""",256,fixationBtwnNeutralMaskAndPrompt,Test,null,1000,"""","""","""","""","""","""","""","""",1,4/18/2021 19:11,67.168.49.96,Mozilla/5.0 (Windows NT 10.0; WOW64; rv:47.0) Gecko/20100101 Firefox/47.0,,Firefox,47,Windows,10
7,1,2856.565,"""",html-button-response,293,528087,0.0-293.0,"""","<img src='jspsych/CFDfaces/CFD-BF-226-119-N.jpg' height=""250px"">,</br><b>Julie</b>",0,256,IntactOrRearranged,Test,"""","""","""","""",CFD-LF-218-072-N.jpg,Rebecca,0,"""","""",0,1,4/18/2021 19:11,67.168.49.96,Mozilla/5.0 (Windows NT 10.0; WOW64; rv:47.0) Gecko/20100101 Firefox/47.0,,Firefox,47,Windows,10
7,1,1854.355,"""",html-slider-response,294,529943,0.0-294.0,"""","<img src='jspsych/CFDfaces/CFD-BF-226-119-N.jpg' height=""250px"">,</br><b>Julie</b>","""",256,ConfidenceQuery,Test,"""","""","""","""",CFD-LF-218-072-N.jpg,Rebecca,0,0,35,"""",1,4/18/2021 19:11,67.168.49.96,Mozilla/5.0 (Windows NT 10.0; WOW64; rv:47.0) Gecko/20100101 Firefox/47.0,,Firefox,47,Windows,10
7,1,null,"""",html-keyboard-response,295,530956,0.0-295.0,"""","<div style=""font-size:60px;"">+</div>","""",256,ITI,Test,null,1000,"""","""","""","""","""","""","""","""",1,4/18/2021 19:11,67.168.49.96,Mozilla/5.0 (Windows NT 10.0; WOW64; rv:47.0) Gecko/20100101 Firefox/47.0,,Firefox,47,Windows,10
7,1,null,"""",image-keyboard-response,296,531217,0.0-296.0,"""",jspsych/scrambledNeutralFaces/scrambledAF02NES.JPG,"""",256,forwardMask,Test,null,250,"""",n,"""","""","""","""","""","""",1,4/18/2021 19:11,67.168.49.96,Mozilla/5.0 (Windows NT 10.0; WOW64; rv:47.0) Gecko/20100101 Firefox/47.0,,Firefox,47,Windows,10
7,1,null,"""",image-keyboard-response,297,531241,0.0-297.0,"""",jspsych/neutralFaces/AF02NES.JPG,"""",256,Cue,Test,null,16,"""","""","""","""","""","""","""","""",1,4/18/2021 19:11,67.168.49.96,Mozilla/5.0 (Windows NT 10.0; WOW64; rv:47.0) Gecko/20100101 Firefox/47.0,,Firefox,47,Windows,10
7,1,null,"""",image-keyboard-response,298,531349,0.0-298.0,"""",jspsych/neutralFaces/BF07NES.JPG,"""",256,backwardMask,Test,null,100,"""","""","""","""","""","""","""","""",1,4/18/2021 19:11,67.168.49.96,Mozilla/5.0 (Windows NT 10.0; WOW64; rv:47.0) Gecko/20100101 Firefox/47.0,,Firefox,47,Windows,10
7,1,null,"""",html-keyboard-response,299,532357,0.0-299.0,"""","<div style=""font-size:60px;"">+</div>","""",256,fixationBtwnNeutralMaskAndPrompt,Test,null,1000,"""","""","""","""","""","""","""","""",1,4/18/2021 19:11,67.168.49.96,Mozilla/5.0 (Windows NT 10.0; WOW64; rv:47.0) Gecko/20100101 Firefox/47.0,,Firefox,47,Windows,10
7,1,2031.805,"""",html-button-response,300,534391,0.0-300.0,"""","<img src='jspsych/CFDfaces/CFD-WM-020-001-N.jpg' height=""250px"">,</br><b>Nicholas</b>",0,256,IntactOrRearranged,Test,"""","""","""","""",CFD-LF-215-157-N.jpg,Lindsey,0,"""","""",0,1,4/18/2021 19:11,67.168.49.96,Mozilla/5.0 (Windows NT 10.0; WOW64; rv:47.0) Gecko/20100101 Firefox/47.0,,Firefox,47,Windows,10
7,1,2357.375,"""",html-slider-response,301,536752,0.0-301.0,"""","<img src='jspsych/CFDfaces/CFD-WM-020-001-N.jpg' height=""250px"">,</br><b>Nicholas</b>","""",256,ConfidenceQuery,Test,"""","""","""","""",CFD-LF-215-157-N.jpg,Lindsey,0,0,94,"""",1,4/18/2021 19:11,67.168.49.96,Mozilla/5.0 (Windows NT 10.0; WOW64; rv:47.0) Gecko/20100101 Firefox/47.0,,Firefox,47,Windows,10
