run_id,condition,rt,responses,trial_type,trial_index,time_elapsed,internal_node_id,question_order,stimulus,button_pressed,iTrial,Phase,ExperimentPhase,key_press,StimulusDurationSetting,CharacterResponse,correctResponse,Face,Name,rearranged,slider_start,response,didSubjectEnterRearranged,Block,recorded_at,ip,user_agent,device,browser,browser_version,platform,platform_version
33,1,12015,"{""Q0"":""ACJYC1XM245T1""}",survey-text,0,12017,0.0-0.0,"""","""","""","""","""","""","""","""","""","""","""","""","""","""","""","""","""",4/19/2021 23:10,73.119.56.57,Mozilla/5.0 (Macintosh; Intel Mac OS X 10.15; rv:88.0) Gecko/20100101 Firefox/88.0,Macintosh,Firefox,88,OS X,10.15
33,1,5513,"{""Q0"":""30""}",survey-text,1,17541,0.0-1.0,"""","""","""","""","""","""","""","""","""","""","""","""","""","""","""","""","""",4/19/2021 23:10,73.119.56.57,Mozilla/5.0 (Macintosh; Intel Mac OS X 10.15; rv:88.0) Gecko/20100101 Firefox/88.0,Macintosh,Firefox,88,OS X,10.15
33,1,5658,"{""Q0"":""male"",""Q1"":""Not Hispanic/Latino"",""Q2"":""White or Caucasian""}",survey-multi-choice,2,23206,0.0-2.0,"[0,1,2]","""","""","""","""","""","""","""","""","""","""","""","""","""","""","""","""",4/19/2021 23:10,73.119.56.57,Mozilla/5.0 (Macintosh; Intel Mac OS X 10.15; rv:88.0) Gecko/20100101 Firefox/88.0,Macintosh,Firefox,88,OS X,10.15
33,1,25689,"""",image-button-response,3,48911,0.0-3.0,"""",directionsMemoryAssociation1.JPG,0,1,IntroDirections1,break,"""","""","""","""","""","""","""","""","""","""","""",4/19/2021 23:10,73.119.56.57,Mozilla/5.0 (Macintosh; Intel Mac OS X 10.15; rv:88.0) Gecko/20100101 Firefox/88.0,Macintosh,Firefox,88,OS X,10.15
33,1,23378,"""",image-button-response,4,72304,0.0-4.0,"""",directionsMemoryAssociation2.JPG,0,1,IntroDirections2,break,"""","""","""","""","""","""","""","""","""","""","""",4/19/2021 23:10,73.119.56.57,Mozilla/5.0 (Macintosh; Intel Mac OS X 10.15; rv:88.0) Gecko/20100101 Firefox/88.0,Macintosh,Firefox,88,OS X,10.15
33,1,null,"""",html-keyboard-response,5,77314,0.0-5.0,"""","<img src='jspsych/CFDfaces/CFD-LF-244-096-N.jpg' height=""250px"">,</br><b>Katelyn</b>","""",1,IntactFace,Practice,null,5000,"""","""","""","""","""","""","""","""","""",4/19/2021 23:10,73.119.56.57,Mozilla/5.0 (Macintosh; Intel Mac OS X 10.15; rv:88.0) Gecko/20100101 Firefox/88.0,Macintosh,Firefox,88,OS X,10.15
33,1,null,"""",html-keyboard-response,6,77823,0.0-6.0,"""","<div style=""font-size:60px;"">+</div>","""",1,ITI,Practice,null,1000,"""","""","""","""","""","""","""","""","""",4/19/2021 23:10,73.119.56.57,Mozilla/5.0 (Macintosh; Intel Mac OS X 10.15; rv:88.0) Gecko/20100101 Firefox/88.0,Macintosh,Firefox,88,OS X,10.15
33,1,null,"""",html-keyboard-response,7,82835,0.0-7.0,"""","<img src='jspsych/CFDfaces/CFD-LM-233-171-N.jpg' height=""250px"">,</br><b>Patrick</b>","""",2,IntactFace,Practice,null,5000,"""","""","""","""","""","""","""","""","""",4/19/2021 23:10,73.119.56.57,Mozilla/5.0 (Macintosh; Intel Mac OS X 10.15; rv:88.0) Gecko/20100101 Firefox/88.0,Macintosh,Firefox,88,OS X,10.15
33,1,null,"""",html-keyboard-response,8,83339,0.0-8.0,"""","<div style=""font-size:60px;"">+</div>","""",2,ITI,Practice,null,1000,"""","""","""","""","""","""","""","""","""",4/19/2021 23:10,73.119.56.57,Mozilla/5.0 (Macintosh; Intel Mac OS X 10.15; rv:88.0) Gecko/20100101 Firefox/88.0,Macintosh,Firefox,88,OS X,10.15
33,1,4302,"""",html-keyboard-response,9,88354,0.0-9.0,"""","<img src='jspsych/CFDfaces/CFD-AM-228-214-N.jpg' height=""250px"">,</br><b>Carlos</b>","""",3,IntactFace,Practice,78,5000,n,"""","""","""","""","""","""","""","""",4/19/2021 23:10,73.119.56.57,Mozilla/5.0 (Macintosh; Intel Mac OS X 10.15; rv:88.0) Gecko/20100101 Firefox/88.0,Macintosh,Firefox,88,OS X,10.15
33,1,null,"""",html-keyboard-response,10,88864,0.0-10.0,"""","<div style=""font-size:60px;"">+</div>","""",3,ITI,Practice,null,1000,"""","""","""","""","""","""","""","""","""",4/19/2021 23:10,73.119.56.57,Mozilla/5.0 (Macintosh; Intel Mac OS X 10.15; rv:88.0) Gecko/20100101 Firefox/88.0,Macintosh,Firefox,88,OS X,10.15
33,1,4263,"""",html-keyboard-response,11,93869,0.0-11.0,"""","<img src='jspsych/CFDfaces/CFD-BM-002-013-N.jpg' height=""250px"">,</br><b>Samuel</b>","""",4,IntactFace,Practice,78,5000,n,"""","""","""","""","""","""","""","""",4/19/2021 23:10,73.119.56.57,Mozilla/5.0 (Macintosh; Intel Mac OS X 10.15; rv:88.0) Gecko/20100101 Firefox/88.0,Macintosh,Firefox,88,OS X,10.15
33,1,null,"""",html-keyboard-response,12,94381,0.0-12.0,"""","<div style=""font-size:60px;"">+</div>","""",4,ITI,Practice,null,1000,"""","""","""","""","""","""","""","""","""",4/19/2021 23:10,73.119.56.57,Mozilla/5.0 (Macintosh; Intel Mac OS X 10.15; rv:88.0) Gecko/20100101 Firefox/88.0,Macintosh,Firefox,88,OS X,10.15
33,1,2688,"""",html-keyboard-response,13,99389,0.0-13.0,"""","<img src='jspsych/CFDfaces/CFD-LF-243-175-N.jpg' height=""250px"">,</br><b>Tara</b>","""",5,IntactFace,Practice,70,5000,f,"""","""","""","""","""","""","""","""",4/19/2021 23:10,73.119.56.57,Mozilla/5.0 (Macintosh; Intel Mac OS X 10.15; rv:88.0) Gecko/20100101 Firefox/88.0,Macintosh,Firefox,88,OS X,10.15
33,1,null,"""",html-keyboard-response,14,99896,0.0-14.0,"""","<div style=""font-size:60px;"">+</div>","""",5,ITI,Practice,null,1000,"""","""","""","""","""","""","""","""","""",4/19/2021 23:10,73.119.56.57,Mozilla/5.0 (Macintosh; Intel Mac OS X 10.15; rv:88.0) Gecko/20100101 Firefox/88.0,Macintosh,Firefox,88,OS X,10.15
33,1,3144,"""",html-keyboard-response,15,104903,0.0-15.0,"""","<img src='jspsych/CFDfaces/CFD-WM-207-048-N.jpg' height=""250px"">,</br><b>Marcus</b>","""",6,IntactFace,Practice,70,5000,f,"""","""","""","""","""","""","""","""",4/19/2021 23:10,73.119.56.57,Mozilla/5.0 (Macintosh; Intel Mac OS X 10.15; rv:88.0) Gecko/20100101 Firefox/88.0,Macintosh,Firefox,88,OS X,10.15
33,1,null,"""",html-keyboard-response,16,105409,0.0-16.0,"""","<div style=""font-size:60px;"">+</div>","""",6,ITI,Practice,null,1000,"""","""","""","""","""","""","""","""","""",4/19/2021 23:10,73.119.56.57,Mozilla/5.0 (Macintosh; Intel Mac OS X 10.15; rv:88.0) Gecko/20100101 Firefox/88.0,Macintosh,Firefox,88,OS X,10.15
33,1,890,"""",html-keyboard-response,17,110412,0.0-17.0,"""","<img src='jspsych/CFDfaces/CFD-AF-209-006-N.jpg' height=""250px"">,</br><b>Cassandra</b>","""",7,IntactFace,Practice,70,5000,f,"""","""","""","""","""","""","""","""",4/19/2021 23:10,73.119.56.57,Mozilla/5.0 (Macintosh; Intel Mac OS X 10.15; rv:88.0) Gecko/20100101 Firefox/88.0,Macintosh,Firefox,88,OS X,10.15
33,1,null,"""",html-keyboard-response,18,110922,0.0-18.0,"""","<div style=""font-size:60px;"">+</div>","""",7,ITI,Practice,null,1000,"""","""","""","""","""","""","""","""","""",4/19/2021 23:10,73.119.56.57,Mozilla/5.0 (Macintosh; Intel Mac OS X 10.15; rv:88.0) Gecko/20100101 Firefox/88.0,Macintosh,Firefox,88,OS X,10.15
33,1,null,"""",html-keyboard-response,19,115929,0.0-19.0,"""","<img src='jspsych/CFDfaces/CFD-BF-212-315-N.jpg' height=""250px"">,</br><b>Shannon</b>","""",8,IntactFace,Practice,null,5000,"""","""","""","""","""","""","""","""","""",4/19/2021 23:10,73.119.56.57,Mozilla/5.0 (Macintosh; Intel Mac OS X 10.15; rv:88.0) Gecko/20100101 Firefox/88.0,Macintosh,Firefox,88,OS X,10.15
33,1,null,"""",html-keyboard-response,20,116438,0.0-20.0,"""","<div style=""font-size:60px;"">+</div>","""",8,ITI,Practice,null,1000,"""","""","""","""","""","""","""","""","""",4/19/2021 23:10,73.119.56.57,Mozilla/5.0 (Macintosh; Intel Mac OS X 10.15; rv:88.0) Gecko/20100101 Firefox/88.0,Macintosh,Firefox,88,OS X,10.15
33,1,23922,"""",image-button-response,21,140375,0.0-21.0,"""",directionsForTest.JPG,0,1,directionsForTest,break,"""","""","""","""","""","""","""","""","""","""","""",4/19/2021 23:10,73.119.56.57,Mozilla/5.0 (Macintosh; Intel Mac OS X 10.15; rv:88.0) Gecko/20100101 Firefox/88.0,Macintosh,Firefox,88,OS X,10.15
33,1,5086,"""",image-button-response,22,145476,0.0-22.0,"""",directionsForTest2.JPG,0,1,directionsForTest2,break,"""","""","""","""","""","""","""","""","""","""","""",4/19/2021 23:10,73.119.56.57,Mozilla/5.0 (Macintosh; Intel Mac OS X 10.15; rv:88.0) Gecko/20100101 Firefox/88.0,Macintosh,Firefox,88,OS X,10.15
33,1,null,"""",html-keyboard-response,23,146485,0.0-23.0,"""","<div style=""font-size:60px;"">+</div>","""",1,ITI,Practice,null,1000,"""","""","""","""","""","""","""","""","""",4/19/2021 23:10,73.119.56.57,Mozilla/5.0 (Macintosh; Intel Mac OS X 10.15; rv:88.0) Gecko/20100101 Firefox/88.0,Macintosh,Firefox,88,OS X,10.15
33,1,null,"""",image-keyboard-response,24,146745,0.0-24.0,"""",jspsych/scrambledDisgustFaces/scrambledBM09DIS.JPG,"""",1,forwardMask,Practice,null,250,"""",d,"""","""","""","""","""","""","""",4/19/2021 23:10,73.119.56.57,Mozilla/5.0 (Macintosh; Intel Mac OS X 10.15; rv:88.0) Gecko/20100101 Firefox/88.0,Macintosh,Firefox,88,OS X,10.15
33,1,null,"""",image-keyboard-response,25,146766,0.0-25.0,"""",jspsych/disgustFaces/BM10DIS.JPG,"""",1,Cue,Practice,null,16,"""","""","""","""","""","""","""","""","""",4/19/2021 23:10,73.119.56.57,Mozilla/5.0 (Macintosh; Intel Mac OS X 10.15; rv:88.0) Gecko/20100101 Firefox/88.0,Macintosh,Firefox,88,OS X,10.15
33,1,null,"""",image-keyboard-response,26,146873,0.0-26.0,"""",jspsych/neutralFaces/BM01NES.JPG,"""",1,backwardMask,Practice,null,100,"""","""","""","""","""","""","""","""","""",4/19/2021 23:10,73.119.56.57,Mozilla/5.0 (Macintosh; Intel Mac OS X 10.15; rv:88.0) Gecko/20100101 Firefox/88.0,Macintosh,Firefox,88,OS X,10.15
33,1,null,"""",html-keyboard-response,27,147881,0.0-27.0,"""","<div style=""font-size:60px;"">+</div>","""",1,fixationBtwnNeutralMaskAndPrompt,Practice,null,1000,"""","""","""","""","""","""","""","""","""",4/19/2021 23:10,73.119.56.57,Mozilla/5.0 (Macintosh; Intel Mac OS X 10.15; rv:88.0) Gecko/20100101 Firefox/88.0,Macintosh,Firefox,88,OS X,10.15
33,1,null,"""",html-button-response,28,152886,0.0-28.0,"""","<img src='jspsych/CFDfaces/CFD-AF-209-006-N.jpg'height=""250px""></br><b>Katelyn</b>",null,1,IntactOrRearranged,Practice,"""","""","""","""",CFD-AF-209-006-N.jpg,Katelyn,1,"""","""","""","""",4/19/2021 23:10,73.119.56.57,Mozilla/5.0 (Macintosh; Intel Mac OS X 10.15; rv:88.0) Gecko/20100101 Firefox/88.0,Macintosh,Firefox,88,OS X,10.15
33,1,4982,"""",html-slider-response,29,157878,0.0-29.0,"""","<img src='jspsych/CFDfaces/CFD-AF-209-006-N.jpg'height=""250px""></br><b>Katelyn</b>","""",1,ConfidenceQuery,Practice,"""","""","""","""",CFD-BM-017-021-N.jpg,Luis,1,0,92,"""","""",4/19/2021 23:10,73.119.56.57,Mozilla/5.0 (Macintosh; Intel Mac OS X 10.15; rv:88.0) Gecko/20100101 Firefox/88.0,Macintosh,Firefox,88,OS X,10.15
33,1,3687,"""",html-button-response,30,161569,0.0-30.0,"""",<p>Please click either button: REARRANGED or INTACT before the 5-second time limit.</p>,0,1,feedback,Practice,"""","""","""","""","""","""","""","""","""","""","""",4/19/2021 23:10,73.119.56.57,Mozilla/5.0 (Macintosh; Intel Mac OS X 10.15; rv:88.0) Gecko/20100101 Firefox/88.0,Macintosh,Firefox,88,OS X,10.15
33,1,null,"""",html-keyboard-response,31,162576,0.0-31.0,"""","<div style=""font-size:60px;"">+</div>","""",2,ITI,Practice,null,1000,"""","""","""","""","""","""","""","""","""",4/19/2021 23:10,73.119.56.57,Mozilla/5.0 (Macintosh; Intel Mac OS X 10.15; rv:88.0) Gecko/20100101 Firefox/88.0,Macintosh,Firefox,88,OS X,10.15
33,1,null,"""",image-keyboard-response,32,162837,0.0-32.0,"""",jspsych/scrambledNeutralFaces/scrambledBF12NES.JPG,"""",2,forwardMask,Practice,null,250,"""",n,"""","""","""","""","""","""","""",4/19/2021 23:10,73.119.56.57,Mozilla/5.0 (Macintosh; Intel Mac OS X 10.15; rv:88.0) Gecko/20100101 Firefox/88.0,Macintosh,Firefox,88,OS X,10.15
33,1,null,"""",image-keyboard-response,33,162863,0.0-33.0,"""",jspsych/neutralFaces/BF12NES.JPG,"""",2,Cue,Practice,null,16,"""","""","""","""","""","""","""","""","""",4/19/2021 23:10,73.119.56.57,Mozilla/5.0 (Macintosh; Intel Mac OS X 10.15; rv:88.0) Gecko/20100101 Firefox/88.0,Macintosh,Firefox,88,OS X,10.15
33,1,null,"""",image-keyboard-response,34,162973,0.0-34.0,"""",jspsych/neutralFaces/AF34NES.JPG,"""",2,backwardMask,Practice,null,100,"""","""","""","""","""","""","""","""","""",4/19/2021 23:10,73.119.56.57,Mozilla/5.0 (Macintosh; Intel Mac OS X 10.15; rv:88.0) Gecko/20100101 Firefox/88.0,Macintosh,Firefox,88,OS X,10.15
33,1,null,"""",html-keyboard-response,35,163979,0.0-35.0,"""","<div style=""font-size:60px;"">+</div>","""",2,fixationBtwnNeutralMaskAndPrompt,Practice,null,1000,"""","""","""","""","""","""","""","""","""",4/19/2021 23:10,73.119.56.57,Mozilla/5.0 (Macintosh; Intel Mac OS X 10.15; rv:88.0) Gecko/20100101 Firefox/88.0,Macintosh,Firefox,88,OS X,10.15
33,1,2727,"""",html-button-response,36,166709,0.0-36.0,"""","<img src='jspsych/CFDfaces/CFD-LF-243-175-N.jpg'height=""250px""></br><b>Tara</b>",0,2,IntactOrRearranged,Practice,"""","""","""","""",CFD-LF-243-175-N.jpg,Tara,0,"""","""",0,"""",4/19/2021 23:10,73.119.56.57,Mozilla/5.0 (Macintosh; Intel Mac OS X 10.15; rv:88.0) Gecko/20100101 Firefox/88.0,Macintosh,Firefox,88,OS X,10.15
33,1,4839,"""",html-slider-response,37,171553,0.0-37.0,"""","<img src='jspsych/CFDfaces/CFD-LF-243-175-N.jpg'height=""250px""></br><b>Tara</b>","""",2,ConfidenceQuery,Practice,"""","""","""","""",CFD-BM-017-021-N.jpg,Luis,0,0,86,"""","""",4/19/2021 23:10,73.119.56.57,Mozilla/5.0 (Macintosh; Intel Mac OS X 10.15; rv:88.0) Gecko/20100101 Firefox/88.0,Macintosh,Firefox,88,OS X,10.15
33,1,2765,"""",html-button-response,38,174323,0.0-38.0,"""",You are Correct. You called an Intact Pair Intact,0,2,feedback,Practice,"""","""","""","""","""","""","""","""","""","""","""",4/19/2021 23:10,73.119.56.57,Mozilla/5.0 (Macintosh; Intel Mac OS X 10.15; rv:88.0) Gecko/20100101 Firefox/88.0,Macintosh,Firefox,88,OS X,10.15
33,1,null,"""",html-keyboard-response,39,175329,0.0-39.0,"""","<div style=""font-size:60px;"">+</div>","""",3,ITI,Practice,null,1000,"""","""","""","""","""","""","""","""","""",4/19/2021 23:10,73.119.56.57,Mozilla/5.0 (Macintosh; Intel Mac OS X 10.15; rv:88.0) Gecko/20100101 Firefox/88.0,Macintosh,Firefox,88,OS X,10.15
33,1,null,"""",image-keyboard-response,40,175584,0.0-40.0,"""",jspsych/scrambledDisgustFaces/scrambledBF33DIS.JPG,"""",3,forwardMask,Practice,null,250,"""",d,"""","""","""","""","""","""","""",4/19/2021 23:10,73.119.56.57,Mozilla/5.0 (Macintosh; Intel Mac OS X 10.15; rv:88.0) Gecko/20100101 Firefox/88.0,Macintosh,Firefox,88,OS X,10.15
33,1,null,"""",image-keyboard-response,41,175608,0.0-41.0,"""",jspsych/disgustFaces/BF33DIS.JPG,"""",3,Cue,Practice,null,16,"""","""","""","""","""","""","""","""","""",4/19/2021 23:10,73.119.56.57,Mozilla/5.0 (Macintosh; Intel Mac OS X 10.15; rv:88.0) Gecko/20100101 Firefox/88.0,Macintosh,Firefox,88,OS X,10.15
33,1,null,"""",image-keyboard-response,42,175718,0.0-42.0,"""",jspsych/neutralFaces/BF16NES.JPG,"""",3,backwardMask,Practice,null,100,"""","""","""","""","""","""","""","""","""",4/19/2021 23:10,73.119.56.57,Mozilla/5.0 (Macintosh; Intel Mac OS X 10.15; rv:88.0) Gecko/20100101 Firefox/88.0,Macintosh,Firefox,88,OS X,10.15
33,1,null,"""",html-keyboard-response,43,176725,0.0-43.0,"""","<div style=""font-size:60px;"">+</div>","""",3,fixationBtwnNeutralMaskAndPrompt,Practice,null,1000,"""","""","""","""","""","""","""","""","""",4/19/2021 23:10,73.119.56.57,Mozilla/5.0 (Macintosh; Intel Mac OS X 10.15; rv:88.0) Gecko/20100101 Firefox/88.0,Macintosh,Firefox,88,OS X,10.15
33,1,3026,"""",html-button-response,44,179755,0.0-44.0,"""","<img src='jspsych/CFDfaces/CFD-WM-207-048-N.jpg'height=""250px""></br><b>Carlos</b>",1,3,IntactOrRearranged,Practice,"""","""","""","""",CFD-WM-207-048-N.jpg,Carlos,1,"""","""",1,"""",4/19/2021 23:10,73.119.56.57,Mozilla/5.0 (Macintosh; Intel Mac OS X 10.15; rv:88.0) Gecko/20100101 Firefox/88.0,Macintosh,Firefox,88,OS X,10.15
33,1,2581,"""",html-slider-response,45,182341,0.0-45.0,"""","<img src='jspsych/CFDfaces/CFD-WM-207-048-N.jpg'height=""250px""></br><b>Carlos</b>","""",3,ConfidenceQuery,Practice,"""","""","""","""",CFD-BM-017-021-N.jpg,Luis,1,0,88,"""","""",4/19/2021 23:10,73.119.56.57,Mozilla/5.0 (Macintosh; Intel Mac OS X 10.15; rv:88.0) Gecko/20100101 Firefox/88.0,Macintosh,Firefox,88,OS X,10.15
33,1,1768,"""",html-button-response,46,184114,0.0-46.0,"""",You are Correct. You Called A Rearranged Pair Rearranged,0,3,feedback,Practice,"""","""","""","""","""","""","""","""","""","""","""",4/19/2021 23:10,73.119.56.57,Mozilla/5.0 (Macintosh; Intel Mac OS X 10.15; rv:88.0) Gecko/20100101 Firefox/88.0,Macintosh,Firefox,88,OS X,10.15
33,1,null,"""",html-keyboard-response,47,185122,0.0-47.0,"""","<div style=""font-size:60px;"">+</div>","""",4,ITI,Practice,null,1000,"""","""","""","""","""","""","""","""","""",4/19/2021 23:10,73.119.56.57,Mozilla/5.0 (Macintosh; Intel Mac OS X 10.15; rv:88.0) Gecko/20100101 Firefox/88.0,Macintosh,Firefox,88,OS X,10.15
33,1,null,"""",image-keyboard-response,48,185379,0.0-48.0,"""",jspsych/scrambledDisgustFaces/scrambledAF16DIS.JPG,"""",4,forwardMask,Practice,null,250,"""",d,"""","""","""","""","""","""","""",4/19/2021 23:10,73.119.56.57,Mozilla/5.0 (Macintosh; Intel Mac OS X 10.15; rv:88.0) Gecko/20100101 Firefox/88.0,Macintosh,Firefox,88,OS X,10.15
33,1,null,"""",image-keyboard-response,49,185403,0.0-49.0,"""",jspsych/disgustFaces/AF16DIS.JPG,"""",4,Cue,Practice,null,16,"""","""","""","""","""","""","""","""","""",4/19/2021 23:10,73.119.56.57,Mozilla/5.0 (Macintosh; Intel Mac OS X 10.15; rv:88.0) Gecko/20100101 Firefox/88.0,Macintosh,Firefox,88,OS X,10.15
33,1,null,"""",image-keyboard-response,50,185509,0.0-50.0,"""",jspsych/neutralFaces/BF29NES.JPG,"""",4,backwardMask,Practice,null,100,"""","""","""","""","""","""","""","""","""",4/19/2021 23:10,73.119.56.57,Mozilla/5.0 (Macintosh; Intel Mac OS X 10.15; rv:88.0) Gecko/20100101 Firefox/88.0,Macintosh,Firefox,88,OS X,10.15
33,1,null,"""",html-keyboard-response,51,186514,0.0-51.0,"""","<div style=""font-size:60px;"">+</div>","""",4,fixationBtwnNeutralMaskAndPrompt,Practice,null,1000,"""","""","""","""","""","""","""","""","""",4/19/2021 23:10,73.119.56.57,Mozilla/5.0 (Macintosh; Intel Mac OS X 10.15; rv:88.0) Gecko/20100101 Firefox/88.0,Macintosh,Firefox,88,OS X,10.15
33,1,2253,"""",html-button-response,52,188771,0.0-52.0,"""","<img src='jspsych/CFDfaces/CFD-LM-233-171-N.jpg'height=""250px""></br><b>Patrick</b>",1,4,IntactOrRearranged,Practice,"""","""","""","""",CFD-LM-233-171-N.jpg,Patrick,0,"""","""",1,"""",4/19/2021 23:10,73.119.56.57,Mozilla/5.0 (Macintosh; Intel Mac OS X 10.15; rv:88.0) Gecko/20100101 Firefox/88.0,Macintosh,Firefox,88,OS X,10.15
33,1,2437,"""",html-slider-response,53,191213,0.0-53.0,"""","<img src='jspsych/CFDfaces/CFD-LM-233-171-N.jpg'height=""250px""></br><b>Patrick</b>","""",4,ConfidenceQuery,Practice,"""","""","""","""",CFD-BM-017-021-N.jpg,Luis,0,0,85,"""","""",4/19/2021 23:10,73.119.56.57,Mozilla/5.0 (Macintosh; Intel Mac OS X 10.15; rv:88.0) Gecko/20100101 Firefox/88.0,Macintosh,Firefox,88,OS X,10.15
33,1,1476,"""",html-button-response,54,192695,0.0-54.0,"""",You are Incorrect. You Called an Intact Pair Rearranged,0,4,feedback,Practice,"""","""","""","""","""","""","""","""","""","""","""",4/19/2021 23:10,73.119.56.57,Mozilla/5.0 (Macintosh; Intel Mac OS X 10.15; rv:88.0) Gecko/20100101 Firefox/88.0,Macintosh,Firefox,88,OS X,10.15
33,1,null,"""",html-keyboard-response,55,193698,0.0-55.0,"""","<div style=""font-size:60px;"">+</div>","""",5,ITI,Practice,null,1000,"""","""","""","""","""","""","""","""","""",4/19/2021 23:10,73.119.56.57,Mozilla/5.0 (Macintosh; Intel Mac OS X 10.15; rv:88.0) Gecko/20100101 Firefox/88.0,Macintosh,Firefox,88,OS X,10.15
33,1,null,"""",image-keyboard-response,56,193960,0.0-56.0,"""",jspsych/scrambledNeutralFaces/scrambledAM30NES.JPG,"""",5,forwardMask,Practice,null,250,"""",n,"""","""","""","""","""","""","""",4/19/2021 23:10,73.119.56.57,Mozilla/5.0 (Macintosh; Intel Mac OS X 10.15; rv:88.0) Gecko/20100101 Firefox/88.0,Macintosh,Firefox,88,OS X,10.15
33,1,null,"""",image-keyboard-response,57,193986,0.0-57.0,"""",jspsych/neutralFaces/AM30NES.JPG,"""",5,Cue,Practice,null,16,"""","""","""","""","""","""","""","""","""",4/19/2021 23:10,73.119.56.57,Mozilla/5.0 (Macintosh; Intel Mac OS X 10.15; rv:88.0) Gecko/20100101 Firefox/88.0,Macintosh,Firefox,88,OS X,10.15
33,1,null,"""",image-keyboard-response,58,194096,0.0-58.0,"""",jspsych/neutralFaces/AM17NES.JPG,"""",5,backwardMask,Practice,null,100,"""","""","""","""","""","""","""","""","""",4/19/2021 23:10,73.119.56.57,Mozilla/5.0 (Macintosh; Intel Mac OS X 10.15; rv:88.0) Gecko/20100101 Firefox/88.0,Macintosh,Firefox,88,OS X,10.15
33,1,null,"""",html-keyboard-response,59,195102,0.0-59.0,"""","<div style=""font-size:60px;"">+</div>","""",5,fixationBtwnNeutralMaskAndPrompt,Practice,null,1000,"""","""","""","""","""","""","""","""","""",4/19/2021 23:10,73.119.56.57,Mozilla/5.0 (Macintosh; Intel Mac OS X 10.15; rv:88.0) Gecko/20100101 Firefox/88.0,Macintosh,Firefox,88,OS X,10.15
33,1,1836,"""",html-button-response,60,196942,0.0-60.0,"""","<img src='jspsych/CFDfaces/CFD-AM-228-214-N.jpg'height=""250px""></br><b>Marcus</b>",0,5,IntactOrRearranged,Practice,"""","""","""","""",CFD-AM-228-214-N.jpg,Marcus,1,"""","""",0,"""",4/19/2021 23:10,73.119.56.57,Mozilla/5.0 (Macintosh; Intel Mac OS X 10.15; rv:88.0) Gecko/20100101 Firefox/88.0,Macintosh,Firefox,88,OS X,10.15
33,1,2571,"""",html-slider-response,61,199520,0.0-61.0,"""","<img src='jspsych/CFDfaces/CFD-AM-228-214-N.jpg'height=""250px""></br><b>Marcus</b>","""",5,ConfidenceQuery,Practice,"""","""","""","""",CFD-BM-017-021-N.jpg,Luis,1,0,0,"""","""",4/19/2021 23:10,73.119.56.57,Mozilla/5.0 (Macintosh; Intel Mac OS X 10.15; rv:88.0) Gecko/20100101 Firefox/88.0,Macintosh,Firefox,88,OS X,10.15
33,1,1535,"""",html-button-response,62,201059,0.0-62.0,"""",You are Incorrect. You called a Rearranged Pair Intact,0,5,feedback,Practice,"""","""","""","""","""","""","""","""","""","""","""",4/19/2021 23:10,73.119.56.57,Mozilla/5.0 (Macintosh; Intel Mac OS X 10.15; rv:88.0) Gecko/20100101 Firefox/88.0,Macintosh,Firefox,88,OS X,10.15
33,1,null,"""",html-keyboard-response,63,202063,0.0-63.0,"""","<div style=""font-size:60px;"">+</div>","""",6,ITI,Practice,null,1000,"""","""","""","""","""","""","""","""","""",4/19/2021 23:10,73.119.56.57,Mozilla/5.0 (Macintosh; Intel Mac OS X 10.15; rv:88.0) Gecko/20100101 Firefox/88.0,Macintosh,Firefox,88,OS X,10.15
33,1,null,"""",image-keyboard-response,64,202319,0.0-64.0,"""",jspsych/scrambledDisgustFaces/scrambledAF34DIS.JPG,"""",6,forwardMask,Practice,null,250,"""",d,"""","""","""","""","""","""","""",4/19/2021 23:10,73.119.56.57,Mozilla/5.0 (Macintosh; Intel Mac OS X 10.15; rv:88.0) Gecko/20100101 Firefox/88.0,Macintosh,Firefox,88,OS X,10.15
33,1,null,"""",image-keyboard-response,65,202346,0.0-65.0,"""",jspsych/disgustFaces/AF34DIS.JPG,"""",6,Cue,Practice,null,16,"""","""","""","""","""","""","""","""","""",4/19/2021 23:10,73.119.56.57,Mozilla/5.0 (Macintosh; Intel Mac OS X 10.15; rv:88.0) Gecko/20100101 Firefox/88.0,Macintosh,Firefox,88,OS X,10.15
33,1,null,"""",image-keyboard-response,66,202456,0.0-66.0,"""",jspsych/neutralFaces/AF13NES.JPG,"""",6,backwardMask,Practice,null,100,"""","""","""","""","""","""","""","""","""",4/19/2021 23:10,73.119.56.57,Mozilla/5.0 (Macintosh; Intel Mac OS X 10.15; rv:88.0) Gecko/20100101 Firefox/88.0,Macintosh,Firefox,88,OS X,10.15
33,1,null,"""",html-keyboard-response,67,203462,0.0-67.0,"""","<div style=""font-size:60px;"">+</div>","""",6,fixationBtwnNeutralMaskAndPrompt,Practice,null,1000,"""","""","""","""","""","""","""","""","""",4/19/2021 23:10,73.119.56.57,Mozilla/5.0 (Macintosh; Intel Mac OS X 10.15; rv:88.0) Gecko/20100101 Firefox/88.0,Macintosh,Firefox,88,OS X,10.15
33,1,null,"""",html-button-response,68,208470,0.0-68.0,"""","<img src='jspsych/CFDfaces/CFD-LF-244-096-N.jpg'height=""250px""></br><b>Cassandra</b>",null,6,IntactOrRearranged,Practice,"""","""","""","""",CFD-LF-244-096-N.jpg,Cassandra,1,"""","""","""","""",4/19/2021 23:10,73.119.56.57,Mozilla/5.0 (Macintosh; Intel Mac OS X 10.15; rv:88.0) Gecko/20100101 Firefox/88.0,Macintosh,Firefox,88,OS X,10.15
33,1,2033,"""",html-slider-response,69,210511,0.0-69.0,"""","<img src='jspsych/CFDfaces/CFD-LF-244-096-N.jpg'height=""250px""></br><b>Cassandra</b>","""",6,ConfidenceQuery,Practice,"""","""","""","""",CFD-BM-017-021-N.jpg,Luis,1,0,98,"""","""",4/19/2021 23:10,73.119.56.57,Mozilla/5.0 (Macintosh; Intel Mac OS X 10.15; rv:88.0) Gecko/20100101 Firefox/88.0,Macintosh,Firefox,88,OS X,10.15
33,1,1277,"""",html-button-response,70,211791,0.0-70.0,"""",<p>Please click either button: REARRANGED or INTACT before the 5-second time limit.</p>,0,6,feedback,Practice,"""","""","""","""","""","""","""","""","""","""","""",4/19/2021 23:10,73.119.56.57,Mozilla/5.0 (Macintosh; Intel Mac OS X 10.15; rv:88.0) Gecko/20100101 Firefox/88.0,Macintosh,Firefox,88,OS X,10.15
33,1,null,"""",html-keyboard-response,71,212796,0.0-71.0,"""","<div style=""font-size:60px;"">+</div>","""",7,ITI,Practice,null,1000,"""","""","""","""","""","""","""","""","""",4/19/2021 23:10,73.119.56.57,Mozilla/5.0 (Macintosh; Intel Mac OS X 10.15; rv:88.0) Gecko/20100101 Firefox/88.0,Macintosh,Firefox,88,OS X,10.15
33,1,null,"""",image-keyboard-response,72,213056,0.0-72.0,"""",jspsych/scrambledDisgustFaces/scrambledAM10DIS.JPG,"""",7,forwardMask,Practice,null,250,"""",d,"""","""","""","""","""","""","""",4/19/2021 23:10,73.119.56.57,Mozilla/5.0 (Macintosh; Intel Mac OS X 10.15; rv:88.0) Gecko/20100101 Firefox/88.0,Macintosh,Firefox,88,OS X,10.15
33,1,null,"""",image-keyboard-response,73,213079,0.0-73.0,"""",jspsych/disgustFaces/AM10DIS.JPG,"""",7,Cue,Practice,null,16,"""","""","""","""","""","""","""","""","""",4/19/2021 23:10,73.119.56.57,Mozilla/5.0 (Macintosh; Intel Mac OS X 10.15; rv:88.0) Gecko/20100101 Firefox/88.0,Macintosh,Firefox,88,OS X,10.15
33,1,null,"""",image-keyboard-response,74,213190,0.0-74.0,"""",jspsych/neutralFaces/BM34NES.JPG,"""",7,backwardMask,Practice,null,100,"""","""","""","""","""","""","""","""","""",4/19/2021 23:10,73.119.56.57,Mozilla/5.0 (Macintosh; Intel Mac OS X 10.15; rv:88.0) Gecko/20100101 Firefox/88.0,Macintosh,Firefox,88,OS X,10.15
33,1,null,"""",html-keyboard-response,75,214196,0.0-75.0,"""","<div style=""font-size:60px;"">+</div>","""",7,fixationBtwnNeutralMaskAndPrompt,Practice,null,1000,"""","""","""","""","""","""","""","""","""",4/19/2021 23:10,73.119.56.57,Mozilla/5.0 (Macintosh; Intel Mac OS X 10.15; rv:88.0) Gecko/20100101 Firefox/88.0,Macintosh,Firefox,88,OS X,10.15
33,1,2388,"""",html-button-response,76,216587,0.0-76.0,"""","<img src='jspsych/CFDfaces/CFD-BM-002-013-N.jpg'height=""250px""></br><b>Samuel</b>",0,7,IntactOrRearranged,Practice,"""","""","""","""",CFD-BM-002-013-N.jpg,Samuel,0,"""","""",0,"""",4/19/2021 23:10,73.119.56.57,Mozilla/5.0 (Macintosh; Intel Mac OS X 10.15; rv:88.0) Gecko/20100101 Firefox/88.0,Macintosh,Firefox,88,OS X,10.15
33,1,3731,"""",html-slider-response,77,220325,0.0-77.0,"""","<img src='jspsych/CFDfaces/CFD-BM-002-013-N.jpg'height=""250px""></br><b>Samuel</b>","""",7,ConfidenceQuery,Practice,"""","""","""","""",CFD-BM-017-021-N.jpg,Luis,0,0,99,"""","""",4/19/2021 23:10,73.119.56.57,Mozilla/5.0 (Macintosh; Intel Mac OS X 10.15; rv:88.0) Gecko/20100101 Firefox/88.0,Macintosh,Firefox,88,OS X,10.15
33,1,2301,"""",html-button-response,78,222628,0.0-78.0,"""",You are Correct. You called an Intact Pair Intact,0,7,feedback,Practice,"""","""","""","""","""","""","""","""","""","""","""",4/19/2021 23:10,73.119.56.57,Mozilla/5.0 (Macintosh; Intel Mac OS X 10.15; rv:88.0) Gecko/20100101 Firefox/88.0,Macintosh,Firefox,88,OS X,10.15
33,1,null,"""",html-keyboard-response,79,223638,0.0-79.0,"""","<div style=""font-size:60px;"">+</div>","""",8,ITI,Practice,null,1000,"""","""","""","""","""","""","""","""","""",4/19/2021 23:10,73.119.56.57,Mozilla/5.0 (Macintosh; Intel Mac OS X 10.15; rv:88.0) Gecko/20100101 Firefox/88.0,Macintosh,Firefox,88,OS X,10.15
33,1,null,"""",image-keyboard-response,80,223897,0.0-80.0,"""",jspsych/scrambledNeutralFaces/scrambledAF02NES.JPG,"""",8,forwardMask,Practice,null,250,"""",n,"""","""","""","""","""","""","""",4/19/2021 23:10,73.119.56.57,Mozilla/5.0 (Macintosh; Intel Mac OS X 10.15; rv:88.0) Gecko/20100101 Firefox/88.0,Macintosh,Firefox,88,OS X,10.15
33,1,null,"""",image-keyboard-response,81,223919,0.0-81.0,"""",jspsych/neutralFaces/AF02NES.JPG,"""",8,Cue,Practice,null,16,"""","""","""","""","""","""","""","""","""",4/19/2021 23:10,73.119.56.57,Mozilla/5.0 (Macintosh; Intel Mac OS X 10.15; rv:88.0) Gecko/20100101 Firefox/88.0,Macintosh,Firefox,88,OS X,10.15
33,1,null,"""",image-keyboard-response,82,224025,0.0-82.0,"""",jspsych/neutralFaces/BF26NES.JPG,"""",8,backwardMask,Practice,null,100,"""","""","""","""","""","""","""","""","""",4/19/2021 23:10,73.119.56.57,Mozilla/5.0 (Macintosh; Intel Mac OS X 10.15; rv:88.0) Gecko/20100101 Firefox/88.0,Macintosh,Firefox,88,OS X,10.15
33,1,null,"""",html-keyboard-response,83,225032,0.0-83.0,"""","<div style=""font-size:60px;"">+</div>","""",8,fixationBtwnNeutralMaskAndPrompt,Practice,null,1000,"""","""","""","""","""","""","""","""","""",4/19/2021 23:10,73.119.56.57,Mozilla/5.0 (Macintosh; Intel Mac OS X 10.15; rv:88.0) Gecko/20100101 Firefox/88.0,Macintosh,Firefox,88,OS X,10.15
33,1,3211,"""",html-button-response,84,228247,0.0-84.0,"""","<img src='jspsych/CFDfaces/CFD-BF-212-315-N.jpg'height=""250px""></br><b>Shannon</b>",1,8,IntactOrRearranged,Practice,"""","""","""","""",CFD-BF-212-315-N.jpg,Shannon,0,"""","""",1,"""",4/19/2021 23:10,73.119.56.57,Mozilla/5.0 (Macintosh; Intel Mac OS X 10.15; rv:88.0) Gecko/20100101 Firefox/88.0,Macintosh,Firefox,88,OS X,10.15
33,1,2039,"""",html-slider-response,85,230292,0.0-85.0,"""","<img src='jspsych/CFDfaces/CFD-BF-212-315-N.jpg'height=""250px""></br><b>Shannon</b>","""",8,ConfidenceQuery,Practice,"""","""","""","""",CFD-BM-017-021-N.jpg,Luis,0,0,84,"""","""",4/19/2021 23:10,73.119.56.57,Mozilla/5.0 (Macintosh; Intel Mac OS X 10.15; rv:88.0) Gecko/20100101 Firefox/88.0,Macintosh,Firefox,88,OS X,10.15
33,1,1142,"""",html-button-response,86,231438,0.0-86.0,"""",You are Incorrect. You Called an Intact Pair Rearranged,0,8,feedback,Practice,"""","""","""","""","""","""","""","""","""","""","""",4/19/2021 23:10,73.119.56.57,Mozilla/5.0 (Macintosh; Intel Mac OS X 10.15; rv:88.0) Gecko/20100101 Firefox/88.0,Macintosh,Firefox,88,OS X,10.15
33,1,8327,"""",image-button-response,87,239778,0.0-87.0,"""",directionsMemoryAssociation3.JPG,0,128,DirectionsBeforeActualTEst,Break,"""","""","""","""","""","""","""","""","""","""","""",4/19/2021 23:10,73.119.56.57,Mozilla/5.0 (Macintosh; Intel Mac OS X 10.15; rv:88.0) Gecko/20100101 Firefox/88.0,Macintosh,Firefox,88,OS X,10.15
33,1,3877,"""",image-button-response,88,243670,0.0-88.0,"""",directionsForTest2.JPG,0,1,directionsForTest2,break,"""","""","""","""","""","""","""","""","""","""","""",4/19/2021 23:10,73.119.56.57,Mozilla/5.0 (Macintosh; Intel Mac OS X 10.15; rv:88.0) Gecko/20100101 Firefox/88.0,Macintosh,Firefox,88,OS X,10.15
33,1,15027,"""",html-button-response,89,258700,0.0-89.0,"""","<p>You will be asked to memorize and then recall four sets of face-name pairs. </p> <p> Each set will have 32 pairs. </p> <p>After the fourth set, there will be a brief follow-up experiment (<40 min alltogether)</p>",0,"""","""","""","""","""","""","""","""","""","""","""","""","""","""",4/19/2021 23:10,73.119.56.57,Mozilla/5.0 (Macintosh; Intel Mac OS X 10.15; rv:88.0) Gecko/20100101 Firefox/88.0,Macintosh,Firefox,88,OS X,10.15
33,1,4516,"""",html-keyboard-response,90,263709,0.0-90.0,"""","<img src='jspsych/CFDfaces/CFD-LF-218-072-N.jpg' height=""250px""></br><b>Michelle</b>","""",256,IntactFace,Memorization,70,5000,f,"""",CFD-BF-221-223-N.jpg,Lauren,0,"""","""","""",1,4/19/2021 23:10,73.119.56.57,Mozilla/5.0 (Macintosh; Intel Mac OS X 10.15; rv:88.0) Gecko/20100101 Firefox/88.0,Macintosh,Firefox,88,OS X,10.15
33,1,null,"""",html-keyboard-response,91,264216,0.0-91.0,"""","<div style=""font-size:60px;"">+</div>","""",256,fixation,Memorization,null,500,"""","""","""","""","""","""","""","""",1,4/19/2021 23:10,73.119.56.57,Mozilla/5.0 (Macintosh; Intel Mac OS X 10.15; rv:88.0) Gecko/20100101 Firefox/88.0,Macintosh,Firefox,88,OS X,10.15
33,1,3811,"""",html-keyboard-response,92,269226,0.0-92.0,"""","<img src='jspsych/CFDfaces/CFD-AF-228-173-N.jpg' height=""250px""></br><b>Elizabeth</b>","""",256,IntactFace,Memorization,70,5000,f,"""",CFD-AM-234-355-N.jpg,Timothy,0,"""","""","""",1,4/19/2021 23:10,73.119.56.57,Mozilla/5.0 (Macintosh; Intel Mac OS X 10.15; rv:88.0) Gecko/20100101 Firefox/88.0,Macintosh,Firefox,88,OS X,10.15
33,1,null,"""",html-keyboard-response,93,269730,0.0-93.0,"""","<div style=""font-size:60px;"">+</div>","""",256,fixation,Memorization,null,500,"""","""","""","""","""","""","""","""",1,4/19/2021 23:10,73.119.56.57,Mozilla/5.0 (Macintosh; Intel Mac OS X 10.15; rv:88.0) Gecko/20100101 Firefox/88.0,Macintosh,Firefox,88,OS X,10.15
33,1,1705,"""",html-keyboard-response,94,274742,0.0-94.0,"""","<img src='jspsych/CFDfaces/CFD-WF-218-087-N.jpg' height=""250px""></br><b>Emily</b>","""",256,IntactFace,Memorization,70,5000,f,"""",CFD-BM-018-001-N.jpg,Austin,0,"""","""","""",1,4/19/2021 23:10,73.119.56.57,Mozilla/5.0 (Macintosh; Intel Mac OS X 10.15; rv:88.0) Gecko/20100101 Firefox/88.0,Macintosh,Firefox,88,OS X,10.15
33,1,null,"""",html-keyboard-response,95,275250,0.0-95.0,"""","<div style=""font-size:60px;"">+</div>","""",256,fixation,Memorization,null,500,"""","""","""","""","""","""","""","""",1,4/19/2021 23:10,73.119.56.57,Mozilla/5.0 (Macintosh; Intel Mac OS X 10.15; rv:88.0) Gecko/20100101 Firefox/88.0,Macintosh,Firefox,88,OS X,10.15
33,1,2710,"""",html-keyboard-response,96,280263,0.0-96.0,"""","<img src='jspsych/CFDfaces/CFD-AM-221-184-N.jpg' height=""250px""></br><b>Robert</b>","""",256,IntactFace,Memorization,78,5000,n,"""",CFD-WF-017-003-N.jpg,Lindsey,0,"""","""","""",1,4/19/2021 23:10,73.119.56.57,Mozilla/5.0 (Macintosh; Intel Mac OS X 10.15; rv:88.0) Gecko/20100101 Firefox/88.0,Macintosh,Firefox,88,OS X,10.15
33,1,null,"""",html-keyboard-response,97,280768,0.0-97.0,"""","<div style=""font-size:60px;"">+</div>","""",256,fixation,Memorization,null,500,"""","""","""","""","""","""","""","""",1,4/19/2021 23:10,73.119.56.57,Mozilla/5.0 (Macintosh; Intel Mac OS X 10.15; rv:88.0) Gecko/20100101 Firefox/88.0,Macintosh,Firefox,88,OS X,10.15
33,1,3836,"""",html-keyboard-response,98,285782,0.0-98.0,"""","<img src='jspsych/CFDfaces/CFD-WF-204-038-N.jpg' height=""250px""></br><b>Amanda</b>","""",256,IntactFace,Memorization,70,5000,f,"""",CFD-LM-220-329-N.jpg,Jacob,0,"""","""","""",1,4/19/2021 23:10,73.119.56.57,Mozilla/5.0 (Macintosh; Intel Mac OS X 10.15; rv:88.0) Gecko/20100101 Firefox/88.0,Macintosh,Firefox,88,OS X,10.15
33,1,null,"""",html-keyboard-response,99,286289,0.0-99.0,"""","<div style=""font-size:60px;"">+</div>","""",256,fixation,Memorization,null,500,"""","""","""","""","""","""","""","""",1,4/19/2021 23:10,73.119.56.57,Mozilla/5.0 (Macintosh; Intel Mac OS X 10.15; rv:88.0) Gecko/20100101 Firefox/88.0,Macintosh,Firefox,88,OS X,10.15
33,1,3663,"""",html-keyboard-response,100,291301,0.0-100.0,"""","<img src='jspsych/CFDfaces/CFD-WM-212-097-N.jpg' height=""250px""></br><b>Jeffrey</b>","""",256,IntactFace,Memorization,70,5000,f,"""",CFD-LF-201-035-N.jpg,Erin,0,"""","""","""",1,4/19/2021 23:10,73.119.56.57,Mozilla/5.0 (Macintosh; Intel Mac OS X 10.15; rv:88.0) Gecko/20100101 Firefox/88.0,Macintosh,Firefox,88,OS X,10.15
33,1,null,"""",html-keyboard-response,101,291809,0.0-101.0,"""","<div style=""font-size:60px;"">+</div>","""",256,fixation,Memorization,null,500,"""","""","""","""","""","""","""","""",1,4/19/2021 23:10,73.119.56.57,Mozilla/5.0 (Macintosh; Intel Mac OS X 10.15; rv:88.0) Gecko/20100101 Firefox/88.0,Macintosh,Firefox,88,OS X,10.15
33,1,3715,"""",html-keyboard-response,102,296821,0.0-102.0,"""","<img src='jspsych/CFDfaces/CFD-LF-239-148-N.jpg' height=""250px""></br><b>Kayla</b>","""",256,IntactFace,Memorization,70,5000,f,"""",CFD-AF-203-077-N.jpg,Amy,0,"""","""","""",1,4/19/2021 23:10,73.119.56.57,Mozilla/5.0 (Macintosh; Intel Mac OS X 10.15; rv:88.0) Gecko/20100101 Firefox/88.0,Macintosh,Firefox,88,OS X,10.15
33,1,null,"""",html-keyboard-response,103,297324,0.0-103.0,"""","<div style=""font-size:60px;"">+</div>","""",256,fixation,Memorization,null,500,"""","""","""","""","""","""","""","""",1,4/19/2021 23:10,73.119.56.57,Mozilla/5.0 (Macintosh; Intel Mac OS X 10.15; rv:88.0) Gecko/20100101 Firefox/88.0,Macintosh,Firefox,88,OS X,10.15
33,1,1704,"""",html-keyboard-response,104,302335,0.0-104.0,"""","<img src='jspsych/CFDfaces/CFD-WF-223-133-N.jpg' height=""250px""></br><b>Andrea</b>","""",256,IntactFace,Memorization,70,5000,f,"""",CFD-AF-235-170-N.jpg,Jasmine,0,"""","""","""",1,4/19/2021 23:10,73.119.56.57,Mozilla/5.0 (Macintosh; Intel Mac OS X 10.15; rv:88.0) Gecko/20100101 Firefox/88.0,Macintosh,Firefox,88,OS X,10.15
33,1,null,"""",html-keyboard-response,105,302843,0.0-105.0,"""","<div style=""font-size:60px;"">+</div>","""",256,fixation,Memorization,null,500,"""","""","""","""","""","""","""","""",1,4/19/2021 23:10,73.119.56.57,Mozilla/5.0 (Macintosh; Intel Mac OS X 10.15; rv:88.0) Gecko/20100101 Firefox/88.0,Macintosh,Firefox,88,OS X,10.15
33,1,2676,"""",html-keyboard-response,106,307853,0.0-106.0,"""","<img src='jspsych/CFDfaces/CFD-WM-034-030-N.jpg' height=""250px""></br><b>Jason</b>","""",256,IntactFace,Memorization,70,5000,f,"""",CFD-WM-011-002-N.jpg,Mark,0,"""","""","""",1,4/19/2021 23:10,73.119.56.57,Mozilla/5.0 (Macintosh; Intel Mac OS X 10.15; rv:88.0) Gecko/20100101 Firefox/88.0,Macintosh,Firefox,88,OS X,10.15
33,1,null,"""",html-keyboard-response,107,308361,0.0-107.0,"""","<div style=""font-size:60px;"">+</div>","""",256,fixation,Memorization,null,500,"""","""","""","""","""","""","""","""",1,4/19/2021 23:10,73.119.56.57,Mozilla/5.0 (Macintosh; Intel Mac OS X 10.15; rv:88.0) Gecko/20100101 Firefox/88.0,Macintosh,Firefox,88,OS X,10.15
33,1,4820,"""",html-keyboard-response,108,313374,0.0-108.0,"""","<img src='jspsych/CFDfaces/CFD-BF-008-001-N.jpg' height=""250px""></br><b>Samantha</b>","""",256,IntactFace,Memorization,78,5000,n,"""",CFD-BM-011-016-N.jpg,Dustin,0,"""","""","""",1,4/19/2021 23:10,73.119.56.57,Mozilla/5.0 (Macintosh; Intel Mac OS X 10.15; rv:88.0) Gecko/20100101 Firefox/88.0,Macintosh,Firefox,88,OS X,10.15
33,1,null,"""",html-keyboard-response,109,313878,0.0-109.0,"""","<div style=""font-size:60px;"">+</div>","""",256,fixation,Memorization,null,500,"""","""","""","""","""","""","""","""",1,4/19/2021 23:10,73.119.56.57,Mozilla/5.0 (Macintosh; Intel Mac OS X 10.15; rv:88.0) Gecko/20100101 Firefox/88.0,Macintosh,Firefox,88,OS X,10.15
33,1,2730,"""",html-keyboard-response,110,318891,0.0-110.0,"""","<img src='jspsych/CFDfaces/CFD-BM-211-174-N.jpg' height=""250px""></br><b>Christian</b>","""",256,IntactFace,Memorization,70,5000,f,"""",CFD-LF-232-199-N.jpg,Angela,0,"""","""","""",1,4/19/2021 23:10,73.119.56.57,Mozilla/5.0 (Macintosh; Intel Mac OS X 10.15; rv:88.0) Gecko/20100101 Firefox/88.0,Macintosh,Firefox,88,OS X,10.15
33,1,null,"""",html-keyboard-response,111,319395,0.0-111.0,"""","<div style=""font-size:60px;"">+</div>","""",256,fixation,Memorization,null,500,"""","""","""","""","""","""","""","""",1,4/19/2021 23:10,73.119.56.57,Mozilla/5.0 (Macintosh; Intel Mac OS X 10.15; rv:88.0) Gecko/20100101 Firefox/88.0,Macintosh,Firefox,88,OS X,10.15
33,1,4463,"""",html-keyboard-response,112,324408,0.0-112.0,"""","<img src='jspsych/CFDfaces/CFD-BM-010-003-N.jpg' height=""250px""></br><b>Daniel</b>","""",256,IntactFace,Memorization,78,5000,n,"""",CFD-AF-237-223-N.jpg,Tiffany,0,"""","""","""",1,4/19/2021 23:10,73.119.56.57,Mozilla/5.0 (Macintosh; Intel Mac OS X 10.15; rv:88.0) Gecko/20100101 Firefox/88.0,Macintosh,Firefox,88,OS X,10.15
33,1,null,"""",html-keyboard-response,113,324912,0.0-113.0,"""","<div style=""font-size:60px;"">+</div>","""",256,fixation,Memorization,null,500,"""","""","""","""","""","""","""","""",1,4/19/2021 23:10,73.119.56.57,Mozilla/5.0 (Macintosh; Intel Mac OS X 10.15; rv:88.0) Gecko/20100101 Firefox/88.0,Macintosh,Firefox,88,OS X,10.15
33,1,3500,"""",html-keyboard-response,114,329925,0.0-114.0,"""","<img src='jspsych/CFDfaces/CFD-LM-225-130-N.jpg' height=""250px""></br><b>Joshua</b>","""",256,IntactFace,Memorization,78,5000,n,"""",CFD-AM-246-184-N.jpg,Jeremy,0,"""","""","""",1,4/19/2021 23:10,73.119.56.57,Mozilla/5.0 (Macintosh; Intel Mac OS X 10.15; rv:88.0) Gecko/20100101 Firefox/88.0,Macintosh,Firefox,88,OS X,10.15
33,1,null,"""",html-keyboard-response,115,330429,0.0-115.0,"""","<div style=""font-size:60px;"">+</div>","""",256,fixation,Memorization,null,500,"""","""","""","""","""","""","""","""",1,4/19/2021 23:10,73.119.56.57,Mozilla/5.0 (Macintosh; Intel Mac OS X 10.15; rv:88.0) Gecko/20100101 Firefox/88.0,Macintosh,Firefox,88,OS X,10.15
33,1,3450,"""",html-keyboard-response,116,335441,0.0-116.0,"""","<img src='jspsych/CFDfaces/CFD-WM-022-001-N.jpg' height=""250px""></br><b>Richard</b>","""",256,IntactFace,Memorization,70,5000,f,"""",CFD-BM-032-024-N.jpg,Steven,0,"""","""","""",1,4/19/2021 23:10,73.119.56.57,Mozilla/5.0 (Macintosh; Intel Mac OS X 10.15; rv:88.0) Gecko/20100101 Firefox/88.0,Macintosh,Firefox,88,OS X,10.15
33,1,null,"""",html-keyboard-response,117,335946,0.0-117.0,"""","<div style=""font-size:60px;"">+</div>","""",256,fixation,Memorization,null,500,"""","""","""","""","""","""","""","""",1,4/19/2021 23:10,73.119.56.57,Mozilla/5.0 (Macintosh; Intel Mac OS X 10.15; rv:88.0) Gecko/20100101 Firefox/88.0,Macintosh,Firefox,88,OS X,10.15
33,1,3620,"""",html-keyboard-response,118,340959,0.0-118.0,"""","<img src='jspsych/CFDfaces/CFD-WF-024-003-N.jpg' height=""250px""></br><b>Julie</b>","""",256,IntactFace,Memorization,70,5000,f,"""",CFD-BM-017-021-N.jpg,Luis,0,"""","""","""",1,4/19/2021 23:10,73.119.56.57,Mozilla/5.0 (Macintosh; Intel Mac OS X 10.15; rv:88.0) Gecko/20100101 Firefox/88.0,Macintosh,Firefox,88,OS X,10.15
33,1,null,"""",html-keyboard-response,119,341466,0.0-119.0,"""","<div style=""font-size:60px;"">+</div>","""",256,fixation,Memorization,null,500,"""","""","""","""","""","""","""","""",1,4/19/2021 23:10,73.119.56.57,Mozilla/5.0 (Macintosh; Intel Mac OS X 10.15; rv:88.0) Gecko/20100101 Firefox/88.0,Macintosh,Firefox,88,OS X,10.15
33,1,3541,"""",html-keyboard-response,120,346478,0.0-120.0,"""","<img src='jspsych/CFDfaces/CFD-WF-029-002-N.jpg' height=""250px""></br><b>Kimberly</b>","""",256,IntactFace,Memorization,70,5000,f,"""",CFD-AM-242-176-N.jpg,Travis,0,"""","""","""",1,4/19/2021 23:10,73.119.56.57,Mozilla/5.0 (Macintosh; Intel Mac OS X 10.15; rv:88.0) Gecko/20100101 Firefox/88.0,Macintosh,Firefox,88,OS X,10.15
33,1,null,"""",html-keyboard-response,121,346986,0.0-121.0,"""","<div style=""font-size:60px;"">+</div>","""",256,fixation,Memorization,null,500,"""","""","""","""","""","""","""","""",1,4/19/2021 23:10,73.119.56.57,Mozilla/5.0 (Macintosh; Intel Mac OS X 10.15; rv:88.0) Gecko/20100101 Firefox/88.0,Macintosh,Firefox,88,OS X,10.15
33,1,2121,"""",html-keyboard-response,122,351996,0.0-122.0,"""","<img src='jspsych/CFDfaces/CFD-AM-248-104-N.jpg' height=""250px""></br><b>Ian</b>","""",256,IntactFace,Memorization,78,5000,n,"""",CFD-LF-230-203-N.jpg,Sara,0,"""","""","""",1,4/19/2021 23:10,73.119.56.57,Mozilla/5.0 (Macintosh; Intel Mac OS X 10.15; rv:88.0) Gecko/20100101 Firefox/88.0,Macintosh,Firefox,88,OS X,10.15
33,1,null,"""",html-keyboard-response,123,352500,0.0-123.0,"""","<div style=""font-size:60px;"">+</div>","""",256,fixation,Memorization,null,500,"""","""","""","""","""","""","""","""",1,4/19/2021 23:10,73.119.56.57,Mozilla/5.0 (Macintosh; Intel Mac OS X 10.15; rv:88.0) Gecko/20100101 Firefox/88.0,Macintosh,Firefox,88,OS X,10.15
33,1,2056,"""",html-keyboard-response,124,357512,0.0-124.0,"""","<img src='jspsych/CFDfaces/CFD-BM-029-024-N.jpg' height=""250px""></br><b>Brian</b>","""",256,IntactFace,Memorization,78,5000,n,"""",CFD-BF-019-001-N.jpg,Laura,0,"""","""","""",1,4/19/2021 23:10,73.119.56.57,Mozilla/5.0 (Macintosh; Intel Mac OS X 10.15; rv:88.0) Gecko/20100101 Firefox/88.0,Macintosh,Firefox,88,OS X,10.15
33,1,null,"""",html-keyboard-response,125,358019,0.0-125.0,"""","<div style=""font-size:60px;"">+</div>","""",256,fixation,Memorization,null,500,"""","""","""","""","""","""","""","""",1,4/19/2021 23:10,73.119.56.57,Mozilla/5.0 (Macintosh; Intel Mac OS X 10.15; rv:88.0) Gecko/20100101 Firefox/88.0,Macintosh,Firefox,88,OS X,10.15
33,1,1533,"""",html-keyboard-response,126,363032,0.0-126.0,"""","<img src='jspsych/CFDfaces/CFD-WM-017-002-N.jpg' height=""250px""></br><b>Juan</b>","""",256,IntactFace,Memorization,78,5000,n,"""",CFD-WF-019-005-N.jpg,Heather,0,"""","""","""",1,4/19/2021 23:10,73.119.56.57,Mozilla/5.0 (Macintosh; Intel Mac OS X 10.15; rv:88.0) Gecko/20100101 Firefox/88.0,Macintosh,Firefox,88,OS X,10.15
33,1,null,"""",html-keyboard-response,127,363540,0.0-127.0,"""","<div style=""font-size:60px;"">+</div>","""",256,fixation,Memorization,null,500,"""","""","""","""","""","""","""","""",1,4/19/2021 23:10,73.119.56.57,Mozilla/5.0 (Macintosh; Intel Mac OS X 10.15; rv:88.0) Gecko/20100101 Firefox/88.0,Macintosh,Firefox,88,OS X,10.15
33,1,4249,"""",html-keyboard-response,128,368552,0.0-128.0,"""","<img src='jspsych/CFDfaces/CFD-LF-220-120-N.jpg' height=""250px""></br><b>Ashley</b>","""",256,IntactFace,Memorization,70,5000,f,"""",CFD-AF-222-134-N.jpg,Rebecca,0,"""","""","""",1,4/19/2021 23:10,73.119.56.57,Mozilla/5.0 (Macintosh; Intel Mac OS X 10.15; rv:88.0) Gecko/20100101 Firefox/88.0,Macintosh,Firefox,88,OS X,10.15
33,1,null,"""",html-keyboard-response,129,369056,0.0-129.0,"""","<div style=""font-size:60px;"">+</div>","""",256,fixation,Memorization,null,500,"""","""","""","""","""","""","""","""",1,4/19/2021 23:10,73.119.56.57,Mozilla/5.0 (Macintosh; Intel Mac OS X 10.15; rv:88.0) Gecko/20100101 Firefox/88.0,Macintosh,Firefox,88,OS X,10.15
33,1,2444,"""",html-keyboard-response,130,374069,0.0-130.0,"""","<img src='jspsych/CFDfaces/CFD-AM-212-050-N.jpg' height=""250px""></br><b>Eric</b>","""",256,IntactFace,Memorization,70,5000,f,"""",CFD-LF-215-157-N.jpg,Taylor,0,"""","""","""",1,4/19/2021 23:10,73.119.56.57,Mozilla/5.0 (Macintosh; Intel Mac OS X 10.15; rv:88.0) Gecko/20100101 Firefox/88.0,Macintosh,Firefox,88,OS X,10.15
33,1,null,"""",html-keyboard-response,131,374576,0.0-131.0,"""","<div style=""font-size:60px;"">+</div>","""",256,fixation,Memorization,null,500,"""","""","""","""","""","""","""","""",1,4/19/2021 23:10,73.119.56.57,Mozilla/5.0 (Macintosh; Intel Mac OS X 10.15; rv:88.0) Gecko/20100101 Firefox/88.0,Macintosh,Firefox,88,OS X,10.15
33,1,2204,"""",html-keyboard-response,132,379588,0.0-132.0,"""","<img src='jspsych/CFDfaces/CFD-BM-027-001-N.jpg' height=""250px""></br><b>James</b>","""",256,IntactFace,Memorization,78,5000,n,"""",CFD-BM-208-065-N.jpg,Ryan,0,"""","""","""",1,4/19/2021 23:10,73.119.56.57,Mozilla/5.0 (Macintosh; Intel Mac OS X 10.15; rv:88.0) Gecko/20100101 Firefox/88.0,Macintosh,Firefox,88,OS X,10.15
33,1,null,"""",html-keyboard-response,133,380097,0.0-133.0,"""","<div style=""font-size:60px;"">+</div>","""",256,fixation,Memorization,null,500,"""","""","""","""","""","""","""","""",1,4/19/2021 23:10,73.119.56.57,Mozilla/5.0 (Macintosh; Intel Mac OS X 10.15; rv:88.0) Gecko/20100101 Firefox/88.0,Macintosh,Firefox,88,OS X,10.15
33,1,1801,"""",html-keyboard-response,134,385108,0.0-134.0,"""","<img src='jspsych/CFDfaces/CFD-LM-201-057-N.jpg' height=""250px""></br><b>Peter</b>","""",256,IntactFace,Memorization,70,5000,f,"""",CFD-WM-019-003-N.jpg,Justin,0,"""","""","""",1,4/19/2021 23:10,73.119.56.57,Mozilla/5.0 (Macintosh; Intel Mac OS X 10.15; rv:88.0) Gecko/20100101 Firefox/88.0,Macintosh,Firefox,88,OS X,10.15
33,1,null,"""",html-keyboard-response,135,385616,0.0-135.0,"""","<div style=""font-size:60px;"">+</div>","""",256,fixation,Memorization,null,500,"""","""","""","""","""","""","""","""",1,4/19/2021 23:10,73.119.56.57,Mozilla/5.0 (Macintosh; Intel Mac OS X 10.15; rv:88.0) Gecko/20100101 Firefox/88.0,Macintosh,Firefox,88,OS X,10.15
33,1,4285,"""",html-keyboard-response,136,390630,0.0-136.0,"""","<img src='jspsych/CFDfaces/CFD-BF-005-001-N.jpg' height=""250px""></br><b>Meghan</b>","""",256,IntactFace,Memorization,70,5000,f,"""",CFD-LM-217-162-N.jpg,Sean,0,"""","""","""",1,4/19/2021 23:10,73.119.56.57,Mozilla/5.0 (Macintosh; Intel Mac OS X 10.15; rv:88.0) Gecko/20100101 Firefox/88.0,Macintosh,Firefox,88,OS X,10.15
33,1,null,"""",html-keyboard-response,137,391137,0.0-137.0,"""","<div style=""font-size:60px;"">+</div>","""",256,fixation,Memorization,null,500,"""","""","""","""","""","""","""","""",1,4/19/2021 23:10,73.119.56.57,Mozilla/5.0 (Macintosh; Intel Mac OS X 10.15; rv:88.0) Gecko/20100101 Firefox/88.0,Macintosh,Firefox,88,OS X,10.15
33,1,2408,"""",html-keyboard-response,138,396146,0.0-138.0,"""","<img src='jspsych/CFDfaces/CFD-BF-047-003-N.jpg' height=""250px""></br><b>Stephanie</b>","""",256,IntactFace,Memorization,78,5000,n,"""",CFD-LM-213-061-N.jpg,Vincent,0,"""","""","""",1,4/19/2021 23:10,73.119.56.57,Mozilla/5.0 (Macintosh; Intel Mac OS X 10.15; rv:88.0) Gecko/20100101 Firefox/88.0,Macintosh,Firefox,88,OS X,10.15
33,1,null,"""",html-keyboard-response,139,396658,0.0-139.0,"""","<div style=""font-size:60px;"">+</div>","""",256,fixation,Memorization,null,500,"""","""","""","""","""","""","""","""",1,4/19/2021 23:10,73.119.56.57,Mozilla/5.0 (Macintosh; Intel Mac OS X 10.15; rv:88.0) Gecko/20100101 Firefox/88.0,Macintosh,Firefox,88,OS X,10.15
33,1,2843,"""",html-keyboard-response,140,401665,0.0-140.0,"""","<img src='jspsych/CFDfaces/CFD-AM-243-212-N.jpg' height=""250px""></br><b>Nicholas</b>","""",256,IntactFace,Memorization,78,5000,n,"""",CFD-AF-241-141-N.jpg,Whitney,0,"""","""","""",1,4/19/2021 23:10,73.119.56.57,Mozilla/5.0 (Macintosh; Intel Mac OS X 10.15; rv:88.0) Gecko/20100101 Firefox/88.0,Macintosh,Firefox,88,OS X,10.15
33,1,null,"""",html-keyboard-response,141,402180,0.0-141.0,"""","<div style=""font-size:60px;"">+</div>","""",256,fixation,Memorization,null,500,"""","""","""","""","""","""","""","""",1,4/19/2021 23:10,73.119.56.57,Mozilla/5.0 (Macintosh; Intel Mac OS X 10.15; rv:88.0) Gecko/20100101 Firefox/88.0,Macintosh,Firefox,88,OS X,10.15
33,1,1759,"""",html-keyboard-response,142,407188,0.0-142.0,"""","<img src='jspsych/CFDfaces/CFD-WF-220-101-N.jpg' height=""250px""></br><b>Vanessa</b>","""",256,IntactFace,Memorization,70,5000,f,"""",CFD-LF-208-127-N.jpg,Jordan,0,"""","""","""",1,4/19/2021 23:10,73.119.56.57,Mozilla/5.0 (Macintosh; Intel Mac OS X 10.15; rv:88.0) Gecko/20100101 Firefox/88.0,Macintosh,Firefox,88,OS X,10.15
33,1,null,"""",html-keyboard-response,143,407703,0.0-143.0,"""","<div style=""font-size:60px;"">+</div>","""",256,fixation,Memorization,null,500,"""","""","""","""","""","""","""","""",1,4/19/2021 23:10,73.119.56.57,Mozilla/5.0 (Macintosh; Intel Mac OS X 10.15; rv:88.0) Gecko/20100101 Firefox/88.0,Macintosh,Firefox,88,OS X,10.15
33,1,2280,"""",html-keyboard-response,144,412710,0.0-144.0,"""","<img src='jspsych/CFDfaces/CFD-BM-207-024-N.jpg' height=""250px""></br><b>Gregory</b>","""",256,IntactFace,Memorization,78,5000,n,"""",CFD-AM-231-136-N.jpg,Kenneth,0,"""","""","""",1,4/19/2021 23:10,73.119.56.57,Mozilla/5.0 (Macintosh; Intel Mac OS X 10.15; rv:88.0) Gecko/20100101 Firefox/88.0,Macintosh,Firefox,88,OS X,10.15
33,1,null,"""",html-keyboard-response,145,413224,0.0-145.0,"""","<div style=""font-size:60px;"">+</div>","""",256,fixation,Memorization,null,500,"""","""","""","""","""","""","""","""",1,4/19/2021 23:10,73.119.56.57,Mozilla/5.0 (Macintosh; Intel Mac OS X 10.15; rv:88.0) Gecko/20100101 Firefox/88.0,Macintosh,Firefox,88,OS X,10.15
33,1,2474,"""",html-keyboard-response,146,418233,0.0-146.0,"""","<img src='jspsych/CFDfaces/CFD-AF-215-70-N.jpg' height=""250px""></br><b>Brittany</b>","""",256,IntactFace,Memorization,78,5000,n,"""",CFD-BF-010-001-N.jpg,Jenna,0,"""","""","""",1,4/19/2021 23:10,73.119.56.57,Mozilla/5.0 (Macintosh; Intel Mac OS X 10.15; rv:88.0) Gecko/20100101 Firefox/88.0,Macintosh,Firefox,88,OS X,10.15
33,1,null,"""",html-keyboard-response,147,418747,0.0-147.0,"""","<div style=""font-size:60px;"">+</div>","""",256,fixation,Memorization,null,500,"""","""","""","""","""","""","""","""",1,4/19/2021 23:10,73.119.56.57,Mozilla/5.0 (Macintosh; Intel Mac OS X 10.15; rv:88.0) Gecko/20100101 Firefox/88.0,Macintosh,Firefox,88,OS X,10.15
33,1,1987,"""",html-keyboard-response,148,423755,0.0-148.0,"""","<img src='jspsych/CFDfaces/CFD-BF-226-119-N.jpg' height=""250px""></br><b>Victoria</b>","""",256,IntactFace,Memorization,70,5000,f,"""",CFD-LF-236-221-N.jpg,Melissa,0,"""","""","""",1,4/19/2021 23:10,73.119.56.57,Mozilla/5.0 (Macintosh; Intel Mac OS X 10.15; rv:88.0) Gecko/20100101 Firefox/88.0,Macintosh,Firefox,88,OS X,10.15
33,1,null,"""",html-keyboard-response,149,424267,0.0-149.0,"""","<div style=""font-size:60px;"">+</div>","""",256,fixation,Memorization,null,500,"""","""","""","""","""","""","""","""",1,4/19/2021 23:10,73.119.56.57,Mozilla/5.0 (Macintosh; Intel Mac OS X 10.15; rv:88.0) Gecko/20100101 Firefox/88.0,Macintosh,Firefox,88,OS X,10.15
33,1,2663,"""",html-keyboard-response,150,429275,0.0-150.0,"""","<img src='jspsych/CFDfaces/CFD-LF-202-065-N.jpg' height=""250px""></br><b>Christina</b>","""",256,IntactFace,Memorization,70,5000,f,"""",CFD-WM-216-061-N.jpg,Jesse,0,"""","""","""",1,4/19/2021 23:10,73.119.56.57,Mozilla/5.0 (Macintosh; Intel Mac OS X 10.15; rv:88.0) Gecko/20100101 Firefox/88.0,Macintosh,Firefox,88,OS X,10.15
33,1,null,"""",html-keyboard-response,151,429787,0.0-151.0,"""","<div style=""font-size:60px;"">+</div>","""",256,fixation,Memorization,null,500,"""","""","""","""","""","""","""","""",1,4/19/2021 23:10,73.119.56.57,Mozilla/5.0 (Macintosh; Intel Mac OS X 10.15; rv:88.0) Gecko/20100101 Firefox/88.0,Macintosh,Firefox,88,OS X,10.15
33,1,2300,"""",html-keyboard-response,152,434794,0.0-152.0,"""","<img src='jspsych/CFDfaces/CFD-BM-001-014-N.jpg' height=""250px""></br><b>Brandon</b>","""",256,IntactFace,Memorization,78,5000,n,"""",CFD-LM-234-176-N.jpg,Cameron,0,"""","""","""",1,4/19/2021 23:10,73.119.56.57,Mozilla/5.0 (Macintosh; Intel Mac OS X 10.15; rv:88.0) Gecko/20100101 Firefox/88.0,Macintosh,Firefox,88,OS X,10.15
33,1,null,"""",html-keyboard-response,153,435312,0.0-153.0,"""","<div style=""font-size:60px;"">+</div>","""",256,fixation,Memorization,null,500,"""","""","""","""","""","""","""","""",1,4/19/2021 23:10,73.119.56.57,Mozilla/5.0 (Macintosh; Intel Mac OS X 10.15; rv:88.0) Gecko/20100101 Firefox/88.0,Macintosh,Firefox,88,OS X,10.15
33,1,3711,"""",html-keyboard-response,154,439029,0.0-154.0,"""",Press Any Key to Begin Memory Test,"""",1,welcomeScreen,Break,32,"""","""","""","""","""","""","""","""","""",1,4/19/2021 23:10,73.119.56.57,Mozilla/5.0 (Macintosh; Intel Mac OS X 10.15; rv:88.0) Gecko/20100101 Firefox/88.0,Macintosh,Firefox,88,OS X,10.15
33,1,null,"""",html-keyboard-response,155,440039,0.0-155.0,"""","<div style=""font-size:60px;"">+</div>","""",256,ITI,Test,null,1000,"""","""","""","""","""","""","""","""",1,4/19/2021 23:10,73.119.56.57,Mozilla/5.0 (Macintosh; Intel Mac OS X 10.15; rv:88.0) Gecko/20100101 Firefox/88.0,Macintosh,Firefox,88,OS X,10.15
33,1,null,"""",image-keyboard-response,156,440303,0.0-156.0,"""",jspsych/scrambledDisgustFaces/scrambledBM09DIS.JPG,"""",256,forwardMask,Test,null,250,"""",d,"""","""","""","""","""","""",1,4/19/2021 23:10,73.119.56.57,Mozilla/5.0 (Macintosh; Intel Mac OS X 10.15; rv:88.0) Gecko/20100101 Firefox/88.0,Macintosh,Firefox,88,OS X,10.15
33,1,null,"""",image-keyboard-response,157,440338,0.0-157.0,"""",jspsych/disgustFaces/BM10DIS.JPG,"""",256,Cue,Test,null,16,"""","""","""","""","""","""","""","""",1,4/19/2021 23:10,73.119.56.57,Mozilla/5.0 (Macintosh; Intel Mac OS X 10.15; rv:88.0) Gecko/20100101 Firefox/88.0,Macintosh,Firefox,88,OS X,10.15
33,1,null,"""",image-keyboard-response,158,440447,0.0-158.0,"""",jspsych/neutralFaces/BM01NES.JPG,"""",256,backwardMask,Test,null,100,"""","""","""","""","""","""","""","""",1,4/19/2021 23:10,73.119.56.57,Mozilla/5.0 (Macintosh; Intel Mac OS X 10.15; rv:88.0) Gecko/20100101 Firefox/88.0,Macintosh,Firefox,88,OS X,10.15
33,1,null,"""",html-keyboard-response,159,441456,0.0-159.0,"""","<div style=""font-size:60px;"">+</div>","""",256,fixationBtwnNeutralMaskAndPrompt,Test,null,1000,"""","""","""","""","""","""","""","""",1,4/19/2021 23:10,73.119.56.57,Mozilla/5.0 (Macintosh; Intel Mac OS X 10.15; rv:88.0) Gecko/20100101 Firefox/88.0,Macintosh,Firefox,88,OS X,10.15
33,1,3507,"""",html-button-response,160,444967,0.0-160.0,"""","<img src='jspsych/CFDfaces/CFD-BF-008-001-N.jpg' height=""250px"">,</br><b>Samantha</b>",0,256,IntactOrRearranged,Test,"""","""","""","""",CFD-LF-236-221-N.jpg,Melissa,0,"""","""",0,1,4/19/2021 23:10,73.119.56.57,Mozilla/5.0 (Macintosh; Intel Mac OS X 10.15; rv:88.0) Gecko/20100101 Firefox/88.0,Macintosh,Firefox,88,OS X,10.15
33,1,3306,"""",html-slider-response,161,448278,0.0-161.0,"""","<img src='jspsych/CFDfaces/CFD-BF-008-001-N.jpg' height=""250px"">,</br><b>Samantha</b>","""",256,ConfidenceQuery,Test,"""","""","""","""",CFD-LF-236-221-N.jpg,Melissa,0,0,97,"""",1,4/19/2021 23:10,73.119.56.57,Mozilla/5.0 (Macintosh; Intel Mac OS X 10.15; rv:88.0) Gecko/20100101 Firefox/88.0,Macintosh,Firefox,88,OS X,10.15
33,1,null,"""",html-keyboard-response,162,449294,0.0-162.0,"""","<div style=""font-size:60px;"">+</div>","""",256,ITI,Test,null,1000,"""","""","""","""","""","""","""","""",1,4/19/2021 23:10,73.119.56.57,Mozilla/5.0 (Macintosh; Intel Mac OS X 10.15; rv:88.0) Gecko/20100101 Firefox/88.0,Macintosh,Firefox,88,OS X,10.15
33,1,null,"""",image-keyboard-response,163,449553,0.0-163.0,"""",jspsych/scrambledNeutralFaces/scrambledBF12NES.JPG,"""",256,forwardMask,Test,null,250,"""",n,"""","""","""","""","""","""",1,4/19/2021 23:10,73.119.56.57,Mozilla/5.0 (Macintosh; Intel Mac OS X 10.15; rv:88.0) Gecko/20100101 Firefox/88.0,Macintosh,Firefox,88,OS X,10.15
33,1,null,"""",image-keyboard-response,164,449580,0.0-164.0,"""",jspsych/neutralFaces/BF12NES.JPG,"""",256,Cue,Test,null,16,"""","""","""","""","""","""","""","""",1,4/19/2021 23:10,73.119.56.57,Mozilla/5.0 (Macintosh; Intel Mac OS X 10.15; rv:88.0) Gecko/20100101 Firefox/88.0,Macintosh,Firefox,88,OS X,10.15
33,1,null,"""",image-keyboard-response,165,449690,0.0-165.0,"""",jspsych/neutralFaces/AF34NES.JPG,"""",256,backwardMask,Test,null,100,"""","""","""","""","""","""","""","""",1,4/19/2021 23:10,73.119.56.57,Mozilla/5.0 (Macintosh; Intel Mac OS X 10.15; rv:88.0) Gecko/20100101 Firefox/88.0,Macintosh,Firefox,88,OS X,10.15
33,1,null,"""",html-keyboard-response,166,450696,0.0-166.0,"""","<div style=""font-size:60px;"">+</div>","""",256,fixationBtwnNeutralMaskAndPrompt,Test,null,1000,"""","""","""","""","""","""","""","""",1,4/19/2021 23:10,73.119.56.57,Mozilla/5.0 (Macintosh; Intel Mac OS X 10.15; rv:88.0) Gecko/20100101 Firefox/88.0,Macintosh,Firefox,88,OS X,10.15
33,1,3639,"""",html-button-response,167,454337,0.0-167.0,"""","<img src='jspsych/CFDfaces/CFD-WM-022-001-N.jpg' height=""250px"">,</br><b>Christian</b>",1,256,IntactOrRearranged,Test,"""","""","""","""",CFD-AF-203-077-N.jpg,Amy,1,"""","""",1,1,4/19/2021 23:10,73.119.56.57,Mozilla/5.0 (Macintosh; Intel Mac OS X 10.15; rv:88.0) Gecko/20100101 Firefox/88.0,Macintosh,Firefox,88,OS X,10.15
33,1,2536,"""",html-slider-response,168,456884,0.0-168.0,"""","<img src='jspsych/CFDfaces/CFD-WM-022-001-N.jpg' height=""250px"">,</br><b>Christian</b>","""",256,ConfidenceQuery,Test,"""","""","""","""",CFD-AF-203-077-N.jpg,Amy,1,0,100,"""",1,4/19/2021 23:10,73.119.56.57,Mozilla/5.0 (Macintosh; Intel Mac OS X 10.15; rv:88.0) Gecko/20100101 Firefox/88.0,Macintosh,Firefox,88,OS X,10.15
33,1,null,"""",html-keyboard-response,169,457892,0.0-169.0,"""","<div style=""font-size:60px;"">+</div>","""",256,ITI,Test,null,1000,"""","""","""","""","""","""","""","""",1,4/19/2021 23:10,73.119.56.57,Mozilla/5.0 (Macintosh; Intel Mac OS X 10.15; rv:88.0) Gecko/20100101 Firefox/88.0,Macintosh,Firefox,88,OS X,10.15
33,1,null,"""",image-keyboard-response,170,458153,0.0-170.0,"""",jspsych/scrambledDisgustFaces/scrambledBF33DIS.JPG,"""",256,forwardMask,Test,null,250,"""",d,"""","""","""","""","""","""",1,4/19/2021 23:10,73.119.56.57,Mozilla/5.0 (Macintosh; Intel Mac OS X 10.15; rv:88.0) Gecko/20100101 Firefox/88.0,Macintosh,Firefox,88,OS X,10.15
33,1,null,"""",image-keyboard-response,171,458178,0.0-171.0,"""",jspsych/disgustFaces/BF33DIS.JPG,"""",256,Cue,Test,null,16,"""","""","""","""","""","""","""","""",1,4/19/2021 23:10,73.119.56.57,Mozilla/5.0 (Macintosh; Intel Mac OS X 10.15; rv:88.0) Gecko/20100101 Firefox/88.0,Macintosh,Firefox,88,OS X,10.15
33,1,null,"""",image-keyboard-response,172,458291,0.0-172.0,"""",jspsych/neutralFaces/BF16NES.JPG,"""",256,backwardMask,Test,null,100,"""","""","""","""","""","""","""","""",1,4/19/2021 23:10,73.119.56.57,Mozilla/5.0 (Macintosh; Intel Mac OS X 10.15; rv:88.0) Gecko/20100101 Firefox/88.0,Macintosh,Firefox,88,OS X,10.15
33,1,null,"""",html-keyboard-response,173,459295,0.0-173.0,"""","<div style=""font-size:60px;"">+</div>","""",256,fixationBtwnNeutralMaskAndPrompt,Test,null,1000,"""","""","""","""","""","""","""","""",1,4/19/2021 23:10,73.119.56.57,Mozilla/5.0 (Macintosh; Intel Mac OS X 10.15; rv:88.0) Gecko/20100101 Firefox/88.0,Macintosh,Firefox,88,OS X,10.15
33,1,4769,"""",html-button-response,174,464068,0.0-174.0,"""","<img src='jspsych/CFDfaces/CFD-BF-005-001-N.jpg' height=""250px"">,</br><b>Meghan</b>",1,256,IntactOrRearranged,Test,"""","""","""","""",CFD-BM-011-016-N.jpg,Dustin,0,"""","""",1,1,4/19/2021 23:10,73.119.56.57,Mozilla/5.0 (Macintosh; Intel Mac OS X 10.15; rv:88.0) Gecko/20100101 Firefox/88.0,Macintosh,Firefox,88,OS X,10.15
33,1,1955,"""",html-slider-response,175,466035,0.0-175.0,"""","<img src='jspsych/CFDfaces/CFD-BF-005-001-N.jpg' height=""250px"">,</br><b>Meghan</b>","""",256,ConfidenceQuery,Test,"""","""","""","""",CFD-BM-011-016-N.jpg,Dustin,0,0,61,"""",1,4/19/2021 23:10,73.119.56.57,Mozilla/5.0 (Macintosh; Intel Mac OS X 10.15; rv:88.0) Gecko/20100101 Firefox/88.0,Macintosh,Firefox,88,OS X,10.15
33,1,null,"""",html-keyboard-response,176,467043,0.0-176.0,"""","<div style=""font-size:60px;"">+</div>","""",256,ITI,Test,null,1000,"""","""","""","""","""","""","""","""",1,4/19/2021 23:10,73.119.56.57,Mozilla/5.0 (Macintosh; Intel Mac OS X 10.15; rv:88.0) Gecko/20100101 Firefox/88.0,Macintosh,Firefox,88,OS X,10.15
33,1,null,"""",image-keyboard-response,177,467305,0.0-177.0,"""",jspsych/scrambledDisgustFaces/scrambledAF16DIS.JPG,"""",256,forwardMask,Test,null,250,"""",d,"""","""","""","""","""","""",1,4/19/2021 23:10,73.119.56.57,Mozilla/5.0 (Macintosh; Intel Mac OS X 10.15; rv:88.0) Gecko/20100101 Firefox/88.0,Macintosh,Firefox,88,OS X,10.15
33,1,null,"""",image-keyboard-response,178,467332,0.0-178.0,"""",jspsych/disgustFaces/AF16DIS.JPG,"""",256,Cue,Test,null,16,"""","""","""","""","""","""","""","""",1,4/19/2021 23:10,73.119.56.57,Mozilla/5.0 (Macintosh; Intel Mac OS X 10.15; rv:88.0) Gecko/20100101 Firefox/88.0,Macintosh,Firefox,88,OS X,10.15
33,1,null,"""",image-keyboard-response,179,467442,0.0-179.0,"""",jspsych/neutralFaces/BF29NES.JPG,"""",256,backwardMask,Test,null,100,"""","""","""","""","""","""","""","""",1,4/19/2021 23:10,73.119.56.57,Mozilla/5.0 (Macintosh; Intel Mac OS X 10.15; rv:88.0) Gecko/20100101 Firefox/88.0,Macintosh,Firefox,88,OS X,10.15
33,1,null,"""",html-keyboard-response,180,468444,0.0-180.0,"""","<div style=""font-size:60px;"">+</div>","""",256,fixationBtwnNeutralMaskAndPrompt,Test,null,1000,"""","""","""","""","""","""","""","""",1,4/19/2021 23:10,73.119.56.57,Mozilla/5.0 (Macintosh; Intel Mac OS X 10.15; rv:88.0) Gecko/20100101 Firefox/88.0,Macintosh,Firefox,88,OS X,10.15
33,1,4436,"""",html-button-response,181,472883,0.0-181.0,"""","<img src='jspsych/CFDfaces/CFD-AF-228-173-N.jpg' height=""250px"">,</br><b>Kimberly</b>",0,256,IntactOrRearranged,Test,"""","""","""","""",CFD-BM-208-065-N.jpg,Cameron,1,"""","""",0,1,4/19/2021 23:10,73.119.56.57,Mozilla/5.0 (Macintosh; Intel Mac OS X 10.15; rv:88.0) Gecko/20100101 Firefox/88.0,Macintosh,Firefox,88,OS X,10.15
33,1,2744,"""",html-slider-response,182,475638,0.0-182.0,"""","<img src='jspsych/CFDfaces/CFD-AF-228-173-N.jpg' height=""250px"">,</br><b>Kimberly</b>","""",256,ConfidenceQuery,Test,"""","""","""","""",CFD-BM-208-065-N.jpg,Cameron,1,0,65,"""",1,4/19/2021 23:10,73.119.56.57,Mozilla/5.0 (Macintosh; Intel Mac OS X 10.15; rv:88.0) Gecko/20100101 Firefox/88.0,Macintosh,Firefox,88,OS X,10.15
33,1,null,"""",html-keyboard-response,183,476644,0.0-183.0,"""","<div style=""font-size:60px;"">+</div>","""",256,ITI,Test,null,1000,"""","""","""","""","""","""","""","""",1,4/19/2021 23:10,73.119.56.57,Mozilla/5.0 (Macintosh; Intel Mac OS X 10.15; rv:88.0) Gecko/20100101 Firefox/88.0,Macintosh,Firefox,88,OS X,10.15
33,1,null,"""",image-keyboard-response,184,476906,0.0-184.0,"""",jspsych/scrambledNeutralFaces/scrambledAM30NES.JPG,"""",256,forwardMask,Test,null,250,"""",n,"""","""","""","""","""","""",1,4/19/2021 23:10,73.119.56.57,Mozilla/5.0 (Macintosh; Intel Mac OS X 10.15; rv:88.0) Gecko/20100101 Firefox/88.0,Macintosh,Firefox,88,OS X,10.15
33,1,null,"""",image-keyboard-response,185,476929,0.0-185.0,"""",jspsych/neutralFaces/AM30NES.JPG,"""",256,Cue,Test,null,16,"""","""","""","""","""","""","""","""",1,4/19/2021 23:10,73.119.56.57,Mozilla/5.0 (Macintosh; Intel Mac OS X 10.15; rv:88.0) Gecko/20100101 Firefox/88.0,Macintosh,Firefox,88,OS X,10.15
33,1,null,"""",image-keyboard-response,186,477037,0.0-186.0,"""",jspsych/neutralFaces/AM17NES.JPG,"""",256,backwardMask,Test,null,100,"""","""","""","""","""","""","""","""",1,4/19/2021 23:10,73.119.56.57,Mozilla/5.0 (Macintosh; Intel Mac OS X 10.15; rv:88.0) Gecko/20100101 Firefox/88.0,Macintosh,Firefox,88,OS X,10.15
33,1,null,"""",html-keyboard-response,187,478045,0.0-187.0,"""","<div style=""font-size:60px;"">+</div>","""",256,fixationBtwnNeutralMaskAndPrompt,Test,null,1000,"""","""","""","""","""","""","""","""",1,4/19/2021 23:10,73.119.56.57,Mozilla/5.0 (Macintosh; Intel Mac OS X 10.15; rv:88.0) Gecko/20100101 Firefox/88.0,Macintosh,Firefox,88,OS X,10.15
33,1,2745,"""",html-button-response,188,480793,0.0-188.0,"""","<img src='jspsych/CFDfaces/CFD-LF-220-120-N.jpg' height=""250px"">,</br><b>Elizabeth</b>",1,256,IntactOrRearranged,Test,"""","""","""","""",CFD-AM-231-136-N.jpg,Jeremy,1,"""","""",1,1,4/19/2021 23:10,73.119.56.57,Mozilla/5.0 (Macintosh; Intel Mac OS X 10.15; rv:88.0) Gecko/20100101 Firefox/88.0,Macintosh,Firefox,88,OS X,10.15
33,1,2541,"""",html-slider-response,189,483345,0.0-189.0,"""","<img src='jspsych/CFDfaces/CFD-LF-220-120-N.jpg' height=""250px"">,</br><b>Elizabeth</b>","""",256,ConfidenceQuery,Test,"""","""","""","""",CFD-AM-231-136-N.jpg,Jeremy,1,0,77,"""",1,4/19/2021 23:10,73.119.56.57,Mozilla/5.0 (Macintosh; Intel Mac OS X 10.15; rv:88.0) Gecko/20100101 Firefox/88.0,Macintosh,Firefox,88,OS X,10.15
33,1,null,"""",html-keyboard-response,190,484354,0.0-190.0,"""","<div style=""font-size:60px;"">+</div>","""",256,ITI,Test,null,1000,"""","""","""","""","""","""","""","""",1,4/19/2021 23:10,73.119.56.57,Mozilla/5.0 (Macintosh; Intel Mac OS X 10.15; rv:88.0) Gecko/20100101 Firefox/88.0,Macintosh,Firefox,88,OS X,10.15
33,1,null,"""",image-keyboard-response,191,484613,0.0-191.0,"""",jspsych/scrambledDisgustFaces/scrambledAF34DIS.JPG,"""",256,forwardMask,Test,null,250,"""",d,"""","""","""","""","""","""",1,4/19/2021 23:10,73.119.56.57,Mozilla/5.0 (Macintosh; Intel Mac OS X 10.15; rv:88.0) Gecko/20100101 Firefox/88.0,Macintosh,Firefox,88,OS X,10.15
33,1,null,"""",image-keyboard-response,192,484639,0.0-192.0,"""",jspsych/disgustFaces/AF34DIS.JPG,"""",256,Cue,Test,null,16,"""","""","""","""","""","""","""","""",1,4/19/2021 23:10,73.119.56.57,Mozilla/5.0 (Macintosh; Intel Mac OS X 10.15; rv:88.0) Gecko/20100101 Firefox/88.0,Macintosh,Firefox,88,OS X,10.15
33,1,null,"""",image-keyboard-response,193,484745,0.0-193.0,"""",jspsych/neutralFaces/AF13NES.JPG,"""",256,backwardMask,Test,null,100,"""","""","""","""","""","""","""","""",1,4/19/2021 23:10,73.119.56.57,Mozilla/5.0 (Macintosh; Intel Mac OS X 10.15; rv:88.0) Gecko/20100101 Firefox/88.0,Macintosh,Firefox,88,OS X,10.15
33,1,null,"""",html-keyboard-response,194,485753,0.0-194.0,"""","<div style=""font-size:60px;"">+</div>","""",256,fixationBtwnNeutralMaskAndPrompt,Test,null,1000,"""","""","""","""","""","""","""","""",1,4/19/2021 23:10,73.119.56.57,Mozilla/5.0 (Macintosh; Intel Mac OS X 10.15; rv:88.0) Gecko/20100101 Firefox/88.0,Macintosh,Firefox,88,OS X,10.15
33,1,null,"""",html-button-response,195,490758,0.0-195.0,"""","<img src='jspsych/CFDfaces/CFD-BF-226-119-N.jpg' height=""250px"">,</br><b>Ashley</b>",null,256,IntactOrRearranged,Test,"""","""","""","""",CFD-LM-217-162-N.jpg,Sean,1,"""","""","""",1,4/19/2021 23:10,73.119.56.57,Mozilla/5.0 (Macintosh; Intel Mac OS X 10.15; rv:88.0) Gecko/20100101 Firefox/88.0,Macintosh,Firefox,88,OS X,10.15
33,1,2309,"""",html-slider-response,196,493072,0.0-196.0,"""","<img src='jspsych/CFDfaces/CFD-BF-226-119-N.jpg' height=""250px"">,</br><b>Ashley</b>","""",256,ConfidenceQuery,Test,"""","""","""","""",CFD-LM-217-162-N.jpg,Sean,1,0,87,"""",1,4/19/2021 23:10,73.119.56.57,Mozilla/5.0 (Macintosh; Intel Mac OS X 10.15; rv:88.0) Gecko/20100101 Firefox/88.0,Macintosh,Firefox,88,OS X,10.15
33,1,null,"""",html-keyboard-response,197,494084,0.0-197.0,"""","<div style=""font-size:60px;"">+</div>","""",256,ITI,Test,null,1000,"""","""","""","""","""","""","""","""",1,4/19/2021 23:10,73.119.56.57,Mozilla/5.0 (Macintosh; Intel Mac OS X 10.15; rv:88.0) Gecko/20100101 Firefox/88.0,Macintosh,Firefox,88,OS X,10.15
33,1,null,"""",image-keyboard-response,198,494346,0.0-198.0,"""",jspsych/scrambledDisgustFaces/scrambledAM10DIS.JPG,"""",256,forwardMask,Test,null,250,"""",d,"""","""","""","""","""","""",1,4/19/2021 23:10,73.119.56.57,Mozilla/5.0 (Macintosh; Intel Mac OS X 10.15; rv:88.0) Gecko/20100101 Firefox/88.0,Macintosh,Firefox,88,OS X,10.15
33,1,null,"""",image-keyboard-response,199,494372,0.0-199.0,"""",jspsych/disgustFaces/AM10DIS.JPG,"""",256,Cue,Test,null,16,"""","""","""","""","""","""","""","""",1,4/19/2021 23:10,73.119.56.57,Mozilla/5.0 (Macintosh; Intel Mac OS X 10.15; rv:88.0) Gecko/20100101 Firefox/88.0,Macintosh,Firefox,88,OS X,10.15
33,1,null,"""",image-keyboard-response,200,494479,0.0-200.0,"""",jspsych/neutralFaces/BM34NES.JPG,"""",256,backwardMask,Test,null,100,"""","""","""","""","""","""","""","""",1,4/19/2021 23:10,73.119.56.57,Mozilla/5.0 (Macintosh; Intel Mac OS X 10.15; rv:88.0) Gecko/20100101 Firefox/88.0,Macintosh,Firefox,88,OS X,10.15
33,1,null,"""",html-keyboard-response,201,495487,0.0-201.0,"""","<div style=""font-size:60px;"">+</div>","""",256,fixationBtwnNeutralMaskAndPrompt,Test,null,1000,"""","""","""","""","""","""","""","""",1,4/19/2021 23:10,73.119.56.57,Mozilla/5.0 (Macintosh; Intel Mac OS X 10.15; rv:88.0) Gecko/20100101 Firefox/88.0,Macintosh,Firefox,88,OS X,10.15
33,1,2960,"""",html-button-response,202,498453,0.0-202.0,"""","<img src='jspsych/CFDfaces/CFD-BM-207-024-N.jpg' height=""250px"">,</br><b>Daniel</b>",0,256,IntactOrRearranged,Test,"""","""","""","""",CFD-BF-221-223-N.jpg,Jordan,1,"""","""",0,1,4/19/2021 23:10,73.119.56.57,Mozilla/5.0 (Macintosh; Intel Mac OS X 10.15; rv:88.0) Gecko/20100101 Firefox/88.0,Macintosh,Firefox,88,OS X,10.15
33,1,null,"""",html-slider-response,203,503463,0.0-203.0,"""","<img src='jspsych/CFDfaces/CFD-BM-207-024-N.jpg' height=""250px"">,</br><b>Daniel</b>","""",256,ConfidenceQuery,Test,"""","""","""","""",CFD-BF-221-223-N.jpg,Jordan,1,0,null,"""",1,4/19/2021 23:10,73.119.56.57,Mozilla/5.0 (Macintosh; Intel Mac OS X 10.15; rv:88.0) Gecko/20100101 Firefox/88.0,Macintosh,Firefox,88,OS X,10.15
33,1,null,"""",html-keyboard-response,204,504485,0.0-204.0,"""","<div style=""font-size:60px;"">+</div>","""",256,ITI,Test,null,1000,"""","""","""","""","""","""","""","""",1,4/19/2021 23:10,73.119.56.57,Mozilla/5.0 (Macintosh; Intel Mac OS X 10.15; rv:88.0) Gecko/20100101 Firefox/88.0,Macintosh,Firefox,88,OS X,10.15
33,1,null,"""",image-keyboard-response,205,504746,0.0-205.0,"""",jspsych/scrambledNeutralFaces/scrambledAF02NES.JPG,"""",256,forwardMask,Test,null,250,"""",n,"""","""","""","""","""","""",1,4/19/2021 23:10,73.119.56.57,Mozilla/5.0 (Macintosh; Intel Mac OS X 10.15; rv:88.0) Gecko/20100101 Firefox/88.0,Macintosh,Firefox,88,OS X,10.15
33,1,null,"""",image-keyboard-response,206,504769,0.0-206.0,"""",jspsych/neutralFaces/AF02NES.JPG,"""",256,Cue,Test,null,16,"""","""","""","""","""","""","""","""",1,4/19/2021 23:10,73.119.56.57,Mozilla/5.0 (Macintosh; Intel Mac OS X 10.15; rv:88.0) Gecko/20100101 Firefox/88.0,Macintosh,Firefox,88,OS X,10.15
33,1,null,"""",image-keyboard-response,207,504879,0.0-207.0,"""",jspsych/neutralFaces/BF26NES.JPG,"""",256,backwardMask,Test,null,100,"""","""","""","""","""","""","""","""",1,4/19/2021 23:10,73.119.56.57,Mozilla/5.0 (Macintosh; Intel Mac OS X 10.15; rv:88.0) Gecko/20100101 Firefox/88.0,Macintosh,Firefox,88,OS X,10.15
33,1,null,"""",html-keyboard-response,208,505886,0.0-208.0,"""","<div style=""font-size:60px;"">+</div>","""",256,fixationBtwnNeutralMaskAndPrompt,Test,null,1000,"""","""","""","""","""","""","""","""",1,4/19/2021 23:10,73.119.56.57,Mozilla/5.0 (Macintosh; Intel Mac OS X 10.15; rv:88.0) Gecko/20100101 Firefox/88.0,Macintosh,Firefox,88,OS X,10.15
33,1,3995,"""",html-button-response,209,509886,0.0-209.0,"""","<img src='jspsych/CFDfaces/CFD-BM-211-174-N.jpg' height=""250px"">,</br><b>Joshua</b>",1,256,IntactOrRearranged,Test,"""","""","""","""",CFD-AF-241-141-N.jpg,Whitney,1,"""","""",1,1,4/19/2021 23:10,73.119.56.57,Mozilla/5.0 (Macintosh; Intel Mac OS X 10.15; rv:88.0) Gecko/20100101 Firefox/88.0,Macintosh,Firefox,88,OS X,10.15
33,1,3015,"""",html-slider-response,210,512906,0.0-210.0,"""","<img src='jspsych/CFDfaces/CFD-BM-211-174-N.jpg' height=""250px"">,</br><b>Joshua</b>","""",256,ConfidenceQuery,Test,"""","""","""","""",CFD-AF-241-141-N.jpg,Whitney,1,0,61,"""",1,4/19/2021 23:10,73.119.56.57,Mozilla/5.0 (Macintosh; Intel Mac OS X 10.15; rv:88.0) Gecko/20100101 Firefox/88.0,Macintosh,Firefox,88,OS X,10.15
33,1,null,"""",html-keyboard-response,211,513914,0.0-211.0,"""","<div style=""font-size:60px;"">+</div>","""",256,ITI,Test,null,1000,"""","""","""","""","""","""","""","""",1,4/19/2021 23:10,73.119.56.57,Mozilla/5.0 (Macintosh; Intel Mac OS X 10.15; rv:88.0) Gecko/20100101 Firefox/88.0,Macintosh,Firefox,88,OS X,10.15
33,1,null,"""",image-keyboard-response,212,514185,0.0-212.0,"""",jspsych/scrambledDisgustFaces/scrambledBM27DIS.JPG,"""",256,forwardMask,Test,null,250,"""",d,"""","""","""","""","""","""",1,4/19/2021 23:10,73.119.56.57,Mozilla/5.0 (Macintosh; Intel Mac OS X 10.15; rv:88.0) Gecko/20100101 Firefox/88.0,Macintosh,Firefox,88,OS X,10.15
33,1,null,"""",image-keyboard-response,213,514213,0.0-213.0,"""",jspsych/disgustFaces/BM28DIS.JPG,"""",256,Cue,Test,null,16,"""","""","""","""","""","""","""","""",1,4/19/2021 23:10,73.119.56.57,Mozilla/5.0 (Macintosh; Intel Mac OS X 10.15; rv:88.0) Gecko/20100101 Firefox/88.0,Macintosh,Firefox,88,OS X,10.15
33,1,null,"""",image-keyboard-response,214,514325,0.0-214.0,"""",jspsych/neutralFaces/AM35NES.JPG,"""",256,backwardMask,Test,null,100,"""","""","""","""","""","""","""","""",1,4/19/2021 23:10,73.119.56.57,Mozilla/5.0 (Macintosh; Intel Mac OS X 10.15; rv:88.0) Gecko/20100101 Firefox/88.0,Macintosh,Firefox,88,OS X,10.15
33,1,null,"""",html-keyboard-response,215,515329,0.0-215.0,"""","<div style=""font-size:60px;"">+</div>","""",256,fixationBtwnNeutralMaskAndPrompt,Test,null,1000,"""","""","""","""","""","""","""","""",1,4/19/2021 23:10,73.119.56.57,Mozilla/5.0 (Macintosh; Intel Mac OS X 10.15; rv:88.0) Gecko/20100101 Firefox/88.0,Macintosh,Firefox,88,OS X,10.15
33,1,null,"""",html-button-response,216,520338,0.0-216.0,"""","<img src='jspsych/CFDfaces/CFD-WM-017-002-N.jpg' height=""250px"">,</br><b>Juan</b>",null,256,IntactOrRearranged,Test,"""","""","""","""",CFD-BM-018-001-N.jpg,Mark,0,"""","""","""",1,4/19/2021 23:10,73.119.56.57,Mozilla/5.0 (Macintosh; Intel Mac OS X 10.15; rv:88.0) Gecko/20100101 Firefox/88.0,Macintosh,Firefox,88,OS X,10.15
33,1,4503,"""",html-slider-response,217,524846,0.0-217.0,"""","<img src='jspsych/CFDfaces/CFD-WM-017-002-N.jpg' height=""250px"">,</br><b>Juan</b>","""",256,ConfidenceQuery,Test,"""","""","""","""",CFD-BM-018-001-N.jpg,Mark,0,0,65,"""",1,4/19/2021 23:10,73.119.56.57,Mozilla/5.0 (Macintosh; Intel Mac OS X 10.15; rv:88.0) Gecko/20100101 Firefox/88.0,Macintosh,Firefox,88,OS X,10.15
33,1,null,"""",html-keyboard-response,218,525860,0.0-218.0,"""","<div style=""font-size:60px;"">+</div>","""",256,ITI,Test,null,1000,"""","""","""","""","""","""","""","""",1,4/19/2021 23:10,73.119.56.57,Mozilla/5.0 (Macintosh; Intel Mac OS X 10.15; rv:88.0) Gecko/20100101 Firefox/88.0,Macintosh,Firefox,88,OS X,10.15
33,1,null,"""",image-keyboard-response,219,526122,0.0-219.0,"""",jspsych/scrambledNeutralFaces/scrambledBM25NES.JPG,"""",256,forwardMask,Test,null,250,"""",n,"""","""","""","""","""","""",1,4/19/2021 23:10,73.119.56.57,Mozilla/5.0 (Macintosh; Intel Mac OS X 10.15; rv:88.0) Gecko/20100101 Firefox/88.0,Macintosh,Firefox,88,OS X,10.15
33,1,null,"""",image-keyboard-response,220,526146,0.0-220.0,"""",jspsych/neutralFaces/BM25NES.JPG,"""",256,Cue,Test,null,16,"""","""","""","""","""","""","""","""",1,4/19/2021 23:10,73.119.56.57,Mozilla/5.0 (Macintosh; Intel Mac OS X 10.15; rv:88.0) Gecko/20100101 Firefox/88.0,Macintosh,Firefox,88,OS X,10.15
33,1,null,"""",image-keyboard-response,221,526256,0.0-221.0,"""",jspsych/neutralFaces/BM32NES.JPG,"""",256,backwardMask,Test,null,100,"""","""","""","""","""","""","""","""",1,4/19/2021 23:10,73.119.56.57,Mozilla/5.0 (Macintosh; Intel Mac OS X 10.15; rv:88.0) Gecko/20100101 Firefox/88.0,Macintosh,Firefox,88,OS X,10.15
33,1,null,"""",html-keyboard-response,222,527264,0.0-222.0,"""","<div style=""font-size:60px;"">+</div>","""",256,fixationBtwnNeutralMaskAndPrompt,Test,null,1000,"""","""","""","""","""","""","""","""",1,4/19/2021 23:10,73.119.56.57,Mozilla/5.0 (Macintosh; Intel Mac OS X 10.15; rv:88.0) Gecko/20100101 Firefox/88.0,Macintosh,Firefox,88,OS X,10.15
33,1,3192,"""",html-button-response,223,530461,0.0-223.0,"""","<img src='jspsych/CFDfaces/CFD-LM-201-057-N.jpg' height=""250px"">,</br><b>Peter</b>",0,256,IntactOrRearranged,Test,"""","""","""","""",CFD-LF-208-127-N.jpg,Jenna,0,"""","""",0,1,4/19/2021 23:10,73.119.56.57,Mozilla/5.0 (Macintosh; Intel Mac OS X 10.15; rv:88.0) Gecko/20100101 Firefox/88.0,Macintosh,Firefox,88,OS X,10.15
33,1,1960,"""",html-slider-response,224,532433,0.0-224.0,"""","<img src='jspsych/CFDfaces/CFD-LM-201-057-N.jpg' height=""250px"">,</br><b>Peter</b>","""",256,ConfidenceQuery,Test,"""","""","""","""",CFD-LF-208-127-N.jpg,Jenna,0,0,81,"""",1,4/19/2021 23:10,73.119.56.57,Mozilla/5.0 (Macintosh; Intel Mac OS X 10.15; rv:88.0) Gecko/20100101 Firefox/88.0,Macintosh,Firefox,88,OS X,10.15
33,1,null,"""",html-keyboard-response,225,533439,0.0-225.0,"""","<div style=""font-size:60px;"">+</div>","""",256,ITI,Test,null,1000,"""","""","""","""","""","""","""","""",1,4/19/2021 23:10,73.119.56.57,Mozilla/5.0 (Macintosh; Intel Mac OS X 10.15; rv:88.0) Gecko/20100101 Firefox/88.0,Macintosh,Firefox,88,OS X,10.15
33,1,null,"""",image-keyboard-response,226,533700,0.0-226.0,"""",jspsych/scrambledNeutralFaces/scrambledAM07NES.JPG,"""",256,forwardMask,Test,null,250,"""",n,"""","""","""","""","""","""",1,4/19/2021 23:10,73.119.56.57,Mozilla/5.0 (Macintosh; Intel Mac OS X 10.15; rv:88.0) Gecko/20100101 Firefox/88.0,Macintosh,Firefox,88,OS X,10.15
33,1,null,"""",image-keyboard-response,227,533726,0.0-227.0,"""",jspsych/neutralFaces/AM07NES.JPG,"""",256,Cue,Test,null,16,"""","""","""","""","""","""","""","""",1,4/19/2021 23:10,73.119.56.57,Mozilla/5.0 (Macintosh; Intel Mac OS X 10.15; rv:88.0) Gecko/20100101 Firefox/88.0,Macintosh,Firefox,88,OS X,10.15
33,1,null,"""",image-keyboard-response,228,533836,0.0-228.0,"""",jspsych/neutralFaces/AM28NES.JPG,"""",256,backwardMask,Test,null,100,"""","""","""","""","""","""","""","""",1,4/19/2021 23:10,73.119.56.57,Mozilla/5.0 (Macintosh; Intel Mac OS X 10.15; rv:88.0) Gecko/20100101 Firefox/88.0,Macintosh,Firefox,88,OS X,10.15
33,1,null,"""",html-keyboard-response,229,534842,0.0-229.0,"""","<div style=""font-size:60px;"">+</div>","""",256,fixationBtwnNeutralMaskAndPrompt,Test,null,1000,"""","""","""","""","""","""","""","""",1,4/19/2021 23:10,73.119.56.57,Mozilla/5.0 (Macintosh; Intel Mac OS X 10.15; rv:88.0) Gecko/20100101 Firefox/88.0,Macintosh,Firefox,88,OS X,10.15
33,1,3187,"""",html-button-response,230,538033,0.0-230.0,"""","<img src='jspsych/CFDfaces/CFD-LM-225-130-N.jpg' height=""250px"">,</br><b>Eric</b>",0,256,IntactOrRearranged,Test,"""","""","""","""",CFD-BF-019-001-N.jpg,Sara,1,"""","""",0,1,4/19/2021 23:10,73.119.56.57,Mozilla/5.0 (Macintosh; Intel Mac OS X 10.15; rv:88.0) Gecko/20100101 Firefox/88.0,Macintosh,Firefox,88,OS X,10.15
33,1,2420,"""",html-slider-response,231,540466,0.0-231.0,"""","<img src='jspsych/CFDfaces/CFD-LM-225-130-N.jpg' height=""250px"">,</br><b>Eric</b>","""",256,ConfidenceQuery,Test,"""","""","""","""",CFD-BF-019-001-N.jpg,Sara,1,0,78,"""",1,4/19/2021 23:10,73.119.56.57,Mozilla/5.0 (Macintosh; Intel Mac OS X 10.15; rv:88.0) Gecko/20100101 Firefox/88.0,Macintosh,Firefox,88,OS X,10.15
33,1,null,"""",html-keyboard-response,232,541474,0.0-232.0,"""","<div style=""font-size:60px;"">+</div>","""",256,ITI,Test,null,1000,"""","""","""","""","""","""","""","""",1,4/19/2021 23:10,73.119.56.57,Mozilla/5.0 (Macintosh; Intel Mac OS X 10.15; rv:88.0) Gecko/20100101 Firefox/88.0,Macintosh,Firefox,88,OS X,10.15
33,1,null,"""",image-keyboard-response,233,541734,0.0-233.0,"""",jspsych/scrambledDisgustFaces/scrambledAM31DIS.JPG,"""",256,forwardMask,Test,null,250,"""",d,"""","""","""","""","""","""",1,4/19/2021 23:10,73.119.56.57,Mozilla/5.0 (Macintosh; Intel Mac OS X 10.15; rv:88.0) Gecko/20100101 Firefox/88.0,Macintosh,Firefox,88,OS X,10.15
33,1,null,"""",image-keyboard-response,234,541757,0.0-234.0,"""",jspsych/disgustFaces/AM31DIS.JPG,"""",256,Cue,Test,null,16,"""","""","""","""","""","""","""","""",1,4/19/2021 23:10,73.119.56.57,Mozilla/5.0 (Macintosh; Intel Mac OS X 10.15; rv:88.0) Gecko/20100101 Firefox/88.0,Macintosh,Firefox,88,OS X,10.15
33,1,null,"""",image-keyboard-response,235,541866,0.0-235.0,"""",jspsych/neutralFaces/AM30NES.JPG,"""",256,backwardMask,Test,null,100,"""","""","""","""","""","""","""","""",1,4/19/2021 23:10,73.119.56.57,Mozilla/5.0 (Macintosh; Intel Mac OS X 10.15; rv:88.0) Gecko/20100101 Firefox/88.0,Macintosh,Firefox,88,OS X,10.15
33,1,null,"""",html-keyboard-response,236,542873,0.0-236.0,"""","<div style=""font-size:60px;"">+</div>","""",256,fixationBtwnNeutralMaskAndPrompt,Test,null,1000,"""","""","""","""","""","""","""","""",1,4/19/2021 23:10,73.119.56.57,Mozilla/5.0 (Macintosh; Intel Mac OS X 10.15; rv:88.0) Gecko/20100101 Firefox/88.0,Macintosh,Firefox,88,OS X,10.15
33,1,4544,"""",html-button-response,237,547420,0.0-237.0,"""","<img src='jspsych/CFDfaces/CFD-WF-218-087-N.jpg' height=""250px"">,</br><b>Andrea</b>",1,256,IntactOrRearranged,Test,"""","""","""","""",CFD-WF-019-005-N.jpg,Heather,1,"""","""",1,1,4/19/2021 23:10,73.119.56.57,Mozilla/5.0 (Macintosh; Intel Mac OS X 10.15; rv:88.0) Gecko/20100101 Firefox/88.0,Macintosh,Firefox,88,OS X,10.15
33,1,2251,"""",html-slider-response,238,549685,0.0-238.0,"""","<img src='jspsych/CFDfaces/CFD-WF-218-087-N.jpg' height=""250px"">,</br><b>Andrea</b>","""",256,ConfidenceQuery,Test,"""","""","""","""",CFD-WF-019-005-N.jpg,Heather,1,0,99,"""",1,4/19/2021 23:10,73.119.56.57,Mozilla/5.0 (Macintosh; Intel Mac OS X 10.15; rv:88.0) Gecko/20100101 Firefox/88.0,Macintosh,Firefox,88,OS X,10.15
33,1,null,"""",html-keyboard-response,239,550694,0.0-239.0,"""","<div style=""font-size:60px;"">+</div>","""",256,ITI,Test,null,1000,"""","""","""","""","""","""","""","""",1,4/19/2021 23:10,73.119.56.57,Mozilla/5.0 (Macintosh; Intel Mac OS X 10.15; rv:88.0) Gecko/20100101 Firefox/88.0,Macintosh,Firefox,88,OS X,10.15
33,1,null,"""",image-keyboard-response,240,550955,0.0-240.0,"""",jspsych/scrambledDisgustFaces/scrambledAF26DIS.JPG,"""",256,forwardMask,Test,null,250,"""",d,"""","""","""","""","""","""",1,4/19/2021 23:10,73.119.56.57,Mozilla/5.0 (Macintosh; Intel Mac OS X 10.15; rv:88.0) Gecko/20100101 Firefox/88.0,Macintosh,Firefox,88,OS X,10.15
33,1,null,"""",image-keyboard-response,241,550981,0.0-241.0,"""",jspsych/disgustFaces/AF26DIS.JPG,"""",256,Cue,Test,null,16,"""","""","""","""","""","""","""","""",1,4/19/2021 23:10,73.119.56.57,Mozilla/5.0 (Macintosh; Intel Mac OS X 10.15; rv:88.0) Gecko/20100101 Firefox/88.0,Macintosh,Firefox,88,OS X,10.15
33,1,null,"""",image-keyboard-response,242,551092,0.0-242.0,"""",jspsych/neutralFaces/AF14NES.JPG,"""",256,backwardMask,Test,null,100,"""","""","""","""","""","""","""","""",1,4/19/2021 23:10,73.119.56.57,Mozilla/5.0 (Macintosh; Intel Mac OS X 10.15; rv:88.0) Gecko/20100101 Firefox/88.0,Macintosh,Firefox,88,OS X,10.15
33,1,null,"""",html-keyboard-response,243,552099,0.0-243.0,"""","<div style=""font-size:60px;"">+</div>","""",256,fixationBtwnNeutralMaskAndPrompt,Test,null,1000,"""","""","""","""","""","""","""","""",1,4/19/2021 23:10,73.119.56.57,Mozilla/5.0 (Macintosh; Intel Mac OS X 10.15; rv:88.0) Gecko/20100101 Firefox/88.0,Macintosh,Firefox,88,OS X,10.15
33,1,4108,"""",html-button-response,244,556211,0.0-244.0,"""","<img src='jspsych/CFDfaces/CFD-AF-215-70-N.jpg' height=""250px"">,</br><b>Brittany</b>",0,256,IntactOrRearranged,Test,"""","""","""","""",CFD-WM-216-061-N.jpg,Kenneth,0,"""","""",0,1,4/19/2021 23:10,73.119.56.57,Mozilla/5.0 (Macintosh; Intel Mac OS X 10.15; rv:88.0) Gecko/20100101 Firefox/88.0,Macintosh,Firefox,88,OS X,10.15
33,1,2944,"""",html-slider-response,245,559159,0.0-245.0,"""","<img src='jspsych/CFDfaces/CFD-AF-215-70-N.jpg' height=""250px"">,</br><b>Brittany</b>","""",256,ConfidenceQuery,Test,"""","""","""","""",CFD-WM-216-061-N.jpg,Kenneth,0,0,98,"""",1,4/19/2021 23:10,73.119.56.57,Mozilla/5.0 (Macintosh; Intel Mac OS X 10.15; rv:88.0) Gecko/20100101 Firefox/88.0,Macintosh,Firefox,88,OS X,10.15
33,1,null,"""",html-keyboard-response,246,560175,0.0-246.0,"""","<div style=""font-size:60px;"">+</div>","""",256,ITI,Test,null,1000,"""","""","""","""","""","""","""","""",1,4/19/2021 23:10,73.119.56.57,Mozilla/5.0 (Macintosh; Intel Mac OS X 10.15; rv:88.0) Gecko/20100101 Firefox/88.0,Macintosh,Firefox,88,OS X,10.15
33,1,null,"""",image-keyboard-response,247,560434,0.0-247.0,"""",jspsych/scrambledDisgustFaces/scrambledBM20DIS.JPG,"""",256,forwardMask,Test,null,250,"""",d,"""","""","""","""","""","""",1,4/19/2021 23:10,73.119.56.57,Mozilla/5.0 (Macintosh; Intel Mac OS X 10.15; rv:88.0) Gecko/20100101 Firefox/88.0,Macintosh,Firefox,88,OS X,10.15
33,1,null,"""",image-keyboard-response,248,560459,0.0-248.0,"""",jspsych/disgustFaces/BM21DIS.JPG,"""",256,Cue,Test,null,16,"""","""","""","""","""","""","""","""",1,4/19/2021 23:10,73.119.56.57,Mozilla/5.0 (Macintosh; Intel Mac OS X 10.15; rv:88.0) Gecko/20100101 Firefox/88.0,Macintosh,Firefox,88,OS X,10.15
33,1,null,"""",image-keyboard-response,249,560570,0.0-249.0,"""",jspsych/neutralFaces/AM10NES.JPG,"""",256,backwardMask,Test,null,100,"""","""","""","""","""","""","""","""",1,4/19/2021 23:10,73.119.56.57,Mozilla/5.0 (Macintosh; Intel Mac OS X 10.15; rv:88.0) Gecko/20100101 Firefox/88.0,Macintosh,Firefox,88,OS X,10.15
33,1,null,"""",html-keyboard-response,250,561578,0.0-250.0,"""","<div style=""font-size:60px;"">+</div>","""",256,fixationBtwnNeutralMaskAndPrompt,Test,null,1000,"""","""","""","""","""","""","""","""",1,4/19/2021 23:10,73.119.56.57,Mozilla/5.0 (Macintosh; Intel Mac OS X 10.15; rv:88.0) Gecko/20100101 Firefox/88.0,Macintosh,Firefox,88,OS X,10.15
33,1,2387,"""",html-button-response,251,563969,0.0-251.0,"""","<img src='jspsych/CFDfaces/CFD-WM-034-030-N.jpg' height=""250px"">,</br><b>Jason</b>",0,256,IntactOrRearranged,Test,"""","""","""","""",CFD-LM-213-061-N.jpg,Vincent,0,"""","""",0,1,4/19/2021 23:10,73.119.56.57,Mozilla/5.0 (Macintosh; Intel Mac OS X 10.15; rv:88.0) Gecko/20100101 Firefox/88.0,Macintosh,Firefox,88,OS X,10.15
33,1,2493,"""",html-slider-response,252,566466,0.0-252.0,"""","<img src='jspsych/CFDfaces/CFD-WM-034-030-N.jpg' height=""250px"">,</br><b>Jason</b>","""",256,ConfidenceQuery,Test,"""","""","""","""",CFD-LM-213-061-N.jpg,Vincent,0,0,99,"""",1,4/19/2021 23:10,73.119.56.57,Mozilla/5.0 (Macintosh; Intel Mac OS X 10.15; rv:88.0) Gecko/20100101 Firefox/88.0,Macintosh,Firefox,88,OS X,10.15
33,1,null,"""",html-keyboard-response,253,567479,0.0-253.0,"""","<div style=""font-size:60px;"">+</div>","""",256,ITI,Test,null,1000,"""","""","""","""","""","""","""","""",1,4/19/2021 23:10,73.119.56.57,Mozilla/5.0 (Macintosh; Intel Mac OS X 10.15; rv:88.0) Gecko/20100101 Firefox/88.0,Macintosh,Firefox,88,OS X,10.15
33,1,null,"""",image-keyboard-response,254,567739,0.0-254.0,"""",jspsych/scrambledNeutralFaces/scrambledAM27NES.JPG,"""",256,forwardMask,Test,null,250,"""",n,"""","""","""","""","""","""",1,4/19/2021 23:10,73.119.56.57,Mozilla/5.0 (Macintosh; Intel Mac OS X 10.15; rv:88.0) Gecko/20100101 Firefox/88.0,Macintosh,Firefox,88,OS X,10.15
33,1,null,"""",image-keyboard-response,255,567766,0.0-255.0,"""",jspsych/neutralFaces/AM27NES.JPG,"""",256,Cue,Test,null,16,"""","""","""","""","""","""","""","""",1,4/19/2021 23:10,73.119.56.57,Mozilla/5.0 (Macintosh; Intel Mac OS X 10.15; rv:88.0) Gecko/20100101 Firefox/88.0,Macintosh,Firefox,88,OS X,10.15
33,1,null,"""",image-keyboard-response,256,567876,0.0-256.0,"""",jspsych/neutralFaces/AM13NES.JPG,"""",256,backwardMask,Test,null,100,"""","""","""","""","""","""","""","""",1,4/19/2021 23:10,73.119.56.57,Mozilla/5.0 (Macintosh; Intel Mac OS X 10.15; rv:88.0) Gecko/20100101 Firefox/88.0,Macintosh,Firefox,88,OS X,10.15
33,1,null,"""",html-keyboard-response,257,568879,0.0-257.0,"""","<div style=""font-size:60px;"">+</div>","""",256,fixationBtwnNeutralMaskAndPrompt,Test,null,1000,"""","""","""","""","""","""","""","""",1,4/19/2021 23:10,73.119.56.57,Mozilla/5.0 (Macintosh; Intel Mac OS X 10.15; rv:88.0) Gecko/20100101 Firefox/88.0,Macintosh,Firefox,88,OS X,10.15
33,1,2467,"""",html-button-response,258,571348,0.0-258.0,"""","<img src='jspsych/CFDfaces/CFD-LF-239-148-N.jpg' height=""250px"">,</br><b>Kayla</b>",0,256,IntactOrRearranged,Test,"""","""","""","""",CFD-AM-246-184-N.jpg,Ryan,0,"""","""",0,1,4/19/2021 23:10,73.119.56.57,Mozilla/5.0 (Macintosh; Intel Mac OS X 10.15; rv:88.0) Gecko/20100101 Firefox/88.0,Macintosh,Firefox,88,OS X,10.15
33,1,2468,"""",html-slider-response,259,573820,0.0-259.0,"""","<img src='jspsych/CFDfaces/CFD-LF-239-148-N.jpg' height=""250px"">,</br><b>Kayla</b>","""",256,ConfidenceQuery,Test,"""","""","""","""",CFD-AM-246-184-N.jpg,Ryan,0,0,83,"""",1,4/19/2021 23:10,73.119.56.57,Mozilla/5.0 (Macintosh; Intel Mac OS X 10.15; rv:88.0) Gecko/20100101 Firefox/88.0,Macintosh,Firefox,88,OS X,10.15
33,1,null,"""",html-keyboard-response,260,574835,0.0-260.0,"""","<div style=""font-size:60px;"">+</div>","""",256,ITI,Test,null,1000,"""","""","""","""","""","""","""","""",1,4/19/2021 23:10,73.119.56.57,Mozilla/5.0 (Macintosh; Intel Mac OS X 10.15; rv:88.0) Gecko/20100101 Firefox/88.0,Macintosh,Firefox,88,OS X,10.15
33,1,null,"""",image-keyboard-response,261,575092,0.0-261.0,"""",jspsych/scrambledNeutralFaces/scrambledBM09NES.JPG,"""",256,forwardMask,Test,null,250,"""",n,"""","""","""","""","""","""",1,4/19/2021 23:10,73.119.56.57,Mozilla/5.0 (Macintosh; Intel Mac OS X 10.15; rv:88.0) Gecko/20100101 Firefox/88.0,Macintosh,Firefox,88,OS X,10.15
33,1,null,"""",image-keyboard-response,262,575117,0.0-262.0,"""",jspsych/neutralFaces/BM09NES.JPG,"""",256,Cue,Test,null,16,"""","""","""","""","""","""","""","""",1,4/19/2021 23:10,73.119.56.57,Mozilla/5.0 (Macintosh; Intel Mac OS X 10.15; rv:88.0) Gecko/20100101 Firefox/88.0,Macintosh,Firefox,88,OS X,10.15
33,1,null,"""",image-keyboard-response,263,575226,0.0-263.0,"""",jspsych/neutralFaces/AM34NES.JPG,"""",256,backwardMask,Test,null,100,"""","""","""","""","""","""","""","""",1,4/19/2021 23:10,73.119.56.57,Mozilla/5.0 (Macintosh; Intel Mac OS X 10.15; rv:88.0) Gecko/20100101 Firefox/88.0,Macintosh,Firefox,88,OS X,10.15
33,1,null,"""",html-keyboard-response,264,576233,0.0-264.0,"""","<div style=""font-size:60px;"">+</div>","""",256,fixationBtwnNeutralMaskAndPrompt,Test,null,1000,"""","""","""","""","""","""","""","""",1,4/19/2021 23:10,73.119.56.57,Mozilla/5.0 (Macintosh; Intel Mac OS X 10.15; rv:88.0) Gecko/20100101 Firefox/88.0,Macintosh,Firefox,88,OS X,10.15
33,1,3571,"""",html-button-response,265,579808,0.0-265.0,"""","<img src='jspsych/CFDfaces/CFD-BM-027-001-N.jpg' height=""250px"">,</br><b>Jeffrey</b>",1,256,IntactOrRearranged,Test,"""","""","""","""",CFD-AF-237-223-N.jpg,Tiffany,1,"""","""",1,1,4/19/2021 23:10,73.119.56.57,Mozilla/5.0 (Macintosh; Intel Mac OS X 10.15; rv:88.0) Gecko/20100101 Firefox/88.0,Macintosh,Firefox,88,OS X,10.15
33,1,2755,"""",html-slider-response,266,582572,0.0-266.0,"""","<img src='jspsych/CFDfaces/CFD-BM-027-001-N.jpg' height=""250px"">,</br><b>Jeffrey</b>","""",256,ConfidenceQuery,Test,"""","""","""","""",CFD-AF-237-223-N.jpg,Tiffany,1,0,60,"""",1,4/19/2021 23:10,73.119.56.57,Mozilla/5.0 (Macintosh; Intel Mac OS X 10.15; rv:88.0) Gecko/20100101 Firefox/88.0,Macintosh,Firefox,88,OS X,10.15
33,1,null,"""",html-keyboard-response,267,583580,0.0-267.0,"""","<div style=""font-size:60px;"">+</div>","""",256,ITI,Test,null,1000,"""","""","""","""","""","""","""","""",1,4/19/2021 23:10,73.119.56.57,Mozilla/5.0 (Macintosh; Intel Mac OS X 10.15; rv:88.0) Gecko/20100101 Firefox/88.0,Macintosh,Firefox,88,OS X,10.15
33,1,null,"""",image-keyboard-response,268,583838,0.0-268.0,"""",jspsych/scrambledNeutralFaces/scrambledAF17NES.JPG,"""",256,forwardMask,Test,null,250,"""",n,"""","""","""","""","""","""",1,4/19/2021 23:10,73.119.56.57,Mozilla/5.0 (Macintosh; Intel Mac OS X 10.15; rv:88.0) Gecko/20100101 Firefox/88.0,Macintosh,Firefox,88,OS X,10.15
33,1,null,"""",image-keyboard-response,269,583865,0.0-269.0,"""",jspsych/neutralFaces/AF17NES.JPG,"""",256,Cue,Test,null,16,"""","""","""","""","""","""","""","""",1,4/19/2021 23:10,73.119.56.57,Mozilla/5.0 (Macintosh; Intel Mac OS X 10.15; rv:88.0) Gecko/20100101 Firefox/88.0,Macintosh,Firefox,88,OS X,10.15
33,1,null,"""",image-keyboard-response,270,583976,0.0-270.0,"""",jspsych/neutralFaces/BF24NES.JPG,"""",256,backwardMask,Test,null,100,"""","""","""","""","""","""","""","""",1,4/19/2021 23:10,73.119.56.57,Mozilla/5.0 (Macintosh; Intel Mac OS X 10.15; rv:88.0) Gecko/20100101 Firefox/88.0,Macintosh,Firefox,88,OS X,10.15
33,1,null,"""",html-keyboard-response,271,584983,0.0-271.0,"""","<div style=""font-size:60px;"">+</div>","""",256,fixationBtwnNeutralMaskAndPrompt,Test,null,1000,"""","""","""","""","""","""","""","""",1,4/19/2021 23:10,73.119.56.57,Mozilla/5.0 (Macintosh; Intel Mac OS X 10.15; rv:88.0) Gecko/20100101 Firefox/88.0,Macintosh,Firefox,88,OS X,10.15
33,1,4796,"""",html-button-response,272,589782,0.0-272.0,"""","<img src='jspsych/CFDfaces/CFD-BM-001-014-N.jpg' height=""250px"">,</br><b>Brandon</b>",0,256,IntactOrRearranged,Test,"""","""","""","""",CFD-LF-230-203-N.jpg,Lauren,0,"""","""",0,1,4/19/2021 23:10,73.119.56.57,Mozilla/5.0 (Macintosh; Intel Mac OS X 10.15; rv:88.0) Gecko/20100101 Firefox/88.0,Macintosh,Firefox,88,OS X,10.15
33,1,2760,"""",html-slider-response,273,592553,0.0-273.0,"""","<img src='jspsych/CFDfaces/CFD-BM-001-014-N.jpg' height=""250px"">,</br><b>Brandon</b>","""",256,ConfidenceQuery,Test,"""","""","""","""",CFD-LF-230-203-N.jpg,Lauren,0,0,92,"""",1,4/19/2021 23:10,73.119.56.57,Mozilla/5.0 (Macintosh; Intel Mac OS X 10.15; rv:88.0) Gecko/20100101 Firefox/88.0,Macintosh,Firefox,88,OS X,10.15
33,1,null,"""",html-keyboard-response,274,593558,0.0-274.0,"""","<div style=""font-size:60px;"">+</div>","""",256,ITI,Test,null,1000,"""","""","""","""","""","""","""","""",1,4/19/2021 23:10,73.119.56.57,Mozilla/5.0 (Macintosh; Intel Mac OS X 10.15; rv:88.0) Gecko/20100101 Firefox/88.0,Macintosh,Firefox,88,OS X,10.15
33,1,null,"""",image-keyboard-response,275,593820,0.0-275.0,"""",jspsych/scrambledNeutralFaces/scrambledAM32NES.JPG,"""",256,forwardMask,Test,null,250,"""",n,"""","""","""","""","""","""",1,4/19/2021 23:10,73.119.56.57,Mozilla/5.0 (Macintosh; Intel Mac OS X 10.15; rv:88.0) Gecko/20100101 Firefox/88.0,Macintosh,Firefox,88,OS X,10.15
33,1,null,"""",image-keyboard-response,276,593845,0.0-276.0,"""",jspsych/neutralFaces/AM32NES.JPG,"""",256,Cue,Test,null,16,"""","""","""","""","""","""","""","""",1,4/19/2021 23:10,73.119.56.57,Mozilla/5.0 (Macintosh; Intel Mac OS X 10.15; rv:88.0) Gecko/20100101 Firefox/88.0,Macintosh,Firefox,88,OS X,10.15
33,1,null,"""",image-keyboard-response,277,593955,0.0-277.0,"""",jspsych/neutralFaces/BM06NES.JPG,"""",256,backwardMask,Test,null,100,"""","""","""","""","""","""","""","""",1,4/19/2021 23:10,73.119.56.57,Mozilla/5.0 (Macintosh; Intel Mac OS X 10.15; rv:88.0) Gecko/20100101 Firefox/88.0,Macintosh,Firefox,88,OS X,10.15
33,1,null,"""",html-keyboard-response,278,594963,0.0-278.0,"""","<div style=""font-size:60px;"">+</div>","""",256,fixationBtwnNeutralMaskAndPrompt,Test,null,1000,"""","""","""","""","""","""","""","""",1,4/19/2021 23:10,73.119.56.57,Mozilla/5.0 (Macintosh; Intel Mac OS X 10.15; rv:88.0) Gecko/20100101 Firefox/88.0,Macintosh,Firefox,88,OS X,10.15
33,1,4184,"""",html-button-response,279,599151,0.0-279.0,"""","<img src='jspsych/CFDfaces/CFD-BM-029-024-N.jpg' height=""250px"">,</br><b>Brian</b>",1,256,IntactOrRearranged,Test,"""","""","""","""",CFD-LF-201-035-N.jpg,Laura,0,"""","""",1,1,4/19/2021 23:10,73.119.56.57,Mozilla/5.0 (Macintosh; Intel Mac OS X 10.15; rv:88.0) Gecko/20100101 Firefox/88.0,Macintosh,Firefox,88,OS X,10.15
33,1,4799,"""",html-slider-response,280,603961,0.0-280.0,"""","<img src='jspsych/CFDfaces/CFD-BM-029-024-N.jpg' height=""250px"">,</br><b>Brian</b>","""",256,ConfidenceQuery,Test,"""","""","""","""",CFD-LF-201-035-N.jpg,Laura,0,0,67,"""",1,4/19/2021 23:10,73.119.56.57,Mozilla/5.0 (Macintosh; Intel Mac OS X 10.15; rv:88.0) Gecko/20100101 Firefox/88.0,Macintosh,Firefox,88,OS X,10.15
33,1,null,"""",html-keyboard-response,281,604969,0.0-281.0,"""","<div style=""font-size:60px;"">+</div>","""",256,ITI,Test,null,1000,"""","""","""","""","""","""","""","""",1,4/19/2021 23:10,73.119.56.57,Mozilla/5.0 (Macintosh; Intel Mac OS X 10.15; rv:88.0) Gecko/20100101 Firefox/88.0,Macintosh,Firefox,88,OS X,10.15
33,1,null,"""",image-keyboard-response,282,605234,0.0-282.0,"""",jspsych/scrambledNeutralFaces/scrambledAF23NES.JPG,"""",256,forwardMask,Test,null,250,"""",n,"""","""","""","""","""","""",1,4/19/2021 23:10,73.119.56.57,Mozilla/5.0 (Macintosh; Intel Mac OS X 10.15; rv:88.0) Gecko/20100101 Firefox/88.0,Macintosh,Firefox,88,OS X,10.15
33,1,null,"""",image-keyboard-response,283,605260,0.0-283.0,"""",jspsych/neutralFaces/AF23NES.JPG,"""",256,Cue,Test,null,16,"""","""","""","""","""","""","""","""",1,4/19/2021 23:10,73.119.56.57,Mozilla/5.0 (Macintosh; Intel Mac OS X 10.15; rv:88.0) Gecko/20100101 Firefox/88.0,Macintosh,Firefox,88,OS X,10.15
33,1,null,"""",image-keyboard-response,284,605372,0.0-284.0,"""",jspsych/neutralFaces/BF05NES.JPG,"""",256,backwardMask,Test,null,100,"""","""","""","""","""","""","""","""",1,4/19/2021 23:10,73.119.56.57,Mozilla/5.0 (Macintosh; Intel Mac OS X 10.15; rv:88.0) Gecko/20100101 Firefox/88.0,Macintosh,Firefox,88,OS X,10.15
33,1,null,"""",html-keyboard-response,285,606380,0.0-285.0,"""","<div style=""font-size:60px;"">+</div>","""",256,fixationBtwnNeutralMaskAndPrompt,Test,null,1000,"""","""","""","""","""","""","""","""",1,4/19/2021 23:10,73.119.56.57,Mozilla/5.0 (Macintosh; Intel Mac OS X 10.15; rv:88.0) Gecko/20100101 Firefox/88.0,Macintosh,Firefox,88,OS X,10.15
