run_id,condition,rt,responses,trial_type,trial_index,time_elapsed,internal_node_id,question_order,stimulus,button_pressed,iTrial,Phase,ExperimentPhase,key_press,StimulusDurationSetting,CharacterResponse,correctResponse,Face,Name,rearranged,didSubjectEnterRearranged,slider_start,response,Block,recorded_at,ip,user_agent,device,browser,browser_version,platform,platform_version
12,1,8992,"{""Q0"":""A370S3V5OUNP4E""}",survey-text,0,8996,0.0-0.0,"""","""","""","""","""","""","""","""","""","""","""","""","""","""","""","""","""",4/18/2021 20:14,72.197.207.3,Mozilla/5.0 (Macintosh; Intel Mac OS X 10.13; rv:87.0) Gecko/20100101 Firefox/87.0,Macintosh,Firefox,87,OS X,10.13
12,1,2472,"{""Q0"":""22""}",survey-text,1,11483,0.0-1.0,"""","""","""","""","""","""","""","""","""","""","""","""","""","""","""","""","""",4/18/2021 20:14,72.197.207.3,Mozilla/5.0 (Macintosh; Intel Mac OS X 10.13; rv:87.0) Gecko/20100101 Firefox/87.0,Macintosh,Firefox,87,OS X,10.13
12,1,6016,"{""Q0"":""female"",""Q1"":""Not Hispanic/Latino"",""Q2"":""White or Caucasian""}",survey-multi-choice,2,17508,0.0-2.0,"[0,1,2]","""","""","""","""","""","""","""","""","""","""","""","""","""","""","""","""",4/18/2021 20:14,72.197.207.3,Mozilla/5.0 (Macintosh; Intel Mac OS X 10.13; rv:87.0) Gecko/20100101 Firefox/87.0,Macintosh,Firefox,87,OS X,10.13
12,1,46500,"""",image-button-response,3,64028,0.0-3.0,"""",directionsMemoryAssociation1.JPG,0,1,IntroDirections1,break,"""","""","""","""","""","""","""","""","""","""","""",4/18/2021 20:14,72.197.207.3,Mozilla/5.0 (Macintosh; Intel Mac OS X 10.13; rv:87.0) Gecko/20100101 Firefox/87.0,Macintosh,Firefox,87,OS X,10.13
12,1,24607,"""",image-button-response,4,88650,0.0-4.0,"""",directionsMemoryAssociation2.JPG,0,1,IntroDirections2,break,"""","""","""","""","""","""","""","""","""","""","""",4/18/2021 20:14,72.197.207.3,Mozilla/5.0 (Macintosh; Intel Mac OS X 10.13; rv:87.0) Gecko/20100101 Firefox/87.0,Macintosh,Firefox,87,OS X,10.13
12,1,null,"""",html-keyboard-response,5,93666,0.0-5.0,"""","<img src='jspsych/CFDfaces/CFD-LF-206-078-N.jpg' height=""250px"">,</br><b>Cassandra</b>","""",1,IntactFace,Practice,null,5000,"""","""","""","""","""","""","""","""","""",4/18/2021 20:14,72.197.207.3,Mozilla/5.0 (Macintosh; Intel Mac OS X 10.13; rv:87.0) Gecko/20100101 Firefox/87.0,Macintosh,Firefox,87,OS X,10.13
12,1,null,"""",html-keyboard-response,6,94170,0.0-6.0,"""","<div style=""font-size:60px;"">+</div>","""",1,ITI,Practice,null,1000,"""","""","""","""","""","""","""","""","""",4/18/2021 20:14,72.197.207.3,Mozilla/5.0 (Macintosh; Intel Mac OS X 10.13; rv:87.0) Gecko/20100101 Firefox/87.0,Macintosh,Firefox,87,OS X,10.13
12,1,null,"""",html-keyboard-response,7,99174,0.0-7.0,"""","<img src='jspsych/CFDfaces/CFD-LM-221-216-N.jpg' height=""250px"">,</br><b>Patrick</b>","""",2,IntactFace,Practice,null,5000,"""","""","""","""","""","""","""","""","""",4/18/2021 20:14,72.197.207.3,Mozilla/5.0 (Macintosh; Intel Mac OS X 10.13; rv:87.0) Gecko/20100101 Firefox/87.0,Macintosh,Firefox,87,OS X,10.13
12,1,null,"""",html-keyboard-response,8,99685,0.0-8.0,"""","<div style=""font-size:60px;"">+</div>","""",2,ITI,Practice,null,1000,"""","""","""","""","""","""","""","""","""",4/18/2021 20:14,72.197.207.3,Mozilla/5.0 (Macintosh; Intel Mac OS X 10.13; rv:87.0) Gecko/20100101 Firefox/87.0,Macintosh,Firefox,87,OS X,10.13
12,1,3114,"""",html-keyboard-response,9,104689,0.0-9.0,"""","<img src='jspsych/CFDfaces/CFD-WM-215-041-N.jpg' height=""250px"">,</br><b>Marcus</b>","""",3,IntactFace,Practice,70,5000,f,"""","""","""","""","""","""","""","""",4/18/2021 20:14,72.197.207.3,Mozilla/5.0 (Macintosh; Intel Mac OS X 10.13; rv:87.0) Gecko/20100101 Firefox/87.0,Macintosh,Firefox,87,OS X,10.13
12,1,null,"""",html-keyboard-response,10,105193,0.0-10.0,"""","<div style=""font-size:60px;"">+</div>","""",3,ITI,Practice,null,1000,"""","""","""","""","""","""","""","""","""",4/18/2021 20:14,72.197.207.3,Mozilla/5.0 (Macintosh; Intel Mac OS X 10.13; rv:87.0) Gecko/20100101 Firefox/87.0,Macintosh,Firefox,87,OS X,10.13
12,1,2206,"""",html-keyboard-response,11,110200,0.0-11.0,"""","<img src='jspsych/CFDfaces/CFD-LF-204-133-N.jpg' height=""250px"">,</br><b>Tara</b>","""",4,IntactFace,Practice,70,5000,f,"""","""","""","""","""","""","""","""",4/18/2021 20:14,72.197.207.3,Mozilla/5.0 (Macintosh; Intel Mac OS X 10.13; rv:87.0) Gecko/20100101 Firefox/87.0,Macintosh,Firefox,87,OS X,10.13
12,1,null,"""",html-keyboard-response,12,110703,0.0-12.0,"""","<div style=""font-size:60px;"">+</div>","""",4,ITI,Practice,null,1000,"""","""","""","""","""","""","""","""","""",4/18/2021 20:14,72.197.207.3,Mozilla/5.0 (Macintosh; Intel Mac OS X 10.13; rv:87.0) Gecko/20100101 Firefox/87.0,Macintosh,Firefox,87,OS X,10.13
12,1,2160,"""",html-keyboard-response,13,115707,0.0-13.0,"""","<img src='jspsych/CFDfaces/CFD-AF-200-228-N.jpg' height=""250px"">,</br><b>Katelyn</b>","""",5,IntactFace,Practice,78,5000,n,"""","""","""","""","""","""","""","""",4/18/2021 20:14,72.197.207.3,Mozilla/5.0 (Macintosh; Intel Mac OS X 10.13; rv:87.0) Gecko/20100101 Firefox/87.0,Macintosh,Firefox,87,OS X,10.13
12,1,null,"""",html-keyboard-response,14,116213,0.0-14.0,"""","<div style=""font-size:60px;"">+</div>","""",5,ITI,Practice,null,1000,"""","""","""","""","""","""","""","""","""",4/18/2021 20:14,72.197.207.3,Mozilla/5.0 (Macintosh; Intel Mac OS X 10.13; rv:87.0) Gecko/20100101 Firefox/87.0,Macintosh,Firefox,87,OS X,10.13
12,1,4251,"""",html-keyboard-response,15,121222,0.0-15.0,"""","<img src='jspsych/CFDfaces/CFD-BM-207-024-N.jpg' height=""250px"">,</br><b>Samuel</b>","""",6,IntactFace,Practice,78,5000,n,"""","""","""","""","""","""","""","""",4/18/2021 20:14,72.197.207.3,Mozilla/5.0 (Macintosh; Intel Mac OS X 10.13; rv:87.0) Gecko/20100101 Firefox/87.0,Macintosh,Firefox,87,OS X,10.13
12,1,null,"""",html-keyboard-response,16,121728,0.0-16.0,"""","<div style=""font-size:60px;"">+</div>","""",6,ITI,Practice,null,1000,"""","""","""","""","""","""","""","""","""",4/18/2021 20:14,72.197.207.3,Mozilla/5.0 (Macintosh; Intel Mac OS X 10.13; rv:87.0) Gecko/20100101 Firefox/87.0,Macintosh,Firefox,87,OS X,10.13
12,1,2260,"""",html-keyboard-response,17,126736,0.0-17.0,"""","<img src='jspsych/CFDfaces/CFD-WF-200-099-N.jpg' height=""250px"">,</br><b>Shannon</b>","""",7,IntactFace,Practice,70,5000,f,"""","""","""","""","""","""","""","""",4/18/2021 20:14,72.197.207.3,Mozilla/5.0 (Macintosh; Intel Mac OS X 10.13; rv:87.0) Gecko/20100101 Firefox/87.0,Macintosh,Firefox,87,OS X,10.13
12,1,null,"""",html-keyboard-response,18,127244,0.0-18.0,"""","<div style=""font-size:60px;"">+</div>","""",7,ITI,Practice,null,1000,"""","""","""","""","""","""","""","""","""",4/18/2021 20:14,72.197.207.3,Mozilla/5.0 (Macintosh; Intel Mac OS X 10.13; rv:87.0) Gecko/20100101 Firefox/87.0,Macintosh,Firefox,87,OS X,10.13
12,1,2182,"""",html-keyboard-response,19,132251,0.0-19.0,"""","<img src='jspsych/CFDfaces/CFD-AM-213-056-N.jpg' height=""250px"">,</br><b>Carlos</b>","""",8,IntactFace,Practice,78,5000,n,"""","""","""","""","""","""","""","""",4/18/2021 20:14,72.197.207.3,Mozilla/5.0 (Macintosh; Intel Mac OS X 10.13; rv:87.0) Gecko/20100101 Firefox/87.0,Macintosh,Firefox,87,OS X,10.13
12,1,null,"""",html-keyboard-response,20,132756,0.0-20.0,"""","<div style=""font-size:60px;"">+</div>","""",8,ITI,Practice,null,1000,"""","""","""","""","""","""","""","""","""",4/18/2021 20:14,72.197.207.3,Mozilla/5.0 (Macintosh; Intel Mac OS X 10.13; rv:87.0) Gecko/20100101 Firefox/87.0,Macintosh,Firefox,87,OS X,10.13
12,1,20393,"""",image-button-response,21,153157,0.0-21.0,"""",directionsForTest.JPG,0,1,directionsForTest,break,"""","""","""","""","""","""","""","""","""","""","""",4/18/2021 20:14,72.197.207.3,Mozilla/5.0 (Macintosh; Intel Mac OS X 10.13; rv:87.0) Gecko/20100101 Firefox/87.0,Macintosh,Firefox,87,OS X,10.13
12,1,26136,"""",image-button-response,22,179308,0.0-22.0,"""",directionsForTest2.JPG,0,1,directionsForTest2,break,"""","""","""","""","""","""","""","""","""","""","""",4/18/2021 20:14,72.197.207.3,Mozilla/5.0 (Macintosh; Intel Mac OS X 10.13; rv:87.0) Gecko/20100101 Firefox/87.0,Macintosh,Firefox,87,OS X,10.13
12,1,null,"""",html-keyboard-response,23,180311,0.0-23.0,"""","<div style=""font-size:60px;"">+</div>","""",1,ITI,Practice,null,1000,"""","""","""","""","""","""","""","""","""",4/18/2021 20:14,72.197.207.3,Mozilla/5.0 (Macintosh; Intel Mac OS X 10.13; rv:87.0) Gecko/20100101 Firefox/87.0,Macintosh,Firefox,87,OS X,10.13
12,1,null,"""",image-keyboard-response,24,180573,0.0-24.0,"""",jspsych/scrambledDisgustFaces/scrambledAF28DIS.JPG,"""",1,forwardMask,Practice,null,250,"""",d,"""","""","""","""","""","""","""",4/18/2021 20:14,72.197.207.3,Mozilla/5.0 (Macintosh; Intel Mac OS X 10.13; rv:87.0) Gecko/20100101 Firefox/87.0,Macintosh,Firefox,87,OS X,10.13
12,1,null,"""",image-keyboard-response,25,180597,0.0-25.0,"""",jspsych/disgustFaces/AF28DIS.JPG,"""",1,Cue,Practice,null,16,"""","""","""","""","""","""","""","""","""",4/18/2021 20:14,72.197.207.3,Mozilla/5.0 (Macintosh; Intel Mac OS X 10.13; rv:87.0) Gecko/20100101 Firefox/87.0,Macintosh,Firefox,87,OS X,10.13
12,1,null,"""",image-keyboard-response,26,180705,0.0-26.0,"""",jspsych/neutralFaces/BF28NES.JPG,"""",1,backwardMask,Practice,null,100,"""","""","""","""","""","""","""","""","""",4/18/2021 20:14,72.197.207.3,Mozilla/5.0 (Macintosh; Intel Mac OS X 10.13; rv:87.0) Gecko/20100101 Firefox/87.0,Macintosh,Firefox,87,OS X,10.13
12,1,null,"""",html-keyboard-response,27,181708,0.0-27.0,"""","<div style=""font-size:60px;"">+</div>","""",1,fixationBtwnNeutralMaskAndPrompt,Practice,null,1000,"""","""","""","""","""","""","""","""","""",4/18/2021 20:14,72.197.207.3,Mozilla/5.0 (Macintosh; Intel Mac OS X 10.13; rv:87.0) Gecko/20100101 Firefox/87.0,Macintosh,Firefox,87,OS X,10.13
12,1,4877,"""",html-button-response,28,186588,0.0-28.0,"""","<img src='jspsych/CFDfaces/CFD-LM-221-216-N.jpg'height=""250px""></br><b>Patrick</b>",0,1,IntactOrRearranged,Practice,"""","""","""","""",CFD-LM-221-216-N.jpg,Patrick,0,0,"""","""","""",4/18/2021 20:14,72.197.207.3,Mozilla/5.0 (Macintosh; Intel Mac OS X 10.13; rv:87.0) Gecko/20100101 Firefox/87.0,Macintosh,Firefox,87,OS X,10.13
12,1,3513,"""",html-slider-response,29,190148,0.0-29.0,"""","<img src='jspsych/CFDfaces/CFD-LM-221-216-N.jpg'height=""250px""></br><b>Patrick</b>","""",1,ConfidenceQuery,Practice,"""","""","""","""",CFD-BF-009-002-N.jpg,Amy,0,"""",0,100,"""",4/18/2021 20:14,72.197.207.3,Mozilla/5.0 (Macintosh; Intel Mac OS X 10.13; rv:87.0) Gecko/20100101 Firefox/87.0,Macintosh,Firefox,87,OS X,10.13
12,1,2595,"""",html-button-response,30,192748,0.0-30.0,"""",You are Correct. You called an Intact Pair Intact,0,1,feedback,Practice,"""","""","""","""","""","""","""","""","""","""","""",4/18/2021 20:14,72.197.207.3,Mozilla/5.0 (Macintosh; Intel Mac OS X 10.13; rv:87.0) Gecko/20100101 Firefox/87.0,Macintosh,Firefox,87,OS X,10.13
12,1,null,"""",html-keyboard-response,31,193752,0.0-31.0,"""","<div style=""font-size:60px;"">+</div>","""",2,ITI,Practice,null,1000,"""","""","""","""","""","""","""","""","""",4/18/2021 20:14,72.197.207.3,Mozilla/5.0 (Macintosh; Intel Mac OS X 10.13; rv:87.0) Gecko/20100101 Firefox/87.0,Macintosh,Firefox,87,OS X,10.13
12,1,null,"""",image-keyboard-response,32,194006,0.0-32.0,"""",jspsych/scrambledNeutralFaces/scrambledBM11NES.JPG,"""",2,forwardMask,Practice,null,250,"""",n,"""","""","""","""","""","""","""",4/18/2021 20:14,72.197.207.3,Mozilla/5.0 (Macintosh; Intel Mac OS X 10.13; rv:87.0) Gecko/20100101 Firefox/87.0,Macintosh,Firefox,87,OS X,10.13
12,1,null,"""",image-keyboard-response,33,194029,0.0-33.0,"""",jspsych/neutralFaces/BM11NES.JPG,"""",2,Cue,Practice,null,16,"""","""","""","""","""","""","""","""","""",4/18/2021 20:14,72.197.207.3,Mozilla/5.0 (Macintosh; Intel Mac OS X 10.13; rv:87.0) Gecko/20100101 Firefox/87.0,Macintosh,Firefox,87,OS X,10.13
12,1,null,"""",image-keyboard-response,34,194140,0.0-34.0,"""",jspsych/neutralFaces/AM14NES.JPG,"""",2,backwardMask,Practice,null,100,"""","""","""","""","""","""","""","""","""",4/18/2021 20:14,72.197.207.3,Mozilla/5.0 (Macintosh; Intel Mac OS X 10.13; rv:87.0) Gecko/20100101 Firefox/87.0,Macintosh,Firefox,87,OS X,10.13
12,1,null,"""",html-keyboard-response,35,195144,0.0-35.0,"""","<div style=""font-size:60px;"">+</div>","""",2,fixationBtwnNeutralMaskAndPrompt,Practice,null,1000,"""","""","""","""","""","""","""","""","""",4/18/2021 20:14,72.197.207.3,Mozilla/5.0 (Macintosh; Intel Mac OS X 10.13; rv:87.0) Gecko/20100101 Firefox/87.0,Macintosh,Firefox,87,OS X,10.13
12,1,2026,"""",html-button-response,36,197173,0.0-36.0,"""","<img src='jspsych/CFDfaces/CFD-BM-207-024-N.jpg'height=""250px""></br><b>Samuel</b>",0,2,IntactOrRearranged,Practice,"""","""","""","""",CFD-BM-207-024-N.jpg,Samuel,0,0,"""","""","""",4/18/2021 20:14,72.197.207.3,Mozilla/5.0 (Macintosh; Intel Mac OS X 10.13; rv:87.0) Gecko/20100101 Firefox/87.0,Macintosh,Firefox,87,OS X,10.13
12,1,2426,"""",html-slider-response,37,199605,0.0-37.0,"""","<img src='jspsych/CFDfaces/CFD-BM-207-024-N.jpg'height=""250px""></br><b>Samuel</b>","""",2,ConfidenceQuery,Practice,"""","""","""","""",CFD-BF-009-002-N.jpg,Amy,0,"""",0,86,"""",4/18/2021 20:14,72.197.207.3,Mozilla/5.0 (Macintosh; Intel Mac OS X 10.13; rv:87.0) Gecko/20100101 Firefox/87.0,Macintosh,Firefox,87,OS X,10.13
12,1,1598,"""",html-button-response,38,201205,0.0-38.0,"""",You are Correct. You called an Intact Pair Intact,0,2,feedback,Practice,"""","""","""","""","""","""","""","""","""","""","""",4/18/2021 20:14,72.197.207.3,Mozilla/5.0 (Macintosh; Intel Mac OS X 10.13; rv:87.0) Gecko/20100101 Firefox/87.0,Macintosh,Firefox,87,OS X,10.13
12,1,null,"""",html-keyboard-response,39,202211,0.0-39.0,"""","<div style=""font-size:60px;"">+</div>","""",3,ITI,Practice,null,1000,"""","""","""","""","""","""","""","""","""",4/18/2021 20:14,72.197.207.3,Mozilla/5.0 (Macintosh; Intel Mac OS X 10.13; rv:87.0) Gecko/20100101 Firefox/87.0,Macintosh,Firefox,87,OS X,10.13
12,1,null,"""",image-keyboard-response,40,202470,0.0-40.0,"""",jspsych/scrambledNeutralFaces/scrambledAF25NES.JPG,"""",3,forwardMask,Practice,null,250,"""",n,"""","""","""","""","""","""","""",4/18/2021 20:14,72.197.207.3,Mozilla/5.0 (Macintosh; Intel Mac OS X 10.13; rv:87.0) Gecko/20100101 Firefox/87.0,Macintosh,Firefox,87,OS X,10.13
12,1,null,"""",image-keyboard-response,41,202493,0.0-41.0,"""",jspsych/neutralFaces/AF25NES.JPG,"""",3,Cue,Practice,null,16,"""","""","""","""","""","""","""","""","""",4/18/2021 20:14,72.197.207.3,Mozilla/5.0 (Macintosh; Intel Mac OS X 10.13; rv:87.0) Gecko/20100101 Firefox/87.0,Macintosh,Firefox,87,OS X,10.13
12,1,null,"""",image-keyboard-response,42,202605,0.0-42.0,"""",jspsych/neutralFaces/BF19NES.JPG,"""",3,backwardMask,Practice,null,100,"""","""","""","""","""","""","""","""","""",4/18/2021 20:14,72.197.207.3,Mozilla/5.0 (Macintosh; Intel Mac OS X 10.13; rv:87.0) Gecko/20100101 Firefox/87.0,Macintosh,Firefox,87,OS X,10.13
12,1,null,"""",html-keyboard-response,43,203608,0.0-43.0,"""","<div style=""font-size:60px;"">+</div>","""",3,fixationBtwnNeutralMaskAndPrompt,Practice,null,1000,"""","""","""","""","""","""","""","""","""",4/18/2021 20:14,72.197.207.3,Mozilla/5.0 (Macintosh; Intel Mac OS X 10.13; rv:87.0) Gecko/20100101 Firefox/87.0,Macintosh,Firefox,87,OS X,10.13
12,1,3441,"""",html-button-response,44,207053,0.0-44.0,"""","<img src='jspsych/CFDfaces/CFD-LF-206-078-N.jpg'height=""250px""></br><b>Katelyn</b>",1,3,IntactOrRearranged,Practice,"""","""","""","""",CFD-LF-206-078-N.jpg,Katelyn,1,1,"""","""","""",4/18/2021 20:14,72.197.207.3,Mozilla/5.0 (Macintosh; Intel Mac OS X 10.13; rv:87.0) Gecko/20100101 Firefox/87.0,Macintosh,Firefox,87,OS X,10.13
12,1,1966,"""",html-slider-response,45,209021,0.0-45.0,"""","<img src='jspsych/CFDfaces/CFD-LF-206-078-N.jpg'height=""250px""></br><b>Katelyn</b>","""",3,ConfidenceQuery,Practice,"""","""","""","""",CFD-BF-009-002-N.jpg,Amy,1,"""",0,95,"""",4/18/2021 20:14,72.197.207.3,Mozilla/5.0 (Macintosh; Intel Mac OS X 10.13; rv:87.0) Gecko/20100101 Firefox/87.0,Macintosh,Firefox,87,OS X,10.13
12,1,1671,"""",html-button-response,46,210692,0.0-46.0,"""",You are Correct. You Called A Rearranged Pair Rearranged,0,3,feedback,Practice,"""","""","""","""","""","""","""","""","""","""","""",4/18/2021 20:14,72.197.207.3,Mozilla/5.0 (Macintosh; Intel Mac OS X 10.13; rv:87.0) Gecko/20100101 Firefox/87.0,Macintosh,Firefox,87,OS X,10.13
12,1,null,"""",html-keyboard-response,47,211700,0.0-47.0,"""","<div style=""font-size:60px;"">+</div>","""",4,ITI,Practice,null,1000,"""","""","""","""","""","""","""","""","""",4/18/2021 20:14,72.197.207.3,Mozilla/5.0 (Macintosh; Intel Mac OS X 10.13; rv:87.0) Gecko/20100101 Firefox/87.0,Macintosh,Firefox,87,OS X,10.13
12,1,null,"""",image-keyboard-response,48,211960,0.0-48.0,"""",jspsych/scrambledNeutralFaces/scrambledBM25NES.JPG,"""",4,forwardMask,Practice,null,250,"""",n,"""","""","""","""","""","""","""",4/18/2021 20:14,72.197.207.3,Mozilla/5.0 (Macintosh; Intel Mac OS X 10.13; rv:87.0) Gecko/20100101 Firefox/87.0,Macintosh,Firefox,87,OS X,10.13
12,1,null,"""",image-keyboard-response,49,211985,0.0-49.0,"""",jspsych/neutralFaces/BM25NES.JPG,"""",4,Cue,Practice,null,16,"""","""","""","""","""","""","""","""","""",4/18/2021 20:14,72.197.207.3,Mozilla/5.0 (Macintosh; Intel Mac OS X 10.13; rv:87.0) Gecko/20100101 Firefox/87.0,Macintosh,Firefox,87,OS X,10.13
12,1,null,"""",image-keyboard-response,50,212092,0.0-50.0,"""",jspsych/neutralFaces/BM09NES.JPG,"""",4,backwardMask,Practice,null,100,"""","""","""","""","""","""","""","""","""",4/18/2021 20:14,72.197.207.3,Mozilla/5.0 (Macintosh; Intel Mac OS X 10.13; rv:87.0) Gecko/20100101 Firefox/87.0,Macintosh,Firefox,87,OS X,10.13
12,1,null,"""",html-keyboard-response,51,213094,0.0-51.0,"""","<div style=""font-size:60px;"">+</div>","""",4,fixationBtwnNeutralMaskAndPrompt,Practice,null,1000,"""","""","""","""","""","""","""","""","""",4/18/2021 20:14,72.197.207.3,Mozilla/5.0 (Macintosh; Intel Mac OS X 10.13; rv:87.0) Gecko/20100101 Firefox/87.0,Macintosh,Firefox,87,OS X,10.13
12,1,2894,"""",html-button-response,52,215989,0.0-52.0,"""","<img src='jspsych/CFDfaces/CFD-AF-200-228-N.jpg'height=""250px""></br><b>Cassandra</b>",1,4,IntactOrRearranged,Practice,"""","""","""","""",CFD-AF-200-228-N.jpg,Cassandra,1,1,"""","""","""",4/18/2021 20:14,72.197.207.3,Mozilla/5.0 (Macintosh; Intel Mac OS X 10.13; rv:87.0) Gecko/20100101 Firefox/87.0,Macintosh,Firefox,87,OS X,10.13
12,1,1173,"""",html-slider-response,53,217165,0.0-53.0,"""","<img src='jspsych/CFDfaces/CFD-AF-200-228-N.jpg'height=""250px""></br><b>Cassandra</b>","""",4,ConfidenceQuery,Practice,"""","""","""","""",CFD-BF-009-002-N.jpg,Amy,1,"""",0,75,"""",4/18/2021 20:14,72.197.207.3,Mozilla/5.0 (Macintosh; Intel Mac OS X 10.13; rv:87.0) Gecko/20100101 Firefox/87.0,Macintosh,Firefox,87,OS X,10.13
12,1,1313,"""",html-button-response,54,218483,0.0-54.0,"""",You are Correct. You Called A Rearranged Pair Rearranged,0,4,feedback,Practice,"""","""","""","""","""","""","""","""","""","""","""",4/18/2021 20:14,72.197.207.3,Mozilla/5.0 (Macintosh; Intel Mac OS X 10.13; rv:87.0) Gecko/20100101 Firefox/87.0,Macintosh,Firefox,87,OS X,10.13
12,1,null,"""",html-keyboard-response,55,219484,0.0-55.0,"""","<div style=""font-size:60px;"">+</div>","""",5,ITI,Practice,null,1000,"""","""","""","""","""","""","""","""","""",4/18/2021 20:14,72.197.207.3,Mozilla/5.0 (Macintosh; Intel Mac OS X 10.13; rv:87.0) Gecko/20100101 Firefox/87.0,Macintosh,Firefox,87,OS X,10.13
12,1,null,"""",image-keyboard-response,56,219741,0.0-56.0,"""",jspsych/scrambledDisgustFaces/scrambledAF35DIS.JPG,"""",5,forwardMask,Practice,null,250,"""",d,"""","""","""","""","""","""","""",4/18/2021 20:14,72.197.207.3,Mozilla/5.0 (Macintosh; Intel Mac OS X 10.13; rv:87.0) Gecko/20100101 Firefox/87.0,Macintosh,Firefox,87,OS X,10.13
12,1,null,"""",image-keyboard-response,57,219762,0.0-57.0,"""",jspsych/disgustFaces/AF35DIS.JPG,"""",5,Cue,Practice,null,16,"""","""","""","""","""","""","""","""","""",4/18/2021 20:14,72.197.207.3,Mozilla/5.0 (Macintosh; Intel Mac OS X 10.13; rv:87.0) Gecko/20100101 Firefox/87.0,Macintosh,Firefox,87,OS X,10.13
12,1,null,"""",image-keyboard-response,58,219874,0.0-58.0,"""",jspsych/neutralFaces/BF32NES.JPG,"""",5,backwardMask,Practice,null,100,"""","""","""","""","""","""","""","""","""",4/18/2021 20:14,72.197.207.3,Mozilla/5.0 (Macintosh; Intel Mac OS X 10.13; rv:87.0) Gecko/20100101 Firefox/87.0,Macintosh,Firefox,87,OS X,10.13
12,1,null,"""",html-keyboard-response,59,220874,0.0-59.0,"""","<div style=""font-size:60px;"">+</div>","""",5,fixationBtwnNeutralMaskAndPrompt,Practice,null,1000,"""","""","""","""","""","""","""","""","""",4/18/2021 20:14,72.197.207.3,Mozilla/5.0 (Macintosh; Intel Mac OS X 10.13; rv:87.0) Gecko/20100101 Firefox/87.0,Macintosh,Firefox,87,OS X,10.13
12,1,1633,"""",html-button-response,60,222510,0.0-60.0,"""","<img src='jspsych/CFDfaces/CFD-AM-213-056-N.jpg'height=""250px""></br><b>Marcus</b>",0,5,IntactOrRearranged,Practice,"""","""","""","""",CFD-AM-213-056-N.jpg,Marcus,1,0,"""","""","""",4/18/2021 20:14,72.197.207.3,Mozilla/5.0 (Macintosh; Intel Mac OS X 10.13; rv:87.0) Gecko/20100101 Firefox/87.0,Macintosh,Firefox,87,OS X,10.13
12,1,1925,"""",html-slider-response,61,224438,0.0-61.0,"""","<img src='jspsych/CFDfaces/CFD-AM-213-056-N.jpg'height=""250px""></br><b>Marcus</b>","""",5,ConfidenceQuery,Practice,"""","""","""","""",CFD-BF-009-002-N.jpg,Amy,1,"""",0,100,"""",4/18/2021 20:14,72.197.207.3,Mozilla/5.0 (Macintosh; Intel Mac OS X 10.13; rv:87.0) Gecko/20100101 Firefox/87.0,Macintosh,Firefox,87,OS X,10.13
12,1,2908,"""",html-button-response,62,227349,0.0-62.0,"""",You are Incorrect. You called a Rearranged Pair Intact,0,5,feedback,Practice,"""","""","""","""","""","""","""","""","""","""","""",4/18/2021 20:14,72.197.207.3,Mozilla/5.0 (Macintosh; Intel Mac OS X 10.13; rv:87.0) Gecko/20100101 Firefox/87.0,Macintosh,Firefox,87,OS X,10.13
12,1,null,"""",html-keyboard-response,63,228356,0.0-63.0,"""","<div style=""font-size:60px;"">+</div>","""",6,ITI,Practice,null,1000,"""","""","""","""","""","""","""","""","""",4/18/2021 20:14,72.197.207.3,Mozilla/5.0 (Macintosh; Intel Mac OS X 10.13; rv:87.0) Gecko/20100101 Firefox/87.0,Macintosh,Firefox,87,OS X,10.13
12,1,null,"""",image-keyboard-response,64,228609,0.0-64.0,"""",jspsych/scrambledDisgustFaces/scrambledAF10DIS.JPG,"""",6,forwardMask,Practice,null,250,"""",d,"""","""","""","""","""","""","""",4/18/2021 20:14,72.197.207.3,Mozilla/5.0 (Macintosh; Intel Mac OS X 10.13; rv:87.0) Gecko/20100101 Firefox/87.0,Macintosh,Firefox,87,OS X,10.13
12,1,null,"""",image-keyboard-response,65,228628,0.0-65.0,"""",jspsych/disgustFaces/AF10DIS.JPG,"""",6,Cue,Practice,null,16,"""","""","""","""","""","""","""","""","""",4/18/2021 20:14,72.197.207.3,Mozilla/5.0 (Macintosh; Intel Mac OS X 10.13; rv:87.0) Gecko/20100101 Firefox/87.0,Macintosh,Firefox,87,OS X,10.13
12,1,null,"""",image-keyboard-response,66,228732,0.0-66.0,"""",jspsych/neutralFaces/AF13NES.JPG,"""",6,backwardMask,Practice,null,100,"""","""","""","""","""","""","""","""","""",4/18/2021 20:14,72.197.207.3,Mozilla/5.0 (Macintosh; Intel Mac OS X 10.13; rv:87.0) Gecko/20100101 Firefox/87.0,Macintosh,Firefox,87,OS X,10.13
12,1,null,"""",html-keyboard-response,67,229736,0.0-67.0,"""","<div style=""font-size:60px;"">+</div>","""",6,fixationBtwnNeutralMaskAndPrompt,Practice,null,1000,"""","""","""","""","""","""","""","""","""",4/18/2021 20:14,72.197.207.3,Mozilla/5.0 (Macintosh; Intel Mac OS X 10.13; rv:87.0) Gecko/20100101 Firefox/87.0,Macintosh,Firefox,87,OS X,10.13
12,1,1692,"""",html-button-response,68,231430,0.0-68.0,"""","<img src='jspsych/CFDfaces/CFD-WF-200-099-N.jpg'height=""250px""></br><b>Shannon</b>",0,6,IntactOrRearranged,Practice,"""","""","""","""",CFD-WF-200-099-N.jpg,Shannon,0,0,"""","""","""",4/18/2021 20:14,72.197.207.3,Mozilla/5.0 (Macintosh; Intel Mac OS X 10.13; rv:87.0) Gecko/20100101 Firefox/87.0,Macintosh,Firefox,87,OS X,10.13
12,1,1306,"""",html-slider-response,69,232742,0.0-69.0,"""","<img src='jspsych/CFDfaces/CFD-WF-200-099-N.jpg'height=""250px""></br><b>Shannon</b>","""",6,ConfidenceQuery,Practice,"""","""","""","""",CFD-BF-009-002-N.jpg,Amy,0,"""",0,99,"""",4/18/2021 20:14,72.197.207.3,Mozilla/5.0 (Macintosh; Intel Mac OS X 10.13; rv:87.0) Gecko/20100101 Firefox/87.0,Macintosh,Firefox,87,OS X,10.13
12,1,887,"""",html-button-response,70,233629,0.0-70.0,"""",You are Correct. You called an Intact Pair Intact,0,6,feedback,Practice,"""","""","""","""","""","""","""","""","""","""","""",4/18/2021 20:14,72.197.207.3,Mozilla/5.0 (Macintosh; Intel Mac OS X 10.13; rv:87.0) Gecko/20100101 Firefox/87.0,Macintosh,Firefox,87,OS X,10.13
12,1,null,"""",html-keyboard-response,71,234631,0.0-71.0,"""","<div style=""font-size:60px;"">+</div>","""",7,ITI,Practice,null,1000,"""","""","""","""","""","""","""","""","""",4/18/2021 20:14,72.197.207.3,Mozilla/5.0 (Macintosh; Intel Mac OS X 10.13; rv:87.0) Gecko/20100101 Firefox/87.0,Macintosh,Firefox,87,OS X,10.13
12,1,null,"""",image-keyboard-response,72,234891,0.0-72.0,"""",jspsych/scrambledNeutralFaces/scrambledAM08NES.JPG,"""",7,forwardMask,Practice,null,250,"""",n,"""","""","""","""","""","""","""",4/18/2021 20:14,72.197.207.3,Mozilla/5.0 (Macintosh; Intel Mac OS X 10.13; rv:87.0) Gecko/20100101 Firefox/87.0,Macintosh,Firefox,87,OS X,10.13
12,1,null,"""",image-keyboard-response,73,234912,0.0-73.0,"""",jspsych/neutralFaces/AM08NES.JPG,"""",7,Cue,Practice,null,16,"""","""","""","""","""","""","""","""","""",4/18/2021 20:14,72.197.207.3,Mozilla/5.0 (Macintosh; Intel Mac OS X 10.13; rv:87.0) Gecko/20100101 Firefox/87.0,Macintosh,Firefox,87,OS X,10.13
12,1,null,"""",image-keyboard-response,74,235023,0.0-74.0,"""",jspsych/neutralFaces/BM32NES.JPG,"""",7,backwardMask,Practice,null,100,"""","""","""","""","""","""","""","""","""",4/18/2021 20:14,72.197.207.3,Mozilla/5.0 (Macintosh; Intel Mac OS X 10.13; rv:87.0) Gecko/20100101 Firefox/87.0,Macintosh,Firefox,87,OS X,10.13
12,1,null,"""",html-keyboard-response,75,236025,0.0-75.0,"""","<div style=""font-size:60px;"">+</div>","""",7,fixationBtwnNeutralMaskAndPrompt,Practice,null,1000,"""","""","""","""","""","""","""","""","""",4/18/2021 20:14,72.197.207.3,Mozilla/5.0 (Macintosh; Intel Mac OS X 10.13; rv:87.0) Gecko/20100101 Firefox/87.0,Macintosh,Firefox,87,OS X,10.13
12,1,2820,"""",html-button-response,76,238846,0.0-76.0,"""","<img src='jspsych/CFDfaces/CFD-WM-215-041-N.jpg'height=""250px""></br><b>Carlos</b>",1,7,IntactOrRearranged,Practice,"""","""","""","""",CFD-WM-215-041-N.jpg,Carlos,1,1,"""","""","""",4/18/2021 20:14,72.197.207.3,Mozilla/5.0 (Macintosh; Intel Mac OS X 10.13; rv:87.0) Gecko/20100101 Firefox/87.0,Macintosh,Firefox,87,OS X,10.13
12,1,1266,"""",html-slider-response,77,240118,0.0-77.0,"""","<img src='jspsych/CFDfaces/CFD-WM-215-041-N.jpg'height=""250px""></br><b>Carlos</b>","""",7,ConfidenceQuery,Practice,"""","""","""","""",CFD-BF-009-002-N.jpg,Amy,1,"""",0,93,"""",4/18/2021 20:14,72.197.207.3,Mozilla/5.0 (Macintosh; Intel Mac OS X 10.13; rv:87.0) Gecko/20100101 Firefox/87.0,Macintosh,Firefox,87,OS X,10.13
12,1,958,"""",html-button-response,78,241077,0.0-78.0,"""",You are Correct. You Called A Rearranged Pair Rearranged,0,7,feedback,Practice,"""","""","""","""","""","""","""","""","""","""","""",4/18/2021 20:14,72.197.207.3,Mozilla/5.0 (Macintosh; Intel Mac OS X 10.13; rv:87.0) Gecko/20100101 Firefox/87.0,Macintosh,Firefox,87,OS X,10.13
12,1,null,"""",html-keyboard-response,79,242079,0.0-79.0,"""","<div style=""font-size:60px;"">+</div>","""",8,ITI,Practice,null,1000,"""","""","""","""","""","""","""","""","""",4/18/2021 20:14,72.197.207.3,Mozilla/5.0 (Macintosh; Intel Mac OS X 10.13; rv:87.0) Gecko/20100101 Firefox/87.0,Macintosh,Firefox,87,OS X,10.13
12,1,null,"""",image-keyboard-response,80,242339,0.0-80.0,"""",jspsych/scrambledDisgustFaces/scrambledBM10DIS.JPG,"""",8,forwardMask,Practice,null,250,"""",d,"""","""","""","""","""","""","""",4/18/2021 20:14,72.197.207.3,Mozilla/5.0 (Macintosh; Intel Mac OS X 10.13; rv:87.0) Gecko/20100101 Firefox/87.0,Macintosh,Firefox,87,OS X,10.13
12,1,null,"""",image-keyboard-response,81,242363,0.0-81.0,"""",jspsych/disgustFaces/BM11DIS.JPG,"""",8,Cue,Practice,null,16,"""","""","""","""","""","""","""","""","""",4/18/2021 20:14,72.197.207.3,Mozilla/5.0 (Macintosh; Intel Mac OS X 10.13; rv:87.0) Gecko/20100101 Firefox/87.0,Macintosh,Firefox,87,OS X,10.13
12,1,null,"""",image-keyboard-response,82,242475,0.0-82.0,"""",jspsych/neutralFaces/BM05NES.JPG,"""",8,backwardMask,Practice,null,100,"""","""","""","""","""","""","""","""","""",4/18/2021 20:14,72.197.207.3,Mozilla/5.0 (Macintosh; Intel Mac OS X 10.13; rv:87.0) Gecko/20100101 Firefox/87.0,Macintosh,Firefox,87,OS X,10.13
12,1,null,"""",html-keyboard-response,83,243478,0.0-83.0,"""","<div style=""font-size:60px;"">+</div>","""",8,fixationBtwnNeutralMaskAndPrompt,Practice,null,1000,"""","""","""","""","""","""","""","""","""",4/18/2021 20:14,72.197.207.3,Mozilla/5.0 (Macintosh; Intel Mac OS X 10.13; rv:87.0) Gecko/20100101 Firefox/87.0,Macintosh,Firefox,87,OS X,10.13
12,1,1510,"""",html-button-response,84,244990,0.0-84.0,"""","<img src='jspsych/CFDfaces/CFD-LF-204-133-N.jpg'height=""250px""></br><b>Tara</b>",0,8,IntactOrRearranged,Practice,"""","""","""","""",CFD-LF-204-133-N.jpg,Tara,0,0,"""","""","""",4/18/2021 20:14,72.197.207.3,Mozilla/5.0 (Macintosh; Intel Mac OS X 10.13; rv:87.0) Gecko/20100101 Firefox/87.0,Macintosh,Firefox,87,OS X,10.13
12,1,1318,"""",html-slider-response,85,246310,0.0-85.0,"""","<img src='jspsych/CFDfaces/CFD-LF-204-133-N.jpg'height=""250px""></br><b>Tara</b>","""",8,ConfidenceQuery,Practice,"""","""","""","""",CFD-BF-009-002-N.jpg,Amy,0,"""",0,100,"""",4/18/2021 20:14,72.197.207.3,Mozilla/5.0 (Macintosh; Intel Mac OS X 10.13; rv:87.0) Gecko/20100101 Firefox/87.0,Macintosh,Firefox,87,OS X,10.13
12,1,1163,"""",html-button-response,86,247480,0.0-86.0,"""",You are Correct. You called an Intact Pair Intact,0,8,feedback,Practice,"""","""","""","""","""","""","""","""","""","""","""",4/18/2021 20:14,72.197.207.3,Mozilla/5.0 (Macintosh; Intel Mac OS X 10.13; rv:87.0) Gecko/20100101 Firefox/87.0,Macintosh,Firefox,87,OS X,10.13
12,1,6113,"""",image-button-response,87,253607,0.0-87.0,"""",directionsMemoryAssociation3.JPG,0,128,DirectionsBeforeActualTEst,Break,"""","""","""","""","""","""","""","""","""","""","""",4/18/2021 20:14,72.197.207.3,Mozilla/5.0 (Macintosh; Intel Mac OS X 10.13; rv:87.0) Gecko/20100101 Firefox/87.0,Macintosh,Firefox,87,OS X,10.13
12,1,8920,"""",image-button-response,88,262544,0.0-88.0,"""",directionsForTest2.JPG,0,1,directionsForTest2,break,"""","""","""","""","""","""","""","""","""","""","""",4/18/2021 20:14,72.197.207.3,Mozilla/5.0 (Macintosh; Intel Mac OS X 10.13; rv:87.0) Gecko/20100101 Firefox/87.0,Macintosh,Firefox,87,OS X,10.13
12,1,11892,"""",html-button-response,89,274439,0.0-89.0,"""","<p>You will be asked to memorize and then recall four sets of face-name pairs. </p> <p> Each set will have 32 pairs. </p> <p>After the fourth set, there will be a brief follow-up experiment (<40 min alltogether)</p>",0,"""","""","""","""","""","""","""","""","""","""","""","""","""","""",4/18/2021 20:14,72.197.207.3,Mozilla/5.0 (Macintosh; Intel Mac OS X 10.13; rv:87.0) Gecko/20100101 Firefox/87.0,Macintosh,Firefox,87,OS X,10.13
12,1,2463,"""",html-keyboard-response,90,279447,0.0-90.0,"""","<img src='jspsych/CFDfaces/CFD-BM-205-001-N.jpg' height=""250px""></br><b>Brian</b>","""",256,IntactFace,Memorization,78,5000,n,"""",CFD-BF-001-025-N.jpg,Jasmine,0,"""","""","""",1,4/18/2021 20:14,72.197.207.3,Mozilla/5.0 (Macintosh; Intel Mac OS X 10.13; rv:87.0) Gecko/20100101 Firefox/87.0,Macintosh,Firefox,87,OS X,10.13
12,1,null,"""",html-keyboard-response,91,279955,0.0-91.0,"""","<div style=""font-size:60px;"">+</div>","""",256,fixation,Memorization,null,500,"""","""","""","""","""","""","""","""",1,4/18/2021 20:14,72.197.207.3,Mozilla/5.0 (Macintosh; Intel Mac OS X 10.13; rv:87.0) Gecko/20100101 Firefox/87.0,Macintosh,Firefox,87,OS X,10.13
12,1,2329,"""",html-keyboard-response,92,284963,0.0-92.0,"""","<img src='jspsych/CFDfaces/CFD-LF-232-199-N.jpg' height=""250px""></br><b>Stephanie</b>","""",256,IntactFace,Memorization,70,5000,f,"""",CFD-BF-009-002-N.jpg,Amy,0,"""","""","""",1,4/18/2021 20:14,72.197.207.3,Mozilla/5.0 (Macintosh; Intel Mac OS X 10.13; rv:87.0) Gecko/20100101 Firefox/87.0,Macintosh,Firefox,87,OS X,10.13
12,1,null,"""",html-keyboard-response,93,285472,0.0-93.0,"""","<div style=""font-size:60px;"">+</div>","""",256,fixation,Memorization,null,500,"""","""","""","""","""","""","""","""",1,4/18/2021 20:14,72.197.207.3,Mozilla/5.0 (Macintosh; Intel Mac OS X 10.13; rv:87.0) Gecko/20100101 Firefox/87.0,Macintosh,Firefox,87,OS X,10.13
12,1,2434,"""",html-keyboard-response,94,290477,0.0-94.0,"""","<img src='jspsych/CFDfaces/CFD-AF-242-158-N.jpg' height=""250px""></br><b>Brittany</b>","""",256,IntactFace,Memorization,78,5000,n,"""",CFD-WF-018-017-N.jpg,Rebecca,0,"""","""","""",1,4/18/2021 20:14,72.197.207.3,Mozilla/5.0 (Macintosh; Intel Mac OS X 10.13; rv:87.0) Gecko/20100101 Firefox/87.0,Macintosh,Firefox,87,OS X,10.13
12,1,null,"""",html-keyboard-response,95,290982,0.0-95.0,"""","<div style=""font-size:60px;"">+</div>","""",256,fixation,Memorization,null,500,"""","""","""","""","""","""","""","""",1,4/18/2021 20:14,72.197.207.3,Mozilla/5.0 (Macintosh; Intel Mac OS X 10.13; rv:87.0) Gecko/20100101 Firefox/87.0,Macintosh,Firefox,87,OS X,10.13
12,1,1981,"""",html-keyboard-response,96,295992,0.0-96.0,"""","<img src='jspsych/CFDfaces/CFD-AM-238-269-N.jpg' height=""250px""></br><b>Joshua</b>","""",256,IntactFace,Memorization,78,5000,n,"""",CFD-LM-209-111-N.jpg,Ryan,0,"""","""","""",1,4/18/2021 20:14,72.197.207.3,Mozilla/5.0 (Macintosh; Intel Mac OS X 10.13; rv:87.0) Gecko/20100101 Firefox/87.0,Macintosh,Firefox,87,OS X,10.13
12,1,null,"""",html-keyboard-response,97,296495,0.0-97.0,"""","<div style=""font-size:60px;"">+</div>","""",256,fixation,Memorization,null,500,"""","""","""","""","""","""","""","""",1,4/18/2021 20:14,72.197.207.3,Mozilla/5.0 (Macintosh; Intel Mac OS X 10.13; rv:87.0) Gecko/20100101 Firefox/87.0,Macintosh,Firefox,87,OS X,10.13
12,1,2131,"""",html-keyboard-response,98,301501,0.0-98.0,"""","<img src='jspsych/CFDfaces/CFD-BM-032-024-N.jpg' height=""250px""></br><b>Nicholas</b>","""",256,IntactFace,Memorization,78,5000,n,"""",CFD-WF-016-015-N.jpg,Laura,0,"""","""","""",1,4/18/2021 20:14,72.197.207.3,Mozilla/5.0 (Macintosh; Intel Mac OS X 10.13; rv:87.0) Gecko/20100101 Firefox/87.0,Macintosh,Firefox,87,OS X,10.13
12,1,null,"""",html-keyboard-response,99,302011,0.0-99.0,"""","<div style=""font-size:60px;"">+</div>","""",256,fixation,Memorization,null,500,"""","""","""","""","""","""","""","""",1,4/18/2021 20:14,72.197.207.3,Mozilla/5.0 (Macintosh; Intel Mac OS X 10.13; rv:87.0) Gecko/20100101 Firefox/87.0,Macintosh,Firefox,87,OS X,10.13
12,1,2108,"""",html-keyboard-response,100,307017,0.0-100.0,"""","<img src='jspsych/CFDfaces/CFD-BM-029-024-N.jpg' height=""250px""></br><b>Eric</b>","""",256,IntactFace,Memorization,78,5000,n,"""",CFD-WF-029-002-N.jpg,Heather,0,"""","""","""",1,4/18/2021 20:14,72.197.207.3,Mozilla/5.0 (Macintosh; Intel Mac OS X 10.13; rv:87.0) Gecko/20100101 Firefox/87.0,Macintosh,Firefox,87,OS X,10.13
12,1,null,"""",html-keyboard-response,101,307521,0.0-101.0,"""","<div style=""font-size:60px;"">+</div>","""",256,fixation,Memorization,null,500,"""","""","""","""","""","""","""","""",1,4/18/2021 20:14,72.197.207.3,Mozilla/5.0 (Macintosh; Intel Mac OS X 10.13; rv:87.0) Gecko/20100101 Firefox/87.0,Macintosh,Firefox,87,OS X,10.13
12,1,3048,"""",html-keyboard-response,102,312526,0.0-102.0,"""","<img src='jspsych/CFDfaces/CFD-WM-022-001-N.jpg' height=""250px""></br><b>Robert</b>","""",256,IntactFace,Memorization,78,5000,n,"""",CFD-AF-243-170-N.jpg,Whitney,0,"""","""","""",1,4/18/2021 20:14,72.197.207.3,Mozilla/5.0 (Macintosh; Intel Mac OS X 10.13; rv:87.0) Gecko/20100101 Firefox/87.0,Macintosh,Firefox,87,OS X,10.13
12,1,null,"""",html-keyboard-response,103,313071,0.0-103.0,"""","<div style=""font-size:60px;"">+</div>","""",256,fixation,Memorization,null,500,"""","""","""","""","""","""","""","""",1,4/18/2021 20:14,72.197.207.3,Mozilla/5.0 (Macintosh; Intel Mac OS X 10.13; rv:87.0) Gecko/20100101 Firefox/87.0,Macintosh,Firefox,87,OS X,10.13
12,1,2947,"""",html-keyboard-response,104,318075,0.0-104.0,"""","<img src='jspsych/CFDfaces/CFD-BF-008-001-N.jpg' height=""250px""></br><b>Meghan</b>","""",256,IntactFace,Memorization,78,5000,n,"""",CFD-WM-011-002-N.jpg,Luis,0,"""","""","""",1,4/18/2021 20:14,72.197.207.3,Mozilla/5.0 (Macintosh; Intel Mac OS X 10.13; rv:87.0) Gecko/20100101 Firefox/87.0,Macintosh,Firefox,87,OS X,10.13
12,1,null,"""",html-keyboard-response,105,318583,0.0-105.0,"""","<div style=""font-size:60px;"">+</div>","""",256,fixation,Memorization,null,500,"""","""","""","""","""","""","""","""",1,4/18/2021 20:14,72.197.207.3,Mozilla/5.0 (Macintosh; Intel Mac OS X 10.13; rv:87.0) Gecko/20100101 Firefox/87.0,Macintosh,Firefox,87,OS X,10.13
12,1,null,"""",html-keyboard-response,106,323590,0.0-106.0,"""","<img src='jspsych/CFDfaces/CFD-LM-224-162-N.jpg' height=""250px""></br><b>Ian</b>","""",256,IntactFace,Memorization,null,5000,"""","""",CFD-BM-026-002-N.jpg,Justin,0,"""","""","""",1,4/18/2021 20:14,72.197.207.3,Mozilla/5.0 (Macintosh; Intel Mac OS X 10.13; rv:87.0) Gecko/20100101 Firefox/87.0,Macintosh,Firefox,87,OS X,10.13
12,1,null,"""",html-keyboard-response,107,324100,0.0-107.0,"""","<div style=""font-size:60px;"">+</div>","""",256,fixation,Memorization,null,500,"""","""","""","""","""","""","""","""",1,4/18/2021 20:14,72.197.207.3,Mozilla/5.0 (Macintosh; Intel Mac OS X 10.13; rv:87.0) Gecko/20100101 Firefox/87.0,Macintosh,Firefox,87,OS X,10.13
12,1,null,"""",html-keyboard-response,108,329104,0.0-108.0,"""","<img src='jspsych/CFDfaces/CFD-BM-027-001-N.jpg' height=""250px""></br><b>Peter</b>","""",256,IntactFace,Memorization,null,5000,"""","""",CFD-AF-239-171-N.jpg,Lauren,0,"""","""","""",1,4/18/2021 20:14,72.197.207.3,Mozilla/5.0 (Macintosh; Intel Mac OS X 10.13; rv:87.0) Gecko/20100101 Firefox/87.0,Macintosh,Firefox,87,OS X,10.13
12,1,null,"""",html-keyboard-response,109,329611,0.0-109.0,"""","<div style=""font-size:60px;"">+</div>","""",256,fixation,Memorization,null,500,"""","""","""","""","""","""","""","""",1,4/18/2021 20:14,72.197.207.3,Mozilla/5.0 (Macintosh; Intel Mac OS X 10.13; rv:87.0) Gecko/20100101 Firefox/87.0,Macintosh,Firefox,87,OS X,10.13
12,1,1924,"""",html-keyboard-response,110,334619,0.0-110.0,"""","<img src='jspsych/CFDfaces/CFD-WF-204-038-N.jpg' height=""250px""></br><b>Andrea</b>","""",256,IntactFace,Memorization,70,5000,f,"""",CFD-AM-243-212-N.jpg,Cameron,0,"""","""","""",1,4/18/2021 20:14,72.197.207.3,Mozilla/5.0 (Macintosh; Intel Mac OS X 10.13; rv:87.0) Gecko/20100101 Firefox/87.0,Macintosh,Firefox,87,OS X,10.13
12,1,null,"""",html-keyboard-response,111,335130,0.0-111.0,"""","<div style=""font-size:60px;"">+</div>","""",256,fixation,Memorization,null,500,"""","""","""","""","""","""","""","""",1,4/18/2021 20:14,72.197.207.3,Mozilla/5.0 (Macintosh; Intel Mac OS X 10.13; rv:87.0) Gecko/20100101 Firefox/87.0,Macintosh,Firefox,87,OS X,10.13
12,1,2040,"""",html-keyboard-response,112,340134,0.0-112.0,"""","<img src='jspsych/CFDfaces/CFD-LF-239-148-N.jpg' height=""250px""></br><b>Christina</b>","""",256,IntactFace,Memorization,78,5000,n,"""",CFD-BF-047-003-N.jpg,Sara,0,"""","""","""",1,4/18/2021 20:14,72.197.207.3,Mozilla/5.0 (Macintosh; Intel Mac OS X 10.13; rv:87.0) Gecko/20100101 Firefox/87.0,Macintosh,Firefox,87,OS X,10.13
12,1,null,"""",html-keyboard-response,113,340637,0.0-113.0,"""","<div style=""font-size:60px;"">+</div>","""",256,fixation,Memorization,null,500,"""","""","""","""","""","""","""","""",1,4/18/2021 20:14,72.197.207.3,Mozilla/5.0 (Macintosh; Intel Mac OS X 10.13; rv:87.0) Gecko/20100101 Firefox/87.0,Macintosh,Firefox,87,OS X,10.13
12,1,2521,"""",html-keyboard-response,114,345643,0.0-114.0,"""","<img src='jspsych/CFDfaces/CFD-LM-201-057-N.jpg' height=""250px""></br><b>Richard</b>","""",256,IntactFace,Memorization,70,5000,f,"""",CFD-WM-213-076-N.jpg,Jeremy,0,"""","""","""",1,4/18/2021 20:14,72.197.207.3,Mozilla/5.0 (Macintosh; Intel Mac OS X 10.13; rv:87.0) Gecko/20100101 Firefox/87.0,Macintosh,Firefox,87,OS X,10.13
12,1,null,"""",html-keyboard-response,115,346156,0.0-115.0,"""","<div style=""font-size:60px;"">+</div>","""",256,fixation,Memorization,null,500,"""","""","""","""","""","""","""","""",1,4/18/2021 20:14,72.197.207.3,Mozilla/5.0 (Macintosh; Intel Mac OS X 10.13; rv:87.0) Gecko/20100101 Firefox/87.0,Macintosh,Firefox,87,OS X,10.13
12,1,2594,"""",html-keyboard-response,116,351163,0.0-116.0,"""","<img src='jspsych/CFDfaces/CFD-LF-220-120-N.jpg' height=""250px""></br><b>Julie</b>","""",256,IntactFace,Memorization,78,5000,n,"""",CFD-WM-207-048-N.jpg,Travis,0,"""","""","""",1,4/18/2021 20:14,72.197.207.3,Mozilla/5.0 (Macintosh; Intel Mac OS X 10.13; rv:87.0) Gecko/20100101 Firefox/87.0,Macintosh,Firefox,87,OS X,10.13
12,1,null,"""",html-keyboard-response,117,351667,0.0-117.0,"""","<div style=""font-size:60px;"">+</div>","""",256,fixation,Memorization,null,500,"""","""","""","""","""","""","""","""",1,4/18/2021 20:14,72.197.207.3,Mozilla/5.0 (Macintosh; Intel Mac OS X 10.13; rv:87.0) Gecko/20100101 Firefox/87.0,Macintosh,Firefox,87,OS X,10.13
12,1,4305,"""",html-keyboard-response,118,356674,0.0-118.0,"""","<img src='jspsych/CFDfaces/CFD-BF-209-172-N.jpg' height=""250px""></br><b>Vanessa</b>","""",256,IntactFace,Memorization,70,5000,f,"""",CFD-WM-003-002-N.jpg,Jesse,0,"""","""","""",1,4/18/2021 20:14,72.197.207.3,Mozilla/5.0 (Macintosh; Intel Mac OS X 10.13; rv:87.0) Gecko/20100101 Firefox/87.0,Macintosh,Firefox,87,OS X,10.13
12,1,null,"""",html-keyboard-response,119,357183,0.0-119.0,"""","<div style=""font-size:60px;"">+</div>","""",256,fixation,Memorization,null,500,"""","""","""","""","""","""","""","""",1,4/18/2021 20:14,72.197.207.3,Mozilla/5.0 (Macintosh; Intel Mac OS X 10.13; rv:87.0) Gecko/20100101 Firefox/87.0,Macintosh,Firefox,87,OS X,10.13
12,1,2671,"""",html-keyboard-response,120,362189,0.0-120.0,"""","<img src='jspsych/CFDfaces/CFD-AM-202-079-N.jpg' height=""250px""></br><b>Jeffrey</b>","""",256,IntactFace,Memorization,78,5000,n,"""",CFD-AM-228-214-N.jpg,Mark,0,"""","""","""",1,4/18/2021 20:14,72.197.207.3,Mozilla/5.0 (Macintosh; Intel Mac OS X 10.13; rv:87.0) Gecko/20100101 Firefox/87.0,Macintosh,Firefox,87,OS X,10.13
12,1,null,"""",html-keyboard-response,121,362693,0.0-121.0,"""","<div style=""font-size:60px;"">+</div>","""",256,fixation,Memorization,null,500,"""","""","""","""","""","""","""","""",1,4/18/2021 20:14,72.197.207.3,Mozilla/5.0 (Macintosh; Intel Mac OS X 10.13; rv:87.0) Gecko/20100101 Firefox/87.0,Macintosh,Firefox,87,OS X,10.13
12,1,null,"""",html-keyboard-response,122,367697,0.0-122.0,"""","<img src='jspsych/CFDfaces/CFD-AM-205-153-N.jpg' height=""250px""></br><b>Jason</b>","""",256,IntactFace,Memorization,null,5000,"""","""",CFD-AF-230-193-N.jpg,Jenna,0,"""","""","""",1,4/18/2021 20:14,72.197.207.3,Mozilla/5.0 (Macintosh; Intel Mac OS X 10.13; rv:87.0) Gecko/20100101 Firefox/87.0,Macintosh,Firefox,87,OS X,10.13
12,1,null,"""",html-keyboard-response,123,368208,0.0-123.0,"""","<div style=""font-size:60px;"">+</div>","""",256,fixation,Memorization,null,500,"""","""","""","""","""","""","""","""",1,4/18/2021 20:14,72.197.207.3,Mozilla/5.0 (Macintosh; Intel Mac OS X 10.13; rv:87.0) Gecko/20100101 Firefox/87.0,Macintosh,Firefox,87,OS X,10.13
12,1,3623,"""",html-keyboard-response,124,373212,0.0-124.0,"""","<img src='jspsych/CFDfaces/CFD-LF-208-127-N.jpg' height=""250px""></br><b>Victoria</b>","""",256,IntactFace,Memorization,70,5000,f,"""",CFD-LM-223-175-N.jpg,Dustin,0,"""","""","""",1,4/18/2021 20:14,72.197.207.3,Mozilla/5.0 (Macintosh; Intel Mac OS X 10.13; rv:87.0) Gecko/20100101 Firefox/87.0,Macintosh,Firefox,87,OS X,10.13
12,1,null,"""",html-keyboard-response,125,373717,0.0-125.0,"""","<div style=""font-size:60px;"">+</div>","""",256,fixation,Memorization,null,500,"""","""","""","""","""","""","""","""",1,4/18/2021 20:14,72.197.207.3,Mozilla/5.0 (Macintosh; Intel Mac OS X 10.13; rv:87.0) Gecko/20100101 Firefox/87.0,Macintosh,Firefox,87,OS X,10.13
12,1,2348,"""",html-keyboard-response,126,378725,0.0-126.0,"""","<img src='jspsych/CFDfaces/CFD-WF-017-003-N.jpg' height=""250px""></br><b>Michelle</b>","""",256,IntactFace,Memorization,78,5000,n,"""",CFD-WM-232-070-N.jpg,Austin,0,"""","""","""",1,4/18/2021 20:14,72.197.207.3,Mozilla/5.0 (Macintosh; Intel Mac OS X 10.13; rv:87.0) Gecko/20100101 Firefox/87.0,Macintosh,Firefox,87,OS X,10.13
12,1,null,"""",html-keyboard-response,127,379226,0.0-127.0,"""","<div style=""font-size:60px;"">+</div>","""",256,fixation,Memorization,null,500,"""","""","""","""","""","""","""","""",1,4/18/2021 20:14,72.197.207.3,Mozilla/5.0 (Macintosh; Intel Mac OS X 10.13; rv:87.0) Gecko/20100101 Firefox/87.0,Macintosh,Firefox,87,OS X,10.13
12,1,1533,"""",html-keyboard-response,128,384230,0.0-128.0,"""","<img src='jspsych/CFDfaces/CFD-WF-205-006-N.jpg' height=""250px""></br><b>Emily</b>","""",256,IntactFace,Memorization,70,5000,f,"""",CFD-WM-009-002-N.jpg,Vincent,0,"""","""","""",1,4/18/2021 20:14,72.197.207.3,Mozilla/5.0 (Macintosh; Intel Mac OS X 10.13; rv:87.0) Gecko/20100101 Firefox/87.0,Macintosh,Firefox,87,OS X,10.13
12,1,null,"""",html-keyboard-response,129,384737,0.0-129.0,"""","<div style=""font-size:60px;"">+</div>","""",256,fixation,Memorization,null,500,"""","""","""","""","""","""","""","""",1,4/18/2021 20:14,72.197.207.3,Mozilla/5.0 (Macintosh; Intel Mac OS X 10.13; rv:87.0) Gecko/20100101 Firefox/87.0,Macintosh,Firefox,87,OS X,10.13
12,1,3988,"""",html-keyboard-response,130,389744,0.0-130.0,"""","<img src='jspsych/CFDfaces/CFD-BF-005-001-N.jpg' height=""250px""></br><b>Kimberly</b>","""",256,IntactFace,Memorization,78,5000,n,"""",CFD-WF-006-002-N.jpg,Taylor,0,"""","""","""",1,4/18/2021 20:14,72.197.207.3,Mozilla/5.0 (Macintosh; Intel Mac OS X 10.13; rv:87.0) Gecko/20100101 Firefox/87.0,Macintosh,Firefox,87,OS X,10.13
12,1,null,"""",html-keyboard-response,131,390251,0.0-131.0,"""","<div style=""font-size:60px;"">+</div>","""",256,fixation,Memorization,null,500,"""","""","""","""","""","""","""","""",1,4/18/2021 20:14,72.197.207.3,Mozilla/5.0 (Macintosh; Intel Mac OS X 10.13; rv:87.0) Gecko/20100101 Firefox/87.0,Macintosh,Firefox,87,OS X,10.13
12,1,1715,"""",html-keyboard-response,132,395259,0.0-132.0,"""","<img src='jspsych/CFDfaces/CFD-WM-034-030-N.jpg' height=""250px""></br><b>Christian</b>","""",256,IntactFace,Memorization,70,5000,f,"""",CFD-BF-222-240-N.jpg,Melissa,0,"""","""","""",1,4/18/2021 20:14,72.197.207.3,Mozilla/5.0 (Macintosh; Intel Mac OS X 10.13; rv:87.0) Gecko/20100101 Firefox/87.0,Macintosh,Firefox,87,OS X,10.13
12,1,null,"""",html-keyboard-response,133,395763,0.0-133.0,"""","<div style=""font-size:60px;"">+</div>","""",256,fixation,Memorization,null,500,"""","""","""","""","""","""","""","""",1,4/18/2021 20:14,72.197.207.3,Mozilla/5.0 (Macintosh; Intel Mac OS X 10.13; rv:87.0) Gecko/20100101 Firefox/87.0,Macintosh,Firefox,87,OS X,10.13
12,1,2123,"""",html-keyboard-response,134,400771,0.0-134.0,"""","<img src='jspsych/CFDfaces/CFD-WM-015-002-N.jpg' height=""250px""></br><b>Daniel</b>","""",256,IntactFace,Memorization,70,5000,f,"""",CFD-WF-019-005-N.jpg,Angela,0,"""","""","""",1,4/18/2021 20:14,72.197.207.3,Mozilla/5.0 (Macintosh; Intel Mac OS X 10.13; rv:87.0) Gecko/20100101 Firefox/87.0,Macintosh,Firefox,87,OS X,10.13
12,1,null,"""",html-keyboard-response,135,401274,0.0-135.0,"""","<div style=""font-size:60px;"">+</div>","""",256,fixation,Memorization,null,500,"""","""","""","""","""","""","""","""",1,4/18/2021 20:14,72.197.207.3,Mozilla/5.0 (Macintosh; Intel Mac OS X 10.13; rv:87.0) Gecko/20100101 Firefox/87.0,Macintosh,Firefox,87,OS X,10.13
12,1,2726,"""",html-keyboard-response,136,406278,0.0-136.0,"""","<img src='jspsych/CFDfaces/CFD-BM-039-029-N.jpg' height=""250px""></br><b>Juan</b>","""",256,IntactFace,Memorization,78,5000,n,"""",CFD-LF-202-065-N.jpg,Tiffany,0,"""","""","""",1,4/18/2021 20:14,72.197.207.3,Mozilla/5.0 (Macintosh; Intel Mac OS X 10.13; rv:87.0) Gecko/20100101 Firefox/87.0,Macintosh,Firefox,87,OS X,10.13
12,1,null,"""",html-keyboard-response,137,406789,0.0-137.0,"""","<div style=""font-size:60px;"">+</div>","""",256,fixation,Memorization,null,500,"""","""","""","""","""","""","""","""",1,4/18/2021 20:14,72.197.207.3,Mozilla/5.0 (Macintosh; Intel Mac OS X 10.13; rv:87.0) Gecko/20100101 Firefox/87.0,Macintosh,Firefox,87,OS X,10.13
12,1,3545,"""",html-keyboard-response,138,411794,0.0-138.0,"""","<img src='jspsych/CFDfaces/CFD-AM-237-154-N.jpg' height=""250px""></br><b>Brandon</b>","""",256,IntactFace,Memorization,78,5000,n,"""",CFD-BF-226-119-N.jpg,Jordan,0,"""","""","""",1,4/18/2021 20:14,72.197.207.3,Mozilla/5.0 (Macintosh; Intel Mac OS X 10.13; rv:87.0) Gecko/20100101 Firefox/87.0,Macintosh,Firefox,87,OS X,10.13
12,1,null,"""",html-keyboard-response,139,412298,0.0-139.0,"""","<div style=""font-size:60px;"">+</div>","""",256,fixation,Memorization,null,500,"""","""","""","""","""","""","""","""",1,4/18/2021 20:14,72.197.207.3,Mozilla/5.0 (Macintosh; Intel Mac OS X 10.13; rv:87.0) Gecko/20100101 Firefox/87.0,Macintosh,Firefox,87,OS X,10.13
12,1,3068,"""",html-keyboard-response,140,417305,0.0-140.0,"""","<img src='jspsych/CFDfaces/CFD-BF-023-010-N.jpg' height=""250px""></br><b>Kayla</b>","""",256,IntactFace,Memorization,70,5000,f,"""",CFD-LM-248-089-N.jpg,Steven,0,"""","""","""",1,4/18/2021 20:14,72.197.207.3,Mozilla/5.0 (Macintosh; Intel Mac OS X 10.13; rv:87.0) Gecko/20100101 Firefox/87.0,Macintosh,Firefox,87,OS X,10.13
12,1,null,"""",html-keyboard-response,141,417818,0.0-141.0,"""","<div style=""font-size:60px;"">+</div>","""",256,fixation,Memorization,null,500,"""","""","""","""","""","""","""","""",1,4/18/2021 20:14,72.197.207.3,Mozilla/5.0 (Macintosh; Intel Mac OS X 10.13; rv:87.0) Gecko/20100101 Firefox/87.0,Macintosh,Firefox,87,OS X,10.13
12,1,2865,"""",html-keyboard-response,142,422823,0.0-142.0,"""","<img src='jspsych/CFDfaces/CFD-BF-019-001-N.jpg' height=""250px""></br><b>Amanda</b>","""",256,IntactFace,Memorization,78,5000,n,"""",CFD-BM-018-001-N.jpg,Jacob,0,"""","""","""",1,4/18/2021 20:14,72.197.207.3,Mozilla/5.0 (Macintosh; Intel Mac OS X 10.13; rv:87.0) Gecko/20100101 Firefox/87.0,Macintosh,Firefox,87,OS X,10.13
12,1,null,"""",html-keyboard-response,143,423326,0.0-143.0,"""","<div style=""font-size:60px;"">+</div>","""",256,fixation,Memorization,null,500,"""","""","""","""","""","""","""","""",1,4/18/2021 20:14,72.197.207.3,Mozilla/5.0 (Macintosh; Intel Mac OS X 10.13; rv:87.0) Gecko/20100101 Firefox/87.0,Macintosh,Firefox,87,OS X,10.13
12,1,2127,"""",html-keyboard-response,144,428333,0.0-144.0,"""","<img src='jspsych/CFDfaces/CFD-AM-234-355-N.jpg' height=""250px""></br><b>James</b>","""",256,IntactFace,Memorization,70,5000,f,"""",CFD-BF-201-080-N.jpg,Erin,0,"""","""","""",1,4/18/2021 20:14,72.197.207.3,Mozilla/5.0 (Macintosh; Intel Mac OS X 10.13; rv:87.0) Gecko/20100101 Firefox/87.0,Macintosh,Firefox,87,OS X,10.13
12,1,null,"""",html-keyboard-response,145,428846,0.0-145.0,"""","<div style=""font-size:60px;"">+</div>","""",256,fixation,Memorization,null,500,"""","""","""","""","""","""","""","""",1,4/18/2021 20:14,72.197.207.3,Mozilla/5.0 (Macintosh; Intel Mac OS X 10.13; rv:87.0) Gecko/20100101 Firefox/87.0,Macintosh,Firefox,87,OS X,10.13
12,1,3343,"""",html-keyboard-response,146,433852,0.0-146.0,"""","<img src='jspsych/CFDfaces/CFD-WF-207-014-N.jpg' height=""250px""></br><b>Ashley</b>","""",256,IntactFace,Memorization,70,5000,f,"""",CFD-LM-217-162-N.jpg,Sean,0,"""","""","""",1,4/18/2021 20:14,72.197.207.3,Mozilla/5.0 (Macintosh; Intel Mac OS X 10.13; rv:87.0) Gecko/20100101 Firefox/87.0,Macintosh,Firefox,87,OS X,10.13
12,1,null,"""",html-keyboard-response,147,434358,0.0-147.0,"""","<div style=""font-size:60px;"">+</div>","""",256,fixation,Memorization,null,500,"""","""","""","""","""","""","""","""",1,4/18/2021 20:14,72.197.207.3,Mozilla/5.0 (Macintosh; Intel Mac OS X 10.13; rv:87.0) Gecko/20100101 Firefox/87.0,Macintosh,Firefox,87,OS X,10.13
12,1,1660,"""",html-keyboard-response,148,439364,0.0-148.0,"""","<img src='jspsych/CFDfaces/CFD-LF-201-035-N.jpg' height=""250px""></br><b>Samantha</b>","""",256,IntactFace,Memorization,70,5000,f,"""",CFD-AM-212-050-N.jpg,Kenneth,0,"""","""","""",1,4/18/2021 20:14,72.197.207.3,Mozilla/5.0 (Macintosh; Intel Mac OS X 10.13; rv:87.0) Gecko/20100101 Firefox/87.0,Macintosh,Firefox,87,OS X,10.13
12,1,null,"""",html-keyboard-response,149,439877,0.0-149.0,"""","<div style=""font-size:60px;"">+</div>","""",256,fixation,Memorization,null,500,"""","""","""","""","""","""","""","""",1,4/18/2021 20:14,72.197.207.3,Mozilla/5.0 (Macintosh; Intel Mac OS X 10.13; rv:87.0) Gecko/20100101 Firefox/87.0,Macintosh,Firefox,87,OS X,10.13
12,1,3576,"""",html-keyboard-response,150,444883,0.0-150.0,"""","<img src='jspsych/CFDfaces/CFD-AF-214-139-N.jpg' height=""250px""></br><b>Elizabeth</b>","""",256,IntactFace,Memorization,78,5000,n,"""",CFD-AF-208-003-N.jpg,Lindsey,0,"""","""","""",1,4/18/2021 20:14,72.197.207.3,Mozilla/5.0 (Macintosh; Intel Mac OS X 10.13; rv:87.0) Gecko/20100101 Firefox/87.0,Macintosh,Firefox,87,OS X,10.13
12,1,null,"""",html-keyboard-response,151,445386,0.0-151.0,"""","<div style=""font-size:60px;"">+</div>","""",256,fixation,Memorization,null,500,"""","""","""","""","""","""","""","""",1,4/18/2021 20:14,72.197.207.3,Mozilla/5.0 (Macintosh; Intel Mac OS X 10.13; rv:87.0) Gecko/20100101 Firefox/87.0,Macintosh,Firefox,87,OS X,10.13
12,1,2619,"""",html-keyboard-response,152,450393,0.0-152.0,"""","<img src='jspsych/CFDfaces/CFD-BM-041-035-N.jpg' height=""250px""></br><b>Gregory</b>","""",256,IntactFace,Memorization,70,5000,f,"""",CFD-WM-222-057-N.jpg,Timothy,0,"""","""","""",1,4/18/2021 20:14,72.197.207.3,Mozilla/5.0 (Macintosh; Intel Mac OS X 10.13; rv:87.0) Gecko/20100101 Firefox/87.0,Macintosh,Firefox,87,OS X,10.13
12,1,null,"""",html-keyboard-response,153,450908,0.0-153.0,"""","<div style=""font-size:60px;"">+</div>","""",256,fixation,Memorization,null,500,"""","""","""","""","""","""","""","""",1,4/18/2021 20:14,72.197.207.3,Mozilla/5.0 (Macintosh; Intel Mac OS X 10.13; rv:87.0) Gecko/20100101 Firefox/87.0,Macintosh,Firefox,87,OS X,10.13
12,1,1619,"""",html-keyboard-response,154,452528,0.0-154.0,"""",Press Any Key to Begin Memory Test,"""",1,welcomeScreen,Break,32,"""","""","""","""","""","""","""","""","""",1,4/18/2021 20:14,72.197.207.3,Mozilla/5.0 (Macintosh; Intel Mac OS X 10.13; rv:87.0) Gecko/20100101 Firefox/87.0,Macintosh,Firefox,87,OS X,10.13
12,1,null,"""",html-keyboard-response,155,453532,0.0-155.0,"""","<div style=""font-size:60px;"">+</div>","""",256,ITI,Test,null,1000,"""","""","""","""","""","""","""","""",1,4/18/2021 20:14,72.197.207.3,Mozilla/5.0 (Macintosh; Intel Mac OS X 10.13; rv:87.0) Gecko/20100101 Firefox/87.0,Macintosh,Firefox,87,OS X,10.13
12,1,null,"""",image-keyboard-response,156,453787,0.0-156.0,"""",jspsych/scrambledDisgustFaces/scrambledAF28DIS.JPG,"""",256,forwardMask,Test,null,250,"""",d,"""","""","""","""","""","""",1,4/18/2021 20:14,72.197.207.3,Mozilla/5.0 (Macintosh; Intel Mac OS X 10.13; rv:87.0) Gecko/20100101 Firefox/87.0,Macintosh,Firefox,87,OS X,10.13
12,1,null,"""",image-keyboard-response,157,453812,0.0-157.0,"""",jspsych/disgustFaces/AF28DIS.JPG,"""",256,Cue,Test,null,16,"""","""","""","""","""","""","""","""",1,4/18/2021 20:14,72.197.207.3,Mozilla/5.0 (Macintosh; Intel Mac OS X 10.13; rv:87.0) Gecko/20100101 Firefox/87.0,Macintosh,Firefox,87,OS X,10.13
12,1,null,"""",image-keyboard-response,158,453916,0.0-158.0,"""",jspsych/neutralFaces/BF28NES.JPG,"""",256,backwardMask,Test,null,100,"""","""","""","""","""","""","""","""",1,4/18/2021 20:14,72.197.207.3,Mozilla/5.0 (Macintosh; Intel Mac OS X 10.13; rv:87.0) Gecko/20100101 Firefox/87.0,Macintosh,Firefox,87,OS X,10.13
12,1,null,"""",html-keyboard-response,159,454923,0.0-159.0,"""","<div style=""font-size:60px;"">+</div>","""",256,fixationBtwnNeutralMaskAndPrompt,Test,null,1000,"""","""","""","""","""","""","""","""",1,4/18/2021 20:14,72.197.207.3,Mozilla/5.0 (Macintosh; Intel Mac OS X 10.13; rv:87.0) Gecko/20100101 Firefox/87.0,Macintosh,Firefox,87,OS X,10.13
12,1,2103,"""",html-button-response,160,457028,0.0-160.0,"""","<img src='jspsych/CFDfaces/CFD-BF-209-172-N.jpg' height=""250px"">,</br><b>Vanessa</b>",1,256,IntactOrRearranged,Test,"""","""","""","""",CFD-WF-019-005-N.jpg,Erin,0,1,"""","""",1,4/18/2021 20:14,72.197.207.3,Mozilla/5.0 (Macintosh; Intel Mac OS X 10.13; rv:87.0) Gecko/20100101 Firefox/87.0,Macintosh,Firefox,87,OS X,10.13
12,1,1527,"""",html-slider-response,161,458564,0.0-161.0,"""","<img src='jspsych/CFDfaces/CFD-BF-209-172-N.jpg' height=""250px"">,</br><b>Vanessa</b>","""",256,ConfidenceQuery,Test,"""","""","""","""",CFD-WF-019-005-N.jpg,Erin,0,"""",0,61,1,4/18/2021 20:14,72.197.207.3,Mozilla/5.0 (Macintosh; Intel Mac OS X 10.13; rv:87.0) Gecko/20100101 Firefox/87.0,Macintosh,Firefox,87,OS X,10.13
12,1,null,"""",html-keyboard-response,162,459570,0.0-162.0,"""","<div style=""font-size:60px;"">+</div>","""",256,ITI,Test,null,1000,"""","""","""","""","""","""","""","""",1,4/18/2021 20:14,72.197.207.3,Mozilla/5.0 (Macintosh; Intel Mac OS X 10.13; rv:87.0) Gecko/20100101 Firefox/87.0,Macintosh,Firefox,87,OS X,10.13
12,1,null,"""",image-keyboard-response,163,459825,0.0-163.0,"""",jspsych/scrambledNeutralFaces/scrambledBM11NES.JPG,"""",256,forwardMask,Test,null,250,"""",n,"""","""","""","""","""","""",1,4/18/2021 20:14,72.197.207.3,Mozilla/5.0 (Macintosh; Intel Mac OS X 10.13; rv:87.0) Gecko/20100101 Firefox/87.0,Macintosh,Firefox,87,OS X,10.13
12,1,null,"""",image-keyboard-response,164,459848,0.0-164.0,"""",jspsych/neutralFaces/BM11NES.JPG,"""",256,Cue,Test,null,16,"""","""","""","""","""","""","""","""",1,4/18/2021 20:14,72.197.207.3,Mozilla/5.0 (Macintosh; Intel Mac OS X 10.13; rv:87.0) Gecko/20100101 Firefox/87.0,Macintosh,Firefox,87,OS X,10.13
12,1,null,"""",image-keyboard-response,165,459954,0.0-165.0,"""",jspsych/neutralFaces/AM14NES.JPG,"""",256,backwardMask,Test,null,100,"""","""","""","""","""","""","""","""",1,4/18/2021 20:14,72.197.207.3,Mozilla/5.0 (Macintosh; Intel Mac OS X 10.13; rv:87.0) Gecko/20100101 Firefox/87.0,Macintosh,Firefox,87,OS X,10.13
12,1,null,"""",html-keyboard-response,166,460960,0.0-166.0,"""","<div style=""font-size:60px;"">+</div>","""",256,fixationBtwnNeutralMaskAndPrompt,Test,null,1000,"""","""","""","""","""","""","""","""",1,4/18/2021 20:14,72.197.207.3,Mozilla/5.0 (Macintosh; Intel Mac OS X 10.13; rv:87.0) Gecko/20100101 Firefox/87.0,Macintosh,Firefox,87,OS X,10.13
12,1,3130,"""",html-button-response,167,464093,0.0-167.0,"""","<img src='jspsych/CFDfaces/CFD-LF-239-148-N.jpg' height=""250px"">,</br><b>Victoria</b>",0,256,IntactOrRearranged,Test,"""","""","""","""",CFD-LM-248-089-N.jpg,Steven,1,0,"""","""",1,4/18/2021 20:14,72.197.207.3,Mozilla/5.0 (Macintosh; Intel Mac OS X 10.13; rv:87.0) Gecko/20100101 Firefox/87.0,Macintosh,Firefox,87,OS X,10.13
12,1,1855,"""",html-slider-response,168,465957,0.0-168.0,"""","<img src='jspsych/CFDfaces/CFD-LF-239-148-N.jpg' height=""250px"">,</br><b>Victoria</b>","""",256,ConfidenceQuery,Test,"""","""","""","""",CFD-LM-248-089-N.jpg,Steven,1,"""",0,42,1,4/18/2021 20:14,72.197.207.3,Mozilla/5.0 (Macintosh; Intel Mac OS X 10.13; rv:87.0) Gecko/20100101 Firefox/87.0,Macintosh,Firefox,87,OS X,10.13
12,1,null,"""",html-keyboard-response,169,466961,0.0-169.0,"""","<div style=""font-size:60px;"">+</div>","""",256,ITI,Test,null,1000,"""","""","""","""","""","""","""","""",1,4/18/2021 20:14,72.197.207.3,Mozilla/5.0 (Macintosh; Intel Mac OS X 10.13; rv:87.0) Gecko/20100101 Firefox/87.0,Macintosh,Firefox,87,OS X,10.13
12,1,null,"""",image-keyboard-response,170,467221,0.0-170.0,"""",jspsych/scrambledNeutralFaces/scrambledAF25NES.JPG,"""",256,forwardMask,Test,null,250,"""",n,"""","""","""","""","""","""",1,4/18/2021 20:14,72.197.207.3,Mozilla/5.0 (Macintosh; Intel Mac OS X 10.13; rv:87.0) Gecko/20100101 Firefox/87.0,Macintosh,Firefox,87,OS X,10.13
12,1,null,"""",image-keyboard-response,171,467243,0.0-171.0,"""",jspsych/neutralFaces/AF25NES.JPG,"""",256,Cue,Test,null,16,"""","""","""","""","""","""","""","""",1,4/18/2021 20:14,72.197.207.3,Mozilla/5.0 (Macintosh; Intel Mac OS X 10.13; rv:87.0) Gecko/20100101 Firefox/87.0,Macintosh,Firefox,87,OS X,10.13
12,1,null,"""",image-keyboard-response,172,467352,0.0-172.0,"""",jspsych/neutralFaces/BF19NES.JPG,"""",256,backwardMask,Test,null,100,"""","""","""","""","""","""","""","""",1,4/18/2021 20:14,72.197.207.3,Mozilla/5.0 (Macintosh; Intel Mac OS X 10.13; rv:87.0) Gecko/20100101 Firefox/87.0,Macintosh,Firefox,87,OS X,10.13
12,1,null,"""",html-keyboard-response,173,468358,0.0-173.0,"""","<div style=""font-size:60px;"">+</div>","""",256,fixationBtwnNeutralMaskAndPrompt,Test,null,1000,"""","""","""","""","""","""","""","""",1,4/18/2021 20:14,72.197.207.3,Mozilla/5.0 (Macintosh; Intel Mac OS X 10.13; rv:87.0) Gecko/20100101 Firefox/87.0,Macintosh,Firefox,87,OS X,10.13
12,1,1765,"""",html-button-response,174,470125,0.0-174.0,"""","<img src='jspsych/CFDfaces/CFD-BF-005-001-N.jpg' height=""250px"">,</br><b>Emily</b>",1,256,IntactOrRearranged,Test,"""","""","""","""",CFD-AM-212-050-N.jpg,Jeremy,1,1,"""","""",1,4/18/2021 20:14,72.197.207.3,Mozilla/5.0 (Macintosh; Intel Mac OS X 10.13; rv:87.0) Gecko/20100101 Firefox/87.0,Macintosh,Firefox,87,OS X,10.13
12,1,1453,"""",html-slider-response,175,471581,0.0-175.0,"""","<img src='jspsych/CFDfaces/CFD-BF-005-001-N.jpg' height=""250px"">,</br><b>Emily</b>","""",256,ConfidenceQuery,Test,"""","""","""","""",CFD-AM-212-050-N.jpg,Jeremy,1,"""",0,100,1,4/18/2021 20:14,72.197.207.3,Mozilla/5.0 (Macintosh; Intel Mac OS X 10.13; rv:87.0) Gecko/20100101 Firefox/87.0,Macintosh,Firefox,87,OS X,10.13
12,1,null,"""",html-keyboard-response,176,472595,0.0-176.0,"""","<div style=""font-size:60px;"">+</div>","""",256,ITI,Test,null,1000,"""","""","""","""","""","""","""","""",1,4/18/2021 20:14,72.197.207.3,Mozilla/5.0 (Macintosh; Intel Mac OS X 10.13; rv:87.0) Gecko/20100101 Firefox/87.0,Macintosh,Firefox,87,OS X,10.13
12,1,null,"""",image-keyboard-response,177,472851,0.0-177.0,"""",jspsych/scrambledNeutralFaces/scrambledBM25NES.JPG,"""",256,forwardMask,Test,null,250,"""",n,"""","""","""","""","""","""",1,4/18/2021 20:14,72.197.207.3,Mozilla/5.0 (Macintosh; Intel Mac OS X 10.13; rv:87.0) Gecko/20100101 Firefox/87.0,Macintosh,Firefox,87,OS X,10.13
12,1,null,"""",image-keyboard-response,178,472876,0.0-178.0,"""",jspsych/neutralFaces/BM25NES.JPG,"""",256,Cue,Test,null,16,"""","""","""","""","""","""","""","""",1,4/18/2021 20:14,72.197.207.3,Mozilla/5.0 (Macintosh; Intel Mac OS X 10.13; rv:87.0) Gecko/20100101 Firefox/87.0,Macintosh,Firefox,87,OS X,10.13
12,1,null,"""",image-keyboard-response,179,472987,0.0-179.0,"""",jspsych/neutralFaces/BM09NES.JPG,"""",256,backwardMask,Test,null,100,"""","""","""","""","""","""","""","""",1,4/18/2021 20:14,72.197.207.3,Mozilla/5.0 (Macintosh; Intel Mac OS X 10.13; rv:87.0) Gecko/20100101 Firefox/87.0,Macintosh,Firefox,87,OS X,10.13
12,1,null,"""",html-keyboard-response,180,473989,0.0-180.0,"""","<div style=""font-size:60px;"">+</div>","""",256,fixationBtwnNeutralMaskAndPrompt,Test,null,1000,"""","""","""","""","""","""","""","""",1,4/18/2021 20:14,72.197.207.3,Mozilla/5.0 (Macintosh; Intel Mac OS X 10.13; rv:87.0) Gecko/20100101 Firefox/87.0,Macintosh,Firefox,87,OS X,10.13
12,1,2238,"""",html-button-response,181,476229,0.0-181.0,"""","<img src='jspsych/CFDfaces/CFD-BM-032-024-N.jpg' height=""250px"">,</br><b>Nicholas</b>",0,256,IntactOrRearranged,Test,"""","""","""","""",CFD-AF-230-193-N.jpg,Jasmine,0,0,"""","""",1,4/18/2021 20:14,72.197.207.3,Mozilla/5.0 (Macintosh; Intel Mac OS X 10.13; rv:87.0) Gecko/20100101 Firefox/87.0,Macintosh,Firefox,87,OS X,10.13
12,1,1726,"""",html-slider-response,182,477956,0.0-182.0,"""","<img src='jspsych/CFDfaces/CFD-BM-032-024-N.jpg' height=""250px"">,</br><b>Nicholas</b>","""",256,ConfidenceQuery,Test,"""","""","""","""",CFD-AF-230-193-N.jpg,Jasmine,0,"""",0,87,1,4/18/2021 20:14,72.197.207.3,Mozilla/5.0 (Macintosh; Intel Mac OS X 10.13; rv:87.0) Gecko/20100101 Firefox/87.0,Macintosh,Firefox,87,OS X,10.13
12,1,null,"""",html-keyboard-response,183,478959,0.0-183.0,"""","<div style=""font-size:60px;"">+</div>","""",256,ITI,Test,null,1000,"""","""","""","""","""","""","""","""",1,4/18/2021 20:14,72.197.207.3,Mozilla/5.0 (Macintosh; Intel Mac OS X 10.13; rv:87.0) Gecko/20100101 Firefox/87.0,Macintosh,Firefox,87,OS X,10.13
12,1,null,"""",image-keyboard-response,184,479214,0.0-184.0,"""",jspsych/scrambledDisgustFaces/scrambledAF35DIS.JPG,"""",256,forwardMask,Test,null,250,"""",d,"""","""","""","""","""","""",1,4/18/2021 20:14,72.197.207.3,Mozilla/5.0 (Macintosh; Intel Mac OS X 10.13; rv:87.0) Gecko/20100101 Firefox/87.0,Macintosh,Firefox,87,OS X,10.13
12,1,null,"""",image-keyboard-response,185,479244,0.0-185.0,"""",jspsych/disgustFaces/AF35DIS.JPG,"""",256,Cue,Test,null,16,"""","""","""","""","""","""","""","""",1,4/18/2021 20:14,72.197.207.3,Mozilla/5.0 (Macintosh; Intel Mac OS X 10.13; rv:87.0) Gecko/20100101 Firefox/87.0,Macintosh,Firefox,87,OS X,10.13
12,1,null,"""",image-keyboard-response,186,479353,0.0-186.0,"""",jspsych/neutralFaces/BF32NES.JPG,"""",256,backwardMask,Test,null,100,"""","""","""","""","""","""","""","""",1,4/18/2021 20:14,72.197.207.3,Mozilla/5.0 (Macintosh; Intel Mac OS X 10.13; rv:87.0) Gecko/20100101 Firefox/87.0,Macintosh,Firefox,87,OS X,10.13
12,1,null,"""",html-keyboard-response,187,480360,0.0-187.0,"""","<div style=""font-size:60px;"">+</div>","""",256,fixationBtwnNeutralMaskAndPrompt,Test,null,1000,"""","""","""","""","""","""","""","""",1,4/18/2021 20:14,72.197.207.3,Mozilla/5.0 (Macintosh; Intel Mac OS X 10.13; rv:87.0) Gecko/20100101 Firefox/87.0,Macintosh,Firefox,87,OS X,10.13
12,1,2042,"""",html-button-response,188,482405,0.0-188.0,"""","<img src='jspsych/CFDfaces/CFD-LF-232-199-N.jpg' height=""250px"">,</br><b>Stephanie</b>",0,256,IntactOrRearranged,Test,"""","""","""","""",CFD-LM-217-162-N.jpg,Sean,0,0,"""","""",1,4/18/2021 20:14,72.197.207.3,Mozilla/5.0 (Macintosh; Intel Mac OS X 10.13; rv:87.0) Gecko/20100101 Firefox/87.0,Macintosh,Firefox,87,OS X,10.13
12,1,1813,"""",html-slider-response,189,484221,0.0-189.0,"""","<img src='jspsych/CFDfaces/CFD-LF-232-199-N.jpg' height=""250px"">,</br><b>Stephanie</b>","""",256,ConfidenceQuery,Test,"""","""","""","""",CFD-LM-217-162-N.jpg,Sean,0,"""",0,83,1,4/18/2021 20:14,72.197.207.3,Mozilla/5.0 (Macintosh; Intel Mac OS X 10.13; rv:87.0) Gecko/20100101 Firefox/87.0,Macintosh,Firefox,87,OS X,10.13
12,1,null,"""",html-keyboard-response,190,485227,0.0-190.0,"""","<div style=""font-size:60px;"">+</div>","""",256,ITI,Test,null,1000,"""","""","""","""","""","""","""","""",1,4/18/2021 20:14,72.197.207.3,Mozilla/5.0 (Macintosh; Intel Mac OS X 10.13; rv:87.0) Gecko/20100101 Firefox/87.0,Macintosh,Firefox,87,OS X,10.13
12,1,null,"""",image-keyboard-response,191,485488,0.0-191.0,"""",jspsych/scrambledDisgustFaces/scrambledAF10DIS.JPG,"""",256,forwardMask,Test,null,250,"""",d,"""","""","""","""","""","""",1,4/18/2021 20:14,72.197.207.3,Mozilla/5.0 (Macintosh; Intel Mac OS X 10.13; rv:87.0) Gecko/20100101 Firefox/87.0,Macintosh,Firefox,87,OS X,10.13
12,1,null,"""",image-keyboard-response,192,485511,0.0-192.0,"""",jspsych/disgustFaces/AF10DIS.JPG,"""",256,Cue,Test,null,16,"""","""","""","""","""","""","""","""",1,4/18/2021 20:14,72.197.207.3,Mozilla/5.0 (Macintosh; Intel Mac OS X 10.13; rv:87.0) Gecko/20100101 Firefox/87.0,Macintosh,Firefox,87,OS X,10.13
12,1,null,"""",image-keyboard-response,193,485620,0.0-193.0,"""",jspsych/neutralFaces/AF13NES.JPG,"""",256,backwardMask,Test,null,100,"""","""","""","""","""","""","""","""",1,4/18/2021 20:14,72.197.207.3,Mozilla/5.0 (Macintosh; Intel Mac OS X 10.13; rv:87.0) Gecko/20100101 Firefox/87.0,Macintosh,Firefox,87,OS X,10.13
12,1,null,"""",html-keyboard-response,194,486622,0.0-194.0,"""","<div style=""font-size:60px;"">+</div>","""",256,fixationBtwnNeutralMaskAndPrompt,Test,null,1000,"""","""","""","""","""","""","""","""",1,4/18/2021 20:14,72.197.207.3,Mozilla/5.0 (Macintosh; Intel Mac OS X 10.13; rv:87.0) Gecko/20100101 Firefox/87.0,Macintosh,Firefox,87,OS X,10.13
12,1,3574,"""",html-button-response,195,490197,0.0-195.0,"""","<img src='jspsych/CFDfaces/CFD-BM-029-024-N.jpg' height=""250px"">,</br><b>Gregory</b>",1,256,IntactOrRearranged,Test,"""","""","""","""",CFD-WF-006-002-N.jpg,Taylor,1,1,"""","""",1,4/18/2021 20:14,72.197.207.3,Mozilla/5.0 (Macintosh; Intel Mac OS X 10.13; rv:87.0) Gecko/20100101 Firefox/87.0,Macintosh,Firefox,87,OS X,10.13
12,1,1197,"""",html-slider-response,196,491397,0.0-196.0,"""","<img src='jspsych/CFDfaces/CFD-BM-029-024-N.jpg' height=""250px"">,</br><b>Gregory</b>","""",256,ConfidenceQuery,Test,"""","""","""","""",CFD-WF-006-002-N.jpg,Taylor,1,"""",0,37,1,4/18/2021 20:14,72.197.207.3,Mozilla/5.0 (Macintosh; Intel Mac OS X 10.13; rv:87.0) Gecko/20100101 Firefox/87.0,Macintosh,Firefox,87,OS X,10.13
12,1,null,"""",html-keyboard-response,197,492404,0.0-197.0,"""","<div style=""font-size:60px;"">+</div>","""",256,ITI,Test,null,1000,"""","""","""","""","""","""","""","""",1,4/18/2021 20:14,72.197.207.3,Mozilla/5.0 (Macintosh; Intel Mac OS X 10.13; rv:87.0) Gecko/20100101 Firefox/87.0,Macintosh,Firefox,87,OS X,10.13
12,1,null,"""",image-keyboard-response,198,492659,0.0-198.0,"""",jspsych/scrambledNeutralFaces/scrambledAM08NES.JPG,"""",256,forwardMask,Test,null,250,"""",n,"""","""","""","""","""","""",1,4/18/2021 20:14,72.197.207.3,Mozilla/5.0 (Macintosh; Intel Mac OS X 10.13; rv:87.0) Gecko/20100101 Firefox/87.0,Macintosh,Firefox,87,OS X,10.13
12,1,null,"""",image-keyboard-response,199,492681,0.0-199.0,"""",jspsych/neutralFaces/AM08NES.JPG,"""",256,Cue,Test,null,16,"""","""","""","""","""","""","""","""",1,4/18/2021 20:14,72.197.207.3,Mozilla/5.0 (Macintosh; Intel Mac OS X 10.13; rv:87.0) Gecko/20100101 Firefox/87.0,Macintosh,Firefox,87,OS X,10.13
12,1,null,"""",image-keyboard-response,200,492792,0.0-200.0,"""",jspsych/neutralFaces/BM32NES.JPG,"""",256,backwardMask,Test,null,100,"""","""","""","""","""","""","""","""",1,4/18/2021 20:14,72.197.207.3,Mozilla/5.0 (Macintosh; Intel Mac OS X 10.13; rv:87.0) Gecko/20100101 Firefox/87.0,Macintosh,Firefox,87,OS X,10.13
12,1,null,"""",html-keyboard-response,201,493797,0.0-201.0,"""","<div style=""font-size:60px;"">+</div>","""",256,fixationBtwnNeutralMaskAndPrompt,Test,null,1000,"""","""","""","""","""","""","""","""",1,4/18/2021 20:14,72.197.207.3,Mozilla/5.0 (Macintosh; Intel Mac OS X 10.13; rv:87.0) Gecko/20100101 Firefox/87.0,Macintosh,Firefox,87,OS X,10.13
12,1,2375,"""",html-button-response,202,496173,0.0-202.0,"""","<img src='jspsych/CFDfaces/CFD-LF-208-127-N.jpg' height=""250px"">,</br><b>Ashley</b>",1,256,IntactOrRearranged,Test,"""","""","""","""",CFD-WM-009-002-N.jpg,Vincent,1,1,"""","""",1,4/18/2021 20:14,72.197.207.3,Mozilla/5.0 (Macintosh; Intel Mac OS X 10.13; rv:87.0) Gecko/20100101 Firefox/87.0,Macintosh,Firefox,87,OS X,10.13
12,1,1758,"""",html-slider-response,203,497942,0.0-203.0,"""","<img src='jspsych/CFDfaces/CFD-LF-208-127-N.jpg' height=""250px"">,</br><b>Ashley</b>","""",256,ConfidenceQuery,Test,"""","""","""","""",CFD-WM-009-002-N.jpg,Vincent,1,"""",0,78,1,4/18/2021 20:14,72.197.207.3,Mozilla/5.0 (Macintosh; Intel Mac OS X 10.13; rv:87.0) Gecko/20100101 Firefox/87.0,Macintosh,Firefox,87,OS X,10.13
12,1,null,"""",html-keyboard-response,204,498947,0.0-204.0,"""","<div style=""font-size:60px;"">+</div>","""",256,ITI,Test,null,1000,"""","""","""","""","""","""","""","""",1,4/18/2021 20:14,72.197.207.3,Mozilla/5.0 (Macintosh; Intel Mac OS X 10.13; rv:87.0) Gecko/20100101 Firefox/87.0,Macintosh,Firefox,87,OS X,10.13
12,1,null,"""",image-keyboard-response,205,499207,0.0-205.0,"""",jspsych/scrambledDisgustFaces/scrambledBM10DIS.JPG,"""",256,forwardMask,Test,null,250,"""",d,"""","""","""","""","""","""",1,4/18/2021 20:14,72.197.207.3,Mozilla/5.0 (Macintosh; Intel Mac OS X 10.13; rv:87.0) Gecko/20100101 Firefox/87.0,Macintosh,Firefox,87,OS X,10.13
12,1,null,"""",image-keyboard-response,206,499230,0.0-206.0,"""",jspsych/disgustFaces/BM11DIS.JPG,"""",256,Cue,Test,null,16,"""","""","""","""","""","""","""","""",1,4/18/2021 20:14,72.197.207.3,Mozilla/5.0 (Macintosh; Intel Mac OS X 10.13; rv:87.0) Gecko/20100101 Firefox/87.0,Macintosh,Firefox,87,OS X,10.13
12,1,null,"""",image-keyboard-response,207,499338,0.0-207.0,"""",jspsych/neutralFaces/BM05NES.JPG,"""",256,backwardMask,Test,null,100,"""","""","""","""","""","""","""","""",1,4/18/2021 20:14,72.197.207.3,Mozilla/5.0 (Macintosh; Intel Mac OS X 10.13; rv:87.0) Gecko/20100101 Firefox/87.0,Macintosh,Firefox,87,OS X,10.13
12,1,null,"""",html-keyboard-response,208,500344,0.0-208.0,"""","<div style=""font-size:60px;"">+</div>","""",256,fixationBtwnNeutralMaskAndPrompt,Test,null,1000,"""","""","""","""","""","""","""","""",1,4/18/2021 20:14,72.197.207.3,Mozilla/5.0 (Macintosh; Intel Mac OS X 10.13; rv:87.0) Gecko/20100101 Firefox/87.0,Macintosh,Firefox,87,OS X,10.13
12,1,1515,"""",html-button-response,209,501862,0.0-209.0,"""","<img src='jspsych/CFDfaces/CFD-BF-023-010-N.jpg' height=""250px"">,</br><b>Kayla</b>",0,256,IntactOrRearranged,Test,"""","""","""","""",CFD-AM-228-214-N.jpg,Jesse,0,0,"""","""",1,4/18/2021 20:14,72.197.207.3,Mozilla/5.0 (Macintosh; Intel Mac OS X 10.13; rv:87.0) Gecko/20100101 Firefox/87.0,Macintosh,Firefox,87,OS X,10.13
12,1,1318,"""",html-slider-response,210,503190,0.0-210.0,"""","<img src='jspsych/CFDfaces/CFD-BF-023-010-N.jpg' height=""250px"">,</br><b>Kayla</b>","""",256,ConfidenceQuery,Test,"""","""","""","""",CFD-AM-228-214-N.jpg,Jesse,0,"""",0,96,1,4/18/2021 20:14,72.197.207.3,Mozilla/5.0 (Macintosh; Intel Mac OS X 10.13; rv:87.0) Gecko/20100101 Firefox/87.0,Macintosh,Firefox,87,OS X,10.13
12,1,null,"""",html-keyboard-response,211,504196,0.0-211.0,"""","<div style=""font-size:60px;"">+</div>","""",256,ITI,Test,null,1000,"""","""","""","""","""","""","""","""",1,4/18/2021 20:14,72.197.207.3,Mozilla/5.0 (Macintosh; Intel Mac OS X 10.13; rv:87.0) Gecko/20100101 Firefox/87.0,Macintosh,Firefox,87,OS X,10.13
12,1,null,"""",image-keyboard-response,212,504455,0.0-212.0,"""",jspsych/scrambledNeutralFaces/scrambledAF29NES.JPG,"""",256,forwardMask,Test,null,250,"""",n,"""","""","""","""","""","""",1,4/18/2021 20:14,72.197.207.3,Mozilla/5.0 (Macintosh; Intel Mac OS X 10.13; rv:87.0) Gecko/20100101 Firefox/87.0,Macintosh,Firefox,87,OS X,10.13
12,1,null,"""",image-keyboard-response,213,504479,0.0-213.0,"""",jspsych/neutralFaces/AF29NES.JPG,"""",256,Cue,Test,null,16,"""","""","""","""","""","""","""","""",1,4/18/2021 20:14,72.197.207.3,Mozilla/5.0 (Macintosh; Intel Mac OS X 10.13; rv:87.0) Gecko/20100101 Firefox/87.0,Macintosh,Firefox,87,OS X,10.13
12,1,null,"""",image-keyboard-response,214,504588,0.0-214.0,"""",jspsych/neutralFaces/BF32NES.JPG,"""",256,backwardMask,Test,null,100,"""","""","""","""","""","""","""","""",1,4/18/2021 20:14,72.197.207.3,Mozilla/5.0 (Macintosh; Intel Mac OS X 10.13; rv:87.0) Gecko/20100101 Firefox/87.0,Macintosh,Firefox,87,OS X,10.13
12,1,null,"""",html-keyboard-response,215,505593,0.0-215.0,"""","<div style=""font-size:60px;"">+</div>","""",256,fixationBtwnNeutralMaskAndPrompt,Test,null,1000,"""","""","""","""","""","""","""","""",1,4/18/2021 20:14,72.197.207.3,Mozilla/5.0 (Macintosh; Intel Mac OS X 10.13; rv:87.0) Gecko/20100101 Firefox/87.0,Macintosh,Firefox,87,OS X,10.13
12,1,4540,"""",html-button-response,216,510134,0.0-216.0,"""","<img src='jspsych/CFDfaces/CFD-BM-041-035-N.jpg' height=""250px"">,</br><b>Daniel</b>",0,256,IntactOrRearranged,Test,"""","""","""","""",CFD-BF-001-025-N.jpg,Angela,1,0,"""","""",1,4/18/2021 20:14,72.197.207.3,Mozilla/5.0 (Macintosh; Intel Mac OS X 10.13; rv:87.0) Gecko/20100101 Firefox/87.0,Macintosh,Firefox,87,OS X,10.13
12,1,1390,"""",html-slider-response,217,511534,0.0-217.0,"""","<img src='jspsych/CFDfaces/CFD-BM-041-035-N.jpg' height=""250px"">,</br><b>Daniel</b>","""",256,ConfidenceQuery,Test,"""","""","""","""",CFD-BF-001-025-N.jpg,Angela,1,"""",0,67,1,4/18/2021 20:14,72.197.207.3,Mozilla/5.0 (Macintosh; Intel Mac OS X 10.13; rv:87.0) Gecko/20100101 Firefox/87.0,Macintosh,Firefox,87,OS X,10.13
12,1,null,"""",html-keyboard-response,218,512536,0.0-218.0,"""","<div style=""font-size:60px;"">+</div>","""",256,ITI,Test,null,1000,"""","""","""","""","""","""","""","""",1,4/18/2021 20:14,72.197.207.3,Mozilla/5.0 (Macintosh; Intel Mac OS X 10.13; rv:87.0) Gecko/20100101 Firefox/87.0,Macintosh,Firefox,87,OS X,10.13
12,1,null,"""",image-keyboard-response,219,512792,0.0-219.0,"""",jspsych/scrambledDisgustFaces/scrambledBM30DIS.JPG,"""",256,forwardMask,Test,null,250,"""",d,"""","""","""","""","""","""",1,4/18/2021 20:14,72.197.207.3,Mozilla/5.0 (Macintosh; Intel Mac OS X 10.13; rv:87.0) Gecko/20100101 Firefox/87.0,Macintosh,Firefox,87,OS X,10.13
12,1,null,"""",image-keyboard-response,220,512814,0.0-220.0,"""",jspsych/disgustFaces/BM31DIS.JPG,"""",256,Cue,Test,null,16,"""","""","""","""","""","""","""","""",1,4/18/2021 20:14,72.197.207.3,Mozilla/5.0 (Macintosh; Intel Mac OS X 10.13; rv:87.0) Gecko/20100101 Firefox/87.0,Macintosh,Firefox,87,OS X,10.13
12,1,null,"""",image-keyboard-response,221,512923,0.0-221.0,"""",jspsych/neutralFaces/BM31NES.JPG,"""",256,backwardMask,Test,null,100,"""","""","""","""","""","""","""","""",1,4/18/2021 20:14,72.197.207.3,Mozilla/5.0 (Macintosh; Intel Mac OS X 10.13; rv:87.0) Gecko/20100101 Firefox/87.0,Macintosh,Firefox,87,OS X,10.13
12,1,null,"""",html-keyboard-response,222,513929,0.0-222.0,"""","<div style=""font-size:60px;"">+</div>","""",256,fixationBtwnNeutralMaskAndPrompt,Test,null,1000,"""","""","""","""","""","""","""","""",1,4/18/2021 20:14,72.197.207.3,Mozilla/5.0 (Macintosh; Intel Mac OS X 10.13; rv:87.0) Gecko/20100101 Firefox/87.0,Macintosh,Firefox,87,OS X,10.13
12,1,2066,"""",html-button-response,223,515998,0.0-223.0,"""","<img src='jspsych/CFDfaces/CFD-WF-017-003-N.jpg' height=""250px"">,</br><b>Michelle</b>",0,256,IntactOrRearranged,Test,"""","""","""","""",CFD-BF-047-003-N.jpg,Lauren,0,0,"""","""",1,4/18/2021 20:14,72.197.207.3,Mozilla/5.0 (Macintosh; Intel Mac OS X 10.13; rv:87.0) Gecko/20100101 Firefox/87.0,Macintosh,Firefox,87,OS X,10.13
12,1,1214,"""",html-slider-response,224,517214,0.0-224.0,"""","<img src='jspsych/CFDfaces/CFD-WF-017-003-N.jpg' height=""250px"">,</br><b>Michelle</b>","""",256,ConfidenceQuery,Test,"""","""","""","""",CFD-BF-047-003-N.jpg,Lauren,0,"""",0,100,1,4/18/2021 20:14,72.197.207.3,Mozilla/5.0 (Macintosh; Intel Mac OS X 10.13; rv:87.0) Gecko/20100101 Firefox/87.0,Macintosh,Firefox,87,OS X,10.13
12,1,null,"""",html-keyboard-response,225,518223,0.0-225.0,"""","<div style=""font-size:60px;"">+</div>","""",256,ITI,Test,null,1000,"""","""","""","""","""","""","""","""",1,4/18/2021 20:14,72.197.207.3,Mozilla/5.0 (Macintosh; Intel Mac OS X 10.13; rv:87.0) Gecko/20100101 Firefox/87.0,Macintosh,Firefox,87,OS X,10.13
12,1,null,"""",image-keyboard-response,226,518478,0.0-226.0,"""",jspsych/scrambledNeutralFaces/scrambledAM06NES.JPG,"""",256,forwardMask,Test,null,250,"""",n,"""","""","""","""","""","""",1,4/18/2021 20:14,72.197.207.3,Mozilla/5.0 (Macintosh; Intel Mac OS X 10.13; rv:87.0) Gecko/20100101 Firefox/87.0,Macintosh,Firefox,87,OS X,10.13
12,1,null,"""",image-keyboard-response,227,518499,0.0-227.0,"""",jspsych/neutralFaces/AM06NES.JPG,"""",256,Cue,Test,null,16,"""","""","""","""","""","""","""","""",1,4/18/2021 20:14,72.197.207.3,Mozilla/5.0 (Macintosh; Intel Mac OS X 10.13; rv:87.0) Gecko/20100101 Firefox/87.0,Macintosh,Firefox,87,OS X,10.13
12,1,null,"""",image-keyboard-response,228,518608,0.0-228.0,"""",jspsych/neutralFaces/AM10NES.JPG,"""",256,backwardMask,Test,null,100,"""","""","""","""","""","""","""","""",1,4/18/2021 20:14,72.197.207.3,Mozilla/5.0 (Macintosh; Intel Mac OS X 10.13; rv:87.0) Gecko/20100101 Firefox/87.0,Macintosh,Firefox,87,OS X,10.13
12,1,null,"""",html-keyboard-response,229,519615,0.0-229.0,"""","<div style=""font-size:60px;"">+</div>","""",256,fixationBtwnNeutralMaskAndPrompt,Test,null,1000,"""","""","""","""","""","""","""","""",1,4/18/2021 20:14,72.197.207.3,Mozilla/5.0 (Macintosh; Intel Mac OS X 10.13; rv:87.0) Gecko/20100101 Firefox/87.0,Macintosh,Firefox,87,OS X,10.13
12,1,1695,"""",html-button-response,230,521310,0.0-230.0,"""","<img src='jspsych/CFDfaces/CFD-BM-039-029-N.jpg' height=""250px"">,</br><b>Juan</b>",0,256,IntactOrRearranged,Test,"""","""","""","""",CFD-BF-226-119-N.jpg,Jenna,0,0,"""","""",1,4/18/2021 20:14,72.197.207.3,Mozilla/5.0 (Macintosh; Intel Mac OS X 10.13; rv:87.0) Gecko/20100101 Firefox/87.0,Macintosh,Firefox,87,OS X,10.13
12,1,2301,"""",html-slider-response,231,523614,0.0-231.0,"""","<img src='jspsych/CFDfaces/CFD-BM-039-029-N.jpg' height=""250px"">,</br><b>Juan</b>","""",256,ConfidenceQuery,Test,"""","""","""","""",CFD-BF-226-119-N.jpg,Jenna,0,"""",0,86,1,4/18/2021 20:14,72.197.207.3,Mozilla/5.0 (Macintosh; Intel Mac OS X 10.13; rv:87.0) Gecko/20100101 Firefox/87.0,Macintosh,Firefox,87,OS X,10.13
12,1,null,"""",html-keyboard-response,232,524621,0.0-232.0,"""","<div style=""font-size:60px;"">+</div>","""",256,ITI,Test,null,1000,"""","""","""","""","""","""","""","""",1,4/18/2021 20:14,72.197.207.3,Mozilla/5.0 (Macintosh; Intel Mac OS X 10.13; rv:87.0) Gecko/20100101 Firefox/87.0,Macintosh,Firefox,87,OS X,10.13
12,1,null,"""",image-keyboard-response,233,524881,0.0-233.0,"""",jspsych/scrambledNeutralFaces/scrambledBM02NES.JPG,"""",256,forwardMask,Test,null,250,"""",n,"""","""","""","""","""","""",1,4/18/2021 20:14,72.197.207.3,Mozilla/5.0 (Macintosh; Intel Mac OS X 10.13; rv:87.0) Gecko/20100101 Firefox/87.0,Macintosh,Firefox,87,OS X,10.13
12,1,null,"""",image-keyboard-response,234,524907,0.0-234.0,"""",jspsych/neutralFaces/BM02NES.JPG,"""",256,Cue,Test,null,16,"""","""","""","""","""","""","""","""",1,4/18/2021 20:14,72.197.207.3,Mozilla/5.0 (Macintosh; Intel Mac OS X 10.13; rv:87.0) Gecko/20100101 Firefox/87.0,Macintosh,Firefox,87,OS X,10.13
12,1,null,"""",image-keyboard-response,235,525017,0.0-235.0,"""",jspsych/neutralFaces/BM12NES.JPG,"""",256,backwardMask,Test,null,100,"""","""","""","""","""","""","""","""",1,4/18/2021 20:14,72.197.207.3,Mozilla/5.0 (Macintosh; Intel Mac OS X 10.13; rv:87.0) Gecko/20100101 Firefox/87.0,Macintosh,Firefox,87,OS X,10.13
12,1,null,"""",html-keyboard-response,236,526023,0.0-236.0,"""","<div style=""font-size:60px;"">+</div>","""",256,fixationBtwnNeutralMaskAndPrompt,Test,null,1000,"""","""","""","""","""","""","""","""",1,4/18/2021 20:14,72.197.207.3,Mozilla/5.0 (Macintosh; Intel Mac OS X 10.13; rv:87.0) Gecko/20100101 Firefox/87.0,Macintosh,Firefox,87,OS X,10.13
12,1,1806,"""",html-button-response,237,527830,0.0-237.0,"""","<img src='jspsych/CFDfaces/CFD-WM-015-002-N.jpg' height=""250px"">,</br><b>James</b>",1,256,IntactOrRearranged,Test,"""","""","""","""",CFD-WM-207-048-N.jpg,Travis,1,1,"""","""",1,4/18/2021 20:14,72.197.207.3,Mozilla/5.0 (Macintosh; Intel Mac OS X 10.13; rv:87.0) Gecko/20100101 Firefox/87.0,Macintosh,Firefox,87,OS X,10.13
12,1,1150,"""",html-slider-response,238,528982,0.0-238.0,"""","<img src='jspsych/CFDfaces/CFD-WM-015-002-N.jpg' height=""250px"">,</br><b>James</b>","""",256,ConfidenceQuery,Test,"""","""","""","""",CFD-WM-207-048-N.jpg,Travis,1,"""",0,82,1,4/18/2021 20:14,72.197.207.3,Mozilla/5.0 (Macintosh; Intel Mac OS X 10.13; rv:87.0) Gecko/20100101 Firefox/87.0,Macintosh,Firefox,87,OS X,10.13
12,1,null,"""",html-keyboard-response,239,529986,0.0-239.0,"""","<div style=""font-size:60px;"">+</div>","""",256,ITI,Test,null,1000,"""","""","""","""","""","""","""","""",1,4/18/2021 20:14,72.197.207.3,Mozilla/5.0 (Macintosh; Intel Mac OS X 10.13; rv:87.0) Gecko/20100101 Firefox/87.0,Macintosh,Firefox,87,OS X,10.13
12,1,null,"""",image-keyboard-response,240,530253,0.0-240.0,"""",jspsych/scrambledDisgustFaces/scrambledBM04DIS.JPG,"""",256,forwardMask,Test,null,250,"""",d,"""","""","""","""","""","""",1,4/18/2021 20:14,72.197.207.3,Mozilla/5.0 (Macintosh; Intel Mac OS X 10.13; rv:87.0) Gecko/20100101 Firefox/87.0,Macintosh,Firefox,87,OS X,10.13
12,1,null,"""",image-keyboard-response,241,530276,0.0-241.0,"""",jspsych/disgustFaces/BM05DIS.JPG,"""",256,Cue,Test,null,16,"""","""","""","""","""","""","""","""",1,4/18/2021 20:14,72.197.207.3,Mozilla/5.0 (Macintosh; Intel Mac OS X 10.13; rv:87.0) Gecko/20100101 Firefox/87.0,Macintosh,Firefox,87,OS X,10.13
12,1,null,"""",image-keyboard-response,242,530385,0.0-242.0,"""",jspsych/neutralFaces/BM25NES.JPG,"""",256,backwardMask,Test,null,100,"""","""","""","""","""","""","""","""",1,4/18/2021 20:14,72.197.207.3,Mozilla/5.0 (Macintosh; Intel Mac OS X 10.13; rv:87.0) Gecko/20100101 Firefox/87.0,Macintosh,Firefox,87,OS X,10.13
12,1,null,"""",html-keyboard-response,243,531388,0.0-243.0,"""","<div style=""font-size:60px;"">+</div>","""",256,fixationBtwnNeutralMaskAndPrompt,Test,null,1000,"""","""","""","""","""","""","""","""",1,4/18/2021 20:14,72.197.207.3,Mozilla/5.0 (Macintosh; Intel Mac OS X 10.13; rv:87.0) Gecko/20100101 Firefox/87.0,Macintosh,Firefox,87,OS X,10.13
12,1,1826,"""",html-button-response,244,533215,0.0-244.0,"""","<img src='jspsych/CFDfaces/CFD-WM-034-030-N.jpg' height=""250px"">,</br><b>Joshua</b>",1,256,IntactOrRearranged,Test,"""","""","""","""",CFD-LM-209-111-N.jpg,Cameron,1,1,"""","""",1,4/18/2021 20:14,72.197.207.3,Mozilla/5.0 (Macintosh; Intel Mac OS X 10.13; rv:87.0) Gecko/20100101 Firefox/87.0,Macintosh,Firefox,87,OS X,10.13
12,1,1044,"""",html-slider-response,245,534263,0.0-245.0,"""","<img src='jspsych/CFDfaces/CFD-WM-034-030-N.jpg' height=""250px"">,</br><b>Joshua</b>","""",256,ConfidenceQuery,Test,"""","""","""","""",CFD-LM-209-111-N.jpg,Cameron,1,"""",0,92,1,4/18/2021 20:14,72.197.207.3,Mozilla/5.0 (Macintosh; Intel Mac OS X 10.13; rv:87.0) Gecko/20100101 Firefox/87.0,Macintosh,Firefox,87,OS X,10.13
12,1,null,"""",html-keyboard-response,246,535269,0.0-246.0,"""","<div style=""font-size:60px;"">+</div>","""",256,ITI,Test,null,1000,"""","""","""","""","""","""","""","""",1,4/18/2021 20:14,72.197.207.3,Mozilla/5.0 (Macintosh; Intel Mac OS X 10.13; rv:87.0) Gecko/20100101 Firefox/87.0,Macintosh,Firefox,87,OS X,10.13
12,1,null,"""",image-keyboard-response,247,535524,0.0-247.0,"""",jspsych/scrambledDisgustFaces/scrambledBF15DIS.JPG,"""",256,forwardMask,Test,null,250,"""",d,"""","""","""","""","""","""",1,4/18/2021 20:14,72.197.207.3,Mozilla/5.0 (Macintosh; Intel Mac OS X 10.13; rv:87.0) Gecko/20100101 Firefox/87.0,Macintosh,Firefox,87,OS X,10.13
12,1,null,"""",image-keyboard-response,248,535547,0.0-248.0,"""",jspsych/disgustFaces/BF15DIS.JPG,"""",256,Cue,Test,null,16,"""","""","""","""","""","""","""","""",1,4/18/2021 20:14,72.197.207.3,Mozilla/5.0 (Macintosh; Intel Mac OS X 10.13; rv:87.0) Gecko/20100101 Firefox/87.0,Macintosh,Firefox,87,OS X,10.13
12,1,null,"""",image-keyboard-response,249,535658,0.0-249.0,"""",jspsych/neutralFaces/BF34NES.JPG,"""",256,backwardMask,Test,null,100,"""","""","""","""","""","""","""","""",1,4/18/2021 20:14,72.197.207.3,Mozilla/5.0 (Macintosh; Intel Mac OS X 10.13; rv:87.0) Gecko/20100101 Firefox/87.0,Macintosh,Firefox,87,OS X,10.13
12,1,null,"""",html-keyboard-response,250,536662,0.0-250.0,"""","<div style=""font-size:60px;"">+</div>","""",256,fixationBtwnNeutralMaskAndPrompt,Test,null,1000,"""","""","""","""","""","""","""","""",1,4/18/2021 20:14,72.197.207.3,Mozilla/5.0 (Macintosh; Intel Mac OS X 10.13; rv:87.0) Gecko/20100101 Firefox/87.0,Macintosh,Firefox,87,OS X,10.13
12,1,2127,"""",html-button-response,251,538790,0.0-251.0,"""","<img src='jspsych/CFDfaces/CFD-WF-204-038-N.jpg' height=""250px"">,</br><b>Amanda</b>",1,256,IntactOrRearranged,Test,"""","""","""","""",CFD-WM-003-002-N.jpg,Kenneth,1,1,"""","""",1,4/18/2021 20:14,72.197.207.3,Mozilla/5.0 (Macintosh; Intel Mac OS X 10.13; rv:87.0) Gecko/20100101 Firefox/87.0,Macintosh,Firefox,87,OS X,10.13
12,1,2508,"""",html-slider-response,252,541311,0.0-252.0,"""","<img src='jspsych/CFDfaces/CFD-WF-204-038-N.jpg' height=""250px"">,</br><b>Amanda</b>","""",256,ConfidenceQuery,Test,"""","""","""","""",CFD-WM-003-002-N.jpg,Kenneth,1,"""",0,100,1,4/18/2021 20:14,72.197.207.3,Mozilla/5.0 (Macintosh; Intel Mac OS X 10.13; rv:87.0) Gecko/20100101 Firefox/87.0,Macintosh,Firefox,87,OS X,10.13
12,1,null,"""",html-keyboard-response,253,542313,0.0-253.0,"""","<div style=""font-size:60px;"">+</div>","""",256,ITI,Test,null,1000,"""","""","""","""","""","""","""","""",1,4/18/2021 20:14,72.197.207.3,Mozilla/5.0 (Macintosh; Intel Mac OS X 10.13; rv:87.0) Gecko/20100101 Firefox/87.0,Macintosh,Firefox,87,OS X,10.13
12,1,null,"""",image-keyboard-response,254,542571,0.0-254.0,"""",jspsych/scrambledDisgustFaces/scrambledBM16DIS.JPG,"""",256,forwardMask,Test,null,250,"""",d,"""","""","""","""","""","""",1,4/18/2021 20:14,72.197.207.3,Mozilla/5.0 (Macintosh; Intel Mac OS X 10.13; rv:87.0) Gecko/20100101 Firefox/87.0,Macintosh,Firefox,87,OS X,10.13
12,1,null,"""",image-keyboard-response,255,542595,0.0-255.0,"""",jspsych/disgustFaces/BM17DIS.JPG,"""",256,Cue,Test,null,16,"""","""","""","""","""","""","""","""",1,4/18/2021 20:14,72.197.207.3,Mozilla/5.0 (Macintosh; Intel Mac OS X 10.13; rv:87.0) Gecko/20100101 Firefox/87.0,Macintosh,Firefox,87,OS X,10.13
12,1,null,"""",image-keyboard-response,256,542706,0.0-256.0,"""",jspsych/neutralFaces/AM28NES.JPG,"""",256,backwardMask,Test,null,100,"""","""","""","""","""","""","""","""",1,4/18/2021 20:14,72.197.207.3,Mozilla/5.0 (Macintosh; Intel Mac OS X 10.13; rv:87.0) Gecko/20100101 Firefox/87.0,Macintosh,Firefox,87,OS X,10.13
12,1,null,"""",html-keyboard-response,257,543709,0.0-257.0,"""","<div style=""font-size:60px;"">+</div>","""",256,fixationBtwnNeutralMaskAndPrompt,Test,null,1000,"""","""","""","""","""","""","""","""",1,4/18/2021 20:14,72.197.207.3,Mozilla/5.0 (Macintosh; Intel Mac OS X 10.13; rv:87.0) Gecko/20100101 Firefox/87.0,Macintosh,Firefox,87,OS X,10.13
12,1,2120,"""",html-button-response,258,545831,0.0-258.0,"""","<img src='jspsych/CFDfaces/CFD-WM-022-001-N.jpg' height=""250px"">,</br><b>Robert</b>",1,256,IntactOrRearranged,Test,"""","""","""","""",CFD-WF-029-002-N.jpg,Heather,0,1,"""","""",1,4/18/2021 20:14,72.197.207.3,Mozilla/5.0 (Macintosh; Intel Mac OS X 10.13; rv:87.0) Gecko/20100101 Firefox/87.0,Macintosh,Firefox,87,OS X,10.13
12,1,1477,"""",html-slider-response,259,547311,0.0-259.0,"""","<img src='jspsych/CFDfaces/CFD-WM-022-001-N.jpg' height=""250px"">,</br><b>Robert</b>","""",256,ConfidenceQuery,Test,"""","""","""","""",CFD-WF-029-002-N.jpg,Heather,0,"""",0,69,1,4/18/2021 20:14,72.197.207.3,Mozilla/5.0 (Macintosh; Intel Mac OS X 10.13; rv:87.0) Gecko/20100101 Firefox/87.0,Macintosh,Firefox,87,OS X,10.13
12,1,null,"""",html-keyboard-response,260,548317,0.0-260.0,"""","<div style=""font-size:60px;"">+</div>","""",256,ITI,Test,null,1000,"""","""","""","""","""","""","""","""",1,4/18/2021 20:14,72.197.207.3,Mozilla/5.0 (Macintosh; Intel Mac OS X 10.13; rv:87.0) Gecko/20100101 Firefox/87.0,Macintosh,Firefox,87,OS X,10.13
12,1,null,"""",image-keyboard-response,261,548575,0.0-261.0,"""",jspsych/scrambledNeutralFaces/scrambledAM10NES.JPG,"""",256,forwardMask,Test,null,250,"""",n,"""","""","""","""","""","""",1,4/18/2021 20:14,72.197.207.3,Mozilla/5.0 (Macintosh; Intel Mac OS X 10.13; rv:87.0) Gecko/20100101 Firefox/87.0,Macintosh,Firefox,87,OS X,10.13
12,1,null,"""",image-keyboard-response,262,548604,0.0-262.0,"""",jspsych/neutralFaces/AM10NES.JPG,"""",256,Cue,Test,null,16,"""","""","""","""","""","""","""","""",1,4/18/2021 20:14,72.197.207.3,Mozilla/5.0 (Macintosh; Intel Mac OS X 10.13; rv:87.0) Gecko/20100101 Firefox/87.0,Macintosh,Firefox,87,OS X,10.13
12,1,null,"""",image-keyboard-response,263,548712,0.0-263.0,"""",jspsych/neutralFaces/AM06NES.JPG,"""",256,backwardMask,Test,null,100,"""","""","""","""","""","""","""","""",1,4/18/2021 20:14,72.197.207.3,Mozilla/5.0 (Macintosh; Intel Mac OS X 10.13; rv:87.0) Gecko/20100101 Firefox/87.0,Macintosh,Firefox,87,OS X,10.13
12,1,null,"""",html-keyboard-response,264,549718,0.0-264.0,"""","<div style=""font-size:60px;"">+</div>","""",256,fixationBtwnNeutralMaskAndPrompt,Test,null,1000,"""","""","""","""","""","""","""","""",1,4/18/2021 20:14,72.197.207.3,Mozilla/5.0 (Macintosh; Intel Mac OS X 10.13; rv:87.0) Gecko/20100101 Firefox/87.0,Macintosh,Firefox,87,OS X,10.13
12,1,3655,"""",html-button-response,265,553375,0.0-265.0,"""","<img src='jspsych/CFDfaces/CFD-AM-205-153-N.jpg' height=""250px"">,</br><b>Jason</b>",0,256,IntactOrRearranged,Test,"""","""","""","""",CFD-BF-201-080-N.jpg,Laura,0,0,"""","""",1,4/18/2021 20:14,72.197.207.3,Mozilla/5.0 (Macintosh; Intel Mac OS X 10.13; rv:87.0) Gecko/20100101 Firefox/87.0,Macintosh,Firefox,87,OS X,10.13
12,1,1365,"""",html-slider-response,266,554743,0.0-266.0,"""","<img src='jspsych/CFDfaces/CFD-AM-205-153-N.jpg' height=""250px"">,</br><b>Jason</b>","""",256,ConfidenceQuery,Test,"""","""","""","""",CFD-BF-201-080-N.jpg,Laura,0,"""",0,94,1,4/18/2021 20:14,72.197.207.3,Mozilla/5.0 (Macintosh; Intel Mac OS X 10.13; rv:87.0) Gecko/20100101 Firefox/87.0,Macintosh,Firefox,87,OS X,10.13
12,1,null,"""",html-keyboard-response,267,555749,0.0-267.0,"""","<div style=""font-size:60px;"">+</div>","""",256,ITI,Test,null,1000,"""","""","""","""","""","""","""","""",1,4/18/2021 20:14,72.197.207.3,Mozilla/5.0 (Macintosh; Intel Mac OS X 10.13; rv:87.0) Gecko/20100101 Firefox/87.0,Macintosh,Firefox,87,OS X,10.13
12,1,null,"""",image-keyboard-response,268,556004,0.0-268.0,"""",jspsych/scrambledNeutralFaces/scrambledAF26NES.JPG,"""",256,forwardMask,Test,null,250,"""",n,"""","""","""","""","""","""",1,4/18/2021 20:14,72.197.207.3,Mozilla/5.0 (Macintosh; Intel Mac OS X 10.13; rv:87.0) Gecko/20100101 Firefox/87.0,Macintosh,Firefox,87,OS X,10.13
12,1,null,"""",image-keyboard-response,269,556028,0.0-269.0,"""",jspsych/neutralFaces/AF26NES.JPG,"""",256,Cue,Test,null,16,"""","""","""","""","""","""","""","""",1,4/18/2021 20:14,72.197.207.3,Mozilla/5.0 (Macintosh; Intel Mac OS X 10.13; rv:87.0) Gecko/20100101 Firefox/87.0,Macintosh,Firefox,87,OS X,10.13
12,1,null,"""",image-keyboard-response,270,556139,0.0-270.0,"""",jspsych/neutralFaces/BF25NES.JPG,"""",256,backwardMask,Test,null,100,"""","""","""","""","""","""","""","""",1,4/18/2021 20:14,72.197.207.3,Mozilla/5.0 (Macintosh; Intel Mac OS X 10.13; rv:87.0) Gecko/20100101 Firefox/87.0,Macintosh,Firefox,87,OS X,10.13
12,1,null,"""",html-keyboard-response,271,557143,0.0-271.0,"""","<div style=""font-size:60px;"">+</div>","""",256,fixationBtwnNeutralMaskAndPrompt,Test,null,1000,"""","""","""","""","""","""","""","""",1,4/18/2021 20:14,72.197.207.3,Mozilla/5.0 (Macintosh; Intel Mac OS X 10.13; rv:87.0) Gecko/20100101 Firefox/87.0,Macintosh,Firefox,87,OS X,10.13
12,1,2152,"""",html-button-response,272,559295,0.0-272.0,"""","<img src='jspsych/CFDfaces/CFD-BF-008-001-N.jpg' height=""250px"">,</br><b>Meghan</b>",1,256,IntactOrRearranged,Test,"""","""","""","""",CFD-WM-232-070-N.jpg,Mark,0,1,"""","""",1,4/18/2021 20:14,72.197.207.3,Mozilla/5.0 (Macintosh; Intel Mac OS X 10.13; rv:87.0) Gecko/20100101 Firefox/87.0,Macintosh,Firefox,87,OS X,10.13
12,1,1061,"""",html-slider-response,273,560360,0.0-273.0,"""","<img src='jspsych/CFDfaces/CFD-BF-008-001-N.jpg' height=""250px"">,</br><b>Meghan</b>","""",256,ConfidenceQuery,Test,"""","""","""","""",CFD-WM-232-070-N.jpg,Mark,0,"""",0,82,1,4/18/2021 20:14,72.197.207.3,Mozilla/5.0 (Macintosh; Intel Mac OS X 10.13; rv:87.0) Gecko/20100101 Firefox/87.0,Macintosh,Firefox,87,OS X,10.13
12,1,null,"""",html-keyboard-response,274,561366,0.0-274.0,"""","<div style=""font-size:60px;"">+</div>","""",256,ITI,Test,null,1000,"""","""","""","""","""","""","""","""",1,4/18/2021 20:14,72.197.207.3,Mozilla/5.0 (Macintosh; Intel Mac OS X 10.13; rv:87.0) Gecko/20100101 Firefox/87.0,Macintosh,Firefox,87,OS X,10.13
12,1,null,"""",image-keyboard-response,275,561634,0.0-275.0,"""",jspsych/scrambledNeutralFaces/scrambledBF30NES.JPG,"""",256,forwardMask,Test,null,250,"""",n,"""","""","""","""","""","""",1,4/18/2021 20:14,72.197.207.3,Mozilla/5.0 (Macintosh; Intel Mac OS X 10.13; rv:87.0) Gecko/20100101 Firefox/87.0,Macintosh,Firefox,87,OS X,10.13
12,1,null,"""",image-keyboard-response,276,561655,0.0-276.0,"""",jspsych/neutralFaces/BF30NES.JPG,"""",256,Cue,Test,null,16,"""","""","""","""","""","""","""","""",1,4/18/2021 20:14,72.197.207.3,Mozilla/5.0 (Macintosh; Intel Mac OS X 10.13; rv:87.0) Gecko/20100101 Firefox/87.0,Macintosh,Firefox,87,OS X,10.13
12,1,null,"""",image-keyboard-response,277,561761,0.0-277.0,"""",jspsych/neutralFaces/BF32NES.JPG,"""",256,backwardMask,Test,null,100,"""","""","""","""","""","""","""","""",1,4/18/2021 20:14,72.197.207.3,Mozilla/5.0 (Macintosh; Intel Mac OS X 10.13; rv:87.0) Gecko/20100101 Firefox/87.0,Macintosh,Firefox,87,OS X,10.13
12,1,null,"""",html-keyboard-response,278,562762,0.0-278.0,"""","<div style=""font-size:60px;"">+</div>","""",256,fixationBtwnNeutralMaskAndPrompt,Test,null,1000,"""","""","""","""","""","""","""","""",1,4/18/2021 20:14,72.197.207.3,Mozilla/5.0 (Macintosh; Intel Mac OS X 10.13; rv:87.0) Gecko/20100101 Firefox/87.0,Macintosh,Firefox,87,OS X,10.13
12,1,1764,"""",html-button-response,279,564527,0.0-279.0,"""","<img src='jspsych/CFDfaces/CFD-LF-220-120-N.jpg' height=""250px"">,</br><b>Julie</b>",0,256,IntactOrRearranged,Test,"""","""","""","""",CFD-WF-018-017-N.jpg,Rebecca,0,0,"""","""",1,4/18/2021 20:14,72.197.207.3,Mozilla/5.0 (Macintosh; Intel Mac OS X 10.13; rv:87.0) Gecko/20100101 Firefox/87.0,Macintosh,Firefox,87,OS X,10.13
12,1,1141,"""",html-slider-response,280,565672,0.0-280.0,"""","<img src='jspsych/CFDfaces/CFD-LF-220-120-N.jpg' height=""250px"">,</br><b>Julie</b>","""",256,ConfidenceQuery,Test,"""","""","""","""",CFD-WF-018-017-N.jpg,Rebecca,0,"""",0,97,1,4/18/2021 20:14,72.197.207.3,Mozilla/5.0 (Macintosh; Intel Mac OS X 10.13; rv:87.0) Gecko/20100101 Firefox/87.0,Macintosh,Firefox,87,OS X,10.13
12,1,null,"""",html-keyboard-response,281,566675,0.0-281.0,"""","<div style=""font-size:60px;"">+</div>","""",256,ITI,Test,null,1000,"""","""","""","""","""","""","""","""",1,4/18/2021 20:14,72.197.207.3,Mozilla/5.0 (Macintosh; Intel Mac OS X 10.13; rv:87.0) Gecko/20100101 Firefox/87.0,Macintosh,Firefox,87,OS X,10.13
12,1,null,"""",image-keyboard-response,282,566930,0.0-282.0,"""",jspsych/scrambledDisgustFaces/scrambledBM05DIS.JPG,"""",256,forwardMask,Test,null,250,"""",d,"""","""","""","""","""","""",1,4/18/2021 20:14,72.197.207.3,Mozilla/5.0 (Macintosh; Intel Mac OS X 10.13; rv:87.0) Gecko/20100101 Firefox/87.0,Macintosh,Firefox,87,OS X,10.13
12,1,null,"""",image-keyboard-response,283,566954,0.0-283.0,"""",jspsych/disgustFaces/BM06DIS.JPG,"""",256,Cue,Test,null,16,"""","""","""","""","""","""","""","""",1,4/18/2021 20:14,72.197.207.3,Mozilla/5.0 (Macintosh; Intel Mac OS X 10.13; rv:87.0) Gecko/20100101 Firefox/87.0,Macintosh,Firefox,87,OS X,10.13
12,1,null,"""",image-keyboard-response,284,567062,0.0-284.0,"""",jspsych/neutralFaces/AM29NES.JPG,"""",256,backwardMask,Test,null,100,"""","""","""","""","""","""","""","""",1,4/18/2021 20:14,72.197.207.3,Mozilla/5.0 (Macintosh; Intel Mac OS X 10.13; rv:87.0) Gecko/20100101 Firefox/87.0,Macintosh,Firefox,87,OS X,10.13
12,1,null,"""",html-keyboard-response,285,568064,0.0-285.0,"""","<div style=""font-size:60px;"">+</div>","""",256,fixationBtwnNeutralMaskAndPrompt,Test,null,1000,"""","""","""","""","""","""","""","""",1,4/18/2021 20:14,72.197.207.3,Mozilla/5.0 (Macintosh; Intel Mac OS X 10.13; rv:87.0) Gecko/20100101 Firefox/87.0,Macintosh,Firefox,87,OS X,10.13
