run_id,condition,rt,responses,trial_type,trial_index,time_elapsed,internal_node_id,question_order,stimulus,button_pressed,iTrial,Phase,ExperimentPhase,key_press,StimulusDurationSetting,CharacterResponse,correctResponse,Face,Name,rearranged,slider_start,response,didSubjectEnterRearranged,Block,recorded_at,ip,user_agent,device,browser,browser_version,platform,platform_version
238,1,6913,"{""Q0"":""A2ZYJZGBWPXEIP""}",survey-text,0,6920,0.0-0.0,"""","""","""","""","""","""","""","""","""","""","""","""","""","""","""","""","""",5/3/2021 16:04,96.91.90.145,Mozilla/5.0 (Windows NT 10.0; Win64; x64; rv:86.0) Gecko/20100101 Firefox/86.0,,Firefox,86,Windows,10
238,1,2774,"{""Q0"":""35""}",survey-text,1,9703,0.0-1.0,"""","""","""","""","""","""","""","""","""","""","""","""","""","""","""","""","""",5/3/2021 16:04,96.91.90.145,Mozilla/5.0 (Windows NT 10.0; Win64; x64; rv:86.0) Gecko/20100101 Firefox/86.0,,Firefox,86,Windows,10
238,1,5781,"{""Q0"":""male"",""Q1"":""Not Hispanic/Latino"",""Q2"":""White or Caucasian""}",survey-multi-choice,2,15487,0.0-2.0,"[0,1,2]","""","""","""","""","""","""","""","""","""","""","""","""","""","""","""","""",5/3/2021 16:04,96.91.90.145,Mozilla/5.0 (Windows NT 10.0; Win64; x64; rv:86.0) Gecko/20100101 Firefox/86.0,,Firefox,86,Windows,10
238,1,19395,"""",image-button-response,3,34919,0.0-3.0,"""",directionsMemoryAssociation1.JPG,0,1,IntroDirections1,break,"""","""","""","""","""","""","""","""","""","""","""",5/3/2021 16:04,96.91.90.145,Mozilla/5.0 (Windows NT 10.0; Win64; x64; rv:86.0) Gecko/20100101 Firefox/86.0,,Firefox,86,Windows,10
238,1,27681,"""",image-button-response,4,62607,0.0-4.0,"""",directionsMemoryAssociation2.JPG,0,1,IntroDirections2,break,"""","""","""","""","""","""","""","""","""","""","""",5/3/2021 16:04,96.91.90.145,Mozilla/5.0 (Windows NT 10.0; Win64; x64; rv:86.0) Gecko/20100101 Firefox/86.0,,Firefox,86,Windows,10
238,1,null,"""",html-keyboard-response,5,67611,0.0-5.0,"""","<img src='jspsych/CFDfaces/CFD-LF-208-127-N.jpg' height=""250px"">,</br><b>Tara</b>","""",1,IntactFace,Practice,null,5000,"""","""","""","""","""","""","""","""","""",5/3/2021 16:04,96.91.90.145,Mozilla/5.0 (Windows NT 10.0; Win64; x64; rv:86.0) Gecko/20100101 Firefox/86.0,,Firefox,86,Windows,10
238,1,null,"""",html-keyboard-response,6,68114,0.0-6.0,"""","<div style=""font-size:60px;"">+</div>","""",1,ITI,Practice,null,1000,"""","""","""","""","""","""","""","""","""",5/3/2021 16:04,96.91.90.145,Mozilla/5.0 (Windows NT 10.0; Win64; x64; rv:86.0) Gecko/20100101 Firefox/86.0,,Firefox,86,Windows,10
238,1,null,"""",html-keyboard-response,7,73118,0.0-7.0,"""","<img src='jspsych/CFDfaces/CFD-AM-220-134-N.jpg' height=""250px"">,</br><b>Carlos</b>","""",2,IntactFace,Practice,null,5000,"""","""","""","""","""","""","""","""","""",5/3/2021 16:04,96.91.90.145,Mozilla/5.0 (Windows NT 10.0; Win64; x64; rv:86.0) Gecko/20100101 Firefox/86.0,,Firefox,86,Windows,10
238,1,null,"""",html-keyboard-response,8,73626,0.0-8.0,"""","<div style=""font-size:60px;"">+</div>","""",2,ITI,Practice,null,1000,"""","""","""","""","""","""","""","""","""",5/3/2021 16:04,96.91.90.145,Mozilla/5.0 (Windows NT 10.0; Win64; x64; rv:86.0) Gecko/20100101 Firefox/86.0,,Firefox,86,Windows,10
238,1,2828,"""",html-keyboard-response,9,78630,0.0-9.0,"""","<img src='jspsych/CFDfaces/CFD-AM-231-136-N.jpg' height=""250px"">,</br><b>Marcus</b>","""",3,IntactFace,Practice,70,5000,f,"""","""","""","""","""","""","""","""",5/3/2021 16:04,96.91.90.145,Mozilla/5.0 (Windows NT 10.0; Win64; x64; rv:86.0) Gecko/20100101 Firefox/86.0,,Firefox,86,Windows,10
238,1,null,"""",html-keyboard-response,10,79135,0.0-10.0,"""","<div style=""font-size:60px;"">+</div>","""",3,ITI,Practice,null,1000,"""","""","""","""","""","""","""","""","""",5/3/2021 16:04,96.91.90.145,Mozilla/5.0 (Windows NT 10.0; Win64; x64; rv:86.0) Gecko/20100101 Firefox/86.0,,Firefox,86,Windows,10
238,1,2656,"""",html-keyboard-response,11,84136,0.0-11.0,"""","<img src='jspsych/CFDfaces/CFD-BF-209-172-N.jpg' height=""250px"">,</br><b>Shannon</b>","""",4,IntactFace,Practice,78,5000,n,"""","""","""","""","""","""","""","""",5/3/2021 16:04,96.91.90.145,Mozilla/5.0 (Windows NT 10.0; Win64; x64; rv:86.0) Gecko/20100101 Firefox/86.0,,Firefox,86,Windows,10
238,1,null,"""",html-keyboard-response,12,84639,0.0-12.0,"""","<div style=""font-size:60px;"">+</div>","""",4,ITI,Practice,null,1000,"""","""","""","""","""","""","""","""","""",5/3/2021 16:04,96.91.90.145,Mozilla/5.0 (Windows NT 10.0; Win64; x64; rv:86.0) Gecko/20100101 Firefox/86.0,,Firefox,86,Windows,10
238,1,1765,"""",html-keyboard-response,13,89641,0.0-13.0,"""","<img src='jspsych/CFDfaces/CFD-AF-242-158-N.jpg' height=""250px"">,</br><b>Katelyn</b>","""",5,IntactFace,Practice,70,5000,f,"""","""","""","""","""","""","""","""",5/3/2021 16:04,96.91.90.145,Mozilla/5.0 (Windows NT 10.0; Win64; x64; rv:86.0) Gecko/20100101 Firefox/86.0,,Firefox,86,Windows,10
238,1,null,"""",html-keyboard-response,14,90145,0.0-14.0,"""","<div style=""font-size:60px;"">+</div>","""",5,ITI,Practice,null,1000,"""","""","""","""","""","""","""","""","""",5/3/2021 16:04,96.91.90.145,Mozilla/5.0 (Windows NT 10.0; Win64; x64; rv:86.0) Gecko/20100101 Firefox/86.0,,Firefox,86,Windows,10
238,1,1884,"""",html-keyboard-response,15,95147,0.0-15.0,"""","<img src='jspsych/CFDfaces/CFD-LM-233-171-N.jpg' height=""250px"">,</br><b>Samuel</b>","""",6,IntactFace,Practice,70,5000,f,"""","""","""","""","""","""","""","""",5/3/2021 16:04,96.91.90.145,Mozilla/5.0 (Windows NT 10.0; Win64; x64; rv:86.0) Gecko/20100101 Firefox/86.0,,Firefox,86,Windows,10
238,1,null,"""",html-keyboard-response,16,95649,0.0-16.0,"""","<div style=""font-size:60px;"">+</div>","""",6,ITI,Practice,null,1000,"""","""","""","""","""","""","""","""","""",5/3/2021 16:04,96.91.90.145,Mozilla/5.0 (Windows NT 10.0; Win64; x64; rv:86.0) Gecko/20100101 Firefox/86.0,,Firefox,86,Windows,10
238,1,2918,"""",html-keyboard-response,17,100649,0.0-17.0,"""","<img src='jspsych/CFDfaces/CFD-WF-016-015-N.jpg' height=""250px"">,</br><b>Cassandra</b>","""",7,IntactFace,Practice,70,5000,f,"""","""","""","""","""","""","""","""",5/3/2021 16:04,96.91.90.145,Mozilla/5.0 (Windows NT 10.0; Win64; x64; rv:86.0) Gecko/20100101 Firefox/86.0,,Firefox,86,Windows,10
238,1,null,"""",html-keyboard-response,18,101154,0.0-18.0,"""","<div style=""font-size:60px;"">+</div>","""",7,ITI,Practice,null,1000,"""","""","""","""","""","""","""","""","""",5/3/2021 16:04,96.91.90.145,Mozilla/5.0 (Windows NT 10.0; Win64; x64; rv:86.0) Gecko/20100101 Firefox/86.0,,Firefox,86,Windows,10
238,1,2250,"""",html-keyboard-response,19,106157,0.0-19.0,"""","<img src='jspsych/CFDfaces/CFD-WM-017-002-N.jpg' height=""250px"">,</br><b>Patrick</b>","""",8,IntactFace,Practice,70,5000,f,"""","""","""","""","""","""","""","""",5/3/2021 16:04,96.91.90.145,Mozilla/5.0 (Windows NT 10.0; Win64; x64; rv:86.0) Gecko/20100101 Firefox/86.0,,Firefox,86,Windows,10
238,1,null,"""",html-keyboard-response,20,106660,0.0-20.0,"""","<div style=""font-size:60px;"">+</div>","""",8,ITI,Practice,null,1000,"""","""","""","""","""","""","""","""","""",5/3/2021 16:04,96.91.90.145,Mozilla/5.0 (Windows NT 10.0; Win64; x64; rv:86.0) Gecko/20100101 Firefox/86.0,,Firefox,86,Windows,10
238,1,68478,"""",image-button-response,21,175144,0.0-21.0,"""",directionsForTest.JPG,0,1,directionsForTest,break,"""","""","""","""","""","""","""","""","""","""","""",5/3/2021 16:04,96.91.90.145,Mozilla/5.0 (Windows NT 10.0; Win64; x64; rv:86.0) Gecko/20100101 Firefox/86.0,,Firefox,86,Windows,10
238,1,9045,"""",image-button-response,22,184200,0.0-22.0,"""",directionsForTest2.JPG,0,1,directionsForTest2,break,"""","""","""","""","""","""","""","""","""","""","""",5/3/2021 16:04,96.91.90.145,Mozilla/5.0 (Windows NT 10.0; Win64; x64; rv:86.0) Gecko/20100101 Firefox/86.0,,Firefox,86,Windows,10
238,1,null,"""",html-keyboard-response,23,185202,0.0-23.0,"""","<div style=""font-size:60px;"">+</div>","""",1,ITI,Practice,null,1000,"""","""","""","""","""","""","""","""","""",5/3/2021 16:04,96.91.90.145,Mozilla/5.0 (Windows NT 10.0; Win64; x64; rv:86.0) Gecko/20100101 Firefox/86.0,,Firefox,86,Windows,10
238,1,null,"""",image-keyboard-response,24,185465,0.0-24.0,"""",jspsych/scrambledDisgustFaces/scrambledBM14DIS.JPG,"""",1,forwardMask,Practice,null,250,"""",d,"""","""","""","""","""","""","""",5/3/2021 16:04,96.91.90.145,Mozilla/5.0 (Windows NT 10.0; Win64; x64; rv:86.0) Gecko/20100101 Firefox/86.0,,Firefox,86,Windows,10
238,1,null,"""",image-keyboard-response,25,185489,0.0-25.0,"""",jspsych/disgustFaces/BM15DIS.JPG,"""",1,Cue,Practice,null,16,"""","""","""","""","""","""","""","""","""",5/3/2021 16:04,96.91.90.145,Mozilla/5.0 (Windows NT 10.0; Win64; x64; rv:86.0) Gecko/20100101 Firefox/86.0,,Firefox,86,Windows,10
238,1,null,"""",image-keyboard-response,26,185591,0.0-26.0,"""",jspsych/neutralFaces/BM13NES.JPG,"""",1,backwardMask,Practice,null,100,"""","""","""","""","""","""","""","""","""",5/3/2021 16:04,96.91.90.145,Mozilla/5.0 (Windows NT 10.0; Win64; x64; rv:86.0) Gecko/20100101 Firefox/86.0,,Firefox,86,Windows,10
238,1,null,"""",html-keyboard-response,27,186592,0.0-27.0,"""","<div style=""font-size:60px;"">+</div>","""",1,fixationBtwnNeutralMaskAndPrompt,Practice,null,1000,"""","""","""","""","""","""","""","""","""",5/3/2021 16:04,96.91.90.145,Mozilla/5.0 (Windows NT 10.0; Win64; x64; rv:86.0) Gecko/20100101 Firefox/86.0,,Firefox,86,Windows,10
238,1,null,"""",html-button-response,28,191595,0.0-28.0,"""","<img src='jspsych/CFDfaces/CFD-AM-220-134-N.jpg'height=""250px""></br><b>Marcus</b>",null,1,IntactOrRearranged,Practice,"""","""","""","""",CFD-AM-220-134-N.jpg,Marcus,1,"""","""","""","""",5/3/2021 16:04,96.91.90.145,Mozilla/5.0 (Windows NT 10.0; Win64; x64; rv:86.0) Gecko/20100101 Firefox/86.0,,Firefox,86,Windows,10
238,1,4795,"""",html-slider-response,29,196407,0.0-29.0,"""","<img src='jspsych/CFDfaces/CFD-AM-220-134-N.jpg'height=""250px""></br><b>Marcus</b>","""",1,ConfidenceQuery,Practice,"""","""","""","""",CFD-AF-237-223-N.jpg,Sara,1,0,7,"""","""",5/3/2021 16:04,96.91.90.145,Mozilla/5.0 (Windows NT 10.0; Win64; x64; rv:86.0) Gecko/20100101 Firefox/86.0,,Firefox,86,Windows,10
238,1,4045,"""",html-button-response,30,200455,0.0-30.0,"""",<p>Please click either button: REARRANGED or INTACT before the 5-second time limit.</p>,0,1,feedback,Practice,"""","""","""","""","""","""","""","""","""","""","""",5/3/2021 16:04,96.91.90.145,Mozilla/5.0 (Windows NT 10.0; Win64; x64; rv:86.0) Gecko/20100101 Firefox/86.0,,Firefox,86,Windows,10
238,1,null,"""",html-keyboard-response,31,201458,0.0-31.0,"""","<div style=""font-size:60px;"">+</div>","""",2,ITI,Practice,null,1000,"""","""","""","""","""","""","""","""","""",5/3/2021 16:04,96.91.90.145,Mozilla/5.0 (Windows NT 10.0; Win64; x64; rv:86.0) Gecko/20100101 Firefox/86.0,,Firefox,86,Windows,10
238,1,null,"""",image-keyboard-response,32,201712,0.0-32.0,"""",jspsych/scrambledNeutralFaces/scrambledAF19NES.JPG,"""",2,forwardMask,Practice,null,250,"""",n,"""","""","""","""","""","""","""",5/3/2021 16:04,96.91.90.145,Mozilla/5.0 (Windows NT 10.0; Win64; x64; rv:86.0) Gecko/20100101 Firefox/86.0,,Firefox,86,Windows,10
238,1,null,"""",image-keyboard-response,33,201730,0.0-33.0,"""",jspsych/neutralFaces/AF19NES.JPG,"""",2,Cue,Practice,null,16,"""","""","""","""","""","""","""","""","""",5/3/2021 16:04,96.91.90.145,Mozilla/5.0 (Windows NT 10.0; Win64; x64; rv:86.0) Gecko/20100101 Firefox/86.0,,Firefox,86,Windows,10
238,1,null,"""",image-keyboard-response,34,201833,0.0-34.0,"""",jspsych/neutralFaces/AF20NES.JPG,"""",2,backwardMask,Practice,null,100,"""","""","""","""","""","""","""","""","""",5/3/2021 16:04,96.91.90.145,Mozilla/5.0 (Windows NT 10.0; Win64; x64; rv:86.0) Gecko/20100101 Firefox/86.0,,Firefox,86,Windows,10
238,1,null,"""",html-keyboard-response,35,202835,0.0-35.0,"""","<div style=""font-size:60px;"">+</div>","""",2,fixationBtwnNeutralMaskAndPrompt,Practice,null,1000,"""","""","""","""","""","""","""","""","""",5/3/2021 16:04,96.91.90.145,Mozilla/5.0 (Windows NT 10.0; Win64; x64; rv:86.0) Gecko/20100101 Firefox/86.0,,Firefox,86,Windows,10
238,1,1666,"""",html-button-response,36,204503,0.0-36.0,"""","<img src='jspsych/CFDfaces/CFD-LM-233-171-N.jpg'height=""250px""></br><b>Samuel</b>",0,2,IntactOrRearranged,Practice,"""","""","""","""",CFD-LM-233-171-N.jpg,Samuel,0,"""","""",0,"""",5/3/2021 16:04,96.91.90.145,Mozilla/5.0 (Windows NT 10.0; Win64; x64; rv:86.0) Gecko/20100101 Firefox/86.0,,Firefox,86,Windows,10
238,1,3039,"""",html-slider-response,37,207543,0.0-37.0,"""","<img src='jspsych/CFDfaces/CFD-LM-233-171-N.jpg'height=""250px""></br><b>Samuel</b>","""",2,ConfidenceQuery,Practice,"""","""","""","""",CFD-AF-237-223-N.jpg,Sara,0,0,86,"""","""",5/3/2021 16:04,96.91.90.145,Mozilla/5.0 (Windows NT 10.0; Win64; x64; rv:86.0) Gecko/20100101 Firefox/86.0,,Firefox,86,Windows,10
238,1,3573,"""",html-button-response,38,211119,0.0-38.0,"""",You are Correct. You called an Intact Pair Intact,0,2,feedback,Practice,"""","""","""","""","""","""","""","""","""","""","""",5/3/2021 16:04,96.91.90.145,Mozilla/5.0 (Windows NT 10.0; Win64; x64; rv:86.0) Gecko/20100101 Firefox/86.0,,Firefox,86,Windows,10
238,1,null,"""",html-keyboard-response,39,212121,0.0-39.0,"""","<div style=""font-size:60px;"">+</div>","""",3,ITI,Practice,null,1000,"""","""","""","""","""","""","""","""","""",5/3/2021 16:04,96.91.90.145,Mozilla/5.0 (Windows NT 10.0; Win64; x64; rv:86.0) Gecko/20100101 Firefox/86.0,,Firefox,86,Windows,10
238,1,null,"""",image-keyboard-response,40,212373,0.0-40.0,"""",jspsych/scrambledNeutralFaces/scrambledAM03NES.JPG,"""",3,forwardMask,Practice,null,250,"""",n,"""","""","""","""","""","""","""",5/3/2021 16:04,96.91.90.145,Mozilla/5.0 (Windows NT 10.0; Win64; x64; rv:86.0) Gecko/20100101 Firefox/86.0,,Firefox,86,Windows,10
238,1,null,"""",image-keyboard-response,41,212393,0.0-41.0,"""",jspsych/neutralFaces/AM03NES.JPG,"""",3,Cue,Practice,null,16,"""","""","""","""","""","""","""","""","""",5/3/2021 16:04,96.91.90.145,Mozilla/5.0 (Windows NT 10.0; Win64; x64; rv:86.0) Gecko/20100101 Firefox/86.0,,Firefox,86,Windows,10
238,1,null,"""",image-keyboard-response,42,212495,0.0-42.0,"""",jspsych/neutralFaces/AM11NES.JPG,"""",3,backwardMask,Practice,null,100,"""","""","""","""","""","""","""","""","""",5/3/2021 16:04,96.91.90.145,Mozilla/5.0 (Windows NT 10.0; Win64; x64; rv:86.0) Gecko/20100101 Firefox/86.0,,Firefox,86,Windows,10
238,1,null,"""",html-keyboard-response,43,213497,0.0-43.0,"""","<div style=""font-size:60px;"">+</div>","""",3,fixationBtwnNeutralMaskAndPrompt,Practice,null,1000,"""","""","""","""","""","""","""","""","""",5/3/2021 16:04,96.91.90.145,Mozilla/5.0 (Windows NT 10.0; Win64; x64; rv:86.0) Gecko/20100101 Firefox/86.0,,Firefox,86,Windows,10
238,1,1631,"""",html-button-response,44,215135,0.0-44.0,"""","<img src='jspsych/CFDfaces/CFD-BF-209-172-N.jpg'height=""250px""></br><b>Shannon</b>",0,3,IntactOrRearranged,Practice,"""","""","""","""",CFD-BF-209-172-N.jpg,Shannon,0,"""","""",0,"""",5/3/2021 16:04,96.91.90.145,Mozilla/5.0 (Windows NT 10.0; Win64; x64; rv:86.0) Gecko/20100101 Firefox/86.0,,Firefox,86,Windows,10
238,1,2687,"""",html-slider-response,45,217823,0.0-45.0,"""","<img src='jspsych/CFDfaces/CFD-BF-209-172-N.jpg'height=""250px""></br><b>Shannon</b>","""",3,ConfidenceQuery,Practice,"""","""","""","""",CFD-AF-237-223-N.jpg,Sara,0,0,100,"""","""",5/3/2021 16:04,96.91.90.145,Mozilla/5.0 (Windows NT 10.0; Win64; x64; rv:86.0) Gecko/20100101 Firefox/86.0,,Firefox,86,Windows,10
238,1,1414,"""",html-button-response,46,219239,0.0-46.0,"""",You are Correct. You called an Intact Pair Intact,0,3,feedback,Practice,"""","""","""","""","""","""","""","""","""","""","""",5/3/2021 16:04,96.91.90.145,Mozilla/5.0 (Windows NT 10.0; Win64; x64; rv:86.0) Gecko/20100101 Firefox/86.0,,Firefox,86,Windows,10
238,1,null,"""",html-keyboard-response,47,220241,0.0-47.0,"""","<div style=""font-size:60px;"">+</div>","""",4,ITI,Practice,null,1000,"""","""","""","""","""","""","""","""","""",5/3/2021 16:04,96.91.90.145,Mozilla/5.0 (Windows NT 10.0; Win64; x64; rv:86.0) Gecko/20100101 Firefox/86.0,,Firefox,86,Windows,10
238,1,null,"""",image-keyboard-response,48,220497,0.0-48.0,"""",jspsych/scrambledNeutralFaces/scrambledAM13NES.JPG,"""",4,forwardMask,Practice,null,250,"""",n,"""","""","""","""","""","""","""",5/3/2021 16:04,96.91.90.145,Mozilla/5.0 (Windows NT 10.0; Win64; x64; rv:86.0) Gecko/20100101 Firefox/86.0,,Firefox,86,Windows,10
238,1,null,"""",image-keyboard-response,49,220520,0.0-49.0,"""",jspsych/neutralFaces/AM13NES.JPG,"""",4,Cue,Practice,null,16,"""","""","""","""","""","""","""","""","""",5/3/2021 16:04,96.91.90.145,Mozilla/5.0 (Windows NT 10.0; Win64; x64; rv:86.0) Gecko/20100101 Firefox/86.0,,Firefox,86,Windows,10
238,1,null,"""",image-keyboard-response,50,220623,0.0-50.0,"""",jspsych/neutralFaces/BM25NES.JPG,"""",4,backwardMask,Practice,null,100,"""","""","""","""","""","""","""","""","""",5/3/2021 16:04,96.91.90.145,Mozilla/5.0 (Windows NT 10.0; Win64; x64; rv:86.0) Gecko/20100101 Firefox/86.0,,Firefox,86,Windows,10
238,1,null,"""",html-keyboard-response,51,221625,0.0-51.0,"""","<div style=""font-size:60px;"">+</div>","""",4,fixationBtwnNeutralMaskAndPrompt,Practice,null,1000,"""","""","""","""","""","""","""","""","""",5/3/2021 16:04,96.91.90.145,Mozilla/5.0 (Windows NT 10.0; Win64; x64; rv:86.0) Gecko/20100101 Firefox/86.0,,Firefox,86,Windows,10
238,1,2333,"""",html-button-response,52,223959,0.0-52.0,"""","<img src='jspsych/CFDfaces/CFD-WF-016-015-N.jpg'height=""250px""></br><b>Katelyn</b>",0,4,IntactOrRearranged,Practice,"""","""","""","""",CFD-WF-016-015-N.jpg,Katelyn,1,"""","""",0,"""",5/3/2021 16:04,96.91.90.145,Mozilla/5.0 (Windows NT 10.0; Win64; x64; rv:86.0) Gecko/20100101 Firefox/86.0,,Firefox,86,Windows,10
238,1,2462,"""",html-slider-response,53,226423,0.0-53.0,"""","<img src='jspsych/CFDfaces/CFD-WF-016-015-N.jpg'height=""250px""></br><b>Katelyn</b>","""",4,ConfidenceQuery,Practice,"""","""","""","""",CFD-AF-237-223-N.jpg,Sara,1,0,54,"""","""",5/3/2021 16:04,96.91.90.145,Mozilla/5.0 (Windows NT 10.0; Win64; x64; rv:86.0) Gecko/20100101 Firefox/86.0,,Firefox,86,Windows,10
238,1,2149,"""",html-button-response,54,228575,0.0-54.0,"""",You are Incorrect. You called a Rearranged Pair Intact,0,4,feedback,Practice,"""","""","""","""","""","""","""","""","""","""","""",5/3/2021 16:04,96.91.90.145,Mozilla/5.0 (Windows NT 10.0; Win64; x64; rv:86.0) Gecko/20100101 Firefox/86.0,,Firefox,86,Windows,10
238,1,null,"""",html-keyboard-response,55,229577,0.0-55.0,"""","<div style=""font-size:60px;"">+</div>","""",5,ITI,Practice,null,1000,"""","""","""","""","""","""","""","""","""",5/3/2021 16:04,96.91.90.145,Mozilla/5.0 (Windows NT 10.0; Win64; x64; rv:86.0) Gecko/20100101 Firefox/86.0,,Firefox,86,Windows,10
238,1,null,"""",image-keyboard-response,56,229829,0.0-56.0,"""",jspsych/scrambledNeutralFaces/scrambledBF02NES.JPG,"""",5,forwardMask,Practice,null,250,"""",n,"""","""","""","""","""","""","""",5/3/2021 16:04,96.91.90.145,Mozilla/5.0 (Windows NT 10.0; Win64; x64; rv:86.0) Gecko/20100101 Firefox/86.0,,Firefox,86,Windows,10
238,1,null,"""",image-keyboard-response,57,229848,0.0-57.0,"""",jspsych/neutralFaces/BF02NES.JPG,"""",5,Cue,Practice,null,16,"""","""","""","""","""","""","""","""","""",5/3/2021 16:04,96.91.90.145,Mozilla/5.0 (Windows NT 10.0; Win64; x64; rv:86.0) Gecko/20100101 Firefox/86.0,,Firefox,86,Windows,10
238,1,null,"""",image-keyboard-response,58,229950,0.0-58.0,"""",jspsych/neutralFaces/BF04NES.JPG,"""",5,backwardMask,Practice,null,100,"""","""","""","""","""","""","""","""","""",5/3/2021 16:04,96.91.90.145,Mozilla/5.0 (Windows NT 10.0; Win64; x64; rv:86.0) Gecko/20100101 Firefox/86.0,,Firefox,86,Windows,10
238,1,null,"""",html-keyboard-response,59,230951,0.0-59.0,"""","<div style=""font-size:60px;"">+</div>","""",5,fixationBtwnNeutralMaskAndPrompt,Practice,null,1000,"""","""","""","""","""","""","""","""","""",5/3/2021 16:04,96.91.90.145,Mozilla/5.0 (Windows NT 10.0; Win64; x64; rv:86.0) Gecko/20100101 Firefox/86.0,,Firefox,86,Windows,10
238,1,1806,"""",html-button-response,60,232759,0.0-60.0,"""","<img src='jspsych/CFDfaces/CFD-AM-231-136-N.jpg'height=""250px""></br><b>Carlos</b>",1,5,IntactOrRearranged,Practice,"""","""","""","""",CFD-AM-231-136-N.jpg,Carlos,1,"""","""",1,"""",5/3/2021 16:04,96.91.90.145,Mozilla/5.0 (Windows NT 10.0; Win64; x64; rv:86.0) Gecko/20100101 Firefox/86.0,,Firefox,86,Windows,10
238,1,2844,"""",html-slider-response,61,235607,0.0-61.0,"""","<img src='jspsych/CFDfaces/CFD-AM-231-136-N.jpg'height=""250px""></br><b>Carlos</b>","""",5,ConfidenceQuery,Practice,"""","""","""","""",CFD-AF-237-223-N.jpg,Sara,1,0,97,"""","""",5/3/2021 16:04,96.91.90.145,Mozilla/5.0 (Windows NT 10.0; Win64; x64; rv:86.0) Gecko/20100101 Firefox/86.0,,Firefox,86,Windows,10
238,1,3583,"""",html-button-response,62,239192,0.0-62.0,"""",You are Correct. You Called A Rearranged Pair Rearranged,0,5,feedback,Practice,"""","""","""","""","""","""","""","""","""","""","""",5/3/2021 16:04,96.91.90.145,Mozilla/5.0 (Windows NT 10.0; Win64; x64; rv:86.0) Gecko/20100101 Firefox/86.0,,Firefox,86,Windows,10
238,1,null,"""",html-keyboard-response,63,240193,0.0-63.0,"""","<div style=""font-size:60px;"">+</div>","""",6,ITI,Practice,null,1000,"""","""","""","""","""","""","""","""","""",5/3/2021 16:04,96.91.90.145,Mozilla/5.0 (Windows NT 10.0; Win64; x64; rv:86.0) Gecko/20100101 Firefox/86.0,,Firefox,86,Windows,10
238,1,null,"""",image-keyboard-response,64,240445,0.0-64.0,"""",jspsych/scrambledNeutralFaces/scrambledBF12NES.JPG,"""",6,forwardMask,Practice,null,250,"""",n,"""","""","""","""","""","""","""",5/3/2021 16:04,96.91.90.145,Mozilla/5.0 (Windows NT 10.0; Win64; x64; rv:86.0) Gecko/20100101 Firefox/86.0,,Firefox,86,Windows,10
238,1,null,"""",image-keyboard-response,65,240468,0.0-65.0,"""",jspsych/neutralFaces/BF12NES.JPG,"""",6,Cue,Practice,null,16,"""","""","""","""","""","""","""","""","""",5/3/2021 16:04,96.91.90.145,Mozilla/5.0 (Windows NT 10.0; Win64; x64; rv:86.0) Gecko/20100101 Firefox/86.0,,Firefox,86,Windows,10
238,1,null,"""",image-keyboard-response,66,240569,0.0-66.0,"""",jspsych/neutralFaces/AF19NES.JPG,"""",6,backwardMask,Practice,null,100,"""","""","""","""","""","""","""","""","""",5/3/2021 16:04,96.91.90.145,Mozilla/5.0 (Windows NT 10.0; Win64; x64; rv:86.0) Gecko/20100101 Firefox/86.0,,Firefox,86,Windows,10
238,1,null,"""",html-keyboard-response,67,241571,0.0-67.0,"""","<div style=""font-size:60px;"">+</div>","""",6,fixationBtwnNeutralMaskAndPrompt,Practice,null,1000,"""","""","""","""","""","""","""","""","""",5/3/2021 16:04,96.91.90.145,Mozilla/5.0 (Windows NT 10.0; Win64; x64; rv:86.0) Gecko/20100101 Firefox/86.0,,Firefox,86,Windows,10
238,1,2138,"""",html-button-response,68,243711,0.0-68.0,"""","<img src='jspsych/CFDfaces/CFD-AF-242-158-N.jpg'height=""250px""></br><b>Cassandra</b>",1,6,IntactOrRearranged,Practice,"""","""","""","""",CFD-AF-242-158-N.jpg,Cassandra,1,"""","""",1,"""",5/3/2021 16:04,96.91.90.145,Mozilla/5.0 (Windows NT 10.0; Win64; x64; rv:86.0) Gecko/20100101 Firefox/86.0,,Firefox,86,Windows,10
238,1,3518,"""",html-slider-response,69,247231,0.0-69.0,"""","<img src='jspsych/CFDfaces/CFD-AF-242-158-N.jpg'height=""250px""></br><b>Cassandra</b>","""",6,ConfidenceQuery,Practice,"""","""","""","""",CFD-AF-237-223-N.jpg,Sara,1,0,65,"""","""",5/3/2021 16:04,96.91.90.145,Mozilla/5.0 (Windows NT 10.0; Win64; x64; rv:86.0) Gecko/20100101 Firefox/86.0,,Firefox,86,Windows,10
238,1,1349,"""",html-button-response,70,248583,0.0-70.0,"""",You are Correct. You Called A Rearranged Pair Rearranged,0,6,feedback,Practice,"""","""","""","""","""","""","""","""","""","""","""",5/3/2021 16:04,96.91.90.145,Mozilla/5.0 (Windows NT 10.0; Win64; x64; rv:86.0) Gecko/20100101 Firefox/86.0,,Firefox,86,Windows,10
238,1,null,"""",html-keyboard-response,71,249585,0.0-71.0,"""","<div style=""font-size:60px;"">+</div>","""",7,ITI,Practice,null,1000,"""","""","""","""","""","""","""","""","""",5/3/2021 16:04,96.91.90.145,Mozilla/5.0 (Windows NT 10.0; Win64; x64; rv:86.0) Gecko/20100101 Firefox/86.0,,Firefox,86,Windows,10
238,1,null,"""",image-keyboard-response,72,249836,0.0-72.0,"""",jspsych/scrambledDisgustFaces/scrambledBM09DIS.JPG,"""",7,forwardMask,Practice,null,250,"""",d,"""","""","""","""","""","""","""",5/3/2021 16:04,96.91.90.145,Mozilla/5.0 (Windows NT 10.0; Win64; x64; rv:86.0) Gecko/20100101 Firefox/86.0,,Firefox,86,Windows,10
238,1,null,"""",image-keyboard-response,73,249855,0.0-73.0,"""",jspsych/disgustFaces/BM10DIS.JPG,"""",7,Cue,Practice,null,16,"""","""","""","""","""","""","""","""","""",5/3/2021 16:04,96.91.90.145,Mozilla/5.0 (Windows NT 10.0; Win64; x64; rv:86.0) Gecko/20100101 Firefox/86.0,,Firefox,86,Windows,10
238,1,null,"""",image-keyboard-response,74,249958,0.0-74.0,"""",jspsych/neutralFaces/AM05NES.JPG,"""",7,backwardMask,Practice,null,100,"""","""","""","""","""","""","""","""","""",5/3/2021 16:04,96.91.90.145,Mozilla/5.0 (Windows NT 10.0; Win64; x64; rv:86.0) Gecko/20100101 Firefox/86.0,,Firefox,86,Windows,10
238,1,null,"""",html-keyboard-response,75,250958,0.0-75.0,"""","<div style=""font-size:60px;"">+</div>","""",7,fixationBtwnNeutralMaskAndPrompt,Practice,null,1000,"""","""","""","""","""","""","""","""","""",5/3/2021 16:04,96.91.90.145,Mozilla/5.0 (Windows NT 10.0; Win64; x64; rv:86.0) Gecko/20100101 Firefox/86.0,,Firefox,86,Windows,10
238,1,2024,"""",html-button-response,76,252984,0.0-76.0,"""","<img src='jspsych/CFDfaces/CFD-LF-208-127-N.jpg'height=""250px""></br><b>Tara</b>",1,7,IntactOrRearranged,Practice,"""","""","""","""",CFD-LF-208-127-N.jpg,Tara,0,"""","""",1,"""",5/3/2021 16:04,96.91.90.145,Mozilla/5.0 (Windows NT 10.0; Win64; x64; rv:86.0) Gecko/20100101 Firefox/86.0,,Firefox,86,Windows,10
238,1,1908,"""",html-slider-response,77,254895,0.0-77.0,"""","<img src='jspsych/CFDfaces/CFD-LF-208-127-N.jpg'height=""250px""></br><b>Tara</b>","""",7,ConfidenceQuery,Practice,"""","""","""","""",CFD-AF-237-223-N.jpg,Sara,0,0,45,"""","""",5/3/2021 16:04,96.91.90.145,Mozilla/5.0 (Windows NT 10.0; Win64; x64; rv:86.0) Gecko/20100101 Firefox/86.0,,Firefox,86,Windows,10
238,1,1687,"""",html-button-response,78,256584,0.0-78.0,"""",You are Incorrect. You Called an Intact Pair Rearranged,0,7,feedback,Practice,"""","""","""","""","""","""","""","""","""","""","""",5/3/2021 16:04,96.91.90.145,Mozilla/5.0 (Windows NT 10.0; Win64; x64; rv:86.0) Gecko/20100101 Firefox/86.0,,Firefox,86,Windows,10
238,1,null,"""",html-keyboard-response,79,257586,0.0-79.0,"""","<div style=""font-size:60px;"">+</div>","""",8,ITI,Practice,null,1000,"""","""","""","""","""","""","""","""","""",5/3/2021 16:04,96.91.90.145,Mozilla/5.0 (Windows NT 10.0; Win64; x64; rv:86.0) Gecko/20100101 Firefox/86.0,,Firefox,86,Windows,10
238,1,null,"""",image-keyboard-response,80,257839,0.0-80.0,"""",jspsych/scrambledDisgustFaces/scrambledBF34DIS.JPG,"""",8,forwardMask,Practice,null,250,"""",d,"""","""","""","""","""","""","""",5/3/2021 16:04,96.91.90.145,Mozilla/5.0 (Windows NT 10.0; Win64; x64; rv:86.0) Gecko/20100101 Firefox/86.0,,Firefox,86,Windows,10
238,1,null,"""",image-keyboard-response,81,257862,0.0-81.0,"""",jspsych/disgustFaces/BF34DIS.JPG,"""",8,Cue,Practice,null,16,"""","""","""","""","""","""","""","""","""",5/3/2021 16:04,96.91.90.145,Mozilla/5.0 (Windows NT 10.0; Win64; x64; rv:86.0) Gecko/20100101 Firefox/86.0,,Firefox,86,Windows,10
238,1,null,"""",image-keyboard-response,82,257965,0.0-82.0,"""",jspsych/neutralFaces/AF16NES.JPG,"""",8,backwardMask,Practice,null,100,"""","""","""","""","""","""","""","""","""",5/3/2021 16:04,96.91.90.145,Mozilla/5.0 (Windows NT 10.0; Win64; x64; rv:86.0) Gecko/20100101 Firefox/86.0,,Firefox,86,Windows,10
238,1,null,"""",html-keyboard-response,83,258965,0.0-83.0,"""","<div style=""font-size:60px;"">+</div>","""",8,fixationBtwnNeutralMaskAndPrompt,Practice,null,1000,"""","""","""","""","""","""","""","""","""",5/3/2021 16:04,96.91.90.145,Mozilla/5.0 (Windows NT 10.0; Win64; x64; rv:86.0) Gecko/20100101 Firefox/86.0,,Firefox,86,Windows,10
238,1,1528,"""",html-button-response,84,260496,0.0-84.0,"""","<img src='jspsych/CFDfaces/CFD-WM-017-002-N.jpg'height=""250px""></br><b>Patrick</b>",0,8,IntactOrRearranged,Practice,"""","""","""","""",CFD-WM-017-002-N.jpg,Patrick,0,"""","""",0,"""",5/3/2021 16:04,96.91.90.145,Mozilla/5.0 (Windows NT 10.0; Win64; x64; rv:86.0) Gecko/20100101 Firefox/86.0,,Firefox,86,Windows,10
238,1,3261,"""",html-slider-response,85,263759,0.0-85.0,"""","<img src='jspsych/CFDfaces/CFD-WM-017-002-N.jpg'height=""250px""></br><b>Patrick</b>","""",8,ConfidenceQuery,Practice,"""","""","""","""",CFD-AF-237-223-N.jpg,Sara,0,0,100,"""","""",5/3/2021 16:04,96.91.90.145,Mozilla/5.0 (Windows NT 10.0; Win64; x64; rv:86.0) Gecko/20100101 Firefox/86.0,,Firefox,86,Windows,10
238,1,1567,"""",html-button-response,86,265327,0.0-86.0,"""",You are Correct. You called an Intact Pair Intact,0,8,feedback,Practice,"""","""","""","""","""","""","""","""","""","""","""",5/3/2021 16:04,96.91.90.145,Mozilla/5.0 (Windows NT 10.0; Win64; x64; rv:86.0) Gecko/20100101 Firefox/86.0,,Firefox,86,Windows,10
238,1,17409,"""",image-button-response,87,282743,0.0-87.0,"""",directionsMemoryAssociation3.JPG,0,128,DirectionsBeforeActualTEst,Break,"""","""","""","""","""","""","""","""","""","""","""",5/3/2021 16:04,96.91.90.145,Mozilla/5.0 (Windows NT 10.0; Win64; x64; rv:86.0) Gecko/20100101 Firefox/86.0,,Firefox,86,Windows,10
238,1,3570,"""",image-button-response,88,286320,0.0-88.0,"""",directionsForTest2.JPG,0,1,directionsForTest2,break,"""","""","""","""","""","""","""","""","""","""","""",5/3/2021 16:04,96.91.90.145,Mozilla/5.0 (Windows NT 10.0; Win64; x64; rv:86.0) Gecko/20100101 Firefox/86.0,,Firefox,86,Windows,10
238,1,10269,"""",html-button-response,89,296591,0.0-89.0,"""","<p>You will be asked to memorize and then recall four sets of face-name pairs. </p> <p> Each set will have 32 pairs. </p> <p>After the fourth set, there will be a brief follow-up experiment (<40 min alltogether)</p>",0,"""","""","""","""","""","""","""","""","""","""","""","""","""","""",5/3/2021 16:04,96.91.90.145,Mozilla/5.0 (Windows NT 10.0; Win64; x64; rv:86.0) Gecko/20100101 Firefox/86.0,,Firefox,86,Windows,10
238,1,2839,"""",html-keyboard-response,90,301593,0.0-90.0,"""","<img src='jspsych/CFDfaces/CFD-WM-041-021-N.jpg' height=""250px""></br><b>James</b>","""",256,IntactFace,Memorization,70,5000,f,"""",CFD-BF-009-002-N.jpg,Lauren,0,"""","""","""",1,5/3/2021 16:04,96.91.90.145,Mozilla/5.0 (Windows NT 10.0; Win64; x64; rv:86.0) Gecko/20100101 Firefox/86.0,,Firefox,86,Windows,10
238,1,null,"""",html-keyboard-response,91,302097,0.0-91.0,"""","<div style=""font-size:60px;"">+</div>","""",256,fixation,Memorization,null,500,"""","""","""","""","""","""","""","""",1,5/3/2021 16:04,96.91.90.145,Mozilla/5.0 (Windows NT 10.0; Win64; x64; rv:86.0) Gecko/20100101 Firefox/86.0,,Firefox,86,Windows,10
238,1,1142,"""",html-keyboard-response,92,307099,0.0-92.0,"""","<img src='jspsych/CFDfaces/CFD-LM-217-162-N.jpg' height=""250px""></br><b>Daniel</b>","""",256,IntactFace,Memorization,70,5000,f,"""",CFD-AM-213-056-N.jpg,Jesse,0,"""","""","""",1,5/3/2021 16:04,96.91.90.145,Mozilla/5.0 (Windows NT 10.0; Win64; x64; rv:86.0) Gecko/20100101 Firefox/86.0,,Firefox,86,Windows,10
238,1,null,"""",html-keyboard-response,93,307604,0.0-93.0,"""","<div style=""font-size:60px;"">+</div>","""",256,fixation,Memorization,null,500,"""","""","""","""","""","""","""","""",1,5/3/2021 16:04,96.91.90.145,Mozilla/5.0 (Windows NT 10.0; Win64; x64; rv:86.0) Gecko/20100101 Firefox/86.0,,Firefox,86,Windows,10
238,1,1403,"""",html-keyboard-response,94,312606,0.0-94.0,"""","<img src='jspsych/CFDfaces/CFD-WF-218-087-N.jpg' height=""250px""></br><b>Kimberly</b>","""",256,IntactFace,Memorization,70,5000,f,"""",CFD-LF-244-096-N.jpg,Jordan,0,"""","""","""",1,5/3/2021 16:04,96.91.90.145,Mozilla/5.0 (Windows NT 10.0; Win64; x64; rv:86.0) Gecko/20100101 Firefox/86.0,,Firefox,86,Windows,10
238,1,null,"""",html-keyboard-response,95,313115,0.0-95.0,"""","<div style=""font-size:60px;"">+</div>","""",256,fixation,Memorization,null,500,"""","""","""","""","""","""","""","""",1,5/3/2021 16:04,96.91.90.145,Mozilla/5.0 (Windows NT 10.0; Win64; x64; rv:86.0) Gecko/20100101 Firefox/86.0,,Firefox,86,Windows,10
238,1,1805,"""",html-keyboard-response,96,318117,0.0-96.0,"""","<img src='jspsych/CFDfaces/CFD-LM-248-089-N.jpg' height=""250px""></br><b>Gregory</b>","""",256,IntactFace,Memorization,70,5000,f,"""",CFD-WM-020-001-N.jpg,Mark,0,"""","""","""",1,5/3/2021 16:04,96.91.90.145,Mozilla/5.0 (Windows NT 10.0; Win64; x64; rv:86.0) Gecko/20100101 Firefox/86.0,,Firefox,86,Windows,10
238,1,null,"""",html-keyboard-response,97,318620,0.0-97.0,"""","<div style=""font-size:60px;"">+</div>","""",256,fixation,Memorization,null,500,"""","""","""","""","""","""","""","""",1,5/3/2021 16:04,96.91.90.145,Mozilla/5.0 (Windows NT 10.0; Win64; x64; rv:86.0) Gecko/20100101 Firefox/86.0,,Firefox,86,Windows,10
238,1,1715,"""",html-keyboard-response,98,323622,0.0-98.0,"""","<img src='jspsych/CFDfaces/CFD-BF-222-240-N.jpg' height=""250px""></br><b>Julie</b>","""",256,IntactFace,Memorization,78,5000,n,"""",CFD-BF-008-001-N.jpg,Jasmine,0,"""","""","""",1,5/3/2021 16:04,96.91.90.145,Mozilla/5.0 (Windows NT 10.0; Win64; x64; rv:86.0) Gecko/20100101 Firefox/86.0,,Firefox,86,Windows,10
238,1,null,"""",html-keyboard-response,99,324126,0.0-99.0,"""","<div style=""font-size:60px;"">+</div>","""",256,fixation,Memorization,null,500,"""","""","""","""","""","""","""","""",1,5/3/2021 16:04,96.91.90.145,Mozilla/5.0 (Windows NT 10.0; Win64; x64; rv:86.0) Gecko/20100101 Firefox/86.0,,Firefox,86,Windows,10
238,1,1802,"""",html-keyboard-response,100,329127,0.0-100.0,"""","<img src='jspsych/CFDfaces/CFD-WF-200-099-N.jpg' height=""250px""></br><b>Ashley</b>","""",256,IntactFace,Memorization,70,5000,f,"""",CFD-LM-252-076-N.jpg,Vincent,0,"""","""","""",1,5/3/2021 16:04,96.91.90.145,Mozilla/5.0 (Windows NT 10.0; Win64; x64; rv:86.0) Gecko/20100101 Firefox/86.0,,Firefox,86,Windows,10
238,1,null,"""",html-keyboard-response,101,329629,0.0-101.0,"""","<div style=""font-size:60px;"">+</div>","""",256,fixation,Memorization,null,500,"""","""","""","""","""","""","""","""",1,5/3/2021 16:04,96.91.90.145,Mozilla/5.0 (Windows NT 10.0; Win64; x64; rv:86.0) Gecko/20100101 Firefox/86.0,,Firefox,86,Windows,10
238,1,2440,"""",html-keyboard-response,102,334634,0.0-102.0,"""","<img src='jspsych/CFDfaces/CFD-AM-228-214-N.jpg' height=""250px""></br><b>Joshua</b>","""",256,IntactFace,Memorization,78,5000,n,"""",CFD-WF-223-133-N.jpg,Angela,0,"""","""","""",1,5/3/2021 16:04,96.91.90.145,Mozilla/5.0 (Windows NT 10.0; Win64; x64; rv:86.0) Gecko/20100101 Firefox/86.0,,Firefox,86,Windows,10
238,1,null,"""",html-keyboard-response,103,335136,0.0-103.0,"""","<div style=""font-size:60px;"">+</div>","""",256,fixation,Memorization,null,500,"""","""","""","""","""","""","""","""",1,5/3/2021 16:04,96.91.90.145,Mozilla/5.0 (Windows NT 10.0; Win64; x64; rv:86.0) Gecko/20100101 Firefox/86.0,,Firefox,86,Windows,10
238,1,1202,"""",html-keyboard-response,104,340144,0.0-104.0,"""","<img src='jspsych/CFDfaces/CFD-WM-215-041-N.jpg' height=""250px""></br><b>Juan</b>","""",256,IntactFace,Memorization,70,5000,f,"""",CFD-AF-215-70-N.jpg,Tiffany,0,"""","""","""",1,5/3/2021 16:04,96.91.90.145,Mozilla/5.0 (Windows NT 10.0; Win64; x64; rv:86.0) Gecko/20100101 Firefox/86.0,,Firefox,86,Windows,10
238,1,null,"""",html-keyboard-response,105,340645,0.0-105.0,"""","<div style=""font-size:60px;"">+</div>","""",256,fixation,Memorization,null,500,"""","""","""","""","""","""","""","""",1,5/3/2021 16:04,96.91.90.145,Mozilla/5.0 (Windows NT 10.0; Win64; x64; rv:86.0) Gecko/20100101 Firefox/86.0,,Firefox,86,Windows,10
238,1,1422,"""",html-keyboard-response,106,345651,0.0-106.0,"""","<img src='jspsych/CFDfaces/CFD-AF-214-139-N.jpg' height=""250px""></br><b>Amanda</b>","""",256,IntactFace,Memorization,70,5000,f,"""",CFD-LF-205-100-N.jpg,Whitney,0,"""","""","""",1,5/3/2021 16:04,96.91.90.145,Mozilla/5.0 (Windows NT 10.0; Win64; x64; rv:86.0) Gecko/20100101 Firefox/86.0,,Firefox,86,Windows,10
238,1,null,"""",html-keyboard-response,107,346151,0.0-107.0,"""","<div style=""font-size:60px;"">+</div>","""",256,fixation,Memorization,null,500,"""","""","""","""","""","""","""","""",1,5/3/2021 16:04,96.91.90.145,Mozilla/5.0 (Windows NT 10.0; Win64; x64; rv:86.0) Gecko/20100101 Firefox/86.0,,Firefox,86,Windows,10
238,1,1556,"""",html-keyboard-response,108,351156,0.0-108.0,"""","<img src='jspsych/CFDfaces/CFD-BM-041-035-N.jpg' height=""250px""></br><b>Peter</b>","""",256,IntactFace,Memorization,78,5000,n,"""",CFD-BM-039-029-N.jpg,Steven,0,"""","""","""",1,5/3/2021 16:04,96.91.90.145,Mozilla/5.0 (Windows NT 10.0; Win64; x64; rv:86.0) Gecko/20100101 Firefox/86.0,,Firefox,86,Windows,10
238,1,null,"""",html-keyboard-response,109,351656,0.0-109.0,"""","<div style=""font-size:60px;"">+</div>","""",256,fixation,Memorization,null,500,"""","""","""","""","""","""","""","""",1,5/3/2021 16:04,96.91.90.145,Mozilla/5.0 (Windows NT 10.0; Win64; x64; rv:86.0) Gecko/20100101 Firefox/86.0,,Firefox,86,Windows,10
238,1,1285,"""",html-keyboard-response,110,356661,0.0-110.0,"""","<img src='jspsych/CFDfaces/CFD-AF-230-193-N.jpg' height=""250px""></br><b>Christina</b>","""",256,IntactFace,Memorization,70,5000,f,"""",CFD-AF-237-223-N.jpg,Laura,0,"""","""","""",1,5/3/2021 16:04,96.91.90.145,Mozilla/5.0 (Windows NT 10.0; Win64; x64; rv:86.0) Gecko/20100101 Firefox/86.0,,Firefox,86,Windows,10
238,1,null,"""",html-keyboard-response,111,357161,0.0-111.0,"""","<div style=""font-size:60px;"">+</div>","""",256,fixation,Memorization,null,500,"""","""","""","""","""","""","""","""",1,5/3/2021 16:04,96.91.90.145,Mozilla/5.0 (Windows NT 10.0; Win64; x64; rv:86.0) Gecko/20100101 Firefox/86.0,,Firefox,86,Windows,10
238,1,973,"""",html-keyboard-response,112,362164,0.0-112.0,"""","<img src='jspsych/CFDfaces/CFD-BM-043-071-N.jpg' height=""250px""></br><b>Eric</b>","""",256,IntactFace,Memorization,70,5000,f,"""",CFD-LM-224-162-N.jpg,Kenneth,0,"""","""","""",1,5/3/2021 16:04,96.91.90.145,Mozilla/5.0 (Windows NT 10.0; Win64; x64; rv:86.0) Gecko/20100101 Firefox/86.0,,Firefox,86,Windows,10
238,1,null,"""",html-keyboard-response,113,362666,0.0-113.0,"""","<div style=""font-size:60px;"">+</div>","""",256,fixation,Memorization,null,500,"""","""","""","""","""","""","""","""",1,5/3/2021 16:04,96.91.90.145,Mozilla/5.0 (Windows NT 10.0; Win64; x64; rv:86.0) Gecko/20100101 Firefox/86.0,,Firefox,86,Windows,10
238,1,865,"""",html-keyboard-response,114,367672,0.0-114.0,"""","<img src='jspsych/CFDfaces/CFD-BF-212-315-N.jpg' height=""250px""></br><b>Vanessa</b>","""",256,IntactFace,Memorization,70,5000,f,"""",CFD-AM-246-184-N.jpg,Sean,0,"""","""","""",1,5/3/2021 16:04,96.91.90.145,Mozilla/5.0 (Windows NT 10.0; Win64; x64; rv:86.0) Gecko/20100101 Firefox/86.0,,Firefox,86,Windows,10
238,1,null,"""",html-keyboard-response,115,368174,0.0-115.0,"""","<div style=""font-size:60px;"">+</div>","""",256,fixation,Memorization,null,500,"""","""","""","""","""","""","""","""",1,5/3/2021 16:04,96.91.90.145,Mozilla/5.0 (Windows NT 10.0; Win64; x64; rv:86.0) Gecko/20100101 Firefox/86.0,,Firefox,86,Windows,10
238,1,849,"""",html-keyboard-response,116,373177,0.0-116.0,"""","<img src='jspsych/CFDfaces/CFD-BM-018-001-N.jpg' height=""250px""></br><b>Richard</b>","""",256,IntactFace,Memorization,70,5000,f,"""",CFD-LF-213-079-N.jpg,Heather,0,"""","""","""",1,5/3/2021 16:04,96.91.90.145,Mozilla/5.0 (Windows NT 10.0; Win64; x64; rv:86.0) Gecko/20100101 Firefox/86.0,,Firefox,86,Windows,10
238,1,null,"""",html-keyboard-response,117,373682,0.0-117.0,"""","<div style=""font-size:60px;"">+</div>","""",256,fixation,Memorization,null,500,"""","""","""","""","""","""","""","""",1,5/3/2021 16:04,96.91.90.145,Mozilla/5.0 (Windows NT 10.0; Win64; x64; rv:86.0) Gecko/20100101 Firefox/86.0,,Firefox,86,Windows,10
238,1,1372,"""",html-keyboard-response,118,378683,0.0-118.0,"""","<img src='jspsych/CFDfaces/CFD-LF-204-133-N.jpg' height=""250px""></br><b>Kayla</b>","""",256,IntactFace,Memorization,70,5000,f,"""",CFD-AM-207-108-N.jpg,Travis,0,"""","""","""",1,5/3/2021 16:04,96.91.90.145,Mozilla/5.0 (Windows NT 10.0; Win64; x64; rv:86.0) Gecko/20100101 Firefox/86.0,,Firefox,86,Windows,10
238,1,null,"""",html-keyboard-response,119,379188,0.0-119.0,"""","<div style=""font-size:60px;"">+</div>","""",256,fixation,Memorization,null,500,"""","""","""","""","""","""","""","""",1,5/3/2021 16:04,96.91.90.145,Mozilla/5.0 (Windows NT 10.0; Win64; x64; rv:86.0) Gecko/20100101 Firefox/86.0,,Firefox,86,Windows,10
238,1,1691,"""",html-keyboard-response,120,384188,0.0-120.0,"""","<img src='jspsych/CFDfaces/CFD-WF-003-003-N.jpg' height=""250px""></br><b>Victoria</b>","""",256,IntactFace,Memorization,70,5000,f,"""",CFD-WM-022-001-N.jpg,Jeremy,0,"""","""","""",1,5/3/2021 16:04,96.91.90.145,Mozilla/5.0 (Windows NT 10.0; Win64; x64; rv:86.0) Gecko/20100101 Firefox/86.0,,Firefox,86,Windows,10
238,1,null,"""",html-keyboard-response,121,384693,0.0-121.0,"""","<div style=""font-size:60px;"">+</div>","""",256,fixation,Memorization,null,500,"""","""","""","""","""","""","""","""",1,5/3/2021 16:04,96.91.90.145,Mozilla/5.0 (Windows NT 10.0; Win64; x64; rv:86.0) Gecko/20100101 Firefox/86.0,,Firefox,86,Windows,10
238,1,1905,"""",html-keyboard-response,122,389695,0.0-122.0,"""","<img src='jspsych/CFDfaces/CFD-BM-203-001-N.jpg' height=""250px""></br><b>Brandon</b>","""",256,IntactFace,Memorization,70,5000,f,"""",CFD-LF-232-199-N.jpg,Rebecca,0,"""","""","""",1,5/3/2021 16:04,96.91.90.145,Mozilla/5.0 (Windows NT 10.0; Win64; x64; rv:86.0) Gecko/20100101 Firefox/86.0,,Firefox,86,Windows,10
238,1,null,"""",html-keyboard-response,123,390202,0.0-123.0,"""","<div style=""font-size:60px;"">+</div>","""",256,fixation,Memorization,null,500,"""","""","""","""","""","""","""","""",1,5/3/2021 16:04,96.91.90.145,Mozilla/5.0 (Windows NT 10.0; Win64; x64; rv:86.0) Gecko/20100101 Firefox/86.0,,Firefox,86,Windows,10
238,1,1965,"""",html-keyboard-response,124,395204,0.0-124.0,"""","<img src='jspsych/CFDfaces/CFD-LM-225-130-N.jpg' height=""250px""></br><b>Christian</b>","""",256,IntactFace,Memorization,70,5000,f,"""",CFD-AM-243-212-N.jpg,Jacob,0,"""","""","""",1,5/3/2021 16:04,96.91.90.145,Mozilla/5.0 (Windows NT 10.0; Win64; x64; rv:86.0) Gecko/20100101 Firefox/86.0,,Firefox,86,Windows,10
238,1,null,"""",html-keyboard-response,125,395705,0.0-125.0,"""","<div style=""font-size:60px;"">+</div>","""",256,fixation,Memorization,null,500,"""","""","""","""","""","""","""","""",1,5/3/2021 16:04,96.91.90.145,Mozilla/5.0 (Windows NT 10.0; Win64; x64; rv:86.0) Gecko/20100101 Firefox/86.0,,Firefox,86,Windows,10
238,1,1679,"""",html-keyboard-response,126,400716,0.0-126.0,"""","<img src='jspsych/CFDfaces/CFD-BM-032-024-N.jpg' height=""250px""></br><b>Nicholas</b>","""",256,IntactFace,Memorization,78,5000,n,"""",CFD-WF-205-006-N.jpg,Melissa,0,"""","""","""",1,5/3/2021 16:04,96.91.90.145,Mozilla/5.0 (Windows NT 10.0; Win64; x64; rv:86.0) Gecko/20100101 Firefox/86.0,,Firefox,86,Windows,10
238,1,null,"""",html-keyboard-response,127,401218,0.0-127.0,"""","<div style=""font-size:60px;"">+</div>","""",256,fixation,Memorization,null,500,"""","""","""","""","""","""","""","""",1,5/3/2021 16:04,96.91.90.145,Mozilla/5.0 (Windows NT 10.0; Win64; x64; rv:86.0) Gecko/20100101 Firefox/86.0,,Firefox,86,Windows,10
238,1,1381,"""",html-keyboard-response,128,406220,0.0-128.0,"""","<img src='jspsych/CFDfaces/CFD-AF-239-171-N.jpg' height=""250px""></br><b>Samantha</b>","""",256,IntactFace,Memorization,70,5000,f,"""",CFD-LM-239-075-N.jpg,Luis,0,"""","""","""",1,5/3/2021 16:04,96.91.90.145,Mozilla/5.0 (Windows NT 10.0; Win64; x64; rv:86.0) Gecko/20100101 Firefox/86.0,,Firefox,86,Windows,10
238,1,null,"""",html-keyboard-response,129,406723,0.0-129.0,"""","<div style=""font-size:60px;"">+</div>","""",256,fixation,Memorization,null,500,"""","""","""","""","""","""","""","""",1,5/3/2021 16:04,96.91.90.145,Mozilla/5.0 (Windows NT 10.0; Win64; x64; rv:86.0) Gecko/20100101 Firefox/86.0,,Firefox,86,Windows,10
238,1,1459,"""",html-keyboard-response,130,411725,0.0-130.0,"""","<img src='jspsych/CFDfaces/CFD-BF-005-001-N.jpg' height=""250px""></br><b>Michelle</b>","""",256,IntactFace,Memorization,70,5000,f,"""",CFD-BM-208-065-N.jpg,Ryan,0,"""","""","""",1,5/3/2021 16:04,96.91.90.145,Mozilla/5.0 (Windows NT 10.0; Win64; x64; rv:86.0) Gecko/20100101 Firefox/86.0,,Firefox,86,Windows,10
238,1,null,"""",html-keyboard-response,131,412235,0.0-131.0,"""","<div style=""font-size:60px;"">+</div>","""",256,fixation,Memorization,null,500,"""","""","""","""","""","""","""","""",1,5/3/2021 16:04,96.91.90.145,Mozilla/5.0 (Windows NT 10.0; Win64; x64; rv:86.0) Gecko/20100101 Firefox/86.0,,Firefox,86,Windows,10
238,1,1670,"""",html-keyboard-response,132,417237,0.0-132.0,"""","<img src='jspsych/CFDfaces/CFD-LF-206-078-N.jpg' height=""250px""></br><b>Brittany</b>","""",256,IntactFace,Memorization,78,5000,n,"""",CFD-LM-223-175-N.jpg,Dustin,0,"""","""","""",1,5/3/2021 16:04,96.91.90.145,Mozilla/5.0 (Windows NT 10.0; Win64; x64; rv:86.0) Gecko/20100101 Firefox/86.0,,Firefox,86,Windows,10
238,1,null,"""",html-keyboard-response,133,417739,0.0-133.0,"""","<div style=""font-size:60px;"">+</div>","""",256,fixation,Memorization,null,500,"""","""","""","""","""","""","""","""",1,5/3/2021 16:04,96.91.90.145,Mozilla/5.0 (Windows NT 10.0; Win64; x64; rv:86.0) Gecko/20100101 Firefox/86.0,,Firefox,86,Windows,10
238,1,2428,"""",html-keyboard-response,134,422741,0.0-134.0,"""","<img src='jspsych/CFDfaces/CFD-WM-237-052-N.jpg' height=""250px""></br><b>Ian</b>","""",256,IntactFace,Memorization,70,5000,f,"""",CFD-AF-233-190-N.jpg,Erin,0,"""","""","""",1,5/3/2021 16:04,96.91.90.145,Mozilla/5.0 (Windows NT 10.0; Win64; x64; rv:86.0) Gecko/20100101 Firefox/86.0,,Firefox,86,Windows,10
238,1,null,"""",html-keyboard-response,135,423249,0.0-135.0,"""","<div style=""font-size:60px;"">+</div>","""",256,fixation,Memorization,null,500,"""","""","""","""","""","""","""","""",1,5/3/2021 16:04,96.91.90.145,Mozilla/5.0 (Windows NT 10.0; Win64; x64; rv:86.0) Gecko/20100101 Firefox/86.0,,Firefox,86,Windows,10
238,1,2069,"""",html-keyboard-response,136,428251,0.0-136.0,"""","<img src='jspsych/CFDfaces/CFD-BM-210-148-N.jpg' height=""250px""></br><b>Brian</b>","""",256,IntactFace,Memorization,70,5000,f,"""",CFD-WM-216-061-N.jpg,Justin,0,"""","""","""",1,5/3/2021 16:04,96.91.90.145,Mozilla/5.0 (Windows NT 10.0; Win64; x64; rv:86.0) Gecko/20100101 Firefox/86.0,,Firefox,86,Windows,10
238,1,null,"""",html-keyboard-response,137,428752,0.0-137.0,"""","<div style=""font-size:60px;"">+</div>","""",256,fixation,Memorization,null,500,"""","""","""","""","""","""","""","""",1,5/3/2021 16:04,96.91.90.145,Mozilla/5.0 (Windows NT 10.0; Win64; x64; rv:86.0) Gecko/20100101 Firefox/86.0,,Firefox,86,Windows,10
238,1,2853,"""",html-keyboard-response,138,433755,0.0-138.0,"""","<img src='jspsych/CFDfaces/CFD-BF-221-223-N.jpg' height=""250px""></br><b>Andrea</b>","""",256,IntactFace,Memorization,78,5000,n,"""",CFD-WM-213-076-N.jpg,Austin,0,"""","""","""",1,5/3/2021 16:04,96.91.90.145,Mozilla/5.0 (Windows NT 10.0; Win64; x64; rv:86.0) Gecko/20100101 Firefox/86.0,,Firefox,86,Windows,10
238,1,null,"""",html-keyboard-response,139,434257,0.0-139.0,"""","<div style=""font-size:60px;"">+</div>","""",256,fixation,Memorization,null,500,"""","""","""","""","""","""","""","""",1,5/3/2021 16:04,96.91.90.145,Mozilla/5.0 (Windows NT 10.0; Win64; x64; rv:86.0) Gecko/20100101 Firefox/86.0,,Firefox,86,Windows,10
238,1,1573,"""",html-keyboard-response,140,439260,0.0-140.0,"""","<img src='jspsych/CFDfaces/CFD-WM-212-097-N.jpg' height=""250px""></br><b>Jeffrey</b>","""",256,IntactFace,Memorization,70,5000,f,"""",CFD-BF-016-017-N.jpg,Lindsey,0,"""","""","""",1,5/3/2021 16:04,96.91.90.145,Mozilla/5.0 (Windows NT 10.0; Win64; x64; rv:86.0) Gecko/20100101 Firefox/86.0,,Firefox,86,Windows,10
238,1,null,"""",html-keyboard-response,141,439765,0.0-141.0,"""","<div style=""font-size:60px;"">+</div>","""",256,fixation,Memorization,null,500,"""","""","""","""","""","""","""","""",1,5/3/2021 16:04,96.91.90.145,Mozilla/5.0 (Windows NT 10.0; Win64; x64; rv:86.0) Gecko/20100101 Firefox/86.0,,Firefox,86,Windows,10
238,1,1764,"""",html-keyboard-response,142,444766,0.0-142.0,"""","<img src='jspsych/CFDfaces/CFD-WM-222-057-N.jpg' height=""250px""></br><b>Jason</b>","""",256,IntactFace,Memorization,70,5000,f,"""",CFD-WF-215-145-N.jpg,Jenna,0,"""","""","""",1,5/3/2021 16:04,96.91.90.145,Mozilla/5.0 (Windows NT 10.0; Win64; x64; rv:86.0) Gecko/20100101 Firefox/86.0,,Firefox,86,Windows,10
238,1,null,"""",html-keyboard-response,143,445275,0.0-143.0,"""","<div style=""font-size:60px;"">+</div>","""",256,fixation,Memorization,null,500,"""","""","""","""","""","""","""","""",1,5/3/2021 16:04,96.91.90.145,Mozilla/5.0 (Windows NT 10.0; Win64; x64; rv:86.0) Gecko/20100101 Firefox/86.0,,Firefox,86,Windows,10
238,1,1627,"""",html-keyboard-response,144,450277,0.0-144.0,"""","<img src='jspsych/CFDfaces/CFD-LM-221-216-N.jpg' height=""250px""></br><b>Robert</b>","""",256,IntactFace,Memorization,70,5000,f,"""",CFD-AF-228-173-N.jpg,Amy,0,"""","""","""",1,5/3/2021 16:04,96.91.90.145,Mozilla/5.0 (Windows NT 10.0; Win64; x64; rv:86.0) Gecko/20100101 Firefox/86.0,,Firefox,86,Windows,10
238,1,null,"""",html-keyboard-response,145,450778,0.0-145.0,"""","<div style=""font-size:60px;"">+</div>","""",256,fixation,Memorization,null,500,"""","""","""","""","""","""","""","""",1,5/3/2021 16:04,96.91.90.145,Mozilla/5.0 (Windows NT 10.0; Win64; x64; rv:86.0) Gecko/20100101 Firefox/86.0,,Firefox,86,Windows,10
238,1,2971,"""",html-keyboard-response,146,455782,0.0-146.0,"""","<img src='jspsych/CFDfaces/CFD-BF-001-025-N.jpg' height=""250px""></br><b>Emily</b>","""",256,IntactFace,Memorization,78,5000,n,"""",CFD-LM-220-329-N.jpg,Cameron,0,"""","""","""",1,5/3/2021 16:04,96.91.90.145,Mozilla/5.0 (Windows NT 10.0; Win64; x64; rv:86.0) Gecko/20100101 Firefox/86.0,,Firefox,86,Windows,10
238,1,null,"""",html-keyboard-response,147,456284,0.0-147.0,"""","<div style=""font-size:60px;"">+</div>","""",256,fixation,Memorization,null,500,"""","""","""","""","""","""","""","""",1,5/3/2021 16:04,96.91.90.145,Mozilla/5.0 (Windows NT 10.0; Win64; x64; rv:86.0) Gecko/20100101 Firefox/86.0,,Firefox,86,Windows,10
238,1,3132,"""",html-keyboard-response,148,461286,0.0-148.0,"""","<img src='jspsych/CFDfaces/CFD-WF-204-038-N.jpg' height=""250px""></br><b>Stephanie</b>","""",256,IntactFace,Memorization,78,5000,n,"""",CFD-WM-003-002-N.jpg,Timothy,0,"""","""","""",1,5/3/2021 16:04,96.91.90.145,Mozilla/5.0 (Windows NT 10.0; Win64; x64; rv:86.0) Gecko/20100101 Firefox/86.0,,Firefox,86,Windows,10
238,1,null,"""",html-keyboard-response,149,461791,0.0-149.0,"""","<div style=""font-size:60px;"">+</div>","""",256,fixation,Memorization,null,500,"""","""","""","""","""","""","""","""",1,5/3/2021 16:04,96.91.90.145,Mozilla/5.0 (Windows NT 10.0; Win64; x64; rv:86.0) Gecko/20100101 Firefox/86.0,,Firefox,86,Windows,10
238,1,1321,"""",html-keyboard-response,150,466792,0.0-150.0,"""","<img src='jspsych/CFDfaces/CFD-WF-017-003-N.jpg' height=""250px""></br><b>Elizabeth</b>","""",256,IntactFace,Memorization,70,5000,f,"""",CFD-AF-235-170-N.jpg,Sara,0,"""","""","""",1,5/3/2021 16:04,96.91.90.145,Mozilla/5.0 (Windows NT 10.0; Win64; x64; rv:86.0) Gecko/20100101 Firefox/86.0,,Firefox,86,Windows,10
238,1,null,"""",html-keyboard-response,151,467295,0.0-151.0,"""","<div style=""font-size:60px;"">+</div>","""",256,fixation,Memorization,null,500,"""","""","""","""","""","""","""","""",1,5/3/2021 16:04,96.91.90.145,Mozilla/5.0 (Windows NT 10.0; Win64; x64; rv:86.0) Gecko/20100101 Firefox/86.0,,Firefox,86,Windows,10
238,1,1415,"""",html-keyboard-response,152,472299,0.0-152.0,"""","<img src='jspsych/CFDfaces/CFD-LF-210-220-N.jpg' height=""250px""></br><b>Meghan</b>","""",256,IntactFace,Memorization,70,5000,f,"""",CFD-BF-047-003-N.jpg,Taylor,0,"""","""","""",1,5/3/2021 16:04,96.91.90.145,Mozilla/5.0 (Windows NT 10.0; Win64; x64; rv:86.0) Gecko/20100101 Firefox/86.0,,Firefox,86,Windows,10
238,1,null,"""",html-keyboard-response,153,472801,0.0-153.0,"""","<div style=""font-size:60px;"">+</div>","""",256,fixation,Memorization,null,500,"""","""","""","""","""","""","""","""",1,5/3/2021 16:04,96.91.90.145,Mozilla/5.0 (Windows NT 10.0; Win64; x64; rv:86.0) Gecko/20100101 Firefox/86.0,,Firefox,86,Windows,10
238,1,2334,"""",html-keyboard-response,154,475136,0.0-154.0,"""",Press Any Key to Begin Memory Test,"""",1,welcomeScreen,Break,32,"""","""","""","""","""","""","""","""","""",1,5/3/2021 16:04,96.91.90.145,Mozilla/5.0 (Windows NT 10.0; Win64; x64; rv:86.0) Gecko/20100101 Firefox/86.0,,Firefox,86,Windows,10
238,1,null,"""",html-keyboard-response,155,476140,0.0-155.0,"""","<div style=""font-size:60px;"">+</div>","""",256,ITI,Test,null,1000,"""","""","""","""","""","""","""","""",1,5/3/2021 16:04,96.91.90.145,Mozilla/5.0 (Windows NT 10.0; Win64; x64; rv:86.0) Gecko/20100101 Firefox/86.0,,Firefox,86,Windows,10
238,1,null,"""",image-keyboard-response,156,476392,0.0-156.0,"""",jspsych/scrambledDisgustFaces/scrambledBM14DIS.JPG,"""",256,forwardMask,Test,null,250,"""",d,"""","""","""","""","""","""",1,5/3/2021 16:04,96.91.90.145,Mozilla/5.0 (Windows NT 10.0; Win64; x64; rv:86.0) Gecko/20100101 Firefox/86.0,,Firefox,86,Windows,10
238,1,null,"""",image-keyboard-response,157,476411,0.0-157.0,"""",jspsych/disgustFaces/BM15DIS.JPG,"""",256,Cue,Test,null,16,"""","""","""","""","""","""","""","""",1,5/3/2021 16:04,96.91.90.145,Mozilla/5.0 (Windows NT 10.0; Win64; x64; rv:86.0) Gecko/20100101 Firefox/86.0,,Firefox,86,Windows,10
238,1,null,"""",image-keyboard-response,158,476515,0.0-158.0,"""",jspsych/neutralFaces/BM13NES.JPG,"""",256,backwardMask,Test,null,100,"""","""","""","""","""","""","""","""",1,5/3/2021 16:04,96.91.90.145,Mozilla/5.0 (Windows NT 10.0; Win64; x64; rv:86.0) Gecko/20100101 Firefox/86.0,,Firefox,86,Windows,10
238,1,null,"""",html-keyboard-response,159,477515,0.0-159.0,"""","<div style=""font-size:60px;"">+</div>","""",256,fixationBtwnNeutralMaskAndPrompt,Test,null,1000,"""","""","""","""","""","""","""","""",1,5/3/2021 16:04,96.91.90.145,Mozilla/5.0 (Windows NT 10.0; Win64; x64; rv:86.0) Gecko/20100101 Firefox/86.0,,Firefox,86,Windows,10
238,1,2595,"""",html-button-response,160,480112,0.0-160.0,"""","<img src='jspsych/CFDfaces/CFD-LM-217-162-N.jpg' height=""250px"">,</br><b>James</b>",1,256,IntactOrRearranged,Test,"""","""","""","""",CFD-LM-252-076-N.jpg,Vincent,1,"""","""",1,1,5/3/2021 16:04,96.91.90.145,Mozilla/5.0 (Windows NT 10.0; Win64; x64; rv:86.0) Gecko/20100101 Firefox/86.0,,Firefox,86,Windows,10
238,1,1829,"""",html-slider-response,161,481944,0.0-161.0,"""","<img src='jspsych/CFDfaces/CFD-LM-217-162-N.jpg' height=""250px"">,</br><b>James</b>","""",256,ConfidenceQuery,Test,"""","""","""","""",CFD-LM-252-076-N.jpg,Vincent,1,0,42,"""",1,5/3/2021 16:04,96.91.90.145,Mozilla/5.0 (Windows NT 10.0; Win64; x64; rv:86.0) Gecko/20100101 Firefox/86.0,,Firefox,86,Windows,10
238,1,null,"""",html-keyboard-response,162,482950,0.0-162.0,"""","<div style=""font-size:60px;"">+</div>","""",256,ITI,Test,null,1000,"""","""","""","""","""","""","""","""",1,5/3/2021 16:04,96.91.90.145,Mozilla/5.0 (Windows NT 10.0; Win64; x64; rv:86.0) Gecko/20100101 Firefox/86.0,,Firefox,86,Windows,10
238,1,null,"""",image-keyboard-response,163,483203,0.0-163.0,"""",jspsych/scrambledNeutralFaces/scrambledAF19NES.JPG,"""",256,forwardMask,Test,null,250,"""",n,"""","""","""","""","""","""",1,5/3/2021 16:04,96.91.90.145,Mozilla/5.0 (Windows NT 10.0; Win64; x64; rv:86.0) Gecko/20100101 Firefox/86.0,,Firefox,86,Windows,10
238,1,null,"""",image-keyboard-response,164,483228,0.0-164.0,"""",jspsych/neutralFaces/AF19NES.JPG,"""",256,Cue,Test,null,16,"""","""","""","""","""","""","""","""",1,5/3/2021 16:04,96.91.90.145,Mozilla/5.0 (Windows NT 10.0; Win64; x64; rv:86.0) Gecko/20100101 Firefox/86.0,,Firefox,86,Windows,10
238,1,null,"""",image-keyboard-response,165,483332,0.0-165.0,"""",jspsych/neutralFaces/AF20NES.JPG,"""",256,backwardMask,Test,null,100,"""","""","""","""","""","""","""","""",1,5/3/2021 16:04,96.91.90.145,Mozilla/5.0 (Windows NT 10.0; Win64; x64; rv:86.0) Gecko/20100101 Firefox/86.0,,Firefox,86,Windows,10
238,1,null,"""",html-keyboard-response,166,484335,0.0-166.0,"""","<div style=""font-size:60px;"">+</div>","""",256,fixationBtwnNeutralMaskAndPrompt,Test,null,1000,"""","""","""","""","""","""","""","""",1,5/3/2021 16:04,96.91.90.145,Mozilla/5.0 (Windows NT 10.0; Win64; x64; rv:86.0) Gecko/20100101 Firefox/86.0,,Firefox,86,Windows,10
238,1,1513,"""",html-button-response,167,485848,0.0-167.0,"""","<img src='jspsych/CFDfaces/CFD-LF-204-133-N.jpg' height=""250px"">,</br><b>Kayla</b>",0,256,IntactOrRearranged,Test,"""","""","""","""",CFD-WM-213-076-N.jpg,Mark,0,"""","""",0,1,5/3/2021 16:04,96.91.90.145,Mozilla/5.0 (Windows NT 10.0; Win64; x64; rv:86.0) Gecko/20100101 Firefox/86.0,,Firefox,86,Windows,10
238,1,2143,"""",html-slider-response,168,487992,0.0-168.0,"""","<img src='jspsych/CFDfaces/CFD-LF-204-133-N.jpg' height=""250px"">,</br><b>Kayla</b>","""",256,ConfidenceQuery,Test,"""","""","""","""",CFD-WM-213-076-N.jpg,Mark,0,0,70,"""",1,5/3/2021 16:04,96.91.90.145,Mozilla/5.0 (Windows NT 10.0; Win64; x64; rv:86.0) Gecko/20100101 Firefox/86.0,,Firefox,86,Windows,10
238,1,null,"""",html-keyboard-response,169,488999,0.0-169.0,"""","<div style=""font-size:60px;"">+</div>","""",256,ITI,Test,null,1000,"""","""","""","""","""","""","""","""",1,5/3/2021 16:04,96.91.90.145,Mozilla/5.0 (Windows NT 10.0; Win64; x64; rv:86.0) Gecko/20100101 Firefox/86.0,,Firefox,86,Windows,10
238,1,null,"""",image-keyboard-response,170,489251,0.0-170.0,"""",jspsych/scrambledNeutralFaces/scrambledAM03NES.JPG,"""",256,forwardMask,Test,null,250,"""",n,"""","""","""","""","""","""",1,5/3/2021 16:04,96.91.90.145,Mozilla/5.0 (Windows NT 10.0; Win64; x64; rv:86.0) Gecko/20100101 Firefox/86.0,,Firefox,86,Windows,10
238,1,null,"""",image-keyboard-response,171,489270,0.0-171.0,"""",jspsych/neutralFaces/AM03NES.JPG,"""",256,Cue,Test,null,16,"""","""","""","""","""","""","""","""",1,5/3/2021 16:04,96.91.90.145,Mozilla/5.0 (Windows NT 10.0; Win64; x64; rv:86.0) Gecko/20100101 Firefox/86.0,,Firefox,86,Windows,10
238,1,null,"""",image-keyboard-response,172,489371,0.0-172.0,"""",jspsych/neutralFaces/AM11NES.JPG,"""",256,backwardMask,Test,null,100,"""","""","""","""","""","""","""","""",1,5/3/2021 16:04,96.91.90.145,Mozilla/5.0 (Windows NT 10.0; Win64; x64; rv:86.0) Gecko/20100101 Firefox/86.0,,Firefox,86,Windows,10
238,1,null,"""",html-keyboard-response,173,490373,0.0-173.0,"""","<div style=""font-size:60px;"">+</div>","""",256,fixationBtwnNeutralMaskAndPrompt,Test,null,1000,"""","""","""","""","""","""","""","""",1,5/3/2021 16:04,96.91.90.145,Mozilla/5.0 (Windows NT 10.0; Win64; x64; rv:86.0) Gecko/20100101 Firefox/86.0,,Firefox,86,Windows,10
238,1,1235,"""",html-button-response,174,491608,0.0-174.0,"""","<img src='jspsych/CFDfaces/CFD-BF-222-240-N.jpg' height=""250px"">,</br><b>Julie</b>",0,256,IntactOrRearranged,Test,"""","""","""","""",CFD-WM-022-001-N.jpg,Ryan,0,"""","""",0,1,5/3/2021 16:04,96.91.90.145,Mozilla/5.0 (Windows NT 10.0; Win64; x64; rv:86.0) Gecko/20100101 Firefox/86.0,,Firefox,86,Windows,10
238,1,1743,"""",html-slider-response,175,493353,0.0-175.0,"""","<img src='jspsych/CFDfaces/CFD-BF-222-240-N.jpg' height=""250px"">,</br><b>Julie</b>","""",256,ConfidenceQuery,Test,"""","""","""","""",CFD-WM-022-001-N.jpg,Ryan,0,0,78,"""",1,5/3/2021 16:04,96.91.90.145,Mozilla/5.0 (Windows NT 10.0; Win64; x64; rv:86.0) Gecko/20100101 Firefox/86.0,,Firefox,86,Windows,10
238,1,null,"""",html-keyboard-response,176,494356,0.0-176.0,"""","<div style=""font-size:60px;"">+</div>","""",256,ITI,Test,null,1000,"""","""","""","""","""","""","""","""",1,5/3/2021 16:04,96.91.90.145,Mozilla/5.0 (Windows NT 10.0; Win64; x64; rv:86.0) Gecko/20100101 Firefox/86.0,,Firefox,86,Windows,10
238,1,null,"""",image-keyboard-response,177,494614,0.0-177.0,"""",jspsych/scrambledNeutralFaces/scrambledAM13NES.JPG,"""",256,forwardMask,Test,null,250,"""",n,"""","""","""","""","""","""",1,5/3/2021 16:04,96.91.90.145,Mozilla/5.0 (Windows NT 10.0; Win64; x64; rv:86.0) Gecko/20100101 Firefox/86.0,,Firefox,86,Windows,10
238,1,null,"""",image-keyboard-response,178,494639,0.0-178.0,"""",jspsych/neutralFaces/AM13NES.JPG,"""",256,Cue,Test,null,16,"""","""","""","""","""","""","""","""",1,5/3/2021 16:04,96.91.90.145,Mozilla/5.0 (Windows NT 10.0; Win64; x64; rv:86.0) Gecko/20100101 Firefox/86.0,,Firefox,86,Windows,10
238,1,null,"""",image-keyboard-response,179,494740,0.0-179.0,"""",jspsych/neutralFaces/BM25NES.JPG,"""",256,backwardMask,Test,null,100,"""","""","""","""","""","""","""","""",1,5/3/2021 16:04,96.91.90.145,Mozilla/5.0 (Windows NT 10.0; Win64; x64; rv:86.0) Gecko/20100101 Firefox/86.0,,Firefox,86,Windows,10
238,1,null,"""",html-keyboard-response,180,495743,0.0-180.0,"""","<div style=""font-size:60px;"">+</div>","""",256,fixationBtwnNeutralMaskAndPrompt,Test,null,1000,"""","""","""","""","""","""","""","""",1,5/3/2021 16:04,96.91.90.145,Mozilla/5.0 (Windows NT 10.0; Win64; x64; rv:86.0) Gecko/20100101 Firefox/86.0,,Firefox,86,Windows,10
238,1,1393,"""",html-button-response,181,497136,0.0-181.0,"""","<img src='jspsych/CFDfaces/CFD-LM-221-216-N.jpg' height=""250px"">,</br><b>Robert</b>",0,256,IntactOrRearranged,Test,"""","""","""","""",CFD-AF-235-170-N.jpg,Lauren,0,"""","""",0,1,5/3/2021 16:04,96.91.90.145,Mozilla/5.0 (Windows NT 10.0; Win64; x64; rv:86.0) Gecko/20100101 Firefox/86.0,,Firefox,86,Windows,10
238,1,2638,"""",html-slider-response,182,499776,0.0-182.0,"""","<img src='jspsych/CFDfaces/CFD-LM-221-216-N.jpg' height=""250px"">,</br><b>Robert</b>","""",256,ConfidenceQuery,Test,"""","""","""","""",CFD-AF-235-170-N.jpg,Lauren,0,0,100,"""",1,5/3/2021 16:04,96.91.90.145,Mozilla/5.0 (Windows NT 10.0; Win64; x64; rv:86.0) Gecko/20100101 Firefox/86.0,,Firefox,86,Windows,10
238,1,null,"""",html-keyboard-response,183,500777,0.0-183.0,"""","<div style=""font-size:60px;"">+</div>","""",256,ITI,Test,null,1000,"""","""","""","""","""","""","""","""",1,5/3/2021 16:04,96.91.90.145,Mozilla/5.0 (Windows NT 10.0; Win64; x64; rv:86.0) Gecko/20100101 Firefox/86.0,,Firefox,86,Windows,10
238,1,null,"""",image-keyboard-response,184,501032,0.0-184.0,"""",jspsych/scrambledNeutralFaces/scrambledBF02NES.JPG,"""",256,forwardMask,Test,null,250,"""",n,"""","""","""","""","""","""",1,5/3/2021 16:04,96.91.90.145,Mozilla/5.0 (Windows NT 10.0; Win64; x64; rv:86.0) Gecko/20100101 Firefox/86.0,,Firefox,86,Windows,10
238,1,null,"""",image-keyboard-response,185,501050,0.0-185.0,"""",jspsych/neutralFaces/BF02NES.JPG,"""",256,Cue,Test,null,16,"""","""","""","""","""","""","""","""",1,5/3/2021 16:04,96.91.90.145,Mozilla/5.0 (Windows NT 10.0; Win64; x64; rv:86.0) Gecko/20100101 Firefox/86.0,,Firefox,86,Windows,10
238,1,null,"""",image-keyboard-response,186,501152,0.0-186.0,"""",jspsych/neutralFaces/BF04NES.JPG,"""",256,backwardMask,Test,null,100,"""","""","""","""","""","""","""","""",1,5/3/2021 16:04,96.91.90.145,Mozilla/5.0 (Windows NT 10.0; Win64; x64; rv:86.0) Gecko/20100101 Firefox/86.0,,Firefox,86,Windows,10
238,1,null,"""",html-keyboard-response,187,502155,0.0-187.0,"""","<div style=""font-size:60px;"">+</div>","""",256,fixationBtwnNeutralMaskAndPrompt,Test,null,1000,"""","""","""","""","""","""","""","""",1,5/3/2021 16:04,96.91.90.145,Mozilla/5.0 (Windows NT 10.0; Win64; x64; rv:86.0) Gecko/20100101 Firefox/86.0,,Firefox,86,Windows,10
238,1,1604,"""",html-button-response,188,503760,0.0-188.0,"""","<img src='jspsych/CFDfaces/CFD-WM-215-041-N.jpg' height=""250px"">,</br><b>Juan</b>",0,256,IntactOrRearranged,Test,"""","""","""","""",CFD-LF-244-096-N.jpg,Jenna,0,"""","""",0,1,5/3/2021 16:04,96.91.90.145,Mozilla/5.0 (Windows NT 10.0; Win64; x64; rv:86.0) Gecko/20100101 Firefox/86.0,,Firefox,86,Windows,10
238,1,1638,"""",html-slider-response,189,505400,0.0-189.0,"""","<img src='jspsych/CFDfaces/CFD-WM-215-041-N.jpg' height=""250px"">,</br><b>Juan</b>","""",256,ConfidenceQuery,Test,"""","""","""","""",CFD-LF-244-096-N.jpg,Jenna,0,0,55,"""",1,5/3/2021 16:04,96.91.90.145,Mozilla/5.0 (Windows NT 10.0; Win64; x64; rv:86.0) Gecko/20100101 Firefox/86.0,,Firefox,86,Windows,10
238,1,null,"""",html-keyboard-response,190,506403,0.0-190.0,"""","<div style=""font-size:60px;"">+</div>","""",256,ITI,Test,null,1000,"""","""","""","""","""","""","""","""",1,5/3/2021 16:04,96.91.90.145,Mozilla/5.0 (Windows NT 10.0; Win64; x64; rv:86.0) Gecko/20100101 Firefox/86.0,,Firefox,86,Windows,10
238,1,null,"""",image-keyboard-response,191,506658,0.0-191.0,"""",jspsych/scrambledNeutralFaces/scrambledBF12NES.JPG,"""",256,forwardMask,Test,null,250,"""",n,"""","""","""","""","""","""",1,5/3/2021 16:04,96.91.90.145,Mozilla/5.0 (Windows NT 10.0; Win64; x64; rv:86.0) Gecko/20100101 Firefox/86.0,,Firefox,86,Windows,10
238,1,null,"""",image-keyboard-response,192,506688,0.0-192.0,"""",jspsych/neutralFaces/BF12NES.JPG,"""",256,Cue,Test,null,16,"""","""","""","""","""","""","""","""",1,5/3/2021 16:04,96.91.90.145,Mozilla/5.0 (Windows NT 10.0; Win64; x64; rv:86.0) Gecko/20100101 Firefox/86.0,,Firefox,86,Windows,10
238,1,null,"""",image-keyboard-response,193,506789,0.0-193.0,"""",jspsych/neutralFaces/AF19NES.JPG,"""",256,backwardMask,Test,null,100,"""","""","""","""","""","""","""","""",1,5/3/2021 16:04,96.91.90.145,Mozilla/5.0 (Windows NT 10.0; Win64; x64; rv:86.0) Gecko/20100101 Firefox/86.0,,Firefox,86,Windows,10
238,1,null,"""",html-keyboard-response,194,507792,0.0-194.0,"""","<div style=""font-size:60px;"">+</div>","""",256,fixationBtwnNeutralMaskAndPrompt,Test,null,1000,"""","""","""","""","""","""","""","""",1,5/3/2021 16:04,96.91.90.145,Mozilla/5.0 (Windows NT 10.0; Win64; x64; rv:86.0) Gecko/20100101 Firefox/86.0,,Firefox,86,Windows,10
238,1,1495,"""",html-button-response,195,509288,0.0-195.0,"""","<img src='jspsych/CFDfaces/CFD-AF-214-139-N.jpg' height=""250px"">,</br><b>Christina</b>",0,256,IntactOrRearranged,Test,"""","""","""","""",CFD-WM-003-002-N.jpg,Austin,1,"""","""",0,1,5/3/2021 16:04,96.91.90.145,Mozilla/5.0 (Windows NT 10.0; Win64; x64; rv:86.0) Gecko/20100101 Firefox/86.0,,Firefox,86,Windows,10
238,1,1527,"""",html-slider-response,196,510817,0.0-196.0,"""","<img src='jspsych/CFDfaces/CFD-AF-214-139-N.jpg' height=""250px"">,</br><b>Christina</b>","""",256,ConfidenceQuery,Test,"""","""","""","""",CFD-WM-003-002-N.jpg,Austin,1,0,79,"""",1,5/3/2021 16:04,96.91.90.145,Mozilla/5.0 (Windows NT 10.0; Win64; x64; rv:86.0) Gecko/20100101 Firefox/86.0,,Firefox,86,Windows,10
238,1,null,"""",html-keyboard-response,197,511820,0.0-197.0,"""","<div style=""font-size:60px;"">+</div>","""",256,ITI,Test,null,1000,"""","""","""","""","""","""","""","""",1,5/3/2021 16:04,96.91.90.145,Mozilla/5.0 (Windows NT 10.0; Win64; x64; rv:86.0) Gecko/20100101 Firefox/86.0,,Firefox,86,Windows,10
238,1,null,"""",image-keyboard-response,198,512073,0.0-198.0,"""",jspsych/scrambledDisgustFaces/scrambledBM09DIS.JPG,"""",256,forwardMask,Test,null,250,"""",d,"""","""","""","""","""","""",1,5/3/2021 16:04,96.91.90.145,Mozilla/5.0 (Windows NT 10.0; Win64; x64; rv:86.0) Gecko/20100101 Firefox/86.0,,Firefox,86,Windows,10
238,1,null,"""",image-keyboard-response,199,512095,0.0-199.0,"""",jspsych/disgustFaces/BM10DIS.JPG,"""",256,Cue,Test,null,16,"""","""","""","""","""","""","""","""",1,5/3/2021 16:04,96.91.90.145,Mozilla/5.0 (Windows NT 10.0; Win64; x64; rv:86.0) Gecko/20100101 Firefox/86.0,,Firefox,86,Windows,10
238,1,null,"""",image-keyboard-response,200,512202,0.0-200.0,"""",jspsych/neutralFaces/AM05NES.JPG,"""",256,backwardMask,Test,null,100,"""","""","""","""","""","""","""","""",1,5/3/2021 16:04,96.91.90.145,Mozilla/5.0 (Windows NT 10.0; Win64; x64; rv:86.0) Gecko/20100101 Firefox/86.0,,Firefox,86,Windows,10
238,1,null,"""",html-keyboard-response,201,513204,0.0-201.0,"""","<div style=""font-size:60px;"">+</div>","""",256,fixationBtwnNeutralMaskAndPrompt,Test,null,1000,"""","""","""","""","""","""","""","""",1,5/3/2021 16:04,96.91.90.145,Mozilla/5.0 (Windows NT 10.0; Win64; x64; rv:86.0) Gecko/20100101 Firefox/86.0,,Firefox,86,Windows,10
238,1,1414,"""",html-button-response,202,514625,0.0-202.0,"""","<img src='jspsych/CFDfaces/CFD-WF-200-099-N.jpg' height=""250px"">,</br><b>Elizabeth</b>",1,256,IntactOrRearranged,Test,"""","""","""","""",CFD-BF-008-001-N.jpg,Angela,1,"""","""",1,1,5/3/2021 16:04,96.91.90.145,Mozilla/5.0 (Windows NT 10.0; Win64; x64; rv:86.0) Gecko/20100101 Firefox/86.0,,Firefox,86,Windows,10
238,1,1399,"""",html-slider-response,203,516025,0.0-203.0,"""","<img src='jspsych/CFDfaces/CFD-WF-200-099-N.jpg' height=""250px"">,</br><b>Elizabeth</b>","""",256,ConfidenceQuery,Test,"""","""","""","""",CFD-BF-008-001-N.jpg,Angela,1,0,53,"""",1,5/3/2021 16:04,96.91.90.145,Mozilla/5.0 (Windows NT 10.0; Win64; x64; rv:86.0) Gecko/20100101 Firefox/86.0,,Firefox,86,Windows,10
238,1,null,"""",html-keyboard-response,204,517027,0.0-204.0,"""","<div style=""font-size:60px;"">+</div>","""",256,ITI,Test,null,1000,"""","""","""","""","""","""","""","""",1,5/3/2021 16:04,96.91.90.145,Mozilla/5.0 (Windows NT 10.0; Win64; x64; rv:86.0) Gecko/20100101 Firefox/86.0,,Firefox,86,Windows,10
238,1,null,"""",image-keyboard-response,205,517281,0.0-205.0,"""",jspsych/scrambledDisgustFaces/scrambledBF34DIS.JPG,"""",256,forwardMask,Test,null,250,"""",d,"""","""","""","""","""","""",1,5/3/2021 16:04,96.91.90.145,Mozilla/5.0 (Windows NT 10.0; Win64; x64; rv:86.0) Gecko/20100101 Firefox/86.0,,Firefox,86,Windows,10
238,1,null,"""",image-keyboard-response,206,517299,0.0-206.0,"""",jspsych/disgustFaces/BF34DIS.JPG,"""",256,Cue,Test,null,16,"""","""","""","""","""","""","""","""",1,5/3/2021 16:04,96.91.90.145,Mozilla/5.0 (Windows NT 10.0; Win64; x64; rv:86.0) Gecko/20100101 Firefox/86.0,,Firefox,86,Windows,10
238,1,null,"""",image-keyboard-response,207,517402,0.0-207.0,"""",jspsych/neutralFaces/AF16NES.JPG,"""",256,backwardMask,Test,null,100,"""","""","""","""","""","""","""","""",1,5/3/2021 16:04,96.91.90.145,Mozilla/5.0 (Windows NT 10.0; Win64; x64; rv:86.0) Gecko/20100101 Firefox/86.0,,Firefox,86,Windows,10
238,1,null,"""",html-keyboard-response,208,518404,0.0-208.0,"""","<div style=""font-size:60px;"">+</div>","""",256,fixationBtwnNeutralMaskAndPrompt,Test,null,1000,"""","""","""","""","""","""","""","""",1,5/3/2021 16:04,96.91.90.145,Mozilla/5.0 (Windows NT 10.0; Win64; x64; rv:86.0) Gecko/20100101 Firefox/86.0,,Firefox,86,Windows,10
238,1,1265,"""",html-button-response,209,519672,0.0-209.0,"""","<img src='jspsych/CFDfaces/CFD-WM-222-057-N.jpg' height=""250px"">,</br><b>Jason</b>",1,256,IntactOrRearranged,Test,"""","""","""","""",CFD-WF-215-145-N.jpg,Jasmine,0,"""","""",1,1,5/3/2021 16:04,96.91.90.145,Mozilla/5.0 (Windows NT 10.0; Win64; x64; rv:86.0) Gecko/20100101 Firefox/86.0,,Firefox,86,Windows,10
238,1,2254,"""",html-slider-response,210,521928,0.0-210.0,"""","<img src='jspsych/CFDfaces/CFD-WM-222-057-N.jpg' height=""250px"">,</br><b>Jason</b>","""",256,ConfidenceQuery,Test,"""","""","""","""",CFD-WF-215-145-N.jpg,Jasmine,0,0,44,"""",1,5/3/2021 16:04,96.91.90.145,Mozilla/5.0 (Windows NT 10.0; Win64; x64; rv:86.0) Gecko/20100101 Firefox/86.0,,Firefox,86,Windows,10
238,1,null,"""",html-keyboard-response,211,522933,0.0-211.0,"""","<div style=""font-size:60px;"">+</div>","""",256,ITI,Test,null,1000,"""","""","""","""","""","""","""","""",1,5/3/2021 16:04,96.91.90.145,Mozilla/5.0 (Windows NT 10.0; Win64; x64; rv:86.0) Gecko/20100101 Firefox/86.0,,Firefox,86,Windows,10
238,1,null,"""",image-keyboard-response,212,523185,0.0-212.0,"""",jspsych/scrambledNeutralFaces/scrambledAF11NES.JPG,"""",256,forwardMask,Test,null,250,"""",n,"""","""","""","""","""","""",1,5/3/2021 16:04,96.91.90.145,Mozilla/5.0 (Windows NT 10.0; Win64; x64; rv:86.0) Gecko/20100101 Firefox/86.0,,Firefox,86,Windows,10
238,1,null,"""",image-keyboard-response,213,523204,0.0-213.0,"""",jspsych/neutralFaces/AF11NES.JPG,"""",256,Cue,Test,null,16,"""","""","""","""","""","""","""","""",1,5/3/2021 16:04,96.91.90.145,Mozilla/5.0 (Windows NT 10.0; Win64; x64; rv:86.0) Gecko/20100101 Firefox/86.0,,Firefox,86,Windows,10
238,1,null,"""",image-keyboard-response,214,523307,0.0-214.0,"""",jspsych/neutralFaces/AF34NES.JPG,"""",256,backwardMask,Test,null,100,"""","""","""","""","""","""","""","""",1,5/3/2021 16:04,96.91.90.145,Mozilla/5.0 (Windows NT 10.0; Win64; x64; rv:86.0) Gecko/20100101 Firefox/86.0,,Firefox,86,Windows,10
238,1,null,"""",html-keyboard-response,215,524309,0.0-215.0,"""","<div style=""font-size:60px;"">+</div>","""",256,fixationBtwnNeutralMaskAndPrompt,Test,null,1000,"""","""","""","""","""","""","""","""",1,5/3/2021 16:04,96.91.90.145,Mozilla/5.0 (Windows NT 10.0; Win64; x64; rv:86.0) Gecko/20100101 Firefox/86.0,,Firefox,86,Windows,10
238,1,1627,"""",html-button-response,216,525937,0.0-216.0,"""","<img src='jspsych/CFDfaces/CFD-BF-005-001-N.jpg' height=""250px"">,</br><b>Michelle</b>",0,256,IntactOrRearranged,Test,"""","""","""","""",CFD-WM-020-001-N.jpg,Jesse,0,"""","""",0,1,5/3/2021 16:04,96.91.90.145,Mozilla/5.0 (Windows NT 10.0; Win64; x64; rv:86.0) Gecko/20100101 Firefox/86.0,,Firefox,86,Windows,10
238,1,1422,"""",html-slider-response,217,527360,0.0-217.0,"""","<img src='jspsych/CFDfaces/CFD-BF-005-001-N.jpg' height=""250px"">,</br><b>Michelle</b>","""",256,ConfidenceQuery,Test,"""","""","""","""",CFD-WM-020-001-N.jpg,Jesse,0,0,58,"""",1,5/3/2021 16:04,96.91.90.145,Mozilla/5.0 (Windows NT 10.0; Win64; x64; rv:86.0) Gecko/20100101 Firefox/86.0,,Firefox,86,Windows,10
238,1,null,"""",html-keyboard-response,218,528364,0.0-218.0,"""","<div style=""font-size:60px;"">+</div>","""",256,ITI,Test,null,1000,"""","""","""","""","""","""","""","""",1,5/3/2021 16:04,96.91.90.145,Mozilla/5.0 (Windows NT 10.0; Win64; x64; rv:86.0) Gecko/20100101 Firefox/86.0,,Firefox,86,Windows,10
238,1,null,"""",image-keyboard-response,219,528620,0.0-219.0,"""",jspsych/scrambledDisgustFaces/scrambledAF13DIS.JPG,"""",256,forwardMask,Test,null,250,"""",d,"""","""","""","""","""","""",1,5/3/2021 16:04,96.91.90.145,Mozilla/5.0 (Windows NT 10.0; Win64; x64; rv:86.0) Gecko/20100101 Firefox/86.0,,Firefox,86,Windows,10
238,1,null,"""",image-keyboard-response,220,528638,0.0-220.0,"""",jspsych/disgustFaces/AF13DIS.JPG,"""",256,Cue,Test,null,16,"""","""","""","""","""","""","""","""",1,5/3/2021 16:04,96.91.90.145,Mozilla/5.0 (Windows NT 10.0; Win64; x64; rv:86.0) Gecko/20100101 Firefox/86.0,,Firefox,86,Windows,10
238,1,null,"""",image-keyboard-response,221,528740,0.0-221.0,"""",jspsych/neutralFaces/BF30NES.JPG,"""",256,backwardMask,Test,null,100,"""","""","""","""","""","""","""","""",1,5/3/2021 16:04,96.91.90.145,Mozilla/5.0 (Windows NT 10.0; Win64; x64; rv:86.0) Gecko/20100101 Firefox/86.0,,Firefox,86,Windows,10
238,1,null,"""",html-keyboard-response,222,529743,0.0-222.0,"""","<div style=""font-size:60px;"">+</div>","""",256,fixationBtwnNeutralMaskAndPrompt,Test,null,1000,"""","""","""","""","""","""","""","""",1,5/3/2021 16:04,96.91.90.145,Mozilla/5.0 (Windows NT 10.0; Win64; x64; rv:86.0) Gecko/20100101 Firefox/86.0,,Firefox,86,Windows,10
238,1,1017,"""",html-button-response,223,530761,0.0-223.0,"""","<img src='jspsych/CFDfaces/CFD-LM-225-130-N.jpg' height=""250px"">,</br><b>Joshua</b>",0,256,IntactOrRearranged,Test,"""","""","""","""",CFD-BM-208-065-N.jpg,Cameron,1,"""","""",0,1,5/3/2021 16:04,96.91.90.145,Mozilla/5.0 (Windows NT 10.0; Win64; x64; rv:86.0) Gecko/20100101 Firefox/86.0,,Firefox,86,Windows,10
238,1,1982,"""",html-slider-response,224,532744,0.0-224.0,"""","<img src='jspsych/CFDfaces/CFD-LM-225-130-N.jpg' height=""250px"">,</br><b>Joshua</b>","""",256,ConfidenceQuery,Test,"""","""","""","""",CFD-BM-208-065-N.jpg,Cameron,1,0,46,"""",1,5/3/2021 16:04,96.91.90.145,Mozilla/5.0 (Windows NT 10.0; Win64; x64; rv:86.0) Gecko/20100101 Firefox/86.0,,Firefox,86,Windows,10
238,1,null,"""",html-keyboard-response,225,533746,0.0-225.0,"""","<div style=""font-size:60px;"">+</div>","""",256,ITI,Test,null,1000,"""","""","""","""","""","""","""","""",1,5/3/2021 16:04,96.91.90.145,Mozilla/5.0 (Windows NT 10.0; Win64; x64; rv:86.0) Gecko/20100101 Firefox/86.0,,Firefox,86,Windows,10
238,1,null,"""",image-keyboard-response,226,533999,0.0-226.0,"""",jspsych/scrambledNeutralFaces/scrambledAF14NES.JPG,"""",256,forwardMask,Test,null,250,"""",n,"""","""","""","""","""","""",1,5/3/2021 16:04,96.91.90.145,Mozilla/5.0 (Windows NT 10.0; Win64; x64; rv:86.0) Gecko/20100101 Firefox/86.0,,Firefox,86,Windows,10
238,1,null,"""",image-keyboard-response,227,534018,0.0-227.0,"""",jspsych/neutralFaces/AF14NES.JPG,"""",256,Cue,Test,null,16,"""","""","""","""","""","""","""","""",1,5/3/2021 16:04,96.91.90.145,Mozilla/5.0 (Windows NT 10.0; Win64; x64; rv:86.0) Gecko/20100101 Firefox/86.0,,Firefox,86,Windows,10
238,1,null,"""",image-keyboard-response,228,534120,0.0-228.0,"""",jspsych/neutralFaces/AF26NES.JPG,"""",256,backwardMask,Test,null,100,"""","""","""","""","""","""","""","""",1,5/3/2021 16:04,96.91.90.145,Mozilla/5.0 (Windows NT 10.0; Win64; x64; rv:86.0) Gecko/20100101 Firefox/86.0,,Firefox,86,Windows,10
238,1,null,"""",html-keyboard-response,229,535125,0.0-229.0,"""","<div style=""font-size:60px;"">+</div>","""",256,fixationBtwnNeutralMaskAndPrompt,Test,null,1000,"""","""","""","""","""","""","""","""",1,5/3/2021 16:04,96.91.90.145,Mozilla/5.0 (Windows NT 10.0; Win64; x64; rv:86.0) Gecko/20100101 Firefox/86.0,,Firefox,86,Windows,10
238,1,922,"""",html-button-response,230,536048,0.0-230.0,"""","<img src='jspsych/CFDfaces/CFD-BM-203-001-N.jpg' height=""250px"">,</br><b>Brandon</b>",1,256,IntactOrRearranged,Test,"""","""","""","""",CFD-AF-228-173-N.jpg,Amy,0,"""","""",1,1,5/3/2021 16:04,96.91.90.145,Mozilla/5.0 (Windows NT 10.0; Win64; x64; rv:86.0) Gecko/20100101 Firefox/86.0,,Firefox,86,Windows,10
238,1,1478,"""",html-slider-response,231,537528,0.0-231.0,"""","<img src='jspsych/CFDfaces/CFD-BM-203-001-N.jpg' height=""250px"">,</br><b>Brandon</b>","""",256,ConfidenceQuery,Test,"""","""","""","""",CFD-AF-228-173-N.jpg,Amy,0,0,80,"""",1,5/3/2021 16:04,96.91.90.145,Mozilla/5.0 (Windows NT 10.0; Win64; x64; rv:86.0) Gecko/20100101 Firefox/86.0,,Firefox,86,Windows,10
238,1,null,"""",html-keyboard-response,232,538531,0.0-232.0,"""","<div style=""font-size:60px;"">+</div>","""",256,ITI,Test,null,1000,"""","""","""","""","""","""","""","""",1,5/3/2021 16:04,96.91.90.145,Mozilla/5.0 (Windows NT 10.0; Win64; x64; rv:86.0) Gecko/20100101 Firefox/86.0,,Firefox,86,Windows,10
238,1,null,"""",image-keyboard-response,233,538783,0.0-233.0,"""",jspsych/scrambledDisgustFaces/scrambledAM08DIS.JPG,"""",256,forwardMask,Test,null,250,"""",d,"""","""","""","""","""","""",1,5/3/2021 16:04,96.91.90.145,Mozilla/5.0 (Windows NT 10.0; Win64; x64; rv:86.0) Gecko/20100101 Firefox/86.0,,Firefox,86,Windows,10
238,1,null,"""",image-keyboard-response,234,538802,0.0-234.0,"""",jspsych/disgustFaces/AM08DIS.JPG,"""",256,Cue,Test,null,16,"""","""","""","""","""","""","""","""",1,5/3/2021 16:04,96.91.90.145,Mozilla/5.0 (Windows NT 10.0; Win64; x64; rv:86.0) Gecko/20100101 Firefox/86.0,,Firefox,86,Windows,10
238,1,null,"""",image-keyboard-response,235,538907,0.0-235.0,"""",jspsych/neutralFaces/BM32NES.JPG,"""",256,backwardMask,Test,null,100,"""","""","""","""","""","""","""","""",1,5/3/2021 16:04,96.91.90.145,Mozilla/5.0 (Windows NT 10.0; Win64; x64; rv:86.0) Gecko/20100101 Firefox/86.0,,Firefox,86,Windows,10
238,1,null,"""",html-keyboard-response,236,539908,0.0-236.0,"""","<div style=""font-size:60px;"">+</div>","""",256,fixationBtwnNeutralMaskAndPrompt,Test,null,1000,"""","""","""","""","""","""","""","""",1,5/3/2021 16:04,96.91.90.145,Mozilla/5.0 (Windows NT 10.0; Win64; x64; rv:86.0) Gecko/20100101 Firefox/86.0,,Firefox,86,Windows,10
238,1,983,"""",html-button-response,237,540896,0.0-237.0,"""","<img src='jspsych/CFDfaces/CFD-BF-001-025-N.jpg' height=""250px"">,</br><b>Andrea</b>",0,256,IntactOrRearranged,Test,"""","""","""","""",CFD-BF-009-002-N.jpg,Jordan,1,"""","""",0,1,5/3/2021 16:04,96.91.90.145,Mozilla/5.0 (Windows NT 10.0; Win64; x64; rv:86.0) Gecko/20100101 Firefox/86.0,,Firefox,86,Windows,10
238,1,2590,"""",html-slider-response,238,543489,0.0-238.0,"""","<img src='jspsych/CFDfaces/CFD-BF-001-025-N.jpg' height=""250px"">,</br><b>Andrea</b>","""",256,ConfidenceQuery,Test,"""","""","""","""",CFD-BF-009-002-N.jpg,Jordan,1,0,35,"""",1,5/3/2021 16:04,96.91.90.145,Mozilla/5.0 (Windows NT 10.0; Win64; x64; rv:86.0) Gecko/20100101 Firefox/86.0,,Firefox,86,Windows,10
238,1,null,"""",html-keyboard-response,239,544491,0.0-239.0,"""","<div style=""font-size:60px;"">+</div>","""",256,ITI,Test,null,1000,"""","""","""","""","""","""","""","""",1,5/3/2021 16:04,96.91.90.145,Mozilla/5.0 (Windows NT 10.0; Win64; x64; rv:86.0) Gecko/20100101 Firefox/86.0,,Firefox,86,Windows,10
238,1,null,"""",image-keyboard-response,240,544745,0.0-240.0,"""",jspsych/scrambledDisgustFaces/scrambledAF25DIS.JPG,"""",256,forwardMask,Test,null,250,"""",d,"""","""","""","""","""","""",1,5/3/2021 16:04,96.91.90.145,Mozilla/5.0 (Windows NT 10.0; Win64; x64; rv:86.0) Gecko/20100101 Firefox/86.0,,Firefox,86,Windows,10
238,1,null,"""",image-keyboard-response,241,544766,0.0-241.0,"""",jspsych/disgustFaces/AF25DIS.JPG,"""",256,Cue,Test,null,16,"""","""","""","""","""","""","""","""",1,5/3/2021 16:04,96.91.90.145,Mozilla/5.0 (Windows NT 10.0; Win64; x64; rv:86.0) Gecko/20100101 Firefox/86.0,,Firefox,86,Windows,10
238,1,null,"""",image-keyboard-response,242,544869,0.0-242.0,"""",jspsych/neutralFaces/AF16NES.JPG,"""",256,backwardMask,Test,null,100,"""","""","""","""","""","""","""","""",1,5/3/2021 16:04,96.91.90.145,Mozilla/5.0 (Windows NT 10.0; Win64; x64; rv:86.0) Gecko/20100101 Firefox/86.0,,Firefox,86,Windows,10
238,1,null,"""",html-keyboard-response,243,545871,0.0-243.0,"""","<div style=""font-size:60px;"">+</div>","""",256,fixationBtwnNeutralMaskAndPrompt,Test,null,1000,"""","""","""","""","""","""","""","""",1,5/3/2021 16:04,96.91.90.145,Mozilla/5.0 (Windows NT 10.0; Win64; x64; rv:86.0) Gecko/20100101 Firefox/86.0,,Firefox,86,Windows,10
238,1,1166,"""",html-button-response,244,547042,0.0-244.0,"""","<img src='jspsych/CFDfaces/CFD-WF-204-038-N.jpg' height=""250px"">,</br><b>Stephanie</b>",0,256,IntactOrRearranged,Test,"""","""","""","""",CFD-LF-232-199-N.jpg,Rebecca,0,"""","""",0,1,5/3/2021 16:04,96.91.90.145,Mozilla/5.0 (Windows NT 10.0; Win64; x64; rv:86.0) Gecko/20100101 Firefox/86.0,,Firefox,86,Windows,10
238,1,1917,"""",html-slider-response,245,548960,0.0-245.0,"""","<img src='jspsych/CFDfaces/CFD-WF-204-038-N.jpg' height=""250px"">,</br><b>Stephanie</b>","""",256,ConfidenceQuery,Test,"""","""","""","""",CFD-LF-232-199-N.jpg,Rebecca,0,0,100,"""",1,5/3/2021 16:04,96.91.90.145,Mozilla/5.0 (Windows NT 10.0; Win64; x64; rv:86.0) Gecko/20100101 Firefox/86.0,,Firefox,86,Windows,10
238,1,null,"""",html-keyboard-response,246,549962,0.0-246.0,"""","<div style=""font-size:60px;"">+</div>","""",256,ITI,Test,null,1000,"""","""","""","""","""","""","""","""",1,5/3/2021 16:04,96.91.90.145,Mozilla/5.0 (Windows NT 10.0; Win64; x64; rv:86.0) Gecko/20100101 Firefox/86.0,,Firefox,86,Windows,10
238,1,null,"""",image-keyboard-response,247,550214,0.0-247.0,"""",jspsych/scrambledNeutralFaces/scrambledAM35NES.JPG,"""",256,forwardMask,Test,null,250,"""",n,"""","""","""","""","""","""",1,5/3/2021 16:04,96.91.90.145,Mozilla/5.0 (Windows NT 10.0; Win64; x64; rv:86.0) Gecko/20100101 Firefox/86.0,,Firefox,86,Windows,10
238,1,null,"""",image-keyboard-response,248,550232,0.0-248.0,"""",jspsych/neutralFaces/AM35NES.JPG,"""",256,Cue,Test,null,16,"""","""","""","""","""","""","""","""",1,5/3/2021 16:04,96.91.90.145,Mozilla/5.0 (Windows NT 10.0; Win64; x64; rv:86.0) Gecko/20100101 Firefox/86.0,,Firefox,86,Windows,10
238,1,null,"""",image-keyboard-response,249,550334,0.0-249.0,"""",jspsych/neutralFaces/BM12NES.JPG,"""",256,backwardMask,Test,null,100,"""","""","""","""","""","""","""","""",1,5/3/2021 16:04,96.91.90.145,Mozilla/5.0 (Windows NT 10.0; Win64; x64; rv:86.0) Gecko/20100101 Firefox/86.0,,Firefox,86,Windows,10
238,1,null,"""",html-keyboard-response,250,551335,0.0-250.0,"""","<div style=""font-size:60px;"">+</div>","""",256,fixationBtwnNeutralMaskAndPrompt,Test,null,1000,"""","""","""","""","""","""","""","""",1,5/3/2021 16:04,96.91.90.145,Mozilla/5.0 (Windows NT 10.0; Win64; x64; rv:86.0) Gecko/20100101 Firefox/86.0,,Firefox,86,Windows,10
238,1,1201,"""",html-button-response,251,552537,0.0-251.0,"""","<img src='jspsych/CFDfaces/CFD-WF-218-087-N.jpg' height=""250px"">,</br><b>Emily</b>",0,256,IntactOrRearranged,Test,"""","""","""","""",CFD-LF-213-079-N.jpg,Heather,1,"""","""",0,1,5/3/2021 16:04,96.91.90.145,Mozilla/5.0 (Windows NT 10.0; Win64; x64; rv:86.0) Gecko/20100101 Firefox/86.0,,Firefox,86,Windows,10
238,1,1859,"""",html-slider-response,252,554400,0.0-252.0,"""","<img src='jspsych/CFDfaces/CFD-WF-218-087-N.jpg' height=""250px"">,</br><b>Emily</b>","""",256,ConfidenceQuery,Test,"""","""","""","""",CFD-LF-213-079-N.jpg,Heather,1,0,68,"""",1,5/3/2021 16:04,96.91.90.145,Mozilla/5.0 (Windows NT 10.0; Win64; x64; rv:86.0) Gecko/20100101 Firefox/86.0,,Firefox,86,Windows,10
238,1,null,"""",html-keyboard-response,253,555402,0.0-253.0,"""","<div style=""font-size:60px;"">+</div>","""",256,ITI,Test,null,1000,"""","""","""","""","""","""","""","""",1,5/3/2021 16:04,96.91.90.145,Mozilla/5.0 (Windows NT 10.0; Win64; x64; rv:86.0) Gecko/20100101 Firefox/86.0,,Firefox,86,Windows,10
238,1,null,"""",image-keyboard-response,254,555656,0.0-254.0,"""",jspsych/scrambledNeutralFaces/scrambledAM30NES.JPG,"""",256,forwardMask,Test,null,250,"""",n,"""","""","""","""","""","""",1,5/3/2021 16:04,96.91.90.145,Mozilla/5.0 (Windows NT 10.0; Win64; x64; rv:86.0) Gecko/20100101 Firefox/86.0,,Firefox,86,Windows,10
238,1,null,"""",image-keyboard-response,255,555679,0.0-255.0,"""",jspsych/neutralFaces/AM30NES.JPG,"""",256,Cue,Test,null,16,"""","""","""","""","""","""","""","""",1,5/3/2021 16:04,96.91.90.145,Mozilla/5.0 (Windows NT 10.0; Win64; x64; rv:86.0) Gecko/20100101 Firefox/86.0,,Firefox,86,Windows,10
238,1,null,"""",image-keyboard-response,256,555786,0.0-256.0,"""",jspsych/neutralFaces/BM11NES.JPG,"""",256,backwardMask,Test,null,100,"""","""","""","""","""","""","""","""",1,5/3/2021 16:04,96.91.90.145,Mozilla/5.0 (Windows NT 10.0; Win64; x64; rv:86.0) Gecko/20100101 Firefox/86.0,,Firefox,86,Windows,10
238,1,null,"""",html-keyboard-response,257,556787,0.0-257.0,"""","<div style=""font-size:60px;"">+</div>","""",256,fixationBtwnNeutralMaskAndPrompt,Test,null,1000,"""","""","""","""","""","""","""","""",1,5/3/2021 16:04,96.91.90.145,Mozilla/5.0 (Windows NT 10.0; Win64; x64; rv:86.0) Gecko/20100101 Firefox/86.0,,Firefox,86,Windows,10
238,1,852,"""",html-button-response,258,557640,0.0-258.0,"""","<img src='jspsych/CFDfaces/CFD-WM-212-097-N.jpg' height=""250px"">,</br><b>Richard</b>",1,256,IntactOrRearranged,Test,"""","""","""","""",CFD-AM-243-212-N.jpg,Jacob,1,"""","""",1,1,5/3/2021 16:04,96.91.90.145,Mozilla/5.0 (Windows NT 10.0; Win64; x64; rv:86.0) Gecko/20100101 Firefox/86.0,,Firefox,86,Windows,10
238,1,1447,"""",html-slider-response,259,559088,0.0-259.0,"""","<img src='jspsych/CFDfaces/CFD-WM-212-097-N.jpg' height=""250px"">,</br><b>Richard</b>","""",256,ConfidenceQuery,Test,"""","""","""","""",CFD-AM-243-212-N.jpg,Jacob,1,0,72,"""",1,5/3/2021 16:04,96.91.90.145,Mozilla/5.0 (Windows NT 10.0; Win64; x64; rv:86.0) Gecko/20100101 Firefox/86.0,,Firefox,86,Windows,10
238,1,null,"""",html-keyboard-response,260,560093,0.0-260.0,"""","<div style=""font-size:60px;"">+</div>","""",256,ITI,Test,null,1000,"""","""","""","""","""","""","""","""",1,5/3/2021 16:04,96.91.90.145,Mozilla/5.0 (Windows NT 10.0; Win64; x64; rv:86.0) Gecko/20100101 Firefox/86.0,,Firefox,86,Windows,10
238,1,null,"""",image-keyboard-response,261,560345,0.0-261.0,"""",jspsych/scrambledDisgustFaces/scrambledBF25DIS.JPG,"""",256,forwardMask,Test,null,250,"""",d,"""","""","""","""","""","""",1,5/3/2021 16:04,96.91.90.145,Mozilla/5.0 (Windows NT 10.0; Win64; x64; rv:86.0) Gecko/20100101 Firefox/86.0,,Firefox,86,Windows,10
238,1,null,"""",image-keyboard-response,262,560365,0.0-262.0,"""",jspsych/disgustFaces/BF25DIS.JPG,"""",256,Cue,Test,null,16,"""","""","""","""","""","""","""","""",1,5/3/2021 16:04,96.91.90.145,Mozilla/5.0 (Windows NT 10.0; Win64; x64; rv:86.0) Gecko/20100101 Firefox/86.0,,Firefox,86,Windows,10
238,1,null,"""",image-keyboard-response,263,560467,0.0-263.0,"""",jspsych/neutralFaces/BF20NES.JPG,"""",256,backwardMask,Test,null,100,"""","""","""","""","""","""","""","""",1,5/3/2021 16:04,96.91.90.145,Mozilla/5.0 (Windows NT 10.0; Win64; x64; rv:86.0) Gecko/20100101 Firefox/86.0,,Firefox,86,Windows,10
238,1,null,"""",html-keyboard-response,264,561468,0.0-264.0,"""","<div style=""font-size:60px;"">+</div>","""",256,fixationBtwnNeutralMaskAndPrompt,Test,null,1000,"""","""","""","""","""","""","""","""",1,5/3/2021 16:04,96.91.90.145,Mozilla/5.0 (Windows NT 10.0; Win64; x64; rv:86.0) Gecko/20100101 Firefox/86.0,,Firefox,86,Windows,10
238,1,995,"""",html-button-response,265,562464,0.0-265.0,"""","<img src='jspsych/CFDfaces/CFD-AF-230-193-N.jpg' height=""250px"">,</br><b>Victoria</b>",0,256,IntactOrRearranged,Test,"""","""","""","""",CFD-WF-223-133-N.jpg,Erin,1,"""","""",0,1,5/3/2021 16:04,96.91.90.145,Mozilla/5.0 (Windows NT 10.0; Win64; x64; rv:86.0) Gecko/20100101 Firefox/86.0,,Firefox,86,Windows,10
238,1,1911,"""",html-slider-response,266,564377,0.0-266.0,"""","<img src='jspsych/CFDfaces/CFD-AF-230-193-N.jpg' height=""250px"">,</br><b>Victoria</b>","""",256,ConfidenceQuery,Test,"""","""","""","""",CFD-WF-223-133-N.jpg,Erin,1,0,52,"""",1,5/3/2021 16:04,96.91.90.145,Mozilla/5.0 (Windows NT 10.0; Win64; x64; rv:86.0) Gecko/20100101 Firefox/86.0,,Firefox,86,Windows,10
238,1,null,"""",html-keyboard-response,267,565379,0.0-267.0,"""","<div style=""font-size:60px;"">+</div>","""",256,ITI,Test,null,1000,"""","""","""","""","""","""","""","""",1,5/3/2021 16:04,96.91.90.145,Mozilla/5.0 (Windows NT 10.0; Win64; x64; rv:86.0) Gecko/20100101 Firefox/86.0,,Firefox,86,Windows,10
238,1,null,"""",image-keyboard-response,268,565636,0.0-268.0,"""",jspsych/scrambledNeutralFaces/scrambledBF12NES.JPG,"""",256,forwardMask,Test,null,250,"""",n,"""","""","""","""","""","""",1,5/3/2021 16:04,96.91.90.145,Mozilla/5.0 (Windows NT 10.0; Win64; x64; rv:86.0) Gecko/20100101 Firefox/86.0,,Firefox,86,Windows,10
238,1,null,"""",image-keyboard-response,269,565655,0.0-269.0,"""",jspsych/neutralFaces/BF12NES.JPG,"""",256,Cue,Test,null,16,"""","""","""","""","""","""","""","""",1,5/3/2021 16:04,96.91.90.145,Mozilla/5.0 (Windows NT 10.0; Win64; x64; rv:86.0) Gecko/20100101 Firefox/86.0,,Firefox,86,Windows,10
238,1,null,"""",image-keyboard-response,270,565760,0.0-270.0,"""",jspsych/neutralFaces/AF27NES.JPG,"""",256,backwardMask,Test,null,100,"""","""","""","""","""","""","""","""",1,5/3/2021 16:04,96.91.90.145,Mozilla/5.0 (Windows NT 10.0; Win64; x64; rv:86.0) Gecko/20100101 Firefox/86.0,,Firefox,86,Windows,10
238,1,null,"""",html-keyboard-response,271,566762,0.0-271.0,"""","<div style=""font-size:60px;"">+</div>","""",256,fixationBtwnNeutralMaskAndPrompt,Test,null,1000,"""","""","""","""","""","""","""","""",1,5/3/2021 16:04,96.91.90.145,Mozilla/5.0 (Windows NT 10.0; Win64; x64; rv:86.0) Gecko/20100101 Firefox/86.0,,Firefox,86,Windows,10
238,1,1588,"""",html-button-response,272,568353,0.0-272.0,"""","<img src='jspsych/CFDfaces/CFD-LF-210-220-N.jpg' height=""250px"">,</br><b>Meghan</b>",0,256,IntactOrRearranged,Test,"""","""","""","""",CFD-LM-220-329-N.jpg,Timothy,0,"""","""",0,1,5/3/2021 16:04,96.91.90.145,Mozilla/5.0 (Windows NT 10.0; Win64; x64; rv:86.0) Gecko/20100101 Firefox/86.0,,Firefox,86,Windows,10
238,1,2047,"""",html-slider-response,273,570400,0.0-273.0,"""","<img src='jspsych/CFDfaces/CFD-LF-210-220-N.jpg' height=""250px"">,</br><b>Meghan</b>","""",256,ConfidenceQuery,Test,"""","""","""","""",CFD-LM-220-329-N.jpg,Timothy,0,0,42,"""",1,5/3/2021 16:04,96.91.90.145,Mozilla/5.0 (Windows NT 10.0; Win64; x64; rv:86.0) Gecko/20100101 Firefox/86.0,,Firefox,86,Windows,10
238,1,null,"""",html-keyboard-response,274,571401,0.0-274.0,"""","<div style=""font-size:60px;"">+</div>","""",256,ITI,Test,null,1000,"""","""","""","""","""","""","""","""",1,5/3/2021 16:04,96.91.90.145,Mozilla/5.0 (Windows NT 10.0; Win64; x64; rv:86.0) Gecko/20100101 Firefox/86.0,,Firefox,86,Windows,10
238,1,null,"""",image-keyboard-response,275,571656,0.0-275.0,"""",jspsych/scrambledDisgustFaces/scrambledAF07DIS.JPG,"""",256,forwardMask,Test,null,250,"""",d,"""","""","""","""","""","""",1,5/3/2021 16:04,96.91.90.145,Mozilla/5.0 (Windows NT 10.0; Win64; x64; rv:86.0) Gecko/20100101 Firefox/86.0,,Firefox,86,Windows,10
238,1,null,"""",image-keyboard-response,276,571674,0.0-276.0,"""",jspsych/disgustFaces/AF07DIS.JPG,"""",256,Cue,Test,null,16,"""","""","""","""","""","""","""","""",1,5/3/2021 16:04,96.91.90.145,Mozilla/5.0 (Windows NT 10.0; Win64; x64; rv:86.0) Gecko/20100101 Firefox/86.0,,Firefox,86,Windows,10
238,1,null,"""",image-keyboard-response,277,571776,0.0-277.0,"""",jspsych/neutralFaces/BF20NES.JPG,"""",256,backwardMask,Test,null,100,"""","""","""","""","""","""","""","""",1,5/3/2021 16:04,96.91.90.145,Mozilla/5.0 (Windows NT 10.0; Win64; x64; rv:86.0) Gecko/20100101 Firefox/86.0,,Firefox,86,Windows,10
238,1,null,"""",html-keyboard-response,278,572777,0.0-278.0,"""","<div style=""font-size:60px;"">+</div>","""",256,fixationBtwnNeutralMaskAndPrompt,Test,null,1000,"""","""","""","""","""","""","""","""",1,5/3/2021 16:04,96.91.90.145,Mozilla/5.0 (Windows NT 10.0; Win64; x64; rv:86.0) Gecko/20100101 Firefox/86.0,,Firefox,86,Windows,10
238,1,1134,"""",html-button-response,279,573912,0.0-279.0,"""","<img src='jspsych/CFDfaces/CFD-AF-239-171-N.jpg' height=""250px"">,</br><b>Samantha</b>",1,256,IntactOrRearranged,Test,"""","""","""","""",CFD-LM-224-162-N.jpg,Jeremy,0,"""","""",1,1,5/3/2021 16:04,96.91.90.145,Mozilla/5.0 (Windows NT 10.0; Win64; x64; rv:86.0) Gecko/20100101 Firefox/86.0,,Firefox,86,Windows,10
238,1,1512,"""",html-slider-response,280,575424,0.0-280.0,"""","<img src='jspsych/CFDfaces/CFD-AF-239-171-N.jpg' height=""250px"">,</br><b>Samantha</b>","""",256,ConfidenceQuery,Test,"""","""","""","""",CFD-LM-224-162-N.jpg,Jeremy,0,0,69,"""",1,5/3/2021 16:04,96.91.90.145,Mozilla/5.0 (Windows NT 10.0; Win64; x64; rv:86.0) Gecko/20100101 Firefox/86.0,,Firefox,86,Windows,10
238,1,null,"""",html-keyboard-response,281,576425,0.0-281.0,"""","<div style=""font-size:60px;"">+</div>","""",256,ITI,Test,null,1000,"""","""","""","""","""","""","""","""",1,5/3/2021 16:04,96.91.90.145,Mozilla/5.0 (Windows NT 10.0; Win64; x64; rv:86.0) Gecko/20100101 Firefox/86.0,,Firefox,86,Windows,10
238,1,null,"""",image-keyboard-response,282,576678,0.0-282.0,"""",jspsych/scrambledNeutralFaces/scrambledAM22NES.JPG,"""",256,forwardMask,Test,null,250,"""",n,"""","""","""","""","""","""",1,5/3/2021 16:04,96.91.90.145,Mozilla/5.0 (Windows NT 10.0; Win64; x64; rv:86.0) Gecko/20100101 Firefox/86.0,,Firefox,86,Windows,10
238,1,null,"""",image-keyboard-response,283,576696,0.0-283.0,"""",jspsych/neutralFaces/AM22NES.JPG,"""",256,Cue,Test,null,16,"""","""","""","""","""","""","""","""",1,5/3/2021 16:04,96.91.90.145,Mozilla/5.0 (Windows NT 10.0; Win64; x64; rv:86.0) Gecko/20100101 Firefox/86.0,,Firefox,86,Windows,10
238,1,null,"""",image-keyboard-response,284,576799,0.0-284.0,"""",jspsych/neutralFaces/BM30NES.JPG,"""",256,backwardMask,Test,null,100,"""","""","""","""","""","""","""","""",1,5/3/2021 16:04,96.91.90.145,Mozilla/5.0 (Windows NT 10.0; Win64; x64; rv:86.0) Gecko/20100101 Firefox/86.0,,Firefox,86,Windows,10
238,1,null,"""",html-keyboard-response,285,577801,0.0-285.0,"""","<div style=""font-size:60px;"">+</div>","""",256,fixationBtwnNeutralMaskAndPrompt,Test,null,1000,"""","""","""","""","""","""","""","""",1,5/3/2021 16:04,96.91.90.145,Mozilla/5.0 (Windows NT 10.0; Win64; x64; rv:86.0) Gecko/20100101 Firefox/86.0,,Firefox,86,Windows,10
238,1,2544,"""",html-button-response,286,580352,0.0-286.0,"""","<img src='jspsych/CFDfaces/CFD-AM-228-214-N.jpg' height=""250px"">,</br><b>Eric</b>",1,256,IntactOrRearranged,Test,"""","""","""","""",CFD-AM-207-108-N.jpg,Travis,1,"""","""",1,1,5/3/2021 16:04,96.91.90.145,Mozilla/5.0 (Windows NT 10.0; Win64; x64; rv:86.0) Gecko/20100101 Firefox/86.0,,Firefox,86,Windows,10
238,1,1478,"""",html-slider-response,287,581833,0.0-287.0,"""","<img src='jspsych/CFDfaces/CFD-AM-228-214-N.jpg' height=""250px"">,</br><b>Eric</b>","""",256,ConfidenceQuery,Test,"""","""","""","""",CFD-AM-207-108-N.jpg,Travis,1,0,63,"""",1,5/3/2021 16:04,96.91.90.145,Mozilla/5.0 (Windows NT 10.0; Win64; x64; rv:86.0) Gecko/20100101 Firefox/86.0,,Firefox,86,Windows,10
238,1,null,"""",html-keyboard-response,288,582835,0.0-288.0,"""","<div style=""font-size:60px;"">+</div>","""",256,ITI,Test,null,1000,"""","""","""","""","""","""","""","""",1,5/3/2021 16:04,96.91.90.145,Mozilla/5.0 (Windows NT 10.0; Win64; x64; rv:86.0) Gecko/20100101 Firefox/86.0,,Firefox,86,Windows,10
238,1,null,"""",image-keyboard-response,289,583087,0.0-289.0,"""",jspsych/scrambledDisgustFaces/scrambledAF16DIS.JPG,"""",256,forwardMask,Test,null,250,"""",d,"""","""","""","""","""","""",1,5/3/2021 16:04,96.91.90.145,Mozilla/5.0 (Windows NT 10.0; Win64; x64; rv:86.0) Gecko/20100101 Firefox/86.0,,Firefox,86,Windows,10
238,1,null,"""",image-keyboard-response,290,583105,0.0-290.0,"""",jspsych/disgustFaces/AF16DIS.JPG,"""",256,Cue,Test,null,16,"""","""","""","""","""","""","""","""",1,5/3/2021 16:04,96.91.90.145,Mozilla/5.0 (Windows NT 10.0; Win64; x64; rv:86.0) Gecko/20100101 Firefox/86.0,,Firefox,86,Windows,10
238,1,null,"""",image-keyboard-response,291,583210,0.0-291.0,"""",jspsych/neutralFaces/BF28NES.JPG,"""",256,backwardMask,Test,null,100,"""","""","""","""","""","""","""","""",1,5/3/2021 16:04,96.91.90.145,Mozilla/5.0 (Windows NT 10.0; Win64; x64; rv:86.0) Gecko/20100101 Firefox/86.0,,Firefox,86,Windows,10
238,1,null,"""",html-keyboard-response,292,584211,0.0-292.0,"""","<div style=""font-size:60px;"">+</div>","""",256,fixationBtwnNeutralMaskAndPrompt,Test,null,1000,"""","""","""","""","""","""","""","""",1,5/3/2021 16:04,96.91.90.145,Mozilla/5.0 (Windows NT 10.0; Win64; x64; rv:86.0) Gecko/20100101 Firefox/86.0,,Firefox,86,Windows,10
238,1,2184,"""",html-button-response,293,586408,0.0-293.0,"""","<img src='jspsych/CFDfaces/CFD-WF-017-003-N.jpg' height=""250px"">,</br><b>Kimberly</b>",1,256,IntactOrRearranged,Test,"""","""","""","""",CFD-LF-205-100-N.jpg,Whitney,1,"""","""",1,1,5/3/2021 16:04,96.91.90.145,Mozilla/5.0 (Windows NT 10.0; Win64; x64; rv:86.0) Gecko/20100101 Firefox/86.0,,Firefox,86,Windows,10
238,1,1621,"""",html-slider-response,294,588033,0.0-294.0,"""","<img src='jspsych/CFDfaces/CFD-WF-017-003-N.jpg' height=""250px"">,</br><b>Kimberly</b>","""",256,ConfidenceQuery,Test,"""","""","""","""",CFD-LF-205-100-N.jpg,Whitney,1,0,70,"""",1,5/3/2021 16:04,96.91.90.145,Mozilla/5.0 (Windows NT 10.0; Win64; x64; rv:86.0) Gecko/20100101 Firefox/86.0,,Firefox,86,Windows,10
238,1,null,"""",html-keyboard-response,295,589036,0.0-295.0,"""","<div style=""font-size:60px;"">+</div>","""",256,ITI,Test,null,1000,"""","""","""","""","""","""","""","""",1,5/3/2021 16:04,96.91.90.145,Mozilla/5.0 (Windows NT 10.0; Win64; x64; rv:86.0) Gecko/20100101 Firefox/86.0,,Firefox,86,Windows,10
238,1,null,"""",image-keyboard-response,296,589291,0.0-296.0,"""",jspsych/scrambledDisgustFaces/scrambledAM05DIS.JPG,"""",256,forwardMask,Test,null,250,"""",d,"""","""","""","""","""","""",1,5/3/2021 16:04,96.91.90.145,Mozilla/5.0 (Windows NT 10.0; Win64; x64; rv:86.0) Gecko/20100101 Firefox/86.0,,Firefox,86,Windows,10
238,1,null,"""",image-keyboard-response,297,589308,0.0-297.0,"""",jspsych/disgustFaces/AM05DIS.JPG,"""",256,Cue,Test,null,16,"""","""","""","""","""","""","""","""",1,5/3/2021 16:04,96.91.90.145,Mozilla/5.0 (Windows NT 10.0; Win64; x64; rv:86.0) Gecko/20100101 Firefox/86.0,,Firefox,86,Windows,10
