run_id,condition,rt,responses,trial_type,trial_index,time_elapsed,internal_node_id,question_order,stimulus,button_pressed,iTrial,Phase,ExperimentPhase,key_press,StimulusDurationSetting,CharacterResponse,correctResponse,Face,Name,rearranged,didSubjectEnterRearranged,slider_start,response,Block,recorded_at,ip,user_agent,device,browser,browser_version,platform,platform_version
132,1,7657,"{""Q0"":""A2UYXRPN41PLQE""}",survey-text,0,7665,0.0-0.0,"""","""","""","""","""","""","""","""","""","""","""","""","""","""","""","""","""",4/25/2021 4:41,104.190.173.154,Mozilla/5.0 (Windows NT 10.0; Win64; x64; rv:88.0) Gecko/20100101 Firefox/88.0,,Firefox,88,Windows,10
132,1,2702,"{""Q0"":""27""}",survey-text,1,10405,0.0-1.0,"""","""","""","""","""","""","""","""","""","""","""","""","""","""","""","""","""",4/25/2021 4:41,104.190.173.154,Mozilla/5.0 (Windows NT 10.0; Win64; x64; rv:88.0) Gecko/20100101 Firefox/88.0,,Firefox,88,Windows,10
132,1,10286,"{""Q0"":""male"",""Q1"":""Hispanic/Latino"",""Q2"":""Other""}",survey-multi-choice,2,20703,0.0-2.0,"[0,1,2]","""","""","""","""","""","""","""","""","""","""","""","""","""","""","""","""",4/25/2021 4:41,104.190.173.154,Mozilla/5.0 (Windows NT 10.0; Win64; x64; rv:88.0) Gecko/20100101 Firefox/88.0,,Firefox,88,Windows,10
132,1,5421,"""",image-button-response,3,26180,0.0-3.0,"""",directionsMemoryAssociation1.JPG,0,1,IntroDirections1,break,"""","""","""","""","""","""","""","""","""","""","""",4/25/2021 4:41,104.190.173.154,Mozilla/5.0 (Windows NT 10.0; Win64; x64; rv:88.0) Gecko/20100101 Firefox/88.0,,Firefox,88,Windows,10
132,1,20281,"""",image-button-response,4,46499,0.0-4.0,"""",directionsMemoryAssociation2.JPG,0,1,IntroDirections2,break,"""","""","""","""","""","""","""","""","""","""","""",4/25/2021 4:41,104.190.173.154,Mozilla/5.0 (Windows NT 10.0; Win64; x64; rv:88.0) Gecko/20100101 Firefox/88.0,,Firefox,88,Windows,10
132,1,2664,"""",html-keyboard-response,5,51535,0.0-5.0,"""","<img src='jspsych/CFDfaces/CFD-BM-210-148-N.jpg' height=""250px"">,</br><b>Carlos</b>","""",1,IntactFace,Practice,78,5000,n,"""","""","""","""","""","""","""","""",4/25/2021 4:41,104.190.173.154,Mozilla/5.0 (Windows NT 10.0; Win64; x64; rv:88.0) Gecko/20100101 Firefox/88.0,,Firefox,88,Windows,10
132,1,null,"""",html-keyboard-response,6,52050,0.0-6.0,"""","<div style=""font-size:60px;"">+</div>","""",1,ITI,Practice,null,1000,"""","""","""","""","""","""","""","""","""",4/25/2021 4:41,104.190.173.154,Mozilla/5.0 (Windows NT 10.0; Win64; x64; rv:88.0) Gecko/20100101 Firefox/88.0,,Firefox,88,Windows,10
132,1,3383,"""",html-keyboard-response,7,57076,0.0-7.0,"""","<img src='jspsych/CFDfaces/CFD-WF-200-099-N.jpg' height=""250px"">,</br><b>Katelyn</b>","""",2,IntactFace,Practice,70,5000,f,"""","""","""","""","""","""","""","""",4/25/2021 4:41,104.190.173.154,Mozilla/5.0 (Windows NT 10.0; Win64; x64; rv:88.0) Gecko/20100101 Firefox/88.0,,Firefox,88,Windows,10
132,1,null,"""",html-keyboard-response,8,57586,0.0-8.0,"""","<div style=""font-size:60px;"">+</div>","""",2,ITI,Practice,null,1000,"""","""","""","""","""","""","""","""","""",4/25/2021 4:41,104.190.173.154,Mozilla/5.0 (Windows NT 10.0; Win64; x64; rv:88.0) Gecko/20100101 Firefox/88.0,,Firefox,88,Windows,10
132,1,1152,"""",html-keyboard-response,9,62615,0.0-9.0,"""","<img src='jspsych/CFDfaces/CFD-BF-016-017-N.jpg' height=""250px"">,</br><b>Tara</b>","""",3,IntactFace,Practice,70,5000,f,"""","""","""","""","""","""","""","""",4/25/2021 4:41,104.190.173.154,Mozilla/5.0 (Windows NT 10.0; Win64; x64; rv:88.0) Gecko/20100101 Firefox/88.0,,Firefox,88,Windows,10
132,1,null,"""",html-keyboard-response,10,63125,0.0-10.0,"""","<div style=""font-size:60px;"">+</div>","""",3,ITI,Practice,null,1000,"""","""","""","""","""","""","""","""","""",4/25/2021 4:41,104.190.173.154,Mozilla/5.0 (Windows NT 10.0; Win64; x64; rv:88.0) Gecko/20100101 Firefox/88.0,,Firefox,88,Windows,10
132,1,1486,"""",html-keyboard-response,11,68155,0.0-11.0,"""","<img src='jspsych/CFDfaces/CFD-BF-047-003-N.jpg' height=""250px"">,</br><b>Cassandra</b>","""",4,IntactFace,Practice,78,5000,n,"""","""","""","""","""","""","""","""",4/25/2021 4:41,104.190.173.154,Mozilla/5.0 (Windows NT 10.0; Win64; x64; rv:88.0) Gecko/20100101 Firefox/88.0,,Firefox,88,Windows,10
132,1,null,"""",html-keyboard-response,12,68673,0.0-12.0,"""","<div style=""font-size:60px;"">+</div>","""",4,ITI,Practice,null,1000,"""","""","""","""","""","""","""","""","""",4/25/2021 4:41,104.190.173.154,Mozilla/5.0 (Windows NT 10.0; Win64; x64; rv:88.0) Gecko/20100101 Firefox/88.0,,Firefox,88,Windows,10
132,1,2048,"""",html-keyboard-response,13,73711,0.0-13.0,"""","<img src='jspsych/CFDfaces/CFD-AM-231-136-N.jpg' height=""250px"">,</br><b>Samuel</b>","""",5,IntactFace,Practice,70,5000,f,"""","""","""","""","""","""","""","""",4/25/2021 4:41,104.190.173.154,Mozilla/5.0 (Windows NT 10.0; Win64; x64; rv:88.0) Gecko/20100101 Firefox/88.0,,Firefox,88,Windows,10
132,1,null,"""",html-keyboard-response,14,74216,0.0-14.0,"""","<div style=""font-size:60px;"">+</div>","""",5,ITI,Practice,null,1000,"""","""","""","""","""","""","""","""","""",4/25/2021 4:41,104.190.173.154,Mozilla/5.0 (Windows NT 10.0; Win64; x64; rv:88.0) Gecko/20100101 Firefox/88.0,,Firefox,88,Windows,10
132,1,1378,"""",html-keyboard-response,15,79241,0.0-15.0,"""","<img src='jspsych/CFDfaces/CFD-WF-017-003-N.jpg' height=""250px"">,</br><b>Shannon</b>","""",6,IntactFace,Practice,70,5000,f,"""","""","""","""","""","""","""","""",4/25/2021 4:41,104.190.173.154,Mozilla/5.0 (Windows NT 10.0; Win64; x64; rv:88.0) Gecko/20100101 Firefox/88.0,,Firefox,88,Windows,10
132,1,null,"""",html-keyboard-response,16,79755,0.0-16.0,"""","<div style=""font-size:60px;"">+</div>","""",6,ITI,Practice,null,1000,"""","""","""","""","""","""","""","""","""",4/25/2021 4:41,104.190.173.154,Mozilla/5.0 (Windows NT 10.0; Win64; x64; rv:88.0) Gecko/20100101 Firefox/88.0,,Firefox,88,Windows,10
132,1,1133,"""",html-keyboard-response,17,84767,0.0-17.0,"""","<img src='jspsych/CFDfaces/CFD-BM-011-016-N.jpg' height=""250px"">,</br><b>Marcus</b>","""",7,IntactFace,Practice,70,5000,f,"""","""","""","""","""","""","""","""",4/25/2021 4:41,104.190.173.154,Mozilla/5.0 (Windows NT 10.0; Win64; x64; rv:88.0) Gecko/20100101 Firefox/88.0,,Firefox,88,Windows,10
132,1,null,"""",html-keyboard-response,18,85277,0.0-18.0,"""","<div style=""font-size:60px;"">+</div>","""",7,ITI,Practice,null,1000,"""","""","""","""","""","""","""","""","""",4/25/2021 4:41,104.190.173.154,Mozilla/5.0 (Windows NT 10.0; Win64; x64; rv:88.0) Gecko/20100101 Firefox/88.0,,Firefox,88,Windows,10
132,1,1563,"""",html-keyboard-response,19,90294,0.0-19.0,"""","<img src='jspsych/CFDfaces/CFD-AM-242-176-N.jpg' height=""250px"">,</br><b>Patrick</b>","""",8,IntactFace,Practice,70,5000,f,"""","""","""","""","""","""","""","""",4/25/2021 4:41,104.190.173.154,Mozilla/5.0 (Windows NT 10.0; Win64; x64; rv:88.0) Gecko/20100101 Firefox/88.0,,Firefox,88,Windows,10
132,1,null,"""",html-keyboard-response,20,90799,0.0-20.0,"""","<div style=""font-size:60px;"">+</div>","""",8,ITI,Practice,null,1000,"""","""","""","""","""","""","""","""","""",4/25/2021 4:41,104.190.173.154,Mozilla/5.0 (Windows NT 10.0; Win64; x64; rv:88.0) Gecko/20100101 Firefox/88.0,,Firefox,88,Windows,10
132,1,3514,"""",image-button-response,21,94354,0.0-21.0,"""",directionsForTest.JPG,0,1,directionsForTest,break,"""","""","""","""","""","""","""","""","""","""","""",4/25/2021 4:41,104.190.173.154,Mozilla/5.0 (Windows NT 10.0; Win64; x64; rv:88.0) Gecko/20100101 Firefox/88.0,,Firefox,88,Windows,10
132,1,1863,"""",image-button-response,22,96250,0.0-22.0,"""",directionsForTest2.JPG,0,1,directionsForTest2,break,"""","""","""","""","""","""","""","""","""","""","""",4/25/2021 4:41,104.190.173.154,Mozilla/5.0 (Windows NT 10.0; Win64; x64; rv:88.0) Gecko/20100101 Firefox/88.0,,Firefox,88,Windows,10
132,1,null,"""",html-keyboard-response,23,97270,0.0-23.0,"""","<div style=""font-size:60px;"">+</div>","""",1,ITI,Practice,null,1000,"""","""","""","""","""","""","""","""","""",4/25/2021 4:41,104.190.173.154,Mozilla/5.0 (Windows NT 10.0; Win64; x64; rv:88.0) Gecko/20100101 Firefox/88.0,,Firefox,88,Windows,10
132,1,null,"""",image-keyboard-response,24,97529,0.0-24.0,"""",jspsych/scrambledDisgustFaces/scrambledAM20DIS.JPG,"""",1,forwardMask,Practice,null,250,"""",d,"""","""","""","""","""","""","""",4/25/2021 4:41,104.190.173.154,Mozilla/5.0 (Windows NT 10.0; Win64; x64; rv:88.0) Gecko/20100101 Firefox/88.0,,Firefox,88,Windows,10
132,1,null,"""",image-keyboard-response,25,97555,0.0-25.0,"""",jspsych/disgustFaces/AM20DIS.JPG,"""",1,Cue,Practice,null,16,"""","""","""","""","""","""","""","""","""",4/25/2021 4:41,104.190.173.154,Mozilla/5.0 (Windows NT 10.0; Win64; x64; rv:88.0) Gecko/20100101 Firefox/88.0,,Firefox,88,Windows,10
132,1,null,"""",image-keyboard-response,26,97669,0.0-26.0,"""",jspsych/neutralFaces/AM29NES.JPG,"""",1,backwardMask,Practice,null,100,"""","""","""","""","""","""","""","""","""",4/25/2021 4:41,104.190.173.154,Mozilla/5.0 (Windows NT 10.0; Win64; x64; rv:88.0) Gecko/20100101 Firefox/88.0,,Firefox,88,Windows,10
132,1,null,"""",html-keyboard-response,27,98674,0.0-27.0,"""","<div style=""font-size:60px;"">+</div>","""",1,fixationBtwnNeutralMaskAndPrompt,Practice,null,1000,"""","""","""","""","""","""","""","""","""",4/25/2021 4:41,104.190.173.154,Mozilla/5.0 (Windows NT 10.0; Win64; x64; rv:88.0) Gecko/20100101 Firefox/88.0,,Firefox,88,Windows,10
132,1,3251,"""",html-button-response,28,101931,0.0-28.0,"""","<img src='jspsych/CFDfaces/CFD-WF-200-099-N.jpg'height=""250px""></br><b>Cassandra</b>",0,1,IntactOrRearranged,Practice,"""","""","""","""",CFD-WF-200-099-N.jpg,Cassandra,1,0,"""","""","""",4/25/2021 4:41,104.190.173.154,Mozilla/5.0 (Windows NT 10.0; Win64; x64; rv:88.0) Gecko/20100101 Firefox/88.0,,Firefox,88,Windows,10
132,1,3934,"""",html-slider-response,29,105899,0.0-29.0,"""","<img src='jspsych/CFDfaces/CFD-WF-200-099-N.jpg'height=""250px""></br><b>Cassandra</b>","""",1,ConfidenceQuery,Practice,"""","""","""","""",CFD-WM-207-048-N.jpg,Dustin,1,"""",0,100,"""",4/25/2021 4:41,104.190.173.154,Mozilla/5.0 (Windows NT 10.0; Win64; x64; rv:88.0) Gecko/20100101 Firefox/88.0,,Firefox,88,Windows,10
132,1,1198,"""",html-button-response,30,107106,0.0-30.0,"""",You are Incorrect. You called a Rearranged Pair Intact,0,1,feedback,Practice,"""","""","""","""","""","""","""","""","""","""","""",4/25/2021 4:41,104.190.173.154,Mozilla/5.0 (Windows NT 10.0; Win64; x64; rv:88.0) Gecko/20100101 Firefox/88.0,,Firefox,88,Windows,10
132,1,null,"""",html-keyboard-response,31,108125,0.0-31.0,"""","<div style=""font-size:60px;"">+</div>","""",2,ITI,Practice,null,1000,"""","""","""","""","""","""","""","""","""",4/25/2021 4:41,104.190.173.154,Mozilla/5.0 (Windows NT 10.0; Win64; x64; rv:88.0) Gecko/20100101 Firefox/88.0,,Firefox,88,Windows,10
132,1,null,"""",image-keyboard-response,32,108402,0.0-32.0,"""",jspsych/scrambledNeutralFaces/scrambledBM10NES.JPG,"""",2,forwardMask,Practice,null,250,"""",n,"""","""","""","""","""","""","""",4/25/2021 4:41,104.190.173.154,Mozilla/5.0 (Windows NT 10.0; Win64; x64; rv:88.0) Gecko/20100101 Firefox/88.0,,Firefox,88,Windows,10
132,1,null,"""",image-keyboard-response,33,108433,0.0-33.0,"""",jspsych/neutralFaces/BM10NES.JPG,"""",2,Cue,Practice,null,16,"""","""","""","""","""","""","""","""","""",4/25/2021 4:41,104.190.173.154,Mozilla/5.0 (Windows NT 10.0; Win64; x64; rv:88.0) Gecko/20100101 Firefox/88.0,,Firefox,88,Windows,10
132,1,null,"""",image-keyboard-response,34,108544,0.0-34.0,"""",jspsych/neutralFaces/BM25NES.JPG,"""",2,backwardMask,Practice,null,100,"""","""","""","""","""","""","""","""","""",4/25/2021 4:41,104.190.173.154,Mozilla/5.0 (Windows NT 10.0; Win64; x64; rv:88.0) Gecko/20100101 Firefox/88.0,,Firefox,88,Windows,10
132,1,null,"""",html-keyboard-response,35,109549,0.0-35.0,"""","<div style=""font-size:60px;"">+</div>","""",2,fixationBtwnNeutralMaskAndPrompt,Practice,null,1000,"""","""","""","""","""","""","""","""","""",4/25/2021 4:41,104.190.173.154,Mozilla/5.0 (Windows NT 10.0; Win64; x64; rv:88.0) Gecko/20100101 Firefox/88.0,,Firefox,88,Windows,10
132,1,2314,"""",html-button-response,36,111867,0.0-36.0,"""","<img src='jspsych/CFDfaces/CFD-BF-047-003-N.jpg'height=""250px""></br><b>Katelyn</b>",1,2,IntactOrRearranged,Practice,"""","""","""","""",CFD-BF-047-003-N.jpg,Katelyn,1,1,"""","""","""",4/25/2021 4:41,104.190.173.154,Mozilla/5.0 (Windows NT 10.0; Win64; x64; rv:88.0) Gecko/20100101 Firefox/88.0,,Firefox,88,Windows,10
132,1,1444,"""",html-slider-response,37,113322,0.0-37.0,"""","<img src='jspsych/CFDfaces/CFD-BF-047-003-N.jpg'height=""250px""></br><b>Katelyn</b>","""",2,ConfidenceQuery,Practice,"""","""","""","""",CFD-WM-207-048-N.jpg,Dustin,1,"""",0,50,"""",4/25/2021 4:41,104.190.173.154,Mozilla/5.0 (Windows NT 10.0; Win64; x64; rv:88.0) Gecko/20100101 Firefox/88.0,,Firefox,88,Windows,10
132,1,946,"""",html-button-response,38,114274,0.0-38.0,"""",You are Correct. You Called A Rearranged Pair Rearranged,0,2,feedback,Practice,"""","""","""","""","""","""","""","""","""","""","""",4/25/2021 4:41,104.190.173.154,Mozilla/5.0 (Windows NT 10.0; Win64; x64; rv:88.0) Gecko/20100101 Firefox/88.0,,Firefox,88,Windows,10
132,1,null,"""",html-keyboard-response,39,115286,0.0-39.0,"""","<div style=""font-size:60px;"">+</div>","""",3,ITI,Practice,null,1000,"""","""","""","""","""","""","""","""","""",4/25/2021 4:41,104.190.173.154,Mozilla/5.0 (Windows NT 10.0; Win64; x64; rv:88.0) Gecko/20100101 Firefox/88.0,,Firefox,88,Windows,10
132,1,null,"""",image-keyboard-response,40,115546,0.0-40.0,"""",jspsych/scrambledNeutralFaces/scrambledBF16NES.JPG,"""",3,forwardMask,Practice,null,250,"""",n,"""","""","""","""","""","""","""",4/25/2021 4:41,104.190.173.154,Mozilla/5.0 (Windows NT 10.0; Win64; x64; rv:88.0) Gecko/20100101 Firefox/88.0,,Firefox,88,Windows,10
132,1,null,"""",image-keyboard-response,41,115578,0.0-41.0,"""",jspsych/neutralFaces/BF16NES.JPG,"""",3,Cue,Practice,null,16,"""","""","""","""","""","""","""","""","""",4/25/2021 4:41,104.190.173.154,Mozilla/5.0 (Windows NT 10.0; Win64; x64; rv:88.0) Gecko/20100101 Firefox/88.0,,Firefox,88,Windows,10
132,1,null,"""",image-keyboard-response,42,115700,0.0-42.0,"""",jspsych/neutralFaces/AF24NES.JPG,"""",3,backwardMask,Practice,null,100,"""","""","""","""","""","""","""","""","""",4/25/2021 4:41,104.190.173.154,Mozilla/5.0 (Windows NT 10.0; Win64; x64; rv:88.0) Gecko/20100101 Firefox/88.0,,Firefox,88,Windows,10
132,1,null,"""",html-keyboard-response,43,116711,0.0-43.0,"""","<div style=""font-size:60px;"">+</div>","""",3,fixationBtwnNeutralMaskAndPrompt,Practice,null,1000,"""","""","""","""","""","""","""","""","""",4/25/2021 4:41,104.190.173.154,Mozilla/5.0 (Windows NT 10.0; Win64; x64; rv:88.0) Gecko/20100101 Firefox/88.0,,Firefox,88,Windows,10
132,1,1515,"""",html-button-response,44,118229,0.0-44.0,"""","<img src='jspsych/CFDfaces/CFD-BF-016-017-N.jpg'height=""250px""></br><b>Tara</b>",0,3,IntactOrRearranged,Practice,"""","""","""","""",CFD-BF-016-017-N.jpg,Tara,0,0,"""","""","""",4/25/2021 4:41,104.190.173.154,Mozilla/5.0 (Windows NT 10.0; Win64; x64; rv:88.0) Gecko/20100101 Firefox/88.0,,Firefox,88,Windows,10
132,1,1170,"""",html-slider-response,45,119411,0.0-45.0,"""","<img src='jspsych/CFDfaces/CFD-BF-016-017-N.jpg'height=""250px""></br><b>Tara</b>","""",3,ConfidenceQuery,Practice,"""","""","""","""",CFD-WM-207-048-N.jpg,Dustin,0,"""",0,100,"""",4/25/2021 4:41,104.190.173.154,Mozilla/5.0 (Windows NT 10.0; Win64; x64; rv:88.0) Gecko/20100101 Firefox/88.0,,Firefox,88,Windows,10
132,1,1129,"""",html-button-response,46,120546,0.0-46.0,"""",You are Correct. You called an Intact Pair Intact,0,3,feedback,Practice,"""","""","""","""","""","""","""","""","""","""","""",4/25/2021 4:41,104.190.173.154,Mozilla/5.0 (Windows NT 10.0; Win64; x64; rv:88.0) Gecko/20100101 Firefox/88.0,,Firefox,88,Windows,10
132,1,null,"""",html-keyboard-response,47,121565,0.0-47.0,"""","<div style=""font-size:60px;"">+</div>","""",4,ITI,Practice,null,1000,"""","""","""","""","""","""","""","""","""",4/25/2021 4:41,104.190.173.154,Mozilla/5.0 (Windows NT 10.0; Win64; x64; rv:88.0) Gecko/20100101 Firefox/88.0,,Firefox,88,Windows,10
132,1,null,"""",image-keyboard-response,48,121828,0.0-48.0,"""",jspsych/scrambledNeutralFaces/scrambledBM08NES.JPG,"""",4,forwardMask,Practice,null,250,"""",n,"""","""","""","""","""","""","""",4/25/2021 4:41,104.190.173.154,Mozilla/5.0 (Windows NT 10.0; Win64; x64; rv:88.0) Gecko/20100101 Firefox/88.0,,Firefox,88,Windows,10
132,1,null,"""",image-keyboard-response,49,121859,0.0-49.0,"""",jspsych/neutralFaces/BM08NES.JPG,"""",4,Cue,Practice,null,16,"""","""","""","""","""","""","""","""","""",4/25/2021 4:41,104.190.173.154,Mozilla/5.0 (Windows NT 10.0; Win64; x64; rv:88.0) Gecko/20100101 Firefox/88.0,,Firefox,88,Windows,10
132,1,null,"""",image-keyboard-response,50,121981,0.0-50.0,"""",jspsych/neutralFaces/AM33NES.JPG,"""",4,backwardMask,Practice,null,100,"""","""","""","""","""","""","""","""","""",4/25/2021 4:41,104.190.173.154,Mozilla/5.0 (Windows NT 10.0; Win64; x64; rv:88.0) Gecko/20100101 Firefox/88.0,,Firefox,88,Windows,10
132,1,null,"""",html-keyboard-response,51,122983,0.0-51.0,"""","<div style=""font-size:60px;"">+</div>","""",4,fixationBtwnNeutralMaskAndPrompt,Practice,null,1000,"""","""","""","""","""","""","""","""","""",4/25/2021 4:41,104.190.173.154,Mozilla/5.0 (Windows NT 10.0; Win64; x64; rv:88.0) Gecko/20100101 Firefox/88.0,,Firefox,88,Windows,10
132,1,1026,"""",html-button-response,52,124014,0.0-52.0,"""","<img src='jspsych/CFDfaces/CFD-AM-242-176-N.jpg'height=""250px""></br><b>Patrick</b>",0,4,IntactOrRearranged,Practice,"""","""","""","""",CFD-AM-242-176-N.jpg,Patrick,0,0,"""","""","""",4/25/2021 4:41,104.190.173.154,Mozilla/5.0 (Windows NT 10.0; Win64; x64; rv:88.0) Gecko/20100101 Firefox/88.0,,Firefox,88,Windows,10
132,1,1329,"""",html-slider-response,53,125357,0.0-53.0,"""","<img src='jspsych/CFDfaces/CFD-AM-242-176-N.jpg'height=""250px""></br><b>Patrick</b>","""",4,ConfidenceQuery,Practice,"""","""","""","""",CFD-WM-207-048-N.jpg,Dustin,0,"""",0,100,"""",4/25/2021 4:41,104.190.173.154,Mozilla/5.0 (Windows NT 10.0; Win64; x64; rv:88.0) Gecko/20100101 Firefox/88.0,,Firefox,88,Windows,10
132,1,937,"""",html-button-response,54,126307,0.0-54.0,"""",You are Correct. You called an Intact Pair Intact,0,4,feedback,Practice,"""","""","""","""","""","""","""","""","""","""","""",4/25/2021 4:41,104.190.173.154,Mozilla/5.0 (Windows NT 10.0; Win64; x64; rv:88.0) Gecko/20100101 Firefox/88.0,,Firefox,88,Windows,10
132,1,null,"""",html-keyboard-response,55,127359,0.0-55.0,"""","<div style=""font-size:60px;"">+</div>","""",5,ITI,Practice,null,1000,"""","""","""","""","""","""","""","""","""",4/25/2021 4:41,104.190.173.154,Mozilla/5.0 (Windows NT 10.0; Win64; x64; rv:88.0) Gecko/20100101 Firefox/88.0,,Firefox,88,Windows,10
132,1,null,"""",image-keyboard-response,56,127623,0.0-56.0,"""",jspsych/scrambledNeutralFaces/scrambledBF35NES.JPG,"""",5,forwardMask,Practice,null,250,"""",n,"""","""","""","""","""","""","""",4/25/2021 4:41,104.190.173.154,Mozilla/5.0 (Windows NT 10.0; Win64; x64; rv:88.0) Gecko/20100101 Firefox/88.0,,Firefox,88,Windows,10
132,1,null,"""",image-keyboard-response,57,127653,0.0-57.0,"""",jspsych/neutralFaces/BF35NES.JPG,"""",5,Cue,Practice,null,16,"""","""","""","""","""","""","""","""","""",4/25/2021 4:41,104.190.173.154,Mozilla/5.0 (Windows NT 10.0; Win64; x64; rv:88.0) Gecko/20100101 Firefox/88.0,,Firefox,88,Windows,10
132,1,null,"""",image-keyboard-response,58,127767,0.0-58.0,"""",jspsych/neutralFaces/BF33NES.JPG,"""",5,backwardMask,Practice,null,100,"""","""","""","""","""","""","""","""","""",4/25/2021 4:41,104.190.173.154,Mozilla/5.0 (Windows NT 10.0; Win64; x64; rv:88.0) Gecko/20100101 Firefox/88.0,,Firefox,88,Windows,10
132,1,null,"""",html-keyboard-response,59,128772,0.0-59.0,"""","<div style=""font-size:60px;"">+</div>","""",5,fixationBtwnNeutralMaskAndPrompt,Practice,null,1000,"""","""","""","""","""","""","""","""","""",4/25/2021 4:41,104.190.173.154,Mozilla/5.0 (Windows NT 10.0; Win64; x64; rv:88.0) Gecko/20100101 Firefox/88.0,,Firefox,88,Windows,10
132,1,1409,"""",html-button-response,60,130187,0.0-60.0,"""","<img src='jspsych/CFDfaces/CFD-WF-017-003-N.jpg'height=""250px""></br><b>Shannon</b>",0,5,IntactOrRearranged,Practice,"""","""","""","""",CFD-WF-017-003-N.jpg,Shannon,0,0,"""","""","""",4/25/2021 4:41,104.190.173.154,Mozilla/5.0 (Windows NT 10.0; Win64; x64; rv:88.0) Gecko/20100101 Firefox/88.0,,Firefox,88,Windows,10
132,1,1582,"""",html-slider-response,61,131779,0.0-61.0,"""","<img src='jspsych/CFDfaces/CFD-WF-017-003-N.jpg'height=""250px""></br><b>Shannon</b>","""",5,ConfidenceQuery,Practice,"""","""","""","""",CFD-WM-207-048-N.jpg,Dustin,0,"""",0,100,"""",4/25/2021 4:41,104.190.173.154,Mozilla/5.0 (Windows NT 10.0; Win64; x64; rv:88.0) Gecko/20100101 Firefox/88.0,,Firefox,88,Windows,10
132,1,838,"""",html-button-response,62,132634,0.0-62.0,"""",You are Correct. You called an Intact Pair Intact,0,5,feedback,Practice,"""","""","""","""","""","""","""","""","""","""","""",4/25/2021 4:41,104.190.173.154,Mozilla/5.0 (Windows NT 10.0; Win64; x64; rv:88.0) Gecko/20100101 Firefox/88.0,,Firefox,88,Windows,10
132,1,null,"""",html-keyboard-response,63,133656,0.0-63.0,"""","<div style=""font-size:60px;"">+</div>","""",6,ITI,Practice,null,1000,"""","""","""","""","""","""","""","""","""",4/25/2021 4:41,104.190.173.154,Mozilla/5.0 (Windows NT 10.0; Win64; x64; rv:88.0) Gecko/20100101 Firefox/88.0,,Firefox,88,Windows,10
132,1,null,"""",image-keyboard-response,64,133916,0.0-64.0,"""",jspsych/scrambledNeutralFaces/scrambledAM09NES.JPG,"""",6,forwardMask,Practice,null,250,"""",n,"""","""","""","""","""","""","""",4/25/2021 4:41,104.190.173.154,Mozilla/5.0 (Windows NT 10.0; Win64; x64; rv:88.0) Gecko/20100101 Firefox/88.0,,Firefox,88,Windows,10
132,1,null,"""",image-keyboard-response,65,133946,0.0-65.0,"""",jspsych/neutralFaces/AM09NES.JPG,"""",6,Cue,Practice,null,16,"""","""","""","""","""","""","""","""","""",4/25/2021 4:41,104.190.173.154,Mozilla/5.0 (Windows NT 10.0; Win64; x64; rv:88.0) Gecko/20100101 Firefox/88.0,,Firefox,88,Windows,10
132,1,null,"""",image-keyboard-response,66,134057,0.0-66.0,"""",jspsych/neutralFaces/AM21NES.JPG,"""",6,backwardMask,Practice,null,100,"""","""","""","""","""","""","""","""","""",4/25/2021 4:41,104.190.173.154,Mozilla/5.0 (Windows NT 10.0; Win64; x64; rv:88.0) Gecko/20100101 Firefox/88.0,,Firefox,88,Windows,10
132,1,null,"""",html-keyboard-response,67,135072,0.0-67.0,"""","<div style=""font-size:60px;"">+</div>","""",6,fixationBtwnNeutralMaskAndPrompt,Practice,null,1000,"""","""","""","""","""","""","""","""","""",4/25/2021 4:41,104.190.173.154,Mozilla/5.0 (Windows NT 10.0; Win64; x64; rv:88.0) Gecko/20100101 Firefox/88.0,,Firefox,88,Windows,10
132,1,3102,"""",html-button-response,68,138180,0.0-68.0,"""","<img src='jspsych/CFDfaces/CFD-BM-210-148-N.jpg'height=""250px""></br><b>Marcus</b>",0,6,IntactOrRearranged,Practice,"""","""","""","""",CFD-BM-210-148-N.jpg,Marcus,1,0,"""","""","""",4/25/2021 4:41,104.190.173.154,Mozilla/5.0 (Windows NT 10.0; Win64; x64; rv:88.0) Gecko/20100101 Firefox/88.0,,Firefox,88,Windows,10
132,1,2041,"""",html-slider-response,69,140243,0.0-69.0,"""","<img src='jspsych/CFDfaces/CFD-BM-210-148-N.jpg'height=""250px""></br><b>Marcus</b>","""",6,ConfidenceQuery,Practice,"""","""","""","""",CFD-WM-207-048-N.jpg,Dustin,1,"""",0,51,"""",4/25/2021 4:41,104.190.173.154,Mozilla/5.0 (Windows NT 10.0; Win64; x64; rv:88.0) Gecko/20100101 Firefox/88.0,,Firefox,88,Windows,10
132,1,785,"""",html-button-response,70,141033,0.0-70.0,"""",You are Incorrect. You called a Rearranged Pair Intact,0,6,feedback,Practice,"""","""","""","""","""","""","""","""","""","""","""",4/25/2021 4:41,104.190.173.154,Mozilla/5.0 (Windows NT 10.0; Win64; x64; rv:88.0) Gecko/20100101 Firefox/88.0,,Firefox,88,Windows,10
132,1,null,"""",html-keyboard-response,71,142049,0.0-71.0,"""","<div style=""font-size:60px;"">+</div>","""",7,ITI,Practice,null,1000,"""","""","""","""","""","""","""","""","""",4/25/2021 4:41,104.190.173.154,Mozilla/5.0 (Windows NT 10.0; Win64; x64; rv:88.0) Gecko/20100101 Firefox/88.0,,Firefox,88,Windows,10
132,1,null,"""",image-keyboard-response,72,142316,0.0-72.0,"""",jspsych/scrambledDisgustFaces/scrambledAF19DIS.JPG,"""",7,forwardMask,Practice,null,250,"""",d,"""","""","""","""","""","""","""",4/25/2021 4:41,104.190.173.154,Mozilla/5.0 (Windows NT 10.0; Win64; x64; rv:88.0) Gecko/20100101 Firefox/88.0,,Firefox,88,Windows,10
132,1,null,"""",image-keyboard-response,73,142346,0.0-73.0,"""",jspsych/disgustFaces/AF19DIS.JPG,"""",7,Cue,Practice,null,16,"""","""","""","""","""","""","""","""","""",4/25/2021 4:41,104.190.173.154,Mozilla/5.0 (Windows NT 10.0; Win64; x64; rv:88.0) Gecko/20100101 Firefox/88.0,,Firefox,88,Windows,10
132,1,null,"""",image-keyboard-response,74,142470,0.0-74.0,"""",jspsych/neutralFaces/AF27NES.JPG,"""",7,backwardMask,Practice,null,100,"""","""","""","""","""","""","""","""","""",4/25/2021 4:41,104.190.173.154,Mozilla/5.0 (Windows NT 10.0; Win64; x64; rv:88.0) Gecko/20100101 Firefox/88.0,,Firefox,88,Windows,10
132,1,null,"""",html-keyboard-response,75,143473,0.0-75.0,"""","<div style=""font-size:60px;"">+</div>","""",7,fixationBtwnNeutralMaskAndPrompt,Practice,null,1000,"""","""","""","""","""","""","""","""","""",4/25/2021 4:41,104.190.173.154,Mozilla/5.0 (Windows NT 10.0; Win64; x64; rv:88.0) Gecko/20100101 Firefox/88.0,,Firefox,88,Windows,10
132,1,1317,"""",html-button-response,76,144794,0.0-76.0,"""","<img src='jspsych/CFDfaces/CFD-AM-231-136-N.jpg'height=""250px""></br><b>Samuel</b>",0,7,IntactOrRearranged,Practice,"""","""","""","""",CFD-AM-231-136-N.jpg,Samuel,0,0,"""","""","""",4/25/2021 4:41,104.190.173.154,Mozilla/5.0 (Windows NT 10.0; Win64; x64; rv:88.0) Gecko/20100101 Firefox/88.0,,Firefox,88,Windows,10
132,1,1907,"""",html-slider-response,77,146723,0.0-77.0,"""","<img src='jspsych/CFDfaces/CFD-AM-231-136-N.jpg'height=""250px""></br><b>Samuel</b>","""",7,ConfidenceQuery,Practice,"""","""","""","""",CFD-WM-207-048-N.jpg,Dustin,0,"""",0,100,"""",4/25/2021 4:41,104.190.173.154,Mozilla/5.0 (Windows NT 10.0; Win64; x64; rv:88.0) Gecko/20100101 Firefox/88.0,,Firefox,88,Windows,10
132,1,1418,"""",html-button-response,78,148145,0.0-78.0,"""",You are Correct. You called an Intact Pair Intact,0,7,feedback,Practice,"""","""","""","""","""","""","""","""","""","""","""",4/25/2021 4:41,104.190.173.154,Mozilla/5.0 (Windows NT 10.0; Win64; x64; rv:88.0) Gecko/20100101 Firefox/88.0,,Firefox,88,Windows,10
132,1,null,"""",html-keyboard-response,79,149165,0.0-79.0,"""","<div style=""font-size:60px;"">+</div>","""",8,ITI,Practice,null,1000,"""","""","""","""","""","""","""","""","""",4/25/2021 4:41,104.190.173.154,Mozilla/5.0 (Windows NT 10.0; Win64; x64; rv:88.0) Gecko/20100101 Firefox/88.0,,Firefox,88,Windows,10
132,1,null,"""",image-keyboard-response,80,149422,0.0-80.0,"""",jspsych/scrambledNeutralFaces/scrambledBF02NES.JPG,"""",8,forwardMask,Practice,null,250,"""",n,"""","""","""","""","""","""","""",4/25/2021 4:41,104.190.173.154,Mozilla/5.0 (Windows NT 10.0; Win64; x64; rv:88.0) Gecko/20100101 Firefox/88.0,,Firefox,88,Windows,10
132,1,null,"""",image-keyboard-response,81,149452,0.0-81.0,"""",jspsych/neutralFaces/BF02NES.JPG,"""",8,Cue,Practice,null,16,"""","""","""","""","""","""","""","""","""",4/25/2021 4:41,104.190.173.154,Mozilla/5.0 (Windows NT 10.0; Win64; x64; rv:88.0) Gecko/20100101 Firefox/88.0,,Firefox,88,Windows,10
132,1,null,"""",image-keyboard-response,82,149573,0.0-82.0,"""",jspsych/neutralFaces/AF28NES.JPG,"""",8,backwardMask,Practice,null,100,"""","""","""","""","""","""","""","""","""",4/25/2021 4:41,104.190.173.154,Mozilla/5.0 (Windows NT 10.0; Win64; x64; rv:88.0) Gecko/20100101 Firefox/88.0,,Firefox,88,Windows,10
132,1,null,"""",html-keyboard-response,83,150588,0.0-83.0,"""","<div style=""font-size:60px;"">+</div>","""",8,fixationBtwnNeutralMaskAndPrompt,Practice,null,1000,"""","""","""","""","""","""","""","""","""",4/25/2021 4:41,104.190.173.154,Mozilla/5.0 (Windows NT 10.0; Win64; x64; rv:88.0) Gecko/20100101 Firefox/88.0,,Firefox,88,Windows,10
132,1,2023,"""",html-button-response,84,152626,0.0-84.0,"""","<img src='jspsych/CFDfaces/CFD-BM-011-016-N.jpg'height=""250px""></br><b>Carlos</b>",1,8,IntactOrRearranged,Practice,"""","""","""","""",CFD-BM-011-016-N.jpg,Carlos,1,1,"""","""","""",4/25/2021 4:41,104.190.173.154,Mozilla/5.0 (Windows NT 10.0; Win64; x64; rv:88.0) Gecko/20100101 Firefox/88.0,,Firefox,88,Windows,10
132,1,1597,"""",html-slider-response,85,154234,0.0-85.0,"""","<img src='jspsych/CFDfaces/CFD-BM-011-016-N.jpg'height=""250px""></br><b>Carlos</b>","""",8,ConfidenceQuery,Practice,"""","""","""","""",CFD-WM-207-048-N.jpg,Dustin,1,"""",0,100,"""",4/25/2021 4:41,104.190.173.154,Mozilla/5.0 (Windows NT 10.0; Win64; x64; rv:88.0) Gecko/20100101 Firefox/88.0,,Firefox,88,Windows,10
132,1,1203,"""",html-button-response,86,155442,0.0-86.0,"""",You are Correct. You Called A Rearranged Pair Rearranged,0,8,feedback,Practice,"""","""","""","""","""","""","""","""","""","""","""",4/25/2021 4:41,104.190.173.154,Mozilla/5.0 (Windows NT 10.0; Win64; x64; rv:88.0) Gecko/20100101 Firefox/88.0,,Firefox,88,Windows,10
132,1,7087,"""",image-button-response,87,162562,0.0-87.0,"""",directionsMemoryAssociation3.JPG,0,128,DirectionsBeforeActualTEst,Break,"""","""","""","""","""","""","""","""","""","""","""",4/25/2021 4:41,104.190.173.154,Mozilla/5.0 (Windows NT 10.0; Win64; x64; rv:88.0) Gecko/20100101 Firefox/88.0,,Firefox,88,Windows,10
132,1,2372,"""",image-button-response,88,164954,0.0-88.0,"""",directionsForTest2.JPG,0,1,directionsForTest2,break,"""","""","""","""","""","""","""","""","""","""","""",4/25/2021 4:41,104.190.173.154,Mozilla/5.0 (Windows NT 10.0; Win64; x64; rv:88.0) Gecko/20100101 Firefox/88.0,,Firefox,88,Windows,10
132,1,9553,"""",html-button-response,89,174514,0.0-89.0,"""","<p>You will be asked to memorize and then recall four sets of face-name pairs. </p> <p> Each set will have 32 pairs. </p> <p>After the fourth set, there will be a brief follow-up experiment (<40 min alltogether)</p>",0,"""","""","""","""","""","""","""","""","""","""","""","""","""","""",4/25/2021 4:41,104.190.173.154,Mozilla/5.0 (Windows NT 10.0; Win64; x64; rv:88.0) Gecko/20100101 Firefox/88.0,,Firefox,88,Windows,10
132,1,1990,"""",html-keyboard-response,90,179542,0.0-90.0,"""","<img src='jspsych/CFDfaces/CFD-WM-041-021-N.jpg' height=""250px""></br><b>Juan</b>","""",256,IntactFace,Memorization,78,5000,n,"""",CFD-WF-218-087-N.jpg,Lauren,0,"""","""","""",1,4/25/2021 4:41,104.190.173.154,Mozilla/5.0 (Windows NT 10.0; Win64; x64; rv:88.0) Gecko/20100101 Firefox/88.0,,Firefox,88,Windows,10
132,1,null,"""",html-keyboard-response,91,180051,0.0-91.0,"""","<div style=""font-size:60px;"">+</div>","""",256,fixation,Memorization,null,500,"""","""","""","""","""","""","""","""",1,4/25/2021 4:41,104.190.173.154,Mozilla/5.0 (Windows NT 10.0; Win64; x64; rv:88.0) Gecko/20100101 Firefox/88.0,,Firefox,88,Windows,10
132,1,1693,"""",html-keyboard-response,92,185072,0.0-92.0,"""","<img src='jspsych/CFDfaces/CFD-AF-209-006-N.jpg' height=""250px""></br><b>Brittany</b>","""",256,IntactFace,Memorization,70,5000,f,"""",CFD-BM-017-021-N.jpg,Kenneth,0,"""","""","""",1,4/25/2021 4:41,104.190.173.154,Mozilla/5.0 (Windows NT 10.0; Win64; x64; rv:88.0) Gecko/20100101 Firefox/88.0,,Firefox,88,Windows,10
132,1,null,"""",html-keyboard-response,93,185576,0.0-93.0,"""","<div style=""font-size:60px;"">+</div>","""",256,fixation,Memorization,null,500,"""","""","""","""","""","""","""","""",1,4/25/2021 4:41,104.190.173.154,Mozilla/5.0 (Windows NT 10.0; Win64; x64; rv:88.0) Gecko/20100101 Firefox/88.0,,Firefox,88,Windows,10
132,1,1388,"""",html-keyboard-response,94,190595,0.0-94.0,"""","<img src='jspsych/CFDfaces/CFD-AF-230-193-N.jpg' height=""250px""></br><b>Vanessa</b>","""",256,IntactFace,Memorization,70,5000,f,"""",CFD-AF-233-190-N.jpg,Taylor,0,"""","""","""",1,4/25/2021 4:41,104.190.173.154,Mozilla/5.0 (Windows NT 10.0; Win64; x64; rv:88.0) Gecko/20100101 Firefox/88.0,,Firefox,88,Windows,10
132,1,null,"""",html-keyboard-response,95,191110,0.0-95.0,"""","<div style=""font-size:60px;"">+</div>","""",256,fixation,Memorization,null,500,"""","""","""","""","""","""","""","""",1,4/25/2021 4:41,104.190.173.154,Mozilla/5.0 (Windows NT 10.0; Win64; x64; rv:88.0) Gecko/20100101 Firefox/88.0,,Firefox,88,Windows,10
132,1,1403,"""",html-keyboard-response,96,196130,0.0-96.0,"""","<img src='jspsych/CFDfaces/CFD-WM-015-002-N.jpg' height=""250px""></br><b>Ian</b>","""",256,IntactFace,Memorization,70,5000,f,"""",CFD-AF-215-70-N.jpg,Amy,0,"""","""","""",1,4/25/2021 4:41,104.190.173.154,Mozilla/5.0 (Windows NT 10.0; Win64; x64; rv:88.0) Gecko/20100101 Firefox/88.0,,Firefox,88,Windows,10
132,1,null,"""",html-keyboard-response,97,196640,0.0-97.0,"""","<div style=""font-size:60px;"">+</div>","""",256,fixation,Memorization,null,500,"""","""","""","""","""","""","""","""",1,4/25/2021 4:41,104.190.173.154,Mozilla/5.0 (Windows NT 10.0; Win64; x64; rv:88.0) Gecko/20100101 Firefox/88.0,,Firefox,88,Windows,10
132,1,2722,"""",html-keyboard-response,98,201665,0.0-98.0,"""","<img src='jspsych/CFDfaces/CFD-AM-211-052-N.jpg' height=""250px""></br><b>Peter</b>","""",256,IntactFace,Memorization,70,5000,f,"""",CFD-WF-018-017-N.jpg,Laura,0,"""","""","""",1,4/25/2021 4:41,104.190.173.154,Mozilla/5.0 (Windows NT 10.0; Win64; x64; rv:88.0) Gecko/20100101 Firefox/88.0,,Firefox,88,Windows,10
132,1,null,"""",html-keyboard-response,99,202175,0.0-99.0,"""","<div style=""font-size:60px;"">+</div>","""",256,fixation,Memorization,null,500,"""","""","""","""","""","""","""","""",1,4/25/2021 4:41,104.190.173.154,Mozilla/5.0 (Windows NT 10.0; Win64; x64; rv:88.0) Gecko/20100101 Firefox/88.0,,Firefox,88,Windows,10
132,1,2244,"""",html-keyboard-response,100,207181,0.0-100.0,"""","<img src='jspsych/CFDfaces/CFD-WF-003-003-N.jpg' height=""250px""></br><b>Kayla</b>","""",256,IntactFace,Memorization,70,5000,f,"""",CFD-WM-003-002-N.jpg,Cameron,0,"""","""","""",1,4/25/2021 4:41,104.190.173.154,Mozilla/5.0 (Windows NT 10.0; Win64; x64; rv:88.0) Gecko/20100101 Firefox/88.0,,Firefox,88,Windows,10
132,1,null,"""",html-keyboard-response,101,207706,0.0-101.0,"""","<div style=""font-size:60px;"">+</div>","""",256,fixation,Memorization,null,500,"""","""","""","""","""","""","""","""",1,4/25/2021 4:41,104.190.173.154,Mozilla/5.0 (Windows NT 10.0; Win64; x64; rv:88.0) Gecko/20100101 Firefox/88.0,,Firefox,88,Windows,10
132,1,2635,"""",html-keyboard-response,102,212725,0.0-102.0,"""","<img src='jspsych/CFDfaces/CFD-LM-223-175-N.jpg' height=""250px""></br><b>Brian</b>","""",256,IntactFace,Memorization,70,5000,f,"""",CFD-LF-236-221-N.jpg,Erin,0,"""","""","""",1,4/25/2021 4:41,104.190.173.154,Mozilla/5.0 (Windows NT 10.0; Win64; x64; rv:88.0) Gecko/20100101 Firefox/88.0,,Firefox,88,Windows,10
132,1,null,"""",html-keyboard-response,103,213238,0.0-103.0,"""","<div style=""font-size:60px;"">+</div>","""",256,fixation,Memorization,null,500,"""","""","""","""","""","""","""","""",1,4/25/2021 4:41,104.190.173.154,Mozilla/5.0 (Windows NT 10.0; Win64; x64; rv:88.0) Gecko/20100101 Firefox/88.0,,Firefox,88,Windows,10
132,1,1475,"""",html-keyboard-response,104,218256,0.0-104.0,"""","<img src='jspsych/CFDfaces/CFD-WF-204-038-N.jpg' height=""250px""></br><b>Emily</b>","""",256,IntactFace,Memorization,70,5000,f,"""",CFD-LF-204-133-N.jpg,Angela,0,"""","""","""",1,4/25/2021 4:41,104.190.173.154,Mozilla/5.0 (Windows NT 10.0; Win64; x64; rv:88.0) Gecko/20100101 Firefox/88.0,,Firefox,88,Windows,10
132,1,null,"""",html-keyboard-response,105,218770,0.0-105.0,"""","<div style=""font-size:60px;"">+</div>","""",256,fixation,Memorization,null,500,"""","""","""","""","""","""","""","""",1,4/25/2021 4:41,104.190.173.154,Mozilla/5.0 (Windows NT 10.0; Win64; x64; rv:88.0) Gecko/20100101 Firefox/88.0,,Firefox,88,Windows,10
132,1,1544,"""",html-keyboard-response,106,223789,0.0-106.0,"""","<img src='jspsych/CFDfaces/CFD-WF-205-006-N.jpg' height=""250px""></br><b>Samantha</b>","""",256,IntactFace,Memorization,70,5000,f,"""",CFD-AM-230-150-N.jpg,Mark,0,"""","""","""",1,4/25/2021 4:41,104.190.173.154,Mozilla/5.0 (Windows NT 10.0; Win64; x64; rv:88.0) Gecko/20100101 Firefox/88.0,,Firefox,88,Windows,10
132,1,null,"""",html-keyboard-response,107,224324,0.0-107.0,"""","<div style=""font-size:60px;"">+</div>","""",256,fixation,Memorization,null,500,"""","""","""","""","""","""","""","""",1,4/25/2021 4:41,104.190.173.154,Mozilla/5.0 (Windows NT 10.0; Win64; x64; rv:88.0) Gecko/20100101 Firefox/88.0,,Firefox,88,Windows,10
132,1,3353,"""",html-keyboard-response,108,229330,0.0-108.0,"""","<img src='jspsych/CFDfaces/CFD-BF-010-001-N.jpg' height=""250px""></br><b>Julie</b>","""",256,IntactFace,Memorization,78,5000,n,"""",CFD-WM-237-052-N.jpg,Timothy,0,"""","""","""",1,4/25/2021 4:41,104.190.173.154,Mozilla/5.0 (Windows NT 10.0; Win64; x64; rv:88.0) Gecko/20100101 Firefox/88.0,,Firefox,88,Windows,10
132,1,null,"""",html-keyboard-response,109,229854,0.0-109.0,"""","<div style=""font-size:60px;"">+</div>","""",256,fixation,Memorization,null,500,"""","""","""","""","""","""","""","""",1,4/25/2021 4:41,104.190.173.154,Mozilla/5.0 (Windows NT 10.0; Win64; x64; rv:88.0) Gecko/20100101 Firefox/88.0,,Firefox,88,Windows,10
132,1,1243,"""",html-keyboard-response,110,234865,0.0-110.0,"""","<img src='jspsych/CFDfaces/CFD-AF-243-170-N.jpg' height=""250px""></br><b>Ashley</b>","""",256,IntactFace,Memorization,70,5000,f,"""",CFD-AM-212-050-N.jpg,Austin,0,"""","""","""",1,4/25/2021 4:41,104.190.173.154,Mozilla/5.0 (Windows NT 10.0; Win64; x64; rv:88.0) Gecko/20100101 Firefox/88.0,,Firefox,88,Windows,10
132,1,null,"""",html-keyboard-response,111,235394,0.0-111.0,"""","<div style=""font-size:60px;"">+</div>","""",256,fixation,Memorization,null,500,"""","""","""","""","""","""","""","""",1,4/25/2021 4:41,104.190.173.154,Mozilla/5.0 (Windows NT 10.0; Win64; x64; rv:88.0) Gecko/20100101 Firefox/88.0,,Firefox,88,Windows,10
132,1,1738,"""",html-keyboard-response,112,240401,0.0-112.0,"""","<img src='jspsych/CFDfaces/CFD-AF-200-228-N.jpg' height=""250px""></br><b>Kimberly</b>","""",256,IntactFace,Memorization,70,5000,f,"""",CFD-LF-230-203-N.jpg,Melissa,0,"""","""","""",1,4/25/2021 4:41,104.190.173.154,Mozilla/5.0 (Windows NT 10.0; Win64; x64; rv:88.0) Gecko/20100101 Firefox/88.0,,Firefox,88,Windows,10
132,1,null,"""",html-keyboard-response,113,240921,0.0-113.0,"""","<div style=""font-size:60px;"">+</div>","""",256,fixation,Memorization,null,500,"""","""","""","""","""","""","""","""",1,4/25/2021 4:41,104.190.173.154,Mozilla/5.0 (Windows NT 10.0; Win64; x64; rv:88.0) Gecko/20100101 Firefox/88.0,,Firefox,88,Windows,10
132,1,2182,"""",html-keyboard-response,114,245940,0.0-114.0,"""","<img src='jspsych/CFDfaces/CFD-WF-217-085-N.jpg' height=""250px""></br><b>Andrea</b>","""",256,IntactFace,Memorization,70,5000,f,"""",CFD-AM-207-108-N.jpg,Sean,0,"""","""","""",1,4/25/2021 4:41,104.190.173.154,Mozilla/5.0 (Windows NT 10.0; Win64; x64; rv:88.0) Gecko/20100101 Firefox/88.0,,Firefox,88,Windows,10
132,1,null,"""",html-keyboard-response,115,246461,0.0-115.0,"""","<div style=""font-size:60px;"">+</div>","""",256,fixation,Memorization,null,500,"""","""","""","""","""","""","""","""",1,4/25/2021 4:41,104.190.173.154,Mozilla/5.0 (Windows NT 10.0; Win64; x64; rv:88.0) Gecko/20100101 Firefox/88.0,,Firefox,88,Windows,10
132,1,1625,"""",html-keyboard-response,116,251474,0.0-116.0,"""","<img src='jspsych/CFDfaces/CFD-WF-016-015-N.jpg' height=""250px""></br><b>Amanda</b>","""",256,IntactFace,Memorization,70,5000,f,"""",CFD-AM-246-184-N.jpg,Jacob,0,"""","""","""",1,4/25/2021 4:41,104.190.173.154,Mozilla/5.0 (Windows NT 10.0; Win64; x64; rv:88.0) Gecko/20100101 Firefox/88.0,,Firefox,88,Windows,10
132,1,null,"""",html-keyboard-response,117,251999,0.0-117.0,"""","<div style=""font-size:60px;"">+</div>","""",256,fixation,Memorization,null,500,"""","""","""","""","""","""","""","""",1,4/25/2021 4:41,104.190.173.154,Mozilla/5.0 (Windows NT 10.0; Win64; x64; rv:88.0) Gecko/20100101 Firefox/88.0,,Firefox,88,Windows,10
132,1,1401,"""",html-keyboard-response,118,257016,0.0-118.0,"""","<img src='jspsych/CFDfaces/CFD-WM-017-002-N.jpg' height=""250px""></br><b>Nicholas</b>","""",256,IntactFace,Memorization,70,5000,f,"""",CFD-WF-215-145-N.jpg,Sara,0,"""","""","""",1,4/25/2021 4:41,104.190.173.154,Mozilla/5.0 (Windows NT 10.0; Win64; x64; rv:88.0) Gecko/20100101 Firefox/88.0,,Firefox,88,Windows,10
132,1,null,"""",html-keyboard-response,119,257539,0.0-119.0,"""","<div style=""font-size:60px;"">+</div>","""",256,fixation,Memorization,null,500,"""","""","""","""","""","""","""","""",1,4/25/2021 4:41,104.190.173.154,Mozilla/5.0 (Windows NT 10.0; Win64; x64; rv:88.0) Gecko/20100101 Firefox/88.0,,Firefox,88,Windows,10
132,1,1478,"""",html-keyboard-response,120,262556,0.0-120.0,"""","<img src='jspsych/CFDfaces/CFD-WM-215-041-N.jpg' height=""250px""></br><b>Eric</b>","""",256,IntactFace,Memorization,70,5000,f,"""",CFD-WM-207-048-N.jpg,Dustin,0,"""","""","""",1,4/25/2021 4:41,104.190.173.154,Mozilla/5.0 (Windows NT 10.0; Win64; x64; rv:88.0) Gecko/20100101 Firefox/88.0,,Firefox,88,Windows,10
132,1,null,"""",html-keyboard-response,121,263079,0.0-121.0,"""","<div style=""font-size:60px;"">+</div>","""",256,fixation,Memorization,null,500,"""","""","""","""","""","""","""","""",1,4/25/2021 4:41,104.190.173.154,Mozilla/5.0 (Windows NT 10.0; Win64; x64; rv:88.0) Gecko/20100101 Firefox/88.0,,Firefox,88,Windows,10
132,1,1754,"""",html-keyboard-response,122,268090,0.0-122.0,"""","<img src='jspsych/CFDfaces/CFD-BM-002-013-N.jpg' height=""250px""></br><b>Richard</b>","""",256,IntactFace,Memorization,78,5000,n,"""",CFD-BF-212-315-N.jpg,Tiffany,0,"""","""","""",1,4/25/2021 4:41,104.190.173.154,Mozilla/5.0 (Windows NT 10.0; Win64; x64; rv:88.0) Gecko/20100101 Firefox/88.0,,Firefox,88,Windows,10
132,1,null,"""",html-keyboard-response,123,268605,0.0-123.0,"""","<div style=""font-size:60px;"">+</div>","""",256,fixation,Memorization,null,500,"""","""","""","""","""","""","""","""",1,4/25/2021 4:41,104.190.173.154,Mozilla/5.0 (Windows NT 10.0; Win64; x64; rv:88.0) Gecko/20100101 Firefox/88.0,,Firefox,88,Windows,10
132,1,1139,"""",html-keyboard-response,124,273625,0.0-124.0,"""","<img src='jspsych/CFDfaces/CFD-LF-202-065-N.jpg' height=""250px""></br><b>Christina</b>","""",256,IntactFace,Memorization,70,5000,f,"""",CFD-AM-238-269-N.jpg,Steven,0,"""","""","""",1,4/25/2021 4:41,104.190.173.154,Mozilla/5.0 (Windows NT 10.0; Win64; x64; rv:88.0) Gecko/20100101 Firefox/88.0,,Firefox,88,Windows,10
132,1,null,"""",html-keyboard-response,125,274144,0.0-125.0,"""","<div style=""font-size:60px;"">+</div>","""",256,fixation,Memorization,null,500,"""","""","""","""","""","""","""","""",1,4/25/2021 4:41,104.190.173.154,Mozilla/5.0 (Windows NT 10.0; Win64; x64; rv:88.0) Gecko/20100101 Firefox/88.0,,Firefox,88,Windows,10
132,1,1446,"""",html-keyboard-response,126,279160,0.0-126.0,"""","<img src='jspsych/CFDfaces/CFD-LM-213-061-N.jpg' height=""250px""></br><b>Daniel</b>","""",256,IntactFace,Memorization,70,5000,f,"""",CFD-AF-201-060-N.jpg,Heather,0,"""","""","""",1,4/25/2021 4:41,104.190.173.154,Mozilla/5.0 (Windows NT 10.0; Win64; x64; rv:88.0) Gecko/20100101 Firefox/88.0,,Firefox,88,Windows,10
132,1,null,"""",html-keyboard-response,127,279676,0.0-127.0,"""","<div style=""font-size:60px;"">+</div>","""",256,fixation,Memorization,null,500,"""","""","""","""","""","""","""","""",1,4/25/2021 4:41,104.190.173.154,Mozilla/5.0 (Windows NT 10.0; Win64; x64; rv:88.0) Gecko/20100101 Firefox/88.0,,Firefox,88,Windows,10
132,1,1478,"""",html-keyboard-response,128,284686,0.0-128.0,"""","<img src='jspsych/CFDfaces/CFD-BM-010-003-N.jpg' height=""250px""></br><b>Joshua</b>","""",256,IntactFace,Memorization,78,5000,n,"""",CFD-AM-205-153-N.jpg,Ryan,0,"""","""","""",1,4/25/2021 4:41,104.190.173.154,Mozilla/5.0 (Windows NT 10.0; Win64; x64; rv:88.0) Gecko/20100101 Firefox/88.0,,Firefox,88,Windows,10
132,1,null,"""",html-keyboard-response,129,285207,0.0-129.0,"""","<div style=""font-size:60px;"">+</div>","""",256,fixation,Memorization,null,500,"""","""","""","""","""","""","""","""",1,4/25/2021 4:41,104.190.173.154,Mozilla/5.0 (Windows NT 10.0; Win64; x64; rv:88.0) Gecko/20100101 Firefox/88.0,,Firefox,88,Windows,10
132,1,1903,"""",html-keyboard-response,130,290226,0.0-130.0,"""","<img src='jspsych/CFDfaces/CFD-WM-020-001-N.jpg' height=""250px""></br><b>Gregory</b>","""",256,IntactFace,Memorization,70,5000,f,"""",CFD-LM-246-087-N.jpg,Luis,0,"""","""","""",1,4/25/2021 4:41,104.190.173.154,Mozilla/5.0 (Windows NT 10.0; Win64; x64; rv:88.0) Gecko/20100101 Firefox/88.0,,Firefox,88,Windows,10
132,1,null,"""",html-keyboard-response,131,290752,0.0-131.0,"""","<div style=""font-size:60px;"">+</div>","""",256,fixation,Memorization,null,500,"""","""","""","""","""","""","""","""",1,4/25/2021 4:41,104.190.173.154,Mozilla/5.0 (Windows NT 10.0; Win64; x64; rv:88.0) Gecko/20100101 Firefox/88.0,,Firefox,88,Windows,10
132,1,3366,"""",html-keyboard-response,132,295757,0.0-132.0,"""","<img src='jspsych/CFDfaces/CFD-BM-032-024-N.jpg' height=""250px""></br><b>Brandon</b>","""",256,IntactFace,Memorization,70,5000,f,"""",CFD-BM-026-002-N.jpg,Jesse,0,"""","""","""",1,4/25/2021 4:41,104.190.173.154,Mozilla/5.0 (Windows NT 10.0; Win64; x64; rv:88.0) Gecko/20100101 Firefox/88.0,,Firefox,88,Windows,10
132,1,null,"""",html-keyboard-response,133,296280,0.0-133.0,"""","<div style=""font-size:60px;"">+</div>","""",256,fixation,Memorization,null,500,"""","""","""","""","""","""","""","""",1,4/25/2021 4:41,104.190.173.154,Mozilla/5.0 (Windows NT 10.0; Win64; x64; rv:88.0) Gecko/20100101 Firefox/88.0,,Firefox,88,Windows,10
132,1,2500,"""",html-keyboard-response,134,301300,0.0-134.0,"""","<img src='jspsych/CFDfaces/CFD-BF-004-014-N.jpg' height=""250px""></br><b>Michelle</b>","""",256,IntactFace,Memorization,70,5000,f,"""",CFD-BF-039-031-N.jpg,Rebecca,0,"""","""","""",1,4/25/2021 4:41,104.190.173.154,Mozilla/5.0 (Windows NT 10.0; Win64; x64; rv:88.0) Gecko/20100101 Firefox/88.0,,Firefox,88,Windows,10
132,1,null,"""",html-keyboard-response,135,301826,0.0-135.0,"""","<div style=""font-size:60px;"">+</div>","""",256,fixation,Memorization,null,500,"""","""","""","""","""","""","""","""",1,4/25/2021 4:41,104.190.173.154,Mozilla/5.0 (Windows NT 10.0; Win64; x64; rv:88.0) Gecko/20100101 Firefox/88.0,,Firefox,88,Windows,10
132,1,1689,"""",html-keyboard-response,136,306841,0.0-136.0,"""","<img src='jspsych/CFDfaces/CFD-AM-202-079-N.jpg' height=""250px""></br><b>Jason</b>","""",256,IntactFace,Memorization,70,5000,f,"""",CFD-BF-005-001-N.jpg,Jordan,0,"""","""","""",1,4/25/2021 4:41,104.190.173.154,Mozilla/5.0 (Windows NT 10.0; Win64; x64; rv:88.0) Gecko/20100101 Firefox/88.0,,Firefox,88,Windows,10
132,1,null,"""",html-keyboard-response,137,307360,0.0-137.0,"""","<div style=""font-size:60px;"">+</div>","""",256,fixation,Memorization,null,500,"""","""","""","""","""","""","""","""",1,4/25/2021 4:41,104.190.173.154,Mozilla/5.0 (Windows NT 10.0; Win64; x64; rv:88.0) Gecko/20100101 Firefox/88.0,,Firefox,88,Windows,10
132,1,2228,"""",html-keyboard-response,138,312370,0.0-138.0,"""","<img src='jspsych/CFDfaces/CFD-WM-011-002-N.jpg' height=""250px""></br><b>Christian</b>","""",256,IntactFace,Memorization,70,5000,f,"""",CFD-AM-237-154-N.jpg,Justin,0,"""","""","""",1,4/25/2021 4:41,104.190.173.154,Mozilla/5.0 (Windows NT 10.0; Win64; x64; rv:88.0) Gecko/20100101 Firefox/88.0,,Firefox,88,Windows,10
132,1,null,"""",html-keyboard-response,139,312891,0.0-139.0,"""","<div style=""font-size:60px;"">+</div>","""",256,fixation,Memorization,null,500,"""","""","""","""","""","""","""","""",1,4/25/2021 4:41,104.190.173.154,Mozilla/5.0 (Windows NT 10.0; Win64; x64; rv:88.0) Gecko/20100101 Firefox/88.0,,Firefox,88,Windows,10
132,1,2775,"""",html-keyboard-response,140,317906,0.0-140.0,"""","<img src='jspsych/CFDfaces/CFD-AM-214-168-N.jpg' height=""250px""></br><b>Robert</b>","""",256,IntactFace,Memorization,78,5000,n,"""",CFD-LF-208-127-N.jpg,Lindsey,0,"""","""","""",1,4/25/2021 4:41,104.190.173.154,Mozilla/5.0 (Windows NT 10.0; Win64; x64; rv:88.0) Gecko/20100101 Firefox/88.0,,Firefox,88,Windows,10
132,1,null,"""",html-keyboard-response,141,318439,0.0-141.0,"""","<div style=""font-size:60px;"">+</div>","""",256,fixation,Memorization,null,500,"""","""","""","""","""","""","""","""",1,4/25/2021 4:41,104.190.173.154,Mozilla/5.0 (Windows NT 10.0; Win64; x64; rv:88.0) Gecko/20100101 Firefox/88.0,,Firefox,88,Windows,10
132,1,2365,"""",html-keyboard-response,142,323461,0.0-142.0,"""","<img src='jspsych/CFDfaces/CFD-AF-242-158-N.jpg' height=""250px""></br><b>Victoria</b>","""",256,IntactFace,Memorization,70,5000,f,"""",CFD-BM-018-001-N.jpg,Vincent,0,"""","""","""",1,4/25/2021 4:41,104.190.173.154,Mozilla/5.0 (Windows NT 10.0; Win64; x64; rv:88.0) Gecko/20100101 Firefox/88.0,,Firefox,88,Windows,10
132,1,null,"""",html-keyboard-response,143,323984,0.0-143.0,"""","<div style=""font-size:60px;"">+</div>","""",256,fixation,Memorization,null,500,"""","""","""","""","""","""","""","""",1,4/25/2021 4:41,104.190.173.154,Mozilla/5.0 (Windows NT 10.0; Win64; x64; rv:88.0) Gecko/20100101 Firefox/88.0,,Firefox,88,Windows,10
132,1,2686,"""",html-keyboard-response,144,329000,0.0-144.0,"""","<img src='jspsych/CFDfaces/CFD-BM-205-001-N.jpg' height=""250px""></br><b>James</b>","""",256,IntactFace,Memorization,70,5000,f,"""",CFD-BF-222-240-N.jpg,Whitney,0,"""","""","""",1,4/25/2021 4:41,104.190.173.154,Mozilla/5.0 (Windows NT 10.0; Win64; x64; rv:88.0) Gecko/20100101 Firefox/88.0,,Firefox,88,Windows,10
132,1,null,"""",html-keyboard-response,145,329525,0.0-145.0,"""","<div style=""font-size:60px;"">+</div>","""",256,fixation,Memorization,null,500,"""","""","""","""","""","""","""","""",1,4/25/2021 4:41,104.190.173.154,Mozilla/5.0 (Windows NT 10.0; Win64; x64; rv:88.0) Gecko/20100101 Firefox/88.0,,Firefox,88,Windows,10
132,1,1637,"""",html-keyboard-response,146,334531,0.0-146.0,"""","<img src='jspsych/CFDfaces/CFD-AF-226-251-N.jpg' height=""250px""></br><b>Stephanie</b>","""",256,IntactFace,Memorization,70,5000,f,"""",CFD-AM-234-355-N.jpg,Jeremy,0,"""","""","""",1,4/25/2021 4:41,104.190.173.154,Mozilla/5.0 (Windows NT 10.0; Win64; x64; rv:88.0) Gecko/20100101 Firefox/88.0,,Firefox,88,Windows,10
132,1,null,"""",html-keyboard-response,147,335056,0.0-147.0,"""","<div style=""font-size:60px;"">+</div>","""",256,fixation,Memorization,null,500,"""","""","""","""","""","""","""","""",1,4/25/2021 4:41,104.190.173.154,Mozilla/5.0 (Windows NT 10.0; Win64; x64; rv:88.0) Gecko/20100101 Firefox/88.0,,Firefox,88,Windows,10
132,1,1114,"""",html-keyboard-response,148,340062,0.0-148.0,"""","<img src='jspsych/CFDfaces/CFD-AF-222-134-N.jpg' height=""250px""></br><b>Elizabeth</b>","""",256,IntactFace,Memorization,70,5000,f,"""",CFD-WF-223-133-N.jpg,Jenna,0,"""","""","""",1,4/25/2021 4:41,104.190.173.154,Mozilla/5.0 (Windows NT 10.0; Win64; x64; rv:88.0) Gecko/20100101 Firefox/88.0,,Firefox,88,Windows,10
132,1,null,"""",html-keyboard-response,149,340581,0.0-149.0,"""","<div style=""font-size:60px;"">+</div>","""",256,fixation,Memorization,null,500,"""","""","""","""","""","""","""","""",1,4/25/2021 4:41,104.190.173.154,Mozilla/5.0 (Windows NT 10.0; Win64; x64; rv:88.0) Gecko/20100101 Firefox/88.0,,Firefox,88,Windows,10
132,1,2817,"""",html-keyboard-response,150,345586,0.0-150.0,"""","<img src='jspsych/CFDfaces/CFD-WM-006-002-N.jpg' height=""250px""></br><b>Jeffrey</b>","""",256,IntactFace,Memorization,70,5000,f,"""",CFD-WM-213-076-N.jpg,Travis,0,"""","""","""",1,4/25/2021 4:41,104.190.173.154,Mozilla/5.0 (Windows NT 10.0; Win64; x64; rv:88.0) Gecko/20100101 Firefox/88.0,,Firefox,88,Windows,10
132,1,null,"""",html-keyboard-response,151,346105,0.0-151.0,"""","<div style=""font-size:60px;"">+</div>","""",256,fixation,Memorization,null,500,"""","""","""","""","""","""","""","""",1,4/25/2021 4:41,104.190.173.154,Mozilla/5.0 (Windows NT 10.0; Win64; x64; rv:88.0) Gecko/20100101 Firefox/88.0,,Firefox,88,Windows,10
132,1,2218,"""",html-keyboard-response,152,351116,0.0-152.0,"""","<img src='jspsych/CFDfaces/CFD-AF-235-170-N.jpg' height=""250px""></br><b>Meghan</b>","""",256,IntactFace,Memorization,70,5000,f,"""",CFD-AF-214-139-N.jpg,Jasmine,0,"""","""","""",1,4/25/2021 4:41,104.190.173.154,Mozilla/5.0 (Windows NT 10.0; Win64; x64; rv:88.0) Gecko/20100101 Firefox/88.0,,Firefox,88,Windows,10
132,1,null,"""",html-keyboard-response,153,351647,0.0-153.0,"""","<div style=""font-size:60px;"">+</div>","""",256,fixation,Memorization,null,500,"""","""","""","""","""","""","""","""",1,4/25/2021 4:41,104.190.173.154,Mozilla/5.0 (Windows NT 10.0; Win64; x64; rv:88.0) Gecko/20100101 Firefox/88.0,,Firefox,88,Windows,10
132,1,1804,"""",html-keyboard-response,154,353453,0.0-154.0,"""",Press Any Key to Begin Memory Test,"""",1,welcomeScreen,Break,78,"""","""","""","""","""","""","""","""","""",1,4/25/2021 4:41,104.190.173.154,Mozilla/5.0 (Windows NT 10.0; Win64; x64; rv:88.0) Gecko/20100101 Firefox/88.0,,Firefox,88,Windows,10
132,1,null,"""",html-keyboard-response,155,354464,0.0-155.0,"""","<div style=""font-size:60px;"">+</div>","""",256,ITI,Test,null,1000,"""","""","""","""","""","""","""","""",1,4/25/2021 4:41,104.190.173.154,Mozilla/5.0 (Windows NT 10.0; Win64; x64; rv:88.0) Gecko/20100101 Firefox/88.0,,Firefox,88,Windows,10
132,1,null,"""",image-keyboard-response,156,354730,0.0-156.0,"""",jspsych/scrambledDisgustFaces/scrambledAM20DIS.JPG,"""",256,forwardMask,Test,null,250,"""",d,"""","""","""","""","""","""",1,4/25/2021 4:41,104.190.173.154,Mozilla/5.0 (Windows NT 10.0; Win64; x64; rv:88.0) Gecko/20100101 Firefox/88.0,,Firefox,88,Windows,10
132,1,null,"""",image-keyboard-response,157,354760,0.0-157.0,"""",jspsych/disgustFaces/AM20DIS.JPG,"""",256,Cue,Test,null,16,"""","""","""","""","""","""","""","""",1,4/25/2021 4:41,104.190.173.154,Mozilla/5.0 (Windows NT 10.0; Win64; x64; rv:88.0) Gecko/20100101 Firefox/88.0,,Firefox,88,Windows,10
132,1,null,"""",image-keyboard-response,158,354884,0.0-158.0,"""",jspsych/neutralFaces/AM29NES.JPG,"""",256,backwardMask,Test,null,100,"""","""","""","""","""","""","""","""",1,4/25/2021 4:41,104.190.173.154,Mozilla/5.0 (Windows NT 10.0; Win64; x64; rv:88.0) Gecko/20100101 Firefox/88.0,,Firefox,88,Windows,10
132,1,null,"""",html-keyboard-response,159,355889,0.0-159.0,"""","<div style=""font-size:60px;"">+</div>","""",256,fixationBtwnNeutralMaskAndPrompt,Test,null,1000,"""","""","""","""","""","""","""","""",1,4/25/2021 4:41,104.190.173.154,Mozilla/5.0 (Windows NT 10.0; Win64; x64; rv:88.0) Gecko/20100101 Firefox/88.0,,Firefox,88,Windows,10
132,1,2925,"""",html-button-response,160,358819,0.0-160.0,"""","<img src='jspsych/CFDfaces/CFD-WM-041-021-N.jpg' height=""250px"">,</br><b>Juan</b>",1,256,IntactOrRearranged,Test,"""","""","""","""",CFD-BF-222-240-N.jpg,Whitney,0,1,"""","""",1,4/25/2021 4:41,104.190.173.154,Mozilla/5.0 (Windows NT 10.0; Win64; x64; rv:88.0) Gecko/20100101 Firefox/88.0,,Firefox,88,Windows,10
132,1,1622,"""",html-slider-response,161,360467,0.0-161.0,"""","<img src='jspsych/CFDfaces/CFD-WM-041-021-N.jpg' height=""250px"">,</br><b>Juan</b>","""",256,ConfidenceQuery,Test,"""","""","""","""",CFD-BF-222-240-N.jpg,Whitney,0,"""",0,77,1,4/25/2021 4:41,104.190.173.154,Mozilla/5.0 (Windows NT 10.0; Win64; x64; rv:88.0) Gecko/20100101 Firefox/88.0,,Firefox,88,Windows,10
132,1,null,"""",html-keyboard-response,162,361477,0.0-162.0,"""","<div style=""font-size:60px;"">+</div>","""",256,ITI,Test,null,1000,"""","""","""","""","""","""","""","""",1,4/25/2021 4:41,104.190.173.154,Mozilla/5.0 (Windows NT 10.0; Win64; x64; rv:88.0) Gecko/20100101 Firefox/88.0,,Firefox,88,Windows,10
132,1,null,"""",image-keyboard-response,163,361737,0.0-163.0,"""",jspsych/scrambledNeutralFaces/scrambledBM10NES.JPG,"""",256,forwardMask,Test,null,250,"""",n,"""","""","""","""","""","""",1,4/25/2021 4:41,104.190.173.154,Mozilla/5.0 (Windows NT 10.0; Win64; x64; rv:88.0) Gecko/20100101 Firefox/88.0,,Firefox,88,Windows,10
132,1,null,"""",image-keyboard-response,164,361771,0.0-164.0,"""",jspsych/neutralFaces/BM10NES.JPG,"""",256,Cue,Test,null,16,"""","""","""","""","""","""","""","""",1,4/25/2021 4:41,104.190.173.154,Mozilla/5.0 (Windows NT 10.0; Win64; x64; rv:88.0) Gecko/20100101 Firefox/88.0,,Firefox,88,Windows,10
132,1,null,"""",image-keyboard-response,165,361882,0.0-165.0,"""",jspsych/neutralFaces/BM25NES.JPG,"""",256,backwardMask,Test,null,100,"""","""","""","""","""","""","""","""",1,4/25/2021 4:41,104.190.173.154,Mozilla/5.0 (Windows NT 10.0; Win64; x64; rv:88.0) Gecko/20100101 Firefox/88.0,,Firefox,88,Windows,10
132,1,null,"""",html-keyboard-response,166,362891,0.0-166.0,"""","<div style=""font-size:60px;"">+</div>","""",256,fixationBtwnNeutralMaskAndPrompt,Test,null,1000,"""","""","""","""","""","""","""","""",1,4/25/2021 4:41,104.190.173.154,Mozilla/5.0 (Windows NT 10.0; Win64; x64; rv:88.0) Gecko/20100101 Firefox/88.0,,Firefox,88,Windows,10
132,1,2531,"""",html-button-response,167,365426,0.0-167.0,"""","<img src='jspsych/CFDfaces/CFD-WF-205-006-N.jpg' height=""250px"">,</br><b>Samantha</b>",1,256,IntactOrRearranged,Test,"""","""","""","""",CFD-BF-212-315-N.jpg,Tiffany,0,1,"""","""",1,4/25/2021 4:41,104.190.173.154,Mozilla/5.0 (Windows NT 10.0; Win64; x64; rv:88.0) Gecko/20100101 Firefox/88.0,,Firefox,88,Windows,10
132,1,2551,"""",html-slider-response,168,368003,0.0-168.0,"""","<img src='jspsych/CFDfaces/CFD-WF-205-006-N.jpg' height=""250px"">,</br><b>Samantha</b>","""",256,ConfidenceQuery,Test,"""","""","""","""",CFD-BF-212-315-N.jpg,Tiffany,0,"""",0,80,1,4/25/2021 4:41,104.190.173.154,Mozilla/5.0 (Windows NT 10.0; Win64; x64; rv:88.0) Gecko/20100101 Firefox/88.0,,Firefox,88,Windows,10
132,1,null,"""",html-keyboard-response,169,369018,0.0-169.0,"""","<div style=""font-size:60px;"">+</div>","""",256,ITI,Test,null,1000,"""","""","""","""","""","""","""","""",1,4/25/2021 4:41,104.190.173.154,Mozilla/5.0 (Windows NT 10.0; Win64; x64; rv:88.0) Gecko/20100101 Firefox/88.0,,Firefox,88,Windows,10
132,1,null,"""",image-keyboard-response,170,369275,0.0-170.0,"""",jspsych/scrambledNeutralFaces/scrambledBF16NES.JPG,"""",256,forwardMask,Test,null,250,"""",n,"""","""","""","""","""","""",1,4/25/2021 4:41,104.190.173.154,Mozilla/5.0 (Windows NT 10.0; Win64; x64; rv:88.0) Gecko/20100101 Firefox/88.0,,Firefox,88,Windows,10
132,1,null,"""",image-keyboard-response,171,369302,0.0-171.0,"""",jspsych/neutralFaces/BF16NES.JPG,"""",256,Cue,Test,null,16,"""","""","""","""","""","""","""","""",1,4/25/2021 4:41,104.190.173.154,Mozilla/5.0 (Windows NT 10.0; Win64; x64; rv:88.0) Gecko/20100101 Firefox/88.0,,Firefox,88,Windows,10
132,1,null,"""",image-keyboard-response,172,369414,0.0-172.0,"""",jspsych/neutralFaces/AF24NES.JPG,"""",256,backwardMask,Test,null,100,"""","""","""","""","""","""","""","""",1,4/25/2021 4:41,104.190.173.154,Mozilla/5.0 (Windows NT 10.0; Win64; x64; rv:88.0) Gecko/20100101 Firefox/88.0,,Firefox,88,Windows,10
132,1,null,"""",html-keyboard-response,173,370419,0.0-173.0,"""","<div style=""font-size:60px;"">+</div>","""",256,fixationBtwnNeutralMaskAndPrompt,Test,null,1000,"""","""","""","""","""","""","""","""",1,4/25/2021 4:41,104.190.173.154,Mozilla/5.0 (Windows NT 10.0; Win64; x64; rv:88.0) Gecko/20100101 Firefox/88.0,,Firefox,88,Windows,10
132,1,1283,"""",html-button-response,174,371706,0.0-174.0,"""","<img src='jspsych/CFDfaces/CFD-BF-004-014-N.jpg' height=""250px"">,</br><b>Michelle</b>",0,256,IntactOrRearranged,Test,"""","""","""","""",CFD-WM-003-002-N.jpg,Timothy,0,0,"""","""",1,4/25/2021 4:41,104.190.173.154,Mozilla/5.0 (Windows NT 10.0; Win64; x64; rv:88.0) Gecko/20100101 Firefox/88.0,,Firefox,88,Windows,10
132,1,2150,"""",html-slider-response,175,373883,0.0-175.0,"""","<img src='jspsych/CFDfaces/CFD-BF-004-014-N.jpg' height=""250px"">,</br><b>Michelle</b>","""",256,ConfidenceQuery,Test,"""","""","""","""",CFD-WM-003-002-N.jpg,Timothy,0,"""",0,100,1,4/25/2021 4:41,104.190.173.154,Mozilla/5.0 (Windows NT 10.0; Win64; x64; rv:88.0) Gecko/20100101 Firefox/88.0,,Firefox,88,Windows,10
132,1,null,"""",html-keyboard-response,176,374896,0.0-176.0,"""","<div style=""font-size:60px;"">+</div>","""",256,ITI,Test,null,1000,"""","""","""","""","""","""","""","""",1,4/25/2021 4:41,104.190.173.154,Mozilla/5.0 (Windows NT 10.0; Win64; x64; rv:88.0) Gecko/20100101 Firefox/88.0,,Firefox,88,Windows,10
132,1,null,"""",image-keyboard-response,177,375160,0.0-177.0,"""",jspsych/scrambledNeutralFaces/scrambledBM08NES.JPG,"""",256,forwardMask,Test,null,250,"""",n,"""","""","""","""","""","""",1,4/25/2021 4:41,104.190.173.154,Mozilla/5.0 (Windows NT 10.0; Win64; x64; rv:88.0) Gecko/20100101 Firefox/88.0,,Firefox,88,Windows,10
132,1,null,"""",image-keyboard-response,178,375190,0.0-178.0,"""",jspsych/neutralFaces/BM08NES.JPG,"""",256,Cue,Test,null,16,"""","""","""","""","""","""","""","""",1,4/25/2021 4:41,104.190.173.154,Mozilla/5.0 (Windows NT 10.0; Win64; x64; rv:88.0) Gecko/20100101 Firefox/88.0,,Firefox,88,Windows,10
132,1,null,"""",image-keyboard-response,179,375314,0.0-179.0,"""",jspsych/neutralFaces/AM33NES.JPG,"""",256,backwardMask,Test,null,100,"""","""","""","""","""","""","""","""",1,4/25/2021 4:41,104.190.173.154,Mozilla/5.0 (Windows NT 10.0; Win64; x64; rv:88.0) Gecko/20100101 Firefox/88.0,,Firefox,88,Windows,10
132,1,null,"""",html-keyboard-response,180,376326,0.0-180.0,"""","<div style=""font-size:60px;"">+</div>","""",256,fixationBtwnNeutralMaskAndPrompt,Test,null,1000,"""","""","""","""","""","""","""","""",1,4/25/2021 4:41,104.190.173.154,Mozilla/5.0 (Windows NT 10.0; Win64; x64; rv:88.0) Gecko/20100101 Firefox/88.0,,Firefox,88,Windows,10
132,1,2105,"""",html-button-response,181,378433,0.0-181.0,"""","<img src='jspsych/CFDfaces/CFD-AF-242-158-N.jpg' height=""250px"">,</br><b>Ashley</b>",0,256,IntactOrRearranged,Test,"""","""","""","""",CFD-WM-237-052-N.jpg,Austin,1,0,"""","""",1,4/25/2021 4:41,104.190.173.154,Mozilla/5.0 (Windows NT 10.0; Win64; x64; rv:88.0) Gecko/20100101 Firefox/88.0,,Firefox,88,Windows,10
132,1,3119,"""",html-slider-response,182,381580,0.0-182.0,"""","<img src='jspsych/CFDfaces/CFD-AF-242-158-N.jpg' height=""250px"">,</br><b>Ashley</b>","""",256,ConfidenceQuery,Test,"""","""","""","""",CFD-WM-237-052-N.jpg,Austin,1,"""",0,41,1,4/25/2021 4:41,104.190.173.154,Mozilla/5.0 (Windows NT 10.0; Win64; x64; rv:88.0) Gecko/20100101 Firefox/88.0,,Firefox,88,Windows,10
132,1,null,"""",html-keyboard-response,183,382596,0.0-183.0,"""","<div style=""font-size:60px;"">+</div>","""",256,ITI,Test,null,1000,"""","""","""","""","""","""","""","""",1,4/25/2021 4:41,104.190.173.154,Mozilla/5.0 (Windows NT 10.0; Win64; x64; rv:88.0) Gecko/20100101 Firefox/88.0,,Firefox,88,Windows,10
132,1,null,"""",image-keyboard-response,184,382860,0.0-184.0,"""",jspsych/scrambledNeutralFaces/scrambledBF35NES.JPG,"""",256,forwardMask,Test,null,250,"""",n,"""","""","""","""","""","""",1,4/25/2021 4:41,104.190.173.154,Mozilla/5.0 (Windows NT 10.0; Win64; x64; rv:88.0) Gecko/20100101 Firefox/88.0,,Firefox,88,Windows,10
132,1,null,"""",image-keyboard-response,185,382891,0.0-185.0,"""",jspsych/neutralFaces/BF35NES.JPG,"""",256,Cue,Test,null,16,"""","""","""","""","""","""","""","""",1,4/25/2021 4:41,104.190.173.154,Mozilla/5.0 (Windows NT 10.0; Win64; x64; rv:88.0) Gecko/20100101 Firefox/88.0,,Firefox,88,Windows,10
132,1,null,"""",image-keyboard-response,186,383000,0.0-186.0,"""",jspsych/neutralFaces/BF33NES.JPG,"""",256,backwardMask,Test,null,100,"""","""","""","""","""","""","""","""",1,4/25/2021 4:41,104.190.173.154,Mozilla/5.0 (Windows NT 10.0; Win64; x64; rv:88.0) Gecko/20100101 Firefox/88.0,,Firefox,88,Windows,10
132,1,null,"""",html-keyboard-response,187,384014,0.0-187.0,"""","<div style=""font-size:60px;"">+</div>","""",256,fixationBtwnNeutralMaskAndPrompt,Test,null,1000,"""","""","""","""","""","""","""","""",1,4/25/2021 4:41,104.190.173.154,Mozilla/5.0 (Windows NT 10.0; Win64; x64; rv:88.0) Gecko/20100101 Firefox/88.0,,Firefox,88,Windows,10
132,1,1856,"""",html-button-response,188,385890,0.0-188.0,"""","<img src='jspsych/CFDfaces/CFD-BM-010-003-N.jpg' height=""250px"">,</br><b>Eric</b>",1,256,IntactOrRearranged,Test,"""","""","""","""",CFD-BF-005-001-N.jpg,Jenna,1,1,"""","""",1,4/25/2021 4:41,104.190.173.154,Mozilla/5.0 (Windows NT 10.0; Win64; x64; rv:88.0) Gecko/20100101 Firefox/88.0,,Firefox,88,Windows,10
132,1,1861,"""",html-slider-response,189,387763,0.0-189.0,"""","<img src='jspsych/CFDfaces/CFD-BM-010-003-N.jpg' height=""250px"">,</br><b>Eric</b>","""",256,ConfidenceQuery,Test,"""","""","""","""",CFD-BF-005-001-N.jpg,Jenna,1,"""",0,56,1,4/25/2021 4:41,104.190.173.154,Mozilla/5.0 (Windows NT 10.0; Win64; x64; rv:88.0) Gecko/20100101 Firefox/88.0,,Firefox,88,Windows,10
132,1,null,"""",html-keyboard-response,190,388774,0.0-190.0,"""","<div style=""font-size:60px;"">+</div>","""",256,ITI,Test,null,1000,"""","""","""","""","""","""","""","""",1,4/25/2021 4:41,104.190.173.154,Mozilla/5.0 (Windows NT 10.0; Win64; x64; rv:88.0) Gecko/20100101 Firefox/88.0,,Firefox,88,Windows,10
132,1,null,"""",image-keyboard-response,191,389040,0.0-191.0,"""",jspsych/scrambledNeutralFaces/scrambledAM09NES.JPG,"""",256,forwardMask,Test,null,250,"""",n,"""","""","""","""","""","""",1,4/25/2021 4:41,104.190.173.154,Mozilla/5.0 (Windows NT 10.0; Win64; x64; rv:88.0) Gecko/20100101 Firefox/88.0,,Firefox,88,Windows,10
132,1,null,"""",image-keyboard-response,192,389070,0.0-192.0,"""",jspsych/neutralFaces/AM09NES.JPG,"""",256,Cue,Test,null,16,"""","""","""","""","""","""","""","""",1,4/25/2021 4:41,104.190.173.154,Mozilla/5.0 (Windows NT 10.0; Win64; x64; rv:88.0) Gecko/20100101 Firefox/88.0,,Firefox,88,Windows,10
132,1,null,"""",image-keyboard-response,193,389193,0.0-193.0,"""",jspsych/neutralFaces/AM21NES.JPG,"""",256,backwardMask,Test,null,100,"""","""","""","""","""","""","""","""",1,4/25/2021 4:41,104.190.173.154,Mozilla/5.0 (Windows NT 10.0; Win64; x64; rv:88.0) Gecko/20100101 Firefox/88.0,,Firefox,88,Windows,10
132,1,null,"""",html-keyboard-response,194,390210,0.0-194.0,"""","<div style=""font-size:60px;"">+</div>","""",256,fixationBtwnNeutralMaskAndPrompt,Test,null,1000,"""","""","""","""","""","""","""","""",1,4/25/2021 4:41,104.190.173.154,Mozilla/5.0 (Windows NT 10.0; Win64; x64; rv:88.0) Gecko/20100101 Firefox/88.0,,Firefox,88,Windows,10
132,1,1498,"""",html-button-response,195,391730,0.0-195.0,"""","<img src='jspsych/CFDfaces/CFD-AM-211-052-N.jpg' height=""250px"">,</br><b>Peter</b>",0,256,IntactOrRearranged,Test,"""","""","""","""",CFD-WF-218-087-N.jpg,Jordan,0,0,"""","""",1,4/25/2021 4:41,104.190.173.154,Mozilla/5.0 (Windows NT 10.0; Win64; x64; rv:88.0) Gecko/20100101 Firefox/88.0,,Firefox,88,Windows,10
132,1,1645,"""",html-slider-response,196,393387,0.0-196.0,"""","<img src='jspsych/CFDfaces/CFD-AM-211-052-N.jpg' height=""250px"">,</br><b>Peter</b>","""",256,ConfidenceQuery,Test,"""","""","""","""",CFD-WF-218-087-N.jpg,Jordan,0,"""",0,100,1,4/25/2021 4:41,104.190.173.154,Mozilla/5.0 (Windows NT 10.0; Win64; x64; rv:88.0) Gecko/20100101 Firefox/88.0,,Firefox,88,Windows,10
132,1,null,"""",html-keyboard-response,197,394395,0.0-197.0,"""","<div style=""font-size:60px;"">+</div>","""",256,ITI,Test,null,1000,"""","""","""","""","""","""","""","""",1,4/25/2021 4:41,104.190.173.154,Mozilla/5.0 (Windows NT 10.0; Win64; x64; rv:88.0) Gecko/20100101 Firefox/88.0,,Firefox,88,Windows,10
132,1,null,"""",image-keyboard-response,198,394654,0.0-198.0,"""",jspsych/scrambledDisgustFaces/scrambledAF19DIS.JPG,"""",256,forwardMask,Test,null,250,"""",d,"""","""","""","""","""","""",1,4/25/2021 4:41,104.190.173.154,Mozilla/5.0 (Windows NT 10.0; Win64; x64; rv:88.0) Gecko/20100101 Firefox/88.0,,Firefox,88,Windows,10
132,1,null,"""",image-keyboard-response,199,394685,0.0-199.0,"""",jspsych/disgustFaces/AF19DIS.JPG,"""",256,Cue,Test,null,16,"""","""","""","""","""","""","""","""",1,4/25/2021 4:41,104.190.173.154,Mozilla/5.0 (Windows NT 10.0; Win64; x64; rv:88.0) Gecko/20100101 Firefox/88.0,,Firefox,88,Windows,10
132,1,null,"""",image-keyboard-response,200,394801,0.0-200.0,"""",jspsych/neutralFaces/AF27NES.JPG,"""",256,backwardMask,Test,null,100,"""","""","""","""","""","""","""","""",1,4/25/2021 4:41,104.190.173.154,Mozilla/5.0 (Windows NT 10.0; Win64; x64; rv:88.0) Gecko/20100101 Firefox/88.0,,Firefox,88,Windows,10
132,1,null,"""",html-keyboard-response,201,395811,0.0-201.0,"""","<div style=""font-size:60px;"">+</div>","""",256,fixationBtwnNeutralMaskAndPrompt,Test,null,1000,"""","""","""","""","""","""","""","""",1,4/25/2021 4:41,104.190.173.154,Mozilla/5.0 (Windows NT 10.0; Win64; x64; rv:88.0) Gecko/20100101 Firefox/88.0,,Firefox,88,Windows,10
132,1,1979,"""",html-button-response,202,397811,0.0-202.0,"""","<img src='jspsych/CFDfaces/CFD-AF-209-006-N.jpg' height=""250px"">,</br><b>Brittany</b>",0,256,IntactOrRearranged,Test,"""","""","""","""",CFD-AM-230-150-N.jpg,Jesse,0,0,"""","""",1,4/25/2021 4:41,104.190.173.154,Mozilla/5.0 (Windows NT 10.0; Win64; x64; rv:88.0) Gecko/20100101 Firefox/88.0,,Firefox,88,Windows,10
132,1,1445,"""",html-slider-response,203,399267,0.0-203.0,"""","<img src='jspsych/CFDfaces/CFD-AF-209-006-N.jpg' height=""250px"">,</br><b>Brittany</b>","""",256,ConfidenceQuery,Test,"""","""","""","""",CFD-AM-230-150-N.jpg,Jesse,0,"""",0,38,1,4/25/2021 4:41,104.190.173.154,Mozilla/5.0 (Windows NT 10.0; Win64; x64; rv:88.0) Gecko/20100101 Firefox/88.0,,Firefox,88,Windows,10
132,1,null,"""",html-keyboard-response,204,400272,0.0-204.0,"""","<div style=""font-size:60px;"">+</div>","""",256,ITI,Test,null,1000,"""","""","""","""","""","""","""","""",1,4/25/2021 4:41,104.190.173.154,Mozilla/5.0 (Windows NT 10.0; Win64; x64; rv:88.0) Gecko/20100101 Firefox/88.0,,Firefox,88,Windows,10
132,1,null,"""",image-keyboard-response,205,400539,0.0-205.0,"""",jspsych/scrambledNeutralFaces/scrambledBF02NES.JPG,"""",256,forwardMask,Test,null,250,"""",n,"""","""","""","""","""","""",1,4/25/2021 4:41,104.190.173.154,Mozilla/5.0 (Windows NT 10.0; Win64; x64; rv:88.0) Gecko/20100101 Firefox/88.0,,Firefox,88,Windows,10
132,1,null,"""",image-keyboard-response,206,400570,0.0-206.0,"""",jspsych/neutralFaces/BF02NES.JPG,"""",256,Cue,Test,null,16,"""","""","""","""","""","""","""","""",1,4/25/2021 4:41,104.190.173.154,Mozilla/5.0 (Windows NT 10.0; Win64; x64; rv:88.0) Gecko/20100101 Firefox/88.0,,Firefox,88,Windows,10
132,1,null,"""",image-keyboard-response,207,400690,0.0-207.0,"""",jspsych/neutralFaces/AF28NES.JPG,"""",256,backwardMask,Test,null,100,"""","""","""","""","""","""","""","""",1,4/25/2021 4:41,104.190.173.154,Mozilla/5.0 (Windows NT 10.0; Win64; x64; rv:88.0) Gecko/20100101 Firefox/88.0,,Firefox,88,Windows,10
132,1,null,"""",html-keyboard-response,208,401705,0.0-208.0,"""","<div style=""font-size:60px;"">+</div>","""",256,fixationBtwnNeutralMaskAndPrompt,Test,null,1000,"""","""","""","""","""","""","""","""",1,4/25/2021 4:41,104.190.173.154,Mozilla/5.0 (Windows NT 10.0; Win64; x64; rv:88.0) Gecko/20100101 Firefox/88.0,,Firefox,88,Windows,10
132,1,2099,"""",html-button-response,209,403826,0.0-209.0,"""","<img src='jspsych/CFDfaces/CFD-BM-205-001-N.jpg' height=""250px"">,</br><b>Jeffrey</b>",0,256,IntactOrRearranged,Test,"""","""","""","""",CFD-AM-205-153-N.jpg,Cameron,1,0,"""","""",1,4/25/2021 4:41,104.190.173.154,Mozilla/5.0 (Windows NT 10.0; Win64; x64; rv:88.0) Gecko/20100101 Firefox/88.0,,Firefox,88,Windows,10
132,1,1605,"""",html-slider-response,210,405443,0.0-210.0,"""","<img src='jspsych/CFDfaces/CFD-BM-205-001-N.jpg' height=""250px"">,</br><b>Jeffrey</b>","""",256,ConfidenceQuery,Test,"""","""","""","""",CFD-AM-205-153-N.jpg,Cameron,1,"""",0,48,1,4/25/2021 4:41,104.190.173.154,Mozilla/5.0 (Windows NT 10.0; Win64; x64; rv:88.0) Gecko/20100101 Firefox/88.0,,Firefox,88,Windows,10
132,1,null,"""",html-keyboard-response,211,406455,0.0-211.0,"""","<div style=""font-size:60px;"">+</div>","""",256,ITI,Test,null,1000,"""","""","""","""","""","""","""","""",1,4/25/2021 4:41,104.190.173.154,Mozilla/5.0 (Windows NT 10.0; Win64; x64; rv:88.0) Gecko/20100101 Firefox/88.0,,Firefox,88,Windows,10
132,1,null,"""",image-keyboard-response,212,406727,0.0-212.0,"""",jspsych/scrambledNeutralFaces/scrambledAF20NES.JPG,"""",256,forwardMask,Test,null,250,"""",n,"""","""","""","""","""","""",1,4/25/2021 4:41,104.190.173.154,Mozilla/5.0 (Windows NT 10.0; Win64; x64; rv:88.0) Gecko/20100101 Firefox/88.0,,Firefox,88,Windows,10
132,1,null,"""",image-keyboard-response,213,406758,0.0-213.0,"""",jspsych/neutralFaces/AF20NES.JPG,"""",256,Cue,Test,null,16,"""","""","""","""","""","""","""","""",1,4/25/2021 4:41,104.190.173.154,Mozilla/5.0 (Windows NT 10.0; Win64; x64; rv:88.0) Gecko/20100101 Firefox/88.0,,Firefox,88,Windows,10
132,1,null,"""",image-keyboard-response,214,406870,0.0-214.0,"""",jspsych/neutralFaces/AF19NES.JPG,"""",256,backwardMask,Test,null,100,"""","""","""","""","""","""","""","""",1,4/25/2021 4:41,104.190.173.154,Mozilla/5.0 (Windows NT 10.0; Win64; x64; rv:88.0) Gecko/20100101 Firefox/88.0,,Firefox,88,Windows,10
132,1,null,"""",html-keyboard-response,215,407886,0.0-215.0,"""","<div style=""font-size:60px;"">+</div>","""",256,fixationBtwnNeutralMaskAndPrompt,Test,null,1000,"""","""","""","""","""","""","""","""",1,4/25/2021 4:41,104.190.173.154,Mozilla/5.0 (Windows NT 10.0; Win64; x64; rv:88.0) Gecko/20100101 Firefox/88.0,,Firefox,88,Windows,10
132,1,2583,"""",html-button-response,216,410491,0.0-216.0,"""","<img src='jspsych/CFDfaces/CFD-AF-243-170-N.jpg' height=""250px"">,</br><b>Elizabeth</b>",0,256,IntactOrRearranged,Test,"""","""","""","""",CFD-WF-018-017-N.jpg,Sara,1,0,"""","""",1,4/25/2021 4:41,104.190.173.154,Mozilla/5.0 (Windows NT 10.0; Win64; x64; rv:88.0) Gecko/20100101 Firefox/88.0,,Firefox,88,Windows,10
132,1,1981,"""",html-slider-response,217,412482,0.0-217.0,"""","<img src='jspsych/CFDfaces/CFD-AF-243-170-N.jpg' height=""250px"">,</br><b>Elizabeth</b>","""",256,ConfidenceQuery,Test,"""","""","""","""",CFD-WF-018-017-N.jpg,Sara,1,"""",0,18,1,4/25/2021 4:41,104.190.173.154,Mozilla/5.0 (Windows NT 10.0; Win64; x64; rv:88.0) Gecko/20100101 Firefox/88.0,,Firefox,88,Windows,10
132,1,null,"""",html-keyboard-response,218,413494,0.0-218.0,"""","<div style=""font-size:60px;"">+</div>","""",256,ITI,Test,null,1000,"""","""","""","""","""","""","""","""",1,4/25/2021 4:41,104.190.173.154,Mozilla/5.0 (Windows NT 10.0; Win64; x64; rv:88.0) Gecko/20100101 Firefox/88.0,,Firefox,88,Windows,10
132,1,null,"""",image-keyboard-response,219,413785,0.0-219.0,"""",jspsych/scrambledNeutralFaces/scrambledAF13NES.JPG,"""",256,forwardMask,Test,null,250,"""",n,"""","""","""","""","""","""",1,4/25/2021 4:41,104.190.173.154,Mozilla/5.0 (Windows NT 10.0; Win64; x64; rv:88.0) Gecko/20100101 Firefox/88.0,,Firefox,88,Windows,10
132,1,null,"""",image-keyboard-response,220,413816,0.0-220.0,"""",jspsych/neutralFaces/AF13NES.JPG,"""",256,Cue,Test,null,16,"""","""","""","""","""","""","""","""",1,4/25/2021 4:41,104.190.173.154,Mozilla/5.0 (Windows NT 10.0; Win64; x64; rv:88.0) Gecko/20100101 Firefox/88.0,,Firefox,88,Windows,10
132,1,null,"""",image-keyboard-response,221,413940,0.0-221.0,"""",jspsych/neutralFaces/AF12NES.JPG,"""",256,backwardMask,Test,null,100,"""","""","""","""","""","""","""","""",1,4/25/2021 4:41,104.190.173.154,Mozilla/5.0 (Windows NT 10.0; Win64; x64; rv:88.0) Gecko/20100101 Firefox/88.0,,Firefox,88,Windows,10
132,1,null,"""",html-keyboard-response,222,414947,0.0-222.0,"""","<div style=""font-size:60px;"">+</div>","""",256,fixationBtwnNeutralMaskAndPrompt,Test,null,1000,"""","""","""","""","""","""","""","""",1,4/25/2021 4:41,104.190.173.154,Mozilla/5.0 (Windows NT 10.0; Win64; x64; rv:88.0) Gecko/20100101 Firefox/88.0,,Firefox,88,Windows,10
132,1,2955,"""",html-button-response,223,417906,0.0-223.0,"""","<img src='jspsych/CFDfaces/CFD-WM-006-002-N.jpg' height=""250px"">,</br><b>Richard</b>",0,256,IntactOrRearranged,Test,"""","""","""","""",CFD-AF-215-70-N.jpg,Amy,1,0,"""","""",1,4/25/2021 4:41,104.190.173.154,Mozilla/5.0 (Windows NT 10.0; Win64; x64; rv:88.0) Gecko/20100101 Firefox/88.0,,Firefox,88,Windows,10
132,1,1325,"""",html-slider-response,224,419242,0.0-224.0,"""","<img src='jspsych/CFDfaces/CFD-WM-006-002-N.jpg' height=""250px"">,</br><b>Richard</b>","""",256,ConfidenceQuery,Test,"""","""","""","""",CFD-AF-215-70-N.jpg,Amy,1,"""",0,66,1,4/25/2021 4:41,104.190.173.154,Mozilla/5.0 (Windows NT 10.0; Win64; x64; rv:88.0) Gecko/20100101 Firefox/88.0,,Firefox,88,Windows,10
132,1,null,"""",html-keyboard-response,225,420272,0.0-225.0,"""","<div style=""font-size:60px;"">+</div>","""",256,ITI,Test,null,1000,"""","""","""","""","""","""","""","""",1,4/25/2021 4:41,104.190.173.154,Mozilla/5.0 (Windows NT 10.0; Win64; x64; rv:88.0) Gecko/20100101 Firefox/88.0,,Firefox,88,Windows,10
132,1,null,"""",image-keyboard-response,226,420532,0.0-226.0,"""",jspsych/scrambledNeutralFaces/scrambledAF02NES.JPG,"""",256,forwardMask,Test,null,250,"""",n,"""","""","""","""","""","""",1,4/25/2021 4:41,104.190.173.154,Mozilla/5.0 (Windows NT 10.0; Win64; x64; rv:88.0) Gecko/20100101 Firefox/88.0,,Firefox,88,Windows,10
132,1,null,"""",image-keyboard-response,227,420562,0.0-227.0,"""",jspsych/neutralFaces/AF02NES.JPG,"""",256,Cue,Test,null,16,"""","""","""","""","""","""","""","""",1,4/25/2021 4:41,104.190.173.154,Mozilla/5.0 (Windows NT 10.0; Win64; x64; rv:88.0) Gecko/20100101 Firefox/88.0,,Firefox,88,Windows,10
132,1,null,"""",image-keyboard-response,228,420673,0.0-228.0,"""",jspsych/neutralFaces/BF14NES.JPG,"""",256,backwardMask,Test,null,100,"""","""","""","""","""","""","""","""",1,4/25/2021 4:41,104.190.173.154,Mozilla/5.0 (Windows NT 10.0; Win64; x64; rv:88.0) Gecko/20100101 Firefox/88.0,,Firefox,88,Windows,10
132,1,null,"""",html-keyboard-response,229,421680,0.0-229.0,"""","<div style=""font-size:60px;"">+</div>","""",256,fixationBtwnNeutralMaskAndPrompt,Test,null,1000,"""","""","""","""","""","""","""","""",1,4/25/2021 4:41,104.190.173.154,Mozilla/5.0 (Windows NT 10.0; Win64; x64; rv:88.0) Gecko/20100101 Firefox/88.0,,Firefox,88,Windows,10
132,1,2910,"""",html-button-response,230,424594,0.0-230.0,"""","<img src='jspsych/CFDfaces/CFD-WF-003-003-N.jpg' height=""250px"">,</br><b>Kayla</b>",1,256,IntactOrRearranged,Test,"""","""","""","""",CFD-LF-230-203-N.jpg,Melissa,0,1,"""","""",1,4/25/2021 4:41,104.190.173.154,Mozilla/5.0 (Windows NT 10.0; Win64; x64; rv:88.0) Gecko/20100101 Firefox/88.0,,Firefox,88,Windows,10
132,1,1672,"""",html-slider-response,231,426278,0.0-231.0,"""","<img src='jspsych/CFDfaces/CFD-WF-003-003-N.jpg' height=""250px"">,</br><b>Kayla</b>","""",256,ConfidenceQuery,Test,"""","""","""","""",CFD-LF-230-203-N.jpg,Melissa,0,"""",0,60,1,4/25/2021 4:41,104.190.173.154,Mozilla/5.0 (Windows NT 10.0; Win64; x64; rv:88.0) Gecko/20100101 Firefox/88.0,,Firefox,88,Windows,10
132,1,null,"""",html-keyboard-response,232,427318,0.0-232.0,"""","<div style=""font-size:60px;"">+</div>","""",256,ITI,Test,null,1000,"""","""","""","""","""","""","""","""",1,4/25/2021 4:41,104.190.173.154,Mozilla/5.0 (Windows NT 10.0; Win64; x64; rv:88.0) Gecko/20100101 Firefox/88.0,,Firefox,88,Windows,10
132,1,null,"""",image-keyboard-response,233,427581,0.0-233.0,"""",jspsych/scrambledDisgustFaces/scrambledBF24DIS.JPG,"""",256,forwardMask,Test,null,250,"""",d,"""","""","""","""","""","""",1,4/25/2021 4:41,104.190.173.154,Mozilla/5.0 (Windows NT 10.0; Win64; x64; rv:88.0) Gecko/20100101 Firefox/88.0,,Firefox,88,Windows,10
132,1,null,"""",image-keyboard-response,234,427611,0.0-234.0,"""",jspsych/disgustFaces/BF24DIS.JPG,"""",256,Cue,Test,null,16,"""","""","""","""","""","""","""","""",1,4/25/2021 4:41,104.190.173.154,Mozilla/5.0 (Windows NT 10.0; Win64; x64; rv:88.0) Gecko/20100101 Firefox/88.0,,Firefox,88,Windows,10
132,1,null,"""",image-keyboard-response,235,427719,0.0-235.0,"""",jspsych/neutralFaces/BF02NES.JPG,"""",256,backwardMask,Test,null,100,"""","""","""","""","""","""","""","""",1,4/25/2021 4:41,104.190.173.154,Mozilla/5.0 (Windows NT 10.0; Win64; x64; rv:88.0) Gecko/20100101 Firefox/88.0,,Firefox,88,Windows,10
132,1,null,"""",html-keyboard-response,236,428725,0.0-236.0,"""","<div style=""font-size:60px;"">+</div>","""",256,fixationBtwnNeutralMaskAndPrompt,Test,null,1000,"""","""","""","""","""","""","""","""",1,4/25/2021 4:41,104.190.173.154,Mozilla/5.0 (Windows NT 10.0; Win64; x64; rv:88.0) Gecko/20100101 Firefox/88.0,,Firefox,88,Windows,10
132,1,3633,"""",html-button-response,237,432362,0.0-237.0,"""","<img src='jspsych/CFDfaces/CFD-LM-223-175-N.jpg' height=""250px"">,</br><b>Brian</b>",1,256,IntactOrRearranged,Test,"""","""","""","""",CFD-BF-039-031-N.jpg,Rebecca,0,1,"""","""",1,4/25/2021 4:41,104.190.173.154,Mozilla/5.0 (Windows NT 10.0; Win64; x64; rv:88.0) Gecko/20100101 Firefox/88.0,,Firefox,88,Windows,10
132,1,2154,"""",html-slider-response,238,434547,0.0-238.0,"""","<img src='jspsych/CFDfaces/CFD-LM-223-175-N.jpg' height=""250px"">,</br><b>Brian</b>","""",256,ConfidenceQuery,Test,"""","""","""","""",CFD-BF-039-031-N.jpg,Rebecca,0,"""",0,68,1,4/25/2021 4:41,104.190.173.154,Mozilla/5.0 (Windows NT 10.0; Win64; x64; rv:88.0) Gecko/20100101 Firefox/88.0,,Firefox,88,Windows,10
132,1,null,"""",html-keyboard-response,239,435556,0.0-239.0,"""","<div style=""font-size:60px;"">+</div>","""",256,ITI,Test,null,1000,"""","""","""","""","""","""","""","""",1,4/25/2021 4:41,104.190.173.154,Mozilla/5.0 (Windows NT 10.0; Win64; x64; rv:88.0) Gecko/20100101 Firefox/88.0,,Firefox,88,Windows,10
132,1,null,"""",image-keyboard-response,240,435827,0.0-240.0,"""",jspsych/scrambledNeutralFaces/scrambledBF08NES.JPG,"""",256,forwardMask,Test,null,250,"""",n,"""","""","""","""","""","""",1,4/25/2021 4:41,104.190.173.154,Mozilla/5.0 (Windows NT 10.0; Win64; x64; rv:88.0) Gecko/20100101 Firefox/88.0,,Firefox,88,Windows,10
132,1,null,"""",image-keyboard-response,241,435858,0.0-241.0,"""",jspsych/neutralFaces/BF08NES.JPG,"""",256,Cue,Test,null,16,"""","""","""","""","""","""","""","""",1,4/25/2021 4:41,104.190.173.154,Mozilla/5.0 (Windows NT 10.0; Win64; x64; rv:88.0) Gecko/20100101 Firefox/88.0,,Firefox,88,Windows,10
132,1,null,"""",image-keyboard-response,242,435981,0.0-242.0,"""",jspsych/neutralFaces/BF17NES.JPG,"""",256,backwardMask,Test,null,100,"""","""","""","""","""","""","""","""",1,4/25/2021 4:41,104.190.173.154,Mozilla/5.0 (Windows NT 10.0; Win64; x64; rv:88.0) Gecko/20100101 Firefox/88.0,,Firefox,88,Windows,10
132,1,null,"""",html-keyboard-response,243,436985,0.0-243.0,"""","<div style=""font-size:60px;"">+</div>","""",256,fixationBtwnNeutralMaskAndPrompt,Test,null,1000,"""","""","""","""","""","""","""","""",1,4/25/2021 4:41,104.190.173.154,Mozilla/5.0 (Windows NT 10.0; Win64; x64; rv:88.0) Gecko/20100101 Firefox/88.0,,Firefox,88,Windows,10
132,1,1182,"""",html-button-response,244,438171,0.0-244.0,"""","<img src='jspsych/CFDfaces/CFD-AF-230-193-N.jpg' height=""250px"">,</br><b>Vanessa</b>",0,256,IntactOrRearranged,Test,"""","""","""","""",CFD-LF-204-133-N.jpg,Erin,0,0,"""","""",1,4/25/2021 4:41,104.190.173.154,Mozilla/5.0 (Windows NT 10.0; Win64; x64; rv:88.0) Gecko/20100101 Firefox/88.0,,Firefox,88,Windows,10
132,1,2189,"""",html-slider-response,245,440395,0.0-245.0,"""","<img src='jspsych/CFDfaces/CFD-AF-230-193-N.jpg' height=""250px"">,</br><b>Vanessa</b>","""",256,ConfidenceQuery,Test,"""","""","""","""",CFD-LF-204-133-N.jpg,Erin,0,"""",0,87,1,4/25/2021 4:41,104.190.173.154,Mozilla/5.0 (Windows NT 10.0; Win64; x64; rv:88.0) Gecko/20100101 Firefox/88.0,,Firefox,88,Windows,10
132,1,null,"""",html-keyboard-response,246,441415,0.0-246.0,"""","<div style=""font-size:60px;"">+</div>","""",256,ITI,Test,null,1000,"""","""","""","""","""","""","""","""",1,4/25/2021 4:41,104.190.173.154,Mozilla/5.0 (Windows NT 10.0; Win64; x64; rv:88.0) Gecko/20100101 Firefox/88.0,,Firefox,88,Windows,10
132,1,null,"""",image-keyboard-response,247,441672,0.0-247.0,"""",jspsych/scrambledNeutralFaces/scrambledAM30NES.JPG,"""",256,forwardMask,Test,null,250,"""",n,"""","""","""","""","""","""",1,4/25/2021 4:41,104.190.173.154,Mozilla/5.0 (Windows NT 10.0; Win64; x64; rv:88.0) Gecko/20100101 Firefox/88.0,,Firefox,88,Windows,10
132,1,null,"""",image-keyboard-response,248,441700,0.0-248.0,"""",jspsych/neutralFaces/AM30NES.JPG,"""",256,Cue,Test,null,16,"""","""","""","""","""","""","""","""",1,4/25/2021 4:41,104.190.173.154,Mozilla/5.0 (Windows NT 10.0; Win64; x64; rv:88.0) Gecko/20100101 Firefox/88.0,,Firefox,88,Windows,10
132,1,null,"""",image-keyboard-response,249,441816,0.0-249.0,"""",jspsych/neutralFaces/AM05NES.JPG,"""",256,backwardMask,Test,null,100,"""","""","""","""","""","""","""","""",1,4/25/2021 4:41,104.190.173.154,Mozilla/5.0 (Windows NT 10.0; Win64; x64; rv:88.0) Gecko/20100101 Firefox/88.0,,Firefox,88,Windows,10
132,1,null,"""",html-keyboard-response,250,442826,0.0-250.0,"""","<div style=""font-size:60px;"">+</div>","""",256,fixationBtwnNeutralMaskAndPrompt,Test,null,1000,"""","""","""","""","""","""","""","""",1,4/25/2021 4:41,104.190.173.154,Mozilla/5.0 (Windows NT 10.0; Win64; x64; rv:88.0) Gecko/20100101 Firefox/88.0,,Firefox,88,Windows,10
132,1,1709,"""",html-button-response,251,444538,0.0-251.0,"""","<img src='jspsych/CFDfaces/CFD-BM-002-013-N.jpg' height=""250px"">,</br><b>Christian</b>",1,256,IntactOrRearranged,Test,"""","""","""","""",CFD-AF-214-139-N.jpg,Angela,1,1,"""","""",1,4/25/2021 4:41,104.190.173.154,Mozilla/5.0 (Windows NT 10.0; Win64; x64; rv:88.0) Gecko/20100101 Firefox/88.0,,Firefox,88,Windows,10
132,1,1550,"""",html-slider-response,252,446122,0.0-252.0,"""","<img src='jspsych/CFDfaces/CFD-BM-002-013-N.jpg' height=""250px"">,</br><b>Christian</b>","""",256,ConfidenceQuery,Test,"""","""","""","""",CFD-AF-214-139-N.jpg,Angela,1,"""",0,100,1,4/25/2021 4:41,104.190.173.154,Mozilla/5.0 (Windows NT 10.0; Win64; x64; rv:88.0) Gecko/20100101 Firefox/88.0,,Firefox,88,Windows,10
132,1,null,"""",html-keyboard-response,253,447130,0.0-253.0,"""","<div style=""font-size:60px;"">+</div>","""",256,ITI,Test,null,1000,"""","""","""","""","""","""","""","""",1,4/25/2021 4:41,104.190.173.154,Mozilla/5.0 (Windows NT 10.0; Win64; x64; rv:88.0) Gecko/20100101 Firefox/88.0,,Firefox,88,Windows,10
132,1,null,"""",image-keyboard-response,254,447390,0.0-254.0,"""",jspsych/scrambledDisgustFaces/scrambledAF35DIS.JPG,"""",256,forwardMask,Test,null,250,"""",d,"""","""","""","""","""","""",1,4/25/2021 4:41,104.190.173.154,Mozilla/5.0 (Windows NT 10.0; Win64; x64; rv:88.0) Gecko/20100101 Firefox/88.0,,Firefox,88,Windows,10
132,1,null,"""",image-keyboard-response,255,447420,0.0-255.0,"""",jspsych/disgustFaces/AF35DIS.JPG,"""",256,Cue,Test,null,16,"""","""","""","""","""","""","""","""",1,4/25/2021 4:41,104.190.173.154,Mozilla/5.0 (Windows NT 10.0; Win64; x64; rv:88.0) Gecko/20100101 Firefox/88.0,,Firefox,88,Windows,10
132,1,null,"""",image-keyboard-response,256,447543,0.0-256.0,"""",jspsych/neutralFaces/AF04NES.JPG,"""",256,backwardMask,Test,null,100,"""","""","""","""","""","""","""","""",1,4/25/2021 4:41,104.190.173.154,Mozilla/5.0 (Windows NT 10.0; Win64; x64; rv:88.0) Gecko/20100101 Firefox/88.0,,Firefox,88,Windows,10
132,1,null,"""",html-keyboard-response,257,448561,0.0-257.0,"""","<div style=""font-size:60px;"">+</div>","""",256,fixationBtwnNeutralMaskAndPrompt,Test,null,1000,"""","""","""","""","""","""","""","""",1,4/25/2021 4:41,104.190.173.154,Mozilla/5.0 (Windows NT 10.0; Win64; x64; rv:88.0) Gecko/20100101 Firefox/88.0,,Firefox,88,Windows,10
132,1,3294,"""",html-button-response,258,451858,0.0-258.0,"""","<img src='jspsych/CFDfaces/CFD-AM-214-168-N.jpg' height=""250px"">,</br><b>Robert</b>",0,256,IntactOrRearranged,Test,"""","""","""","""",CFD-WM-213-076-N.jpg,Travis,0,0,"""","""",1,4/25/2021 4:41,104.190.173.154,Mozilla/5.0 (Windows NT 10.0; Win64; x64; rv:88.0) Gecko/20100101 Firefox/88.0,,Firefox,88,Windows,10
132,1,1969,"""",html-slider-response,259,453859,0.0-259.0,"""","<img src='jspsych/CFDfaces/CFD-AM-214-168-N.jpg' height=""250px"">,</br><b>Robert</b>","""",256,ConfidenceQuery,Test,"""","""","""","""",CFD-WM-213-076-N.jpg,Travis,0,"""",0,59,1,4/25/2021 4:41,104.190.173.154,Mozilla/5.0 (Windows NT 10.0; Win64; x64; rv:88.0) Gecko/20100101 Firefox/88.0,,Firefox,88,Windows,10
132,1,null,"""",html-keyboard-response,260,454880,0.0-260.0,"""","<div style=""font-size:60px;"">+</div>","""",256,ITI,Test,null,1000,"""","""","""","""","""","""","""","""",1,4/25/2021 4:41,104.190.173.154,Mozilla/5.0 (Windows NT 10.0; Win64; x64; rv:88.0) Gecko/20100101 Firefox/88.0,,Firefox,88,Windows,10
132,1,null,"""",image-keyboard-response,261,455150,0.0-261.0,"""",jspsych/scrambledNeutralFaces/scrambledAM02NES.JPG,"""",256,forwardMask,Test,null,250,"""",n,"""","""","""","""","""","""",1,4/25/2021 4:41,104.190.173.154,Mozilla/5.0 (Windows NT 10.0; Win64; x64; rv:88.0) Gecko/20100101 Firefox/88.0,,Firefox,88,Windows,10
132,1,null,"""",image-keyboard-response,262,455180,0.0-262.0,"""",jspsych/neutralFaces/AM02NES.JPG,"""",256,Cue,Test,null,16,"""","""","""","""","""","""","""","""",1,4/25/2021 4:41,104.190.173.154,Mozilla/5.0 (Windows NT 10.0; Win64; x64; rv:88.0) Gecko/20100101 Firefox/88.0,,Firefox,88,Windows,10
132,1,null,"""",image-keyboard-response,263,455305,0.0-263.0,"""",jspsych/neutralFaces/AM17NES.JPG,"""",256,backwardMask,Test,null,100,"""","""","""","""","""","""","""","""",1,4/25/2021 4:41,104.190.173.154,Mozilla/5.0 (Windows NT 10.0; Win64; x64; rv:88.0) Gecko/20100101 Firefox/88.0,,Firefox,88,Windows,10
132,1,null,"""",html-keyboard-response,264,456312,0.0-264.0,"""","<div style=""font-size:60px;"">+</div>","""",256,fixationBtwnNeutralMaskAndPrompt,Test,null,1000,"""","""","""","""","""","""","""","""",1,4/25/2021 4:41,104.190.173.154,Mozilla/5.0 (Windows NT 10.0; Win64; x64; rv:88.0) Gecko/20100101 Firefox/88.0,,Firefox,88,Windows,10
132,1,1398,"""",html-button-response,265,457714,0.0-265.0,"""","<img src='jspsych/CFDfaces/CFD-WM-017-002-N.jpg' height=""250px"">,</br><b>Nicholas</b>",1,256,IntactOrRearranged,Test,"""","""","""","""",CFD-AM-237-154-N.jpg,Justin,0,1,"""","""",1,4/25/2021 4:41,104.190.173.154,Mozilla/5.0 (Windows NT 10.0; Win64; x64; rv:88.0) Gecko/20100101 Firefox/88.0,,Firefox,88,Windows,10
132,1,1806,"""",html-slider-response,266,459554,0.0-266.0,"""","<img src='jspsych/CFDfaces/CFD-WM-017-002-N.jpg' height=""250px"">,</br><b>Nicholas</b>","""",256,ConfidenceQuery,Test,"""","""","""","""",CFD-AM-237-154-N.jpg,Justin,0,"""",0,80,1,4/25/2021 4:41,104.190.173.154,Mozilla/5.0 (Windows NT 10.0; Win64; x64; rv:88.0) Gecko/20100101 Firefox/88.0,,Firefox,88,Windows,10
132,1,null,"""",html-keyboard-response,267,460560,0.0-267.0,"""","<div style=""font-size:60px;"">+</div>","""",256,ITI,Test,null,1000,"""","""","""","""","""","""","""","""",1,4/25/2021 4:41,104.190.173.154,Mozilla/5.0 (Windows NT 10.0; Win64; x64; rv:88.0) Gecko/20100101 Firefox/88.0,,Firefox,88,Windows,10
132,1,null,"""",image-keyboard-response,268,460828,0.0-268.0,"""",jspsych/scrambledDisgustFaces/scrambledAM08DIS.JPG,"""",256,forwardMask,Test,null,250,"""",d,"""","""","""","""","""","""",1,4/25/2021 4:41,104.190.173.154,Mozilla/5.0 (Windows NT 10.0; Win64; x64; rv:88.0) Gecko/20100101 Firefox/88.0,,Firefox,88,Windows,10
132,1,null,"""",image-keyboard-response,269,460859,0.0-269.0,"""",jspsych/disgustFaces/AM08DIS.JPG,"""",256,Cue,Test,null,16,"""","""","""","""","""","""","""","""",1,4/25/2021 4:41,104.190.173.154,Mozilla/5.0 (Windows NT 10.0; Win64; x64; rv:88.0) Gecko/20100101 Firefox/88.0,,Firefox,88,Windows,10
132,1,null,"""",image-keyboard-response,270,460981,0.0-270.0,"""",jspsych/neutralFaces/BM06NES.JPG,"""",256,backwardMask,Test,null,100,"""","""","""","""","""","""","""","""",1,4/25/2021 4:41,104.190.173.154,Mozilla/5.0 (Windows NT 10.0; Win64; x64; rv:88.0) Gecko/20100101 Firefox/88.0,,Firefox,88,Windows,10
132,1,null,"""",html-keyboard-response,271,461985,0.0-271.0,"""","<div style=""font-size:60px;"">+</div>","""",256,fixationBtwnNeutralMaskAndPrompt,Test,null,1000,"""","""","""","""","""","""","""","""",1,4/25/2021 4:41,104.190.173.154,Mozilla/5.0 (Windows NT 10.0; Win64; x64; rv:88.0) Gecko/20100101 Firefox/88.0,,Firefox,88,Windows,10
132,1,3333,"""",html-button-response,272,465322,0.0-272.0,"""","<img src='jspsych/CFDfaces/CFD-BF-010-001-N.jpg' height=""250px"">,</br><b>Julie</b>",0,256,IntactOrRearranged,Test,"""","""","""","""",CFD-BM-026-002-N.jpg,Kenneth,0,0,"""","""",1,4/25/2021 4:41,104.190.173.154,Mozilla/5.0 (Windows NT 10.0; Win64; x64; rv:88.0) Gecko/20100101 Firefox/88.0,,Firefox,88,Windows,10
132,1,2582,"""",html-slider-response,273,467939,0.0-273.0,"""","<img src='jspsych/CFDfaces/CFD-BF-010-001-N.jpg' height=""250px"">,</br><b>Julie</b>","""",256,ConfidenceQuery,Test,"""","""","""","""",CFD-BM-026-002-N.jpg,Kenneth,0,"""",0,73,1,4/25/2021 4:41,104.190.173.154,Mozilla/5.0 (Windows NT 10.0; Win64; x64; rv:88.0) Gecko/20100101 Firefox/88.0,,Firefox,88,Windows,10
132,1,null,"""",html-keyboard-response,274,468944,0.0-274.0,"""","<div style=""font-size:60px;"">+</div>","""",256,ITI,Test,null,1000,"""","""","""","""","""","""","""","""",1,4/25/2021 4:41,104.190.173.154,Mozilla/5.0 (Windows NT 10.0; Win64; x64; rv:88.0) Gecko/20100101 Firefox/88.0,,Firefox,88,Windows,10
132,1,null,"""",image-keyboard-response,275,469216,0.0-275.0,"""",jspsych/scrambledDisgustFaces/scrambledAM05DIS.JPG,"""",256,forwardMask,Test,null,250,"""",d,"""","""","""","""","""","""",1,4/25/2021 4:41,104.190.173.154,Mozilla/5.0 (Windows NT 10.0; Win64; x64; rv:88.0) Gecko/20100101 Firefox/88.0,,Firefox,88,Windows,10
132,1,null,"""",image-keyboard-response,276,469246,0.0-276.0,"""",jspsych/disgustFaces/AM05DIS.JPG,"""",256,Cue,Test,null,16,"""","""","""","""","""","""","""","""",1,4/25/2021 4:41,104.190.173.154,Mozilla/5.0 (Windows NT 10.0; Win64; x64; rv:88.0) Gecko/20100101 Firefox/88.0,,Firefox,88,Windows,10
132,1,null,"""",image-keyboard-response,277,469358,0.0-277.0,"""",jspsych/neutralFaces/AM03NES.JPG,"""",256,backwardMask,Test,null,100,"""","""","""","""","""","""","""","""",1,4/25/2021 4:41,104.190.173.154,Mozilla/5.0 (Windows NT 10.0; Win64; x64; rv:88.0) Gecko/20100101 Firefox/88.0,,Firefox,88,Windows,10
132,1,null,"""",html-keyboard-response,278,470361,0.0-278.0,"""","<div style=""font-size:60px;"">+</div>","""",256,fixationBtwnNeutralMaskAndPrompt,Test,null,1000,"""","""","""","""","""","""","""","""",1,4/25/2021 4:41,104.190.173.154,Mozilla/5.0 (Windows NT 10.0; Win64; x64; rv:88.0) Gecko/20100101 Firefox/88.0,,Firefox,88,Windows,10
132,1,1190,"""",html-button-response,279,471554,0.0-279.0,"""","<img src='jspsych/CFDfaces/CFD-AF-226-251-N.jpg' height=""250px"">,</br><b>Stephanie</b>",0,256,IntactOrRearranged,Test,"""","""","""","""",CFD-AM-207-108-N.jpg,Sean,0,0,"""","""",1,4/25/2021 4:41,104.190.173.154,Mozilla/5.0 (Windows NT 10.0; Win64; x64; rv:88.0) Gecko/20100101 Firefox/88.0,,Firefox,88,Windows,10
132,1,1246,"""",html-slider-response,280,472835,0.0-280.0,"""","<img src='jspsych/CFDfaces/CFD-AF-226-251-N.jpg' height=""250px"">,</br><b>Stephanie</b>","""",256,ConfidenceQuery,Test,"""","""","""","""",CFD-AM-207-108-N.jpg,Sean,0,"""",0,80,1,4/25/2021 4:41,104.190.173.154,Mozilla/5.0 (Windows NT 10.0; Win64; x64; rv:88.0) Gecko/20100101 Firefox/88.0,,Firefox,88,Windows,10
132,1,null,"""",html-keyboard-response,281,473854,0.0-281.0,"""","<div style=""font-size:60px;"">+</div>","""",256,ITI,Test,null,1000,"""","""","""","""","""","""","""","""",1,4/25/2021 4:41,104.190.173.154,Mozilla/5.0 (Windows NT 10.0; Win64; x64; rv:88.0) Gecko/20100101 Firefox/88.0,,Firefox,88,Windows,10
132,1,null,"""",image-keyboard-response,282,474116,0.0-282.0,"""",jspsych/scrambledNeutralFaces/scrambledBM35NES.JPG,"""",256,forwardMask,Test,null,250,"""",n,"""","""","""","""","""","""",1,4/25/2021 4:41,104.190.173.154,Mozilla/5.0 (Windows NT 10.0; Win64; x64; rv:88.0) Gecko/20100101 Firefox/88.0,,Firefox,88,Windows,10
132,1,null,"""",image-keyboard-response,283,474146,0.0-283.0,"""",jspsych/neutralFaces/BM35NES.JPG,"""",256,Cue,Test,null,16,"""","""","""","""","""","""","""","""",1,4/25/2021 4:41,104.190.173.154,Mozilla/5.0 (Windows NT 10.0; Win64; x64; rv:88.0) Gecko/20100101 Firefox/88.0,,Firefox,88,Windows,10
132,1,null,"""",image-keyboard-response,284,474269,0.0-284.0,"""",jspsych/neutralFaces/BM22NES.JPG,"""",256,backwardMask,Test,null,100,"""","""","""","""","""","""","""","""",1,4/25/2021 4:41,104.190.173.154,Mozilla/5.0 (Windows NT 10.0; Win64; x64; rv:88.0) Gecko/20100101 Firefox/88.0,,Firefox,88,Windows,10
132,1,null,"""",html-keyboard-response,285,475284,0.0-285.0,"""","<div style=""font-size:60px;"">+</div>","""",256,fixationBtwnNeutralMaskAndPrompt,Test,null,1000,"""","""","""","""","""","""","""","""",1,4/25/2021 4:41,104.190.173.154,Mozilla/5.0 (Windows NT 10.0; Win64; x64; rv:88.0) Gecko/20100101 Firefox/88.0,,Firefox,88,Windows,10
132,1,2130,"""",html-button-response,286,477418,0.0-286.0,"""","<img src='jspsych/CFDfaces/CFD-WF-217-085-N.jpg' height=""250px"">,</br><b>Amanda</b>",0,256,IntactOrRearranged,Test,"""","""","""","""",CFD-AF-201-060-N.jpg,Heather,1,0,"""","""",1,4/25/2021 4:41,104.190.173.154,Mozilla/5.0 (Windows NT 10.0; Win64; x64; rv:88.0) Gecko/20100101 Firefox/88.0,,Firefox,88,Windows,10
132,1,2357,"""",html-slider-response,287,479811,0.0-287.0,"""","<img src='jspsych/CFDfaces/CFD-WF-217-085-N.jpg' height=""250px"">,</br><b>Amanda</b>","""",256,ConfidenceQuery,Test,"""","""","""","""",CFD-AF-201-060-N.jpg,Heather,1,"""",0,60,1,4/25/2021 4:41,104.190.173.154,Mozilla/5.0 (Windows NT 10.0; Win64; x64; rv:88.0) Gecko/20100101 Firefox/88.0,,Firefox,88,Windows,10
132,1,null,"""",html-keyboard-response,288,480820,0.0-288.0,"""","<div style=""font-size:60px;"">+</div>","""",256,ITI,Test,null,1000,"""","""","""","""","""","""","""","""",1,4/25/2021 4:41,104.190.173.154,Mozilla/5.0 (Windows NT 10.0; Win64; x64; rv:88.0) Gecko/20100101 Firefox/88.0,,Firefox,88,Windows,10
132,1,null,"""",image-keyboard-response,289,481090,0.0-289.0,"""",jspsych/scrambledNeutralFaces/scrambledAF12NES.JPG,"""",256,forwardMask,Test,null,250,"""",n,"""","""","""","""","""","""",1,4/25/2021 4:41,104.190.173.154,Mozilla/5.0 (Windows NT 10.0; Win64; x64; rv:88.0) Gecko/20100101 Firefox/88.0,,Firefox,88,Windows,10
132,1,null,"""",image-keyboard-response,290,481121,0.0-290.0,"""",jspsych/neutralFaces/AF12NES.JPG,"""",256,Cue,Test,null,16,"""","""","""","""","""","""","""","""",1,4/25/2021 4:41,104.190.173.154,Mozilla/5.0 (Windows NT 10.0; Win64; x64; rv:88.0) Gecko/20100101 Firefox/88.0,,Firefox,88,Windows,10
132,1,null,"""",image-keyboard-response,291,481245,0.0-291.0,"""",jspsych/neutralFaces/BF16NES.JPG,"""",256,backwardMask,Test,null,100,"""","""","""","""","""","""","""","""",1,4/25/2021 4:41,104.190.173.154,Mozilla/5.0 (Windows NT 10.0; Win64; x64; rv:88.0) Gecko/20100101 Firefox/88.0,,Firefox,88,Windows,10
132,1,null,"""",html-keyboard-response,292,482260,0.0-292.0,"""","<div style=""font-size:60px;"">+</div>","""",256,fixationBtwnNeutralMaskAndPrompt,Test,null,1000,"""","""","""","""","""","""","""","""",1,4/25/2021 4:41,104.190.173.154,Mozilla/5.0 (Windows NT 10.0; Win64; x64; rv:88.0) Gecko/20100101 Firefox/88.0,,Firefox,88,Windows,10
132,1,2868,"""",html-button-response,293,485130,0.0-293.0,"""","<img src='jspsych/CFDfaces/CFD-WF-016-015-N.jpg' height=""250px"">,</br><b>Christina</b>",1,256,IntactOrRearranged,Test,"""","""","""","""",CFD-AM-246-184-N.jpg,Jacob,1,1,"""","""",1,4/25/2021 4:41,104.190.173.154,Mozilla/5.0 (Windows NT 10.0; Win64; x64; rv:88.0) Gecko/20100101 Firefox/88.0,,Firefox,88,Windows,10
132,1,1211,"""",html-slider-response,294,486378,0.0-294.0,"""","<img src='jspsych/CFDfaces/CFD-WF-016-015-N.jpg' height=""250px"">,</br><b>Christina</b>","""",256,ConfidenceQuery,Test,"""","""","""","""",CFD-AM-246-184-N.jpg,Jacob,1,"""",0,100,1,4/25/2021 4:41,104.190.173.154,Mozilla/5.0 (Windows NT 10.0; Win64; x64; rv:88.0) Gecko/20100101 Firefox/88.0,,Firefox,88,Windows,10
