run_id,condition,rt,responses,trial_type,trial_index,time_elapsed,internal_node_id,question_order,stimulus,button_pressed,iTrial,Phase,ExperimentPhase,key_press,StimulusDurationSetting,CharacterResponse,correctResponse,Face,Name,rearranged,slider_start,response,didSubjectEnterRearranged,Block,recorded_at,ip,user_agent,device,browser,browser_version,platform,platform_version
4,1,9995,"{""Q0"":""A2MAFM9LD9FBIH""}",survey-text,0,9998,0.0-0.0,"""","""","""","""","""","""","""","""","""","""","""","""","""","""","""","""","""",4/18/2021 16:10,70.174.77.75,Mozilla/5.0 (Windows NT 10.0; Win64; x64; rv:87.0) Gecko/20100101 Firefox/87.0,,Firefox,87,Windows,10
4,1,4477,"{""Q0"":""44""}",survey-text,1,14481,0.0-1.0,"""","""","""","""","""","""","""","""","""","""","""","""","""","""","""","""","""",4/18/2021 16:10,70.174.77.75,Mozilla/5.0 (Windows NT 10.0; Win64; x64; rv:87.0) Gecko/20100101 Firefox/87.0,,Firefox,87,Windows,10
4,1,4593,"{""Q0"":""male"",""Q1"":""Not Hispanic/Latino"",""Q2"":""Asian""}",survey-multi-choice,2,19078,0.0-2.0,"[0,1,2]","""","""","""","""","""","""","""","""","""","""","""","""","""","""","""","""",4/18/2021 16:10,70.174.77.75,Mozilla/5.0 (Windows NT 10.0; Win64; x64; rv:87.0) Gecko/20100101 Firefox/87.0,,Firefox,87,Windows,10
4,1,12890,"""",image-button-response,3,31995,0.0-3.0,"""",directionsMemoryAssociation1.JPG,0,1,IntroDirections1,break,"""","""","""","""","""","""","""","""","""","""","""",4/18/2021 16:10,70.174.77.75,Mozilla/5.0 (Windows NT 10.0; Win64; x64; rv:87.0) Gecko/20100101 Firefox/87.0,,Firefox,87,Windows,10
4,1,38861,"""",image-button-response,4,70865,0.0-4.0,"""",directionsMemoryAssociation2.JPG,0,1,IntroDirections2,break,"""","""","""","""","""","""","""","""","""","""","""",4/18/2021 16:10,70.174.77.75,Mozilla/5.0 (Windows NT 10.0; Win64; x64; rv:87.0) Gecko/20100101 Firefox/87.0,,Firefox,87,Windows,10
4,1,null,"""",html-keyboard-response,5,75879,0.0-5.0,"""","<img src='jspsych/CFDfaces/CFD-AM-221-184-N.jpg' height=""250px"">,</br><b>Samuel</b>","""",1,IntactFace,Practice,null,5000,"""","""","""","""","""","""","""","""","""",4/18/2021 16:10,70.174.77.75,Mozilla/5.0 (Windows NT 10.0; Win64; x64; rv:87.0) Gecko/20100101 Firefox/87.0,,Firefox,87,Windows,10
4,1,null,"""",html-keyboard-response,6,76397,0.0-6.0,"""","<div style=""font-size:60px;"">+</div>","""",1,ITI,Practice,null,1000,"""","""","""","""","""","""","""","""","""",4/18/2021 16:10,70.174.77.75,Mozilla/5.0 (Windows NT 10.0; Win64; x64; rv:87.0) Gecko/20100101 Firefox/87.0,,Firefox,87,Windows,10
4,1,2780,"""",html-keyboard-response,7,81408,0.0-7.0,"""","<img src='jspsych/CFDfaces/CFD-BF-221-223-N.jpg' height=""250px"">,</br><b>Cassandra</b>","""",2,IntactFace,Practice,70,5000,f,"""","""","""","""","""","""","""","""",4/18/2021 16:10,70.174.77.75,Mozilla/5.0 (Windows NT 10.0; Win64; x64; rv:87.0) Gecko/20100101 Firefox/87.0,,Firefox,87,Windows,10
4,1,null,"""",html-keyboard-response,8,81917,0.0-8.0,"""","<div style=""font-size:60px;"">+</div>","""",2,ITI,Practice,null,1000,"""","""","""","""","""","""","""","""","""",4/18/2021 16:10,70.174.77.75,Mozilla/5.0 (Windows NT 10.0; Win64; x64; rv:87.0) Gecko/20100101 Firefox/87.0,,Firefox,87,Windows,10
4,1,2883,"""",html-keyboard-response,9,86926,0.0-9.0,"""","<img src='jspsych/CFDfaces/CFD-AF-200-228-N.jpg' height=""250px"">,</br><b>Tara</b>","""",3,IntactFace,Practice,78,5000,n,"""","""","""","""","""","""","""","""",4/18/2021 16:10,70.174.77.75,Mozilla/5.0 (Windows NT 10.0; Win64; x64; rv:87.0) Gecko/20100101 Firefox/87.0,,Firefox,87,Windows,10
4,1,null,"""",html-keyboard-response,10,87436,0.0-10.0,"""","<div style=""font-size:60px;"">+</div>","""",3,ITI,Practice,null,1000,"""","""","""","""","""","""","""","""","""",4/18/2021 16:10,70.174.77.75,Mozilla/5.0 (Windows NT 10.0; Win64; x64; rv:87.0) Gecko/20100101 Firefox/87.0,,Firefox,87,Windows,10
4,1,2583,"""",html-keyboard-response,11,92449,0.0-11.0,"""","<img src='jspsych/CFDfaces/CFD-AF-235-170-N.jpg' height=""250px"">,</br><b>Shannon</b>","""",4,IntactFace,Practice,78,5000,n,"""","""","""","""","""","""","""","""",4/18/2021 16:10,70.174.77.75,Mozilla/5.0 (Windows NT 10.0; Win64; x64; rv:87.0) Gecko/20100101 Firefox/87.0,,Firefox,87,Windows,10
4,1,null,"""",html-keyboard-response,12,92978,0.0-12.0,"""","<div style=""font-size:60px;"">+</div>","""",4,ITI,Practice,null,1000,"""","""","""","""","""","""","""","""","""",4/18/2021 16:10,70.174.77.75,Mozilla/5.0 (Windows NT 10.0; Win64; x64; rv:87.0) Gecko/20100101 Firefox/87.0,,Firefox,87,Windows,10
4,1,3545,"""",html-keyboard-response,13,97989,0.0-13.0,"""","<img src='jspsych/CFDfaces/CFD-BM-032-024-N.jpg' height=""250px"">,</br><b>Patrick</b>","""",5,IntactFace,Practice,70,5000,f,"""","""","""","""","""","""","""","""",4/18/2021 16:10,70.174.77.75,Mozilla/5.0 (Windows NT 10.0; Win64; x64; rv:87.0) Gecko/20100101 Firefox/87.0,,Firefox,87,Windows,10
4,1,null,"""",html-keyboard-response,14,98508,0.0-14.0,"""","<div style=""font-size:60px;"">+</div>","""",5,ITI,Practice,null,1000,"""","""","""","""","""","""","""","""","""",4/18/2021 16:10,70.174.77.75,Mozilla/5.0 (Windows NT 10.0; Win64; x64; rv:87.0) Gecko/20100101 Firefox/87.0,,Firefox,87,Windows,10
4,1,3105,"""",html-keyboard-response,15,103528,0.0-15.0,"""","<img src='jspsych/CFDfaces/CFD-WM-006-002-N.jpg' height=""250px"">,</br><b>Carlos</b>","""",6,IntactFace,Practice,70,5000,f,"""","""","""","""","""","""","""","""",4/18/2021 16:10,70.174.77.75,Mozilla/5.0 (Windows NT 10.0; Win64; x64; rv:87.0) Gecko/20100101 Firefox/87.0,,Firefox,87,Windows,10
4,1,null,"""",html-keyboard-response,16,104047,0.0-16.0,"""","<div style=""font-size:60px;"">+</div>","""",6,ITI,Practice,null,1000,"""","""","""","""","""","""","""","""","""",4/18/2021 16:10,70.174.77.75,Mozilla/5.0 (Windows NT 10.0; Win64; x64; rv:87.0) Gecko/20100101 Firefox/87.0,,Firefox,87,Windows,10
4,1,3350,"""",html-keyboard-response,17,109066,0.0-17.0,"""","<img src='jspsych/CFDfaces/CFD-WF-017-003-N.jpg' height=""250px"">,</br><b>Katelyn</b>","""",7,IntactFace,Practice,70,5000,f,"""","""","""","""","""","""","""","""",4/18/2021 16:10,70.174.77.75,Mozilla/5.0 (Windows NT 10.0; Win64; x64; rv:87.0) Gecko/20100101 Firefox/87.0,,Firefox,87,Windows,10
4,1,null,"""",html-keyboard-response,18,109577,0.0-18.0,"""","<div style=""font-size:60px;"">+</div>","""",7,ITI,Practice,null,1000,"""","""","""","""","""","""","""","""","""",4/18/2021 16:10,70.174.77.75,Mozilla/5.0 (Windows NT 10.0; Win64; x64; rv:87.0) Gecko/20100101 Firefox/87.0,,Firefox,87,Windows,10
4,1,2316,"""",html-keyboard-response,19,114587,0.0-19.0,"""","<img src='jspsych/CFDfaces/CFD-AM-229-224-N.jpg' height=""250px"">,</br><b>Marcus</b>","""",8,IntactFace,Practice,78,5000,n,"""","""","""","""","""","""","""","""",4/18/2021 16:10,70.174.77.75,Mozilla/5.0 (Windows NT 10.0; Win64; x64; rv:87.0) Gecko/20100101 Firefox/87.0,,Firefox,87,Windows,10
4,1,null,"""",html-keyboard-response,20,115096,0.0-20.0,"""","<div style=""font-size:60px;"">+</div>","""",8,ITI,Practice,null,1000,"""","""","""","""","""","""","""","""","""",4/18/2021 16:10,70.174.77.75,Mozilla/5.0 (Windows NT 10.0; Win64; x64; rv:87.0) Gecko/20100101 Firefox/87.0,,Firefox,87,Windows,10
4,1,13457,"""",image-button-response,21,128571,0.0-21.0,"""",directionsForTest.JPG,0,1,directionsForTest,break,"""","""","""","""","""","""","""","""","""","""","""",4/18/2021 16:10,70.174.77.75,Mozilla/5.0 (Windows NT 10.0; Win64; x64; rv:87.0) Gecko/20100101 Firefox/87.0,,Firefox,87,Windows,10
4,1,8719,"""",image-button-response,22,137297,0.0-22.0,"""",directionsForTest2.JPG,0,1,directionsForTest2,break,"""","""","""","""","""","""","""","""","""","""","""",4/18/2021 16:10,70.174.77.75,Mozilla/5.0 (Windows NT 10.0; Win64; x64; rv:87.0) Gecko/20100101 Firefox/87.0,,Firefox,87,Windows,10
4,1,null,"""",html-keyboard-response,23,138306,0.0-23.0,"""","<div style=""font-size:60px;"">+</div>","""",1,ITI,Practice,null,1000,"""","""","""","""","""","""","""","""","""",4/18/2021 16:10,70.174.77.75,Mozilla/5.0 (Windows NT 10.0; Win64; x64; rv:87.0) Gecko/20100101 Firefox/87.0,,Firefox,87,Windows,10
4,1,null,"""",image-keyboard-response,24,138567,0.0-24.0,"""",jspsych/scrambledDisgustFaces/scrambledBF16DIS.JPG,"""",1,forwardMask,Practice,null,250,"""",d,"""","""","""","""","""","""","""",4/18/2021 16:10,70.174.77.75,Mozilla/5.0 (Windows NT 10.0; Win64; x64; rv:87.0) Gecko/20100101 Firefox/87.0,,Firefox,87,Windows,10
4,1,null,"""",image-keyboard-response,25,138606,0.0-25.0,"""",jspsych/disgustFaces/BF16DIS.JPG,"""",1,Cue,Practice,null,16,"""","""","""","""","""","""","""","""","""",4/18/2021 16:10,70.174.77.75,Mozilla/5.0 (Windows NT 10.0; Win64; x64; rv:87.0) Gecko/20100101 Firefox/87.0,,Firefox,87,Windows,10
4,1,null,"""",image-keyboard-response,26,138727,0.0-26.0,"""",jspsych/neutralFaces/BF31NES.JPG,"""",1,backwardMask,Practice,null,100,"""","""","""","""","""","""","""","""","""",4/18/2021 16:10,70.174.77.75,Mozilla/5.0 (Windows NT 10.0; Win64; x64; rv:87.0) Gecko/20100101 Firefox/87.0,,Firefox,87,Windows,10
4,1,null,"""",html-keyboard-response,27,139746,0.0-27.0,"""","<div style=""font-size:60px;"">+</div>","""",1,fixationBtwnNeutralMaskAndPrompt,Practice,null,1000,"""","""","""","""","""","""","""","""","""",4/18/2021 16:10,70.174.77.75,Mozilla/5.0 (Windows NT 10.0; Win64; x64; rv:87.0) Gecko/20100101 Firefox/87.0,,Firefox,87,Windows,10
4,1,null,"""",html-button-response,28,144766,0.0-28.0,"""","<img src='jspsych/CFDfaces/CFD-AM-229-224-N.jpg'height=""250px""></br><b>Carlos</b>",null,1,IntactOrRearranged,Practice,"""","""","""","""",CFD-AM-229-224-N.jpg,Carlos,1,"""","""","""","""",4/18/2021 16:10,70.174.77.75,Mozilla/5.0 (Windows NT 10.0; Win64; x64; rv:87.0) Gecko/20100101 Firefox/87.0,,Firefox,87,Windows,10
4,1,null,"""",html-slider-response,29,149782,0.0-29.0,"""","<img src='jspsych/CFDfaces/CFD-AM-229-224-N.jpg'height=""250px""></br><b>Carlos</b>","""",1,ConfidenceQuery,Practice,"""","""","""","""",CFD-WM-207-048-N.jpg,Kenneth,1,0,null,"""","""",4/18/2021 16:10,70.174.77.75,Mozilla/5.0 (Windows NT 10.0; Win64; x64; rv:87.0) Gecko/20100101 Firefox/87.0,,Firefox,87,Windows,10
4,1,3473,"""",html-button-response,30,153259,0.0-30.0,"""",<p>Please click either button: REARRANGED or INTACT before the 5-second time limit.</p>,0,1,feedback,Practice,"""","""","""","""","""","""","""","""","""","""","""",4/18/2021 16:10,70.174.77.75,Mozilla/5.0 (Windows NT 10.0; Win64; x64; rv:87.0) Gecko/20100101 Firefox/87.0,,Firefox,87,Windows,10
4,1,null,"""",html-keyboard-response,31,154266,0.0-31.0,"""","<div style=""font-size:60px;"">+</div>","""",2,ITI,Practice,null,1000,"""","""","""","""","""","""","""","""","""",4/18/2021 16:10,70.174.77.75,Mozilla/5.0 (Windows NT 10.0; Win64; x64; rv:87.0) Gecko/20100101 Firefox/87.0,,Firefox,87,Windows,10
4,1,null,"""",image-keyboard-response,32,154525,0.0-32.0,"""",jspsych/scrambledNeutralFaces/scrambledAF16NES.JPG,"""",2,forwardMask,Practice,null,250,"""",n,"""","""","""","""","""","""","""",4/18/2021 16:10,70.174.77.75,Mozilla/5.0 (Windows NT 10.0; Win64; x64; rv:87.0) Gecko/20100101 Firefox/87.0,,Firefox,87,Windows,10
4,1,null,"""",image-keyboard-response,33,154564,0.0-33.0,"""",jspsych/neutralFaces/AF16NES.JPG,"""",2,Cue,Practice,null,16,"""","""","""","""","""","""","""","""","""",4/18/2021 16:10,70.174.77.75,Mozilla/5.0 (Windows NT 10.0; Win64; x64; rv:87.0) Gecko/20100101 Firefox/87.0,,Firefox,87,Windows,10
4,1,null,"""",image-keyboard-response,34,154681,0.0-34.0,"""",jspsych/neutralFaces/AF03NES.JPG,"""",2,backwardMask,Practice,null,100,"""","""","""","""","""","""","""","""","""",4/18/2021 16:10,70.174.77.75,Mozilla/5.0 (Windows NT 10.0; Win64; x64; rv:87.0) Gecko/20100101 Firefox/87.0,,Firefox,87,Windows,10
4,1,null,"""",html-keyboard-response,35,155683,0.0-35.0,"""","<div style=""font-size:60px;"">+</div>","""",2,fixationBtwnNeutralMaskAndPrompt,Practice,null,1000,"""","""","""","""","""","""","""","""","""",4/18/2021 16:10,70.174.77.75,Mozilla/5.0 (Windows NT 10.0; Win64; x64; rv:87.0) Gecko/20100101 Firefox/87.0,,Firefox,87,Windows,10
4,1,3813,"""",html-button-response,36,159498,0.0-36.0,"""","<img src='jspsych/CFDfaces/CFD-AF-235-170-N.jpg'height=""250px""></br><b>Shannon</b>",1,2,IntactOrRearranged,Practice,"""","""","""","""",CFD-AF-235-170-N.jpg,Shannon,0,"""","""",1,"""",4/18/2021 16:10,70.174.77.75,Mozilla/5.0 (Windows NT 10.0; Win64; x64; rv:87.0) Gecko/20100101 Firefox/87.0,,Firefox,87,Windows,10
4,1,3940,"""",html-slider-response,37,163441,0.0-37.0,"""","<img src='jspsych/CFDfaces/CFD-AF-235-170-N.jpg'height=""250px""></br><b>Shannon</b>","""",2,ConfidenceQuery,Practice,"""","""","""","""",CFD-WM-207-048-N.jpg,Kenneth,0,0,19,"""","""",4/18/2021 16:10,70.174.77.75,Mozilla/5.0 (Windows NT 10.0; Win64; x64; rv:87.0) Gecko/20100101 Firefox/87.0,,Firefox,87,Windows,10
4,1,4951,"""",html-button-response,38,168392,0.0-38.0,"""",You are Incorrect. You Called an Intact Pair Rearranged,0,2,feedback,Practice,"""","""","""","""","""","""","""","""","""","""","""",4/18/2021 16:10,70.174.77.75,Mozilla/5.0 (Windows NT 10.0; Win64; x64; rv:87.0) Gecko/20100101 Firefox/87.0,,Firefox,87,Windows,10
4,1,null,"""",html-keyboard-response,39,169396,0.0-39.0,"""","<div style=""font-size:60px;"">+</div>","""",3,ITI,Practice,null,1000,"""","""","""","""","""","""","""","""","""",4/18/2021 16:10,70.174.77.75,Mozilla/5.0 (Windows NT 10.0; Win64; x64; rv:87.0) Gecko/20100101 Firefox/87.0,,Firefox,87,Windows,10
4,1,null,"""",image-keyboard-response,40,169656,0.0-40.0,"""",jspsych/scrambledNeutralFaces/scrambledBF15NES.JPG,"""",3,forwardMask,Practice,null,250,"""",n,"""","""","""","""","""","""","""",4/18/2021 16:10,70.174.77.75,Mozilla/5.0 (Windows NT 10.0; Win64; x64; rv:87.0) Gecko/20100101 Firefox/87.0,,Firefox,87,Windows,10
4,1,null,"""",image-keyboard-response,41,169696,0.0-41.0,"""",jspsych/neutralFaces/BF15NES.JPG,"""",3,Cue,Practice,null,16,"""","""","""","""","""","""","""","""","""",4/18/2021 16:10,70.174.77.75,Mozilla/5.0 (Windows NT 10.0; Win64; x64; rv:87.0) Gecko/20100101 Firefox/87.0,,Firefox,87,Windows,10
4,1,null,"""",image-keyboard-response,42,169816,0.0-42.0,"""",jspsych/neutralFaces/BF25NES.JPG,"""",3,backwardMask,Practice,null,100,"""","""","""","""","""","""","""","""","""",4/18/2021 16:10,70.174.77.75,Mozilla/5.0 (Windows NT 10.0; Win64; x64; rv:87.0) Gecko/20100101 Firefox/87.0,,Firefox,87,Windows,10
4,1,null,"""",html-keyboard-response,43,170836,0.0-43.0,"""","<div style=""font-size:60px;"">+</div>","""",3,fixationBtwnNeutralMaskAndPrompt,Practice,null,1000,"""","""","""","""","""","""","""","""","""",4/18/2021 16:10,70.174.77.75,Mozilla/5.0 (Windows NT 10.0; Win64; x64; rv:87.0) Gecko/20100101 Firefox/87.0,,Firefox,87,Windows,10
4,1,3882,"""",html-button-response,44,174719,0.0-44.0,"""","<img src='jspsych/CFDfaces/CFD-WM-006-002-N.jpg'height=""250px""></br><b>Marcus</b>",1,3,IntactOrRearranged,Practice,"""","""","""","""",CFD-WM-006-002-N.jpg,Marcus,1,"""","""",1,"""",4/18/2021 16:10,70.174.77.75,Mozilla/5.0 (Windows NT 10.0; Win64; x64; rv:87.0) Gecko/20100101 Firefox/87.0,,Firefox,87,Windows,10
4,1,4696,"""",html-slider-response,45,179417,0.0-45.0,"""","<img src='jspsych/CFDfaces/CFD-WM-006-002-N.jpg'height=""250px""></br><b>Marcus</b>","""",3,ConfidenceQuery,Practice,"""","""","""","""",CFD-WM-207-048-N.jpg,Kenneth,1,0,58,"""","""",4/18/2021 16:10,70.174.77.75,Mozilla/5.0 (Windows NT 10.0; Win64; x64; rv:87.0) Gecko/20100101 Firefox/87.0,,Firefox,87,Windows,10
4,1,2374,"""",html-button-response,46,181793,0.0-46.0,"""",You are Correct. You Called A Rearranged Pair Rearranged,0,3,feedback,Practice,"""","""","""","""","""","""","""","""","""","""","""",4/18/2021 16:10,70.174.77.75,Mozilla/5.0 (Windows NT 10.0; Win64; x64; rv:87.0) Gecko/20100101 Firefox/87.0,,Firefox,87,Windows,10
4,1,null,"""",html-keyboard-response,47,182797,0.0-47.0,"""","<div style=""font-size:60px;"">+</div>","""",4,ITI,Practice,null,1000,"""","""","""","""","""","""","""","""","""",4/18/2021 16:10,70.174.77.75,Mozilla/5.0 (Windows NT 10.0; Win64; x64; rv:87.0) Gecko/20100101 Firefox/87.0,,Firefox,87,Windows,10
4,1,null,"""",image-keyboard-response,48,183061,0.0-48.0,"""",jspsych/scrambledDisgustFaces/scrambledBM06DIS.JPG,"""",4,forwardMask,Practice,null,250,"""",d,"""","""","""","""","""","""","""",4/18/2021 16:10,70.174.77.75,Mozilla/5.0 (Windows NT 10.0; Win64; x64; rv:87.0) Gecko/20100101 Firefox/87.0,,Firefox,87,Windows,10
4,1,null,"""",image-keyboard-response,49,183096,0.0-49.0,"""",jspsych/disgustFaces/BM07DIS.JPG,"""",4,Cue,Practice,null,16,"""","""","""","""","""","""","""","""","""",4/18/2021 16:10,70.174.77.75,Mozilla/5.0 (Windows NT 10.0; Win64; x64; rv:87.0) Gecko/20100101 Firefox/87.0,,Firefox,87,Windows,10
4,1,null,"""",image-keyboard-response,50,183216,0.0-50.0,"""",jspsych/neutralFaces/BM04NES.JPG,"""",4,backwardMask,Practice,null,100,"""","""","""","""","""","""","""","""","""",4/18/2021 16:10,70.174.77.75,Mozilla/5.0 (Windows NT 10.0; Win64; x64; rv:87.0) Gecko/20100101 Firefox/87.0,,Firefox,87,Windows,10
4,1,null,"""",html-keyboard-response,51,184236,0.0-51.0,"""","<div style=""font-size:60px;"">+</div>","""",4,fixationBtwnNeutralMaskAndPrompt,Practice,null,1000,"""","""","""","""","""","""","""","""","""",4/18/2021 16:10,70.174.77.75,Mozilla/5.0 (Windows NT 10.0; Win64; x64; rv:87.0) Gecko/20100101 Firefox/87.0,,Firefox,87,Windows,10
4,1,2115,"""",html-button-response,52,186353,0.0-52.0,"""","<img src='jspsych/CFDfaces/CFD-BM-032-024-N.jpg'height=""250px""></br><b>Patrick</b>",0,4,IntactOrRearranged,Practice,"""","""","""","""",CFD-BM-032-024-N.jpg,Patrick,0,"""","""",0,"""",4/18/2021 16:10,70.174.77.75,Mozilla/5.0 (Windows NT 10.0; Win64; x64; rv:87.0) Gecko/20100101 Firefox/87.0,,Firefox,87,Windows,10
4,1,3400,"""",html-slider-response,53,189754,0.0-53.0,"""","<img src='jspsych/CFDfaces/CFD-BM-032-024-N.jpg'height=""250px""></br><b>Patrick</b>","""",4,ConfidenceQuery,Practice,"""","""","""","""",CFD-WM-207-048-N.jpg,Kenneth,0,0,79,"""","""",4/18/2021 16:10,70.174.77.75,Mozilla/5.0 (Windows NT 10.0; Win64; x64; rv:87.0) Gecko/20100101 Firefox/87.0,,Firefox,87,Windows,10
4,1,1577,"""",html-button-response,54,191335,0.0-54.0,"""",You are Correct. You called an Intact Pair Intact,0,4,feedback,Practice,"""","""","""","""","""","""","""","""","""","""","""",4/18/2021 16:10,70.174.77.75,Mozilla/5.0 (Windows NT 10.0; Win64; x64; rv:87.0) Gecko/20100101 Firefox/87.0,,Firefox,87,Windows,10
4,1,null,"""",html-keyboard-response,55,192346,0.0-55.0,"""","<div style=""font-size:60px;"">+</div>","""",5,ITI,Practice,null,1000,"""","""","""","""","""","""","""","""","""",4/18/2021 16:10,70.174.77.75,Mozilla/5.0 (Windows NT 10.0; Win64; x64; rv:87.0) Gecko/20100101 Firefox/87.0,,Firefox,87,Windows,10
4,1,null,"""",image-keyboard-response,56,192606,0.0-56.0,"""",jspsych/scrambledDisgustFaces/scrambledBF27DIS.JPG,"""",5,forwardMask,Practice,null,250,"""",d,"""","""","""","""","""","""","""",4/18/2021 16:10,70.174.77.75,Mozilla/5.0 (Windows NT 10.0; Win64; x64; rv:87.0) Gecko/20100101 Firefox/87.0,,Firefox,87,Windows,10
4,1,null,"""",image-keyboard-response,57,192645,0.0-57.0,"""",jspsych/disgustFaces/BF27DIS.JPG,"""",5,Cue,Practice,null,16,"""","""","""","""","""","""","""","""","""",4/18/2021 16:10,70.174.77.75,Mozilla/5.0 (Windows NT 10.0; Win64; x64; rv:87.0) Gecko/20100101 Firefox/87.0,,Firefox,87,Windows,10
4,1,null,"""",image-keyboard-response,58,192756,0.0-58.0,"""",jspsych/neutralFaces/AF27NES.JPG,"""",5,backwardMask,Practice,null,100,"""","""","""","""","""","""","""","""","""",4/18/2021 16:10,70.174.77.75,Mozilla/5.0 (Windows NT 10.0; Win64; x64; rv:87.0) Gecko/20100101 Firefox/87.0,,Firefox,87,Windows,10
4,1,null,"""",html-keyboard-response,59,193766,0.0-59.0,"""","<div style=""font-size:60px;"">+</div>","""",5,fixationBtwnNeutralMaskAndPrompt,Practice,null,1000,"""","""","""","""","""","""","""","""","""",4/18/2021 16:10,70.174.77.75,Mozilla/5.0 (Windows NT 10.0; Win64; x64; rv:87.0) Gecko/20100101 Firefox/87.0,,Firefox,87,Windows,10
4,1,3468,"""",html-button-response,60,197237,0.0-60.0,"""","<img src='jspsych/CFDfaces/CFD-AF-200-228-N.jpg'height=""250px""></br><b>Tara</b>",0,5,IntactOrRearranged,Practice,"""","""","""","""",CFD-AF-200-228-N.jpg,Tara,0,"""","""",0,"""",4/18/2021 16:10,70.174.77.75,Mozilla/5.0 (Windows NT 10.0; Win64; x64; rv:87.0) Gecko/20100101 Firefox/87.0,,Firefox,87,Windows,10
4,1,4038,"""",html-slider-response,61,201279,0.0-61.0,"""","<img src='jspsych/CFDfaces/CFD-AF-200-228-N.jpg'height=""250px""></br><b>Tara</b>","""",5,ConfidenceQuery,Practice,"""","""","""","""",CFD-WM-207-048-N.jpg,Kenneth,0,0,38,"""","""",4/18/2021 16:10,70.174.77.75,Mozilla/5.0 (Windows NT 10.0; Win64; x64; rv:87.0) Gecko/20100101 Firefox/87.0,,Firefox,87,Windows,10
4,1,1488,"""",html-button-response,62,202767,0.0-62.0,"""",You are Correct. You called an Intact Pair Intact,0,5,feedback,Practice,"""","""","""","""","""","""","""","""","""","""","""",4/18/2021 16:10,70.174.77.75,Mozilla/5.0 (Windows NT 10.0; Win64; x64; rv:87.0) Gecko/20100101 Firefox/87.0,,Firefox,87,Windows,10
4,1,null,"""",html-keyboard-response,63,203786,0.0-63.0,"""","<div style=""font-size:60px;"">+</div>","""",6,ITI,Practice,null,1000,"""","""","""","""","""","""","""","""","""",4/18/2021 16:10,70.174.77.75,Mozilla/5.0 (Windows NT 10.0; Win64; x64; rv:87.0) Gecko/20100101 Firefox/87.0,,Firefox,87,Windows,10
4,1,null,"""",image-keyboard-response,64,204046,0.0-64.0,"""",jspsych/scrambledNeutralFaces/scrambledAM05NES.JPG,"""",6,forwardMask,Practice,null,250,"""",n,"""","""","""","""","""","""","""",4/18/2021 16:10,70.174.77.75,Mozilla/5.0 (Windows NT 10.0; Win64; x64; rv:87.0) Gecko/20100101 Firefox/87.0,,Firefox,87,Windows,10
4,1,null,"""",image-keyboard-response,65,204086,0.0-65.0,"""",jspsych/neutralFaces/AM05NES.JPG,"""",6,Cue,Practice,null,16,"""","""","""","""","""","""","""","""","""",4/18/2021 16:10,70.174.77.75,Mozilla/5.0 (Windows NT 10.0; Win64; x64; rv:87.0) Gecko/20100101 Firefox/87.0,,Firefox,87,Windows,10
4,1,null,"""",image-keyboard-response,66,204216,0.0-66.0,"""",jspsych/neutralFaces/BM28NES.JPG,"""",6,backwardMask,Practice,null,100,"""","""","""","""","""","""","""","""","""",4/18/2021 16:10,70.174.77.75,Mozilla/5.0 (Windows NT 10.0; Win64; x64; rv:87.0) Gecko/20100101 Firefox/87.0,,Firefox,87,Windows,10
4,1,null,"""",html-keyboard-response,67,205236,0.0-67.0,"""","<div style=""font-size:60px;"">+</div>","""",6,fixationBtwnNeutralMaskAndPrompt,Practice,null,1000,"""","""","""","""","""","""","""","""","""",4/18/2021 16:10,70.174.77.75,Mozilla/5.0 (Windows NT 10.0; Win64; x64; rv:87.0) Gecko/20100101 Firefox/87.0,,Firefox,87,Windows,10
4,1,3354,"""",html-button-response,68,208592,0.0-68.0,"""","<img src='jspsych/CFDfaces/CFD-BF-221-223-N.jpg'height=""250px""></br><b>Katelyn</b>",1,6,IntactOrRearranged,Practice,"""","""","""","""",CFD-BF-221-223-N.jpg,Katelyn,1,"""","""",1,"""",4/18/2021 16:10,70.174.77.75,Mozilla/5.0 (Windows NT 10.0; Win64; x64; rv:87.0) Gecko/20100101 Firefox/87.0,,Firefox,87,Windows,10
4,1,3566,"""",html-slider-response,69,212163,0.0-69.0,"""","<img src='jspsych/CFDfaces/CFD-BF-221-223-N.jpg'height=""250px""></br><b>Katelyn</b>","""",6,ConfidenceQuery,Practice,"""","""","""","""",CFD-WM-207-048-N.jpg,Kenneth,1,0,79,"""","""",4/18/2021 16:10,70.174.77.75,Mozilla/5.0 (Windows NT 10.0; Win64; x64; rv:87.0) Gecko/20100101 Firefox/87.0,,Firefox,87,Windows,10
4,1,1472,"""",html-button-response,70,213637,0.0-70.0,"""",You are Correct. You Called A Rearranged Pair Rearranged,0,6,feedback,Practice,"""","""","""","""","""","""","""","""","""","""","""",4/18/2021 16:10,70.174.77.75,Mozilla/5.0 (Windows NT 10.0; Win64; x64; rv:87.0) Gecko/20100101 Firefox/87.0,,Firefox,87,Windows,10
4,1,null,"""",html-keyboard-response,71,214646,0.0-71.0,"""","<div style=""font-size:60px;"">+</div>","""",7,ITI,Practice,null,1000,"""","""","""","""","""","""","""","""","""",4/18/2021 16:10,70.174.77.75,Mozilla/5.0 (Windows NT 10.0; Win64; x64; rv:87.0) Gecko/20100101 Firefox/87.0,,Firefox,87,Windows,10
4,1,null,"""",image-keyboard-response,72,214906,0.0-72.0,"""",jspsych/scrambledDisgustFaces/scrambledBF28DIS.JPG,"""",7,forwardMask,Practice,null,250,"""",d,"""","""","""","""","""","""","""",4/18/2021 16:10,70.174.77.75,Mozilla/5.0 (Windows NT 10.0; Win64; x64; rv:87.0) Gecko/20100101 Firefox/87.0,,Firefox,87,Windows,10
4,1,null,"""",image-keyboard-response,73,214946,0.0-73.0,"""",jspsych/disgustFaces/BF28DIS.JPG,"""",7,Cue,Practice,null,16,"""","""","""","""","""","""","""","""","""",4/18/2021 16:10,70.174.77.75,Mozilla/5.0 (Windows NT 10.0; Win64; x64; rv:87.0) Gecko/20100101 Firefox/87.0,,Firefox,87,Windows,10
4,1,null,"""",image-keyboard-response,74,215066,0.0-74.0,"""",jspsych/neutralFaces/AF20NES.JPG,"""",7,backwardMask,Practice,null,100,"""","""","""","""","""","""","""","""","""",4/18/2021 16:10,70.174.77.75,Mozilla/5.0 (Windows NT 10.0; Win64; x64; rv:87.0) Gecko/20100101 Firefox/87.0,,Firefox,87,Windows,10
4,1,null,"""",html-keyboard-response,75,216086,0.0-75.0,"""","<div style=""font-size:60px;"">+</div>","""",7,fixationBtwnNeutralMaskAndPrompt,Practice,null,1000,"""","""","""","""","""","""","""","""","""",4/18/2021 16:10,70.174.77.75,Mozilla/5.0 (Windows NT 10.0; Win64; x64; rv:87.0) Gecko/20100101 Firefox/87.0,,Firefox,87,Windows,10
4,1,2117,"""",html-button-response,76,218205,0.0-76.0,"""","<img src='jspsych/CFDfaces/CFD-WF-017-003-N.jpg'height=""250px""></br><b>Cassandra</b>",1,7,IntactOrRearranged,Practice,"""","""","""","""",CFD-WF-017-003-N.jpg,Cassandra,1,"""","""",1,"""",4/18/2021 16:10,70.174.77.75,Mozilla/5.0 (Windows NT 10.0; Win64; x64; rv:87.0) Gecko/20100101 Firefox/87.0,,Firefox,87,Windows,10
4,1,3554,"""",html-slider-response,77,221760,0.0-77.0,"""","<img src='jspsych/CFDfaces/CFD-WF-017-003-N.jpg'height=""250px""></br><b>Cassandra</b>","""",7,ConfidenceQuery,Practice,"""","""","""","""",CFD-WM-207-048-N.jpg,Kenneth,1,0,88,"""","""",4/18/2021 16:10,70.174.77.75,Mozilla/5.0 (Windows NT 10.0; Win64; x64; rv:87.0) Gecko/20100101 Firefox/87.0,,Firefox,87,Windows,10
4,1,1709,"""",html-button-response,78,223473,0.0-78.0,"""",You are Correct. You Called A Rearranged Pair Rearranged,0,7,feedback,Practice,"""","""","""","""","""","""","""","""","""","""","""",4/18/2021 16:10,70.174.77.75,Mozilla/5.0 (Windows NT 10.0; Win64; x64; rv:87.0) Gecko/20100101 Firefox/87.0,,Firefox,87,Windows,10
4,1,null,"""",html-keyboard-response,79,224486,0.0-79.0,"""","<div style=""font-size:60px;"">+</div>","""",8,ITI,Practice,null,1000,"""","""","""","""","""","""","""","""","""",4/18/2021 16:10,70.174.77.75,Mozilla/5.0 (Windows NT 10.0; Win64; x64; rv:87.0) Gecko/20100101 Firefox/87.0,,Firefox,87,Windows,10
4,1,null,"""",image-keyboard-response,80,224756,0.0-80.0,"""",jspsych/scrambledDisgustFaces/scrambledBF15DIS.JPG,"""",8,forwardMask,Practice,null,250,"""",d,"""","""","""","""","""","""","""",4/18/2021 16:10,70.174.77.75,Mozilla/5.0 (Windows NT 10.0; Win64; x64; rv:87.0) Gecko/20100101 Firefox/87.0,,Firefox,87,Windows,10
4,1,null,"""",image-keyboard-response,81,224796,0.0-81.0,"""",jspsych/disgustFaces/BF15DIS.JPG,"""",8,Cue,Practice,null,16,"""","""","""","""","""","""","""","""","""",4/18/2021 16:10,70.174.77.75,Mozilla/5.0 (Windows NT 10.0; Win64; x64; rv:87.0) Gecko/20100101 Firefox/87.0,,Firefox,87,Windows,10
4,1,null,"""",image-keyboard-response,82,224906,0.0-82.0,"""",jspsych/neutralFaces/AF08NES.JPG,"""",8,backwardMask,Practice,null,100,"""","""","""","""","""","""","""","""","""",4/18/2021 16:10,70.174.77.75,Mozilla/5.0 (Windows NT 10.0; Win64; x64; rv:87.0) Gecko/20100101 Firefox/87.0,,Firefox,87,Windows,10
4,1,null,"""",html-keyboard-response,83,225925,0.0-83.0,"""","<div style=""font-size:60px;"">+</div>","""",8,fixationBtwnNeutralMaskAndPrompt,Practice,null,1000,"""","""","""","""","""","""","""","""","""",4/18/2021 16:10,70.174.77.75,Mozilla/5.0 (Windows NT 10.0; Win64; x64; rv:87.0) Gecko/20100101 Firefox/87.0,,Firefox,87,Windows,10
4,1,3585,"""",html-button-response,84,229512,0.0-84.0,"""","<img src='jspsych/CFDfaces/CFD-AM-221-184-N.jpg'height=""250px""></br><b>Samuel</b>",0,8,IntactOrRearranged,Practice,"""","""","""","""",CFD-AM-221-184-N.jpg,Samuel,0,"""","""",0,"""",4/18/2021 16:10,70.174.77.75,Mozilla/5.0 (Windows NT 10.0; Win64; x64; rv:87.0) Gecko/20100101 Firefox/87.0,,Firefox,87,Windows,10
4,1,3507,"""",html-slider-response,85,233022,0.0-85.0,"""","<img src='jspsych/CFDfaces/CFD-AM-221-184-N.jpg'height=""250px""></br><b>Samuel</b>","""",8,ConfidenceQuery,Practice,"""","""","""","""",CFD-WM-207-048-N.jpg,Kenneth,0,0,38,"""","""",4/18/2021 16:10,70.174.77.75,Mozilla/5.0 (Windows NT 10.0; Win64; x64; rv:87.0) Gecko/20100101 Firefox/87.0,,Firefox,87,Windows,10
4,1,1449,"""",html-button-response,86,234472,0.0-86.0,"""",You are Correct. You called an Intact Pair Intact,0,8,feedback,Practice,"""","""","""","""","""","""","""","""","""","""","""",4/18/2021 16:10,70.174.77.75,Mozilla/5.0 (Windows NT 10.0; Win64; x64; rv:87.0) Gecko/20100101 Firefox/87.0,,Firefox,87,Windows,10
4,1,206974,"""",image-button-response,87,441453,0.0-87.0,"""",directionsMemoryAssociation3.JPG,0,128,DirectionsBeforeActualTEst,Break,"""","""","""","""","""","""","""","""","""","""","""",4/18/2021 16:10,70.174.77.75,Mozilla/5.0 (Windows NT 10.0; Win64; x64; rv:87.0) Gecko/20100101 Firefox/87.0,,Firefox,87,Windows,10
4,1,6851,"""",image-button-response,88,448314,0.0-88.0,"""",directionsForTest2.JPG,0,1,directionsForTest2,break,"""","""","""","""","""","""","""","""","""","""","""",4/18/2021 16:10,70.174.77.75,Mozilla/5.0 (Windows NT 10.0; Win64; x64; rv:87.0) Gecko/20100101 Firefox/87.0,,Firefox,87,Windows,10
4,1,5676,"""",html-button-response,89,453992,0.0-89.0,"""","<p>You will be asked to memorize and then recall four sets of face-name pairs. </p> <p> Each set will have 32 pairs. </p> <p>After the fourth set, there will be a brief follow-up experiment (<40 min alltogether)</p>",0,"""","""","""","""","""","""","""","""","""","""","""","""","""","""",4/18/2021 16:10,70.174.77.75,Mozilla/5.0 (Windows NT 10.0; Win64; x64; rv:87.0) Gecko/20100101 Firefox/87.0,,Firefox,87,Windows,10
4,1,4026,"""",html-keyboard-response,90,459004,0.0-90.0,"""","<img src='jspsych/CFDfaces/CFD-LM-217-162-N.jpg' height=""250px""></br><b>Jeffrey</b>","""",256,IntactFace,Memorization,78,5000,n,"""",CFD-LF-244-096-N.jpg,Jenna,0,"""","""","""",1,4/18/2021 16:10,70.174.77.75,Mozilla/5.0 (Windows NT 10.0; Win64; x64; rv:87.0) Gecko/20100101 Firefox/87.0,,Firefox,87,Windows,10
4,1,null,"""",html-keyboard-response,91,459515,0.0-91.0,"""","<div style=""font-size:60px;"">+</div>","""",256,fixation,Memorization,null,500,"""","""","""","""","""","""","""","""",1,4/18/2021 16:10,70.174.77.75,Mozilla/5.0 (Windows NT 10.0; Win64; x64; rv:87.0) Gecko/20100101 Firefox/87.0,,Firefox,87,Windows,10
4,1,2674,"""",html-keyboard-response,92,464544,0.0-92.0,"""","<img src='jspsych/CFDfaces/CFD-LM-209-111-N.jpg' height=""250px""></br><b>James</b>","""",256,IntactFace,Memorization,70,5000,f,"""",CFD-AM-231-136-N.jpg,Mark,0,"""","""","""",1,4/18/2021 16:10,70.174.77.75,Mozilla/5.0 (Windows NT 10.0; Win64; x64; rv:87.0) Gecko/20100101 Firefox/87.0,,Firefox,87,Windows,10
4,1,null,"""",html-keyboard-response,93,465065,0.0-93.0,"""","<div style=""font-size:60px;"">+</div>","""",256,fixation,Memorization,null,500,"""","""","""","""","""","""","""","""",1,4/18/2021 16:10,70.174.77.75,Mozilla/5.0 (Windows NT 10.0; Win64; x64; rv:87.0) Gecko/20100101 Firefox/87.0,,Firefox,87,Windows,10
4,1,2145,"""",html-keyboard-response,94,470074,0.0-94.0,"""","<img src='jspsych/CFDfaces/CFD-WF-215-145-N.jpg' height=""250px""></br><b>Victoria</b>","""",256,IntactFace,Memorization,70,5000,f,"""",CFD-WF-024-003-N.jpg,Jordan,0,"""","""","""",1,4/18/2021 16:10,70.174.77.75,Mozilla/5.0 (Windows NT 10.0; Win64; x64; rv:87.0) Gecko/20100101 Firefox/87.0,,Firefox,87,Windows,10
4,1,null,"""",html-keyboard-response,95,470604,0.0-95.0,"""","<div style=""font-size:60px;"">+</div>","""",256,fixation,Memorization,null,500,"""","""","""","""","""","""","""","""",1,4/18/2021 16:10,70.174.77.75,Mozilla/5.0 (Windows NT 10.0; Win64; x64; rv:87.0) Gecko/20100101 Firefox/87.0,,Firefox,87,Windows,10
4,1,2206,"""",html-keyboard-response,96,475625,0.0-96.0,"""","<img src='jspsych/CFDfaces/CFD-LF-218-072-N.jpg' height=""250px""></br><b>Elizabeth</b>","""",256,IntactFace,Memorization,70,5000,f,"""",CFD-LF-215-157-N.jpg,Tiffany,0,"""","""","""",1,4/18/2021 16:10,70.174.77.75,Mozilla/5.0 (Windows NT 10.0; Win64; x64; rv:87.0) Gecko/20100101 Firefox/87.0,,Firefox,87,Windows,10
4,1,null,"""",html-keyboard-response,97,476144,0.0-97.0,"""","<div style=""font-size:60px;"">+</div>","""",256,fixation,Memorization,null,500,"""","""","""","""","""","""","""","""",1,4/18/2021 16:10,70.174.77.75,Mozilla/5.0 (Windows NT 10.0; Win64; x64; rv:87.0) Gecko/20100101 Firefox/87.0,,Firefox,87,Windows,10
4,1,2179,"""",html-keyboard-response,98,481174,0.0-98.0,"""","<img src='jspsych/CFDfaces/CFD-AF-215-70-N.jpg' height=""250px""></br><b>Stephanie</b>","""",256,IntactFace,Memorization,78,5000,n,"""",CFD-WM-015-002-N.jpg,Dustin,0,"""","""","""",1,4/18/2021 16:10,70.174.77.75,Mozilla/5.0 (Windows NT 10.0; Win64; x64; rv:87.0) Gecko/20100101 Firefox/87.0,,Firefox,87,Windows,10
4,1,null,"""",html-keyboard-response,99,481695,0.0-99.0,"""","<div style=""font-size:60px;"">+</div>","""",256,fixation,Memorization,null,500,"""","""","""","""","""","""","""","""",1,4/18/2021 16:10,70.174.77.75,Mozilla/5.0 (Windows NT 10.0; Win64; x64; rv:87.0) Gecko/20100101 Firefox/87.0,,Firefox,87,Windows,10
4,1,1821,"""",html-keyboard-response,100,486714,0.0-100.0,"""","<img src='jspsych/CFDfaces/CFD-LM-252-076-N.jpg' height=""250px""></br><b>Peter</b>","""",256,IntactFace,Memorization,70,5000,f,"""",CFD-LF-210-220-N.jpg,Lindsey,0,"""","""","""",1,4/18/2021 16:10,70.174.77.75,Mozilla/5.0 (Windows NT 10.0; Win64; x64; rv:87.0) Gecko/20100101 Firefox/87.0,,Firefox,87,Windows,10
4,1,null,"""",html-keyboard-response,101,487235,0.0-101.0,"""","<div style=""font-size:60px;"">+</div>","""",256,fixation,Memorization,null,500,"""","""","""","""","""","""","""","""",1,4/18/2021 16:10,70.174.77.75,Mozilla/5.0 (Windows NT 10.0; Win64; x64; rv:87.0) Gecko/20100101 Firefox/87.0,,Firefox,87,Windows,10
4,1,3784,"""",html-keyboard-response,102,492244,0.0-102.0,"""","<img src='jspsych/CFDfaces/CFD-AF-220-107-N.jpg' height=""250px""></br><b>Julie</b>","""",256,IntactFace,Memorization,78,5000,n,"""",CFD-AF-243-170-N.jpg,Laura,0,"""","""","""",1,4/18/2021 16:10,70.174.77.75,Mozilla/5.0 (Windows NT 10.0; Win64; x64; rv:87.0) Gecko/20100101 Firefox/87.0,,Firefox,87,Windows,10
4,1,null,"""",html-keyboard-response,103,492765,0.0-103.0,"""","<div style=""font-size:60px;"">+</div>","""",256,fixation,Memorization,null,500,"""","""","""","""","""","""","""","""",1,4/18/2021 16:10,70.174.77.75,Mozilla/5.0 (Windows NT 10.0; Win64; x64; rv:87.0) Gecko/20100101 Firefox/87.0,,Firefox,87,Windows,10
4,1,2509,"""",html-keyboard-response,104,497775,0.0-104.0,"""","<img src='jspsych/CFDfaces/CFD-WM-032-001-N.jpg' height=""250px""></br><b>Juan</b>","""",256,IntactFace,Memorization,70,5000,f,"""",CFD-AF-203-077-N.jpg,Amy,0,"""","""","""",1,4/18/2021 16:10,70.174.77.75,Mozilla/5.0 (Windows NT 10.0; Win64; x64; rv:87.0) Gecko/20100101 Firefox/87.0,,Firefox,87,Windows,10
4,1,null,"""",html-keyboard-response,105,498295,0.0-105.0,"""","<div style=""font-size:60px;"">+</div>","""",256,fixation,Memorization,null,500,"""","""","""","""","""","""","""","""",1,4/18/2021 16:10,70.174.77.75,Mozilla/5.0 (Windows NT 10.0; Win64; x64; rv:87.0) Gecko/20100101 Firefox/87.0,,Firefox,87,Windows,10
4,1,1868,"""",html-keyboard-response,106,503305,0.0-106.0,"""","<img src='jspsych/CFDfaces/CFD-LF-206-078-N.jpg' height=""250px""></br><b>Ashley</b>","""",256,IntactFace,Memorization,70,5000,f,"""",CFD-WM-011-002-N.jpg,Luis,0,"""","""","""",1,4/18/2021 16:10,70.174.77.75,Mozilla/5.0 (Windows NT 10.0; Win64; x64; rv:87.0) Gecko/20100101 Firefox/87.0,,Firefox,87,Windows,10
4,1,null,"""",html-keyboard-response,107,503815,0.0-107.0,"""","<div style=""font-size:60px;"">+</div>","""",256,fixation,Memorization,null,500,"""","""","""","""","""","""","""","""",1,4/18/2021 16:10,70.174.77.75,Mozilla/5.0 (Windows NT 10.0; Win64; x64; rv:87.0) Gecko/20100101 Firefox/87.0,,Firefox,87,Windows,10
4,1,3475,"""",html-keyboard-response,108,508824,0.0-108.0,"""","<img src='jspsych/CFDfaces/CFD-LM-223-175-N.jpg' height=""250px""></br><b>Jason</b>","""",256,IntactFace,Memorization,78,5000,n,"""",CFD-WM-215-041-N.jpg,Vincent,0,"""","""","""",1,4/18/2021 16:10,70.174.77.75,Mozilla/5.0 (Windows NT 10.0; Win64; x64; rv:87.0) Gecko/20100101 Firefox/87.0,,Firefox,87,Windows,10
4,1,null,"""",html-keyboard-response,109,509334,0.0-109.0,"""","<div style=""font-size:60px;"">+</div>","""",256,fixation,Memorization,null,500,"""","""","""","""","""","""","""","""",1,4/18/2021 16:10,70.174.77.75,Mozilla/5.0 (Windows NT 10.0; Win64; x64; rv:87.0) Gecko/20100101 Firefox/87.0,,Firefox,87,Windows,10
4,1,2716,"""",html-keyboard-response,110,514345,0.0-110.0,"""","<img src='jspsych/CFDfaces/CFD-BF-039-031-N.jpg' height=""250px""></br><b>Samantha</b>","""",256,IntactFace,Memorization,70,5000,f,"""",CFD-BM-011-016-N.jpg,Jeremy,0,"""","""","""",1,4/18/2021 16:10,70.174.77.75,Mozilla/5.0 (Windows NT 10.0; Win64; x64; rv:87.0) Gecko/20100101 Firefox/87.0,,Firefox,87,Windows,10
4,1,null,"""",html-keyboard-response,111,514864,0.0-111.0,"""","<div style=""font-size:60px;"">+</div>","""",256,fixation,Memorization,null,500,"""","""","""","""","""","""","""","""",1,4/18/2021 16:10,70.174.77.75,Mozilla/5.0 (Windows NT 10.0; Win64; x64; rv:87.0) Gecko/20100101 Firefox/87.0,,Firefox,87,Windows,10
4,1,2554,"""",html-keyboard-response,112,519885,0.0-112.0,"""","<img src='jspsych/CFDfaces/CFD-WF-016-015-N.jpg' height=""250px""></br><b>Michelle</b>","""",256,IntactFace,Memorization,70,5000,f,"""",CFD-LF-200-058-N.jpg,Angela,0,"""","""","""",1,4/18/2021 16:10,70.174.77.75,Mozilla/5.0 (Windows NT 10.0; Win64; x64; rv:87.0) Gecko/20100101 Firefox/87.0,,Firefox,87,Windows,10
4,1,null,"""",html-keyboard-response,113,520394,0.0-113.0,"""","<div style=""font-size:60px;"">+</div>","""",256,fixation,Memorization,null,500,"""","""","""","""","""","""","""","""",1,4/18/2021 16:10,70.174.77.75,Mozilla/5.0 (Windows NT 10.0; Win64; x64; rv:87.0) Gecko/20100101 Firefox/87.0,,Firefox,87,Windows,10
4,1,3183,"""",html-keyboard-response,114,525414,0.0-114.0,"""","<img src='jspsych/CFDfaces/CFD-BM-043-071-N.jpg' height=""250px""></br><b>Ian</b>","""",256,IntactFace,Memorization,78,5000,n,"""",CFD-AM-202-079-N.jpg,Justin,0,"""","""","""",1,4/18/2021 16:10,70.174.77.75,Mozilla/5.0 (Windows NT 10.0; Win64; x64; rv:87.0) Gecko/20100101 Firefox/87.0,,Firefox,87,Windows,10
4,1,null,"""",html-keyboard-response,115,525924,0.0-115.0,"""","<div style=""font-size:60px;"">+</div>","""",256,fixation,Memorization,null,500,"""","""","""","""","""","""","""","""",1,4/18/2021 16:10,70.174.77.75,Mozilla/5.0 (Windows NT 10.0; Win64; x64; rv:87.0) Gecko/20100101 Firefox/87.0,,Firefox,87,Windows,10
4,1,2597,"""",html-keyboard-response,116,530945,0.0-116.0,"""","<img src='jspsych/CFDfaces/CFD-BM-029-024-N.jpg' height=""250px""></br><b>Brandon</b>","""",256,IntactFace,Memorization,70,5000,f,"""",CFD-WM-020-001-N.jpg,Timothy,0,"""","""","""",1,4/18/2021 16:10,70.174.77.75,Mozilla/5.0 (Windows NT 10.0; Win64; x64; rv:87.0) Gecko/20100101 Firefox/87.0,,Firefox,87,Windows,10
4,1,null,"""",html-keyboard-response,117,531465,0.0-117.0,"""","<div style=""font-size:60px;"">+</div>","""",256,fixation,Memorization,null,500,"""","""","""","""","""","""","""","""",1,4/18/2021 16:10,70.174.77.75,Mozilla/5.0 (Windows NT 10.0; Win64; x64; rv:87.0) Gecko/20100101 Firefox/87.0,,Firefox,87,Windows,10
4,1,2025,"""",html-keyboard-response,118,536495,0.0-118.0,"""","<img src='jspsych/CFDfaces/CFD-LM-234-176-N.jpg' height=""250px""></br><b>Daniel</b>","""",256,IntactFace,Memorization,70,5000,f,"""",CFD-BM-002-013-N.jpg,Jacob,0,"""","""","""",1,4/18/2021 16:10,70.174.77.75,Mozilla/5.0 (Windows NT 10.0; Win64; x64; rv:87.0) Gecko/20100101 Firefox/87.0,,Firefox,87,Windows,10
4,1,null,"""",html-keyboard-response,119,537005,0.0-119.0,"""","<div style=""font-size:60px;"">+</div>","""",256,fixation,Memorization,null,500,"""","""","""","""","""","""","""","""",1,4/18/2021 16:10,70.174.77.75,Mozilla/5.0 (Windows NT 10.0; Win64; x64; rv:87.0) Gecko/20100101 Firefox/87.0,,Firefox,87,Windows,10
4,1,1925,"""",html-keyboard-response,120,542015,0.0-120.0,"""","<img src='jspsych/CFDfaces/CFD-BF-008-001-N.jpg' height=""250px""></br><b>Brittany</b>","""",256,IntactFace,Memorization,70,5000,f,"""",CFD-BM-026-002-N.jpg,Sean,0,"""","""","""",1,4/18/2021 16:10,70.174.77.75,Mozilla/5.0 (Windows NT 10.0; Win64; x64; rv:87.0) Gecko/20100101 Firefox/87.0,,Firefox,87,Windows,10
4,1,null,"""",html-keyboard-response,121,542545,0.0-121.0,"""","<div style=""font-size:60px;"">+</div>","""",256,fixation,Memorization,null,500,"""","""","""","""","""","""","""","""",1,4/18/2021 16:10,70.174.77.75,Mozilla/5.0 (Windows NT 10.0; Win64; x64; rv:87.0) Gecko/20100101 Firefox/87.0,,Firefox,87,Windows,10
4,1,1787,"""",html-keyboard-response,122,547554,0.0-122.0,"""","<img src='jspsych/CFDfaces/CFD-BM-022-022-N.jpg' height=""250px""></br><b>Richard</b>","""",256,IntactFace,Memorization,70,5000,f,"""",CFD-AF-208-003-N.jpg,Lauren,0,"""","""","""",1,4/18/2021 16:10,70.174.77.75,Mozilla/5.0 (Windows NT 10.0; Win64; x64; rv:87.0) Gecko/20100101 Firefox/87.0,,Firefox,87,Windows,10
4,1,null,"""",html-keyboard-response,123,548064,0.0-123.0,"""","<div style=""font-size:60px;"">+</div>","""",256,fixation,Memorization,null,500,"""","""","""","""","""","""","""","""",1,4/18/2021 16:10,70.174.77.75,Mozilla/5.0 (Windows NT 10.0; Win64; x64; rv:87.0) Gecko/20100101 Firefox/87.0,,Firefox,87,Windows,10
4,1,2834,"""",html-keyboard-response,124,553084,0.0-124.0,"""","<img src='jspsych/CFDfaces/CFD-AM-211-052-N.jpg' height=""250px""></br><b>Robert</b>","""",256,IntactFace,Memorization,70,5000,f,"""",CFD-AF-240-206-N.jpg,Heather,0,"""","""","""",1,4/18/2021 16:10,70.174.77.75,Mozilla/5.0 (Windows NT 10.0; Win64; x64; rv:87.0) Gecko/20100101 Firefox/87.0,,Firefox,87,Windows,10
4,1,null,"""",html-keyboard-response,125,553604,0.0-125.0,"""","<div style=""font-size:60px;"">+</div>","""",256,fixation,Memorization,null,500,"""","""","""","""","""","""","""","""",1,4/18/2021 16:10,70.174.77.75,Mozilla/5.0 (Windows NT 10.0; Win64; x64; rv:87.0) Gecko/20100101 Firefox/87.0,,Firefox,87,Windows,10
4,1,2510,"""",html-keyboard-response,126,558614,0.0-126.0,"""","<img src='jspsych/CFDfaces/CFD-BF-021-013-N.jpg' height=""250px""></br><b>Christina</b>","""",256,IntactFace,Memorization,70,5000,f,"""",CFD-BF-004-014-N.jpg,Taylor,0,"""","""","""",1,4/18/2021 16:10,70.174.77.75,Mozilla/5.0 (Windows NT 10.0; Win64; x64; rv:87.0) Gecko/20100101 Firefox/87.0,,Firefox,87,Windows,10
4,1,null,"""",html-keyboard-response,127,559144,0.0-127.0,"""","<div style=""font-size:60px;"">+</div>","""",256,fixation,Memorization,null,500,"""","""","""","""","""","""","""","""",1,4/18/2021 16:10,70.174.77.75,Mozilla/5.0 (Windows NT 10.0; Win64; x64; rv:87.0) Gecko/20100101 Firefox/87.0,,Firefox,87,Windows,10
4,1,2578,"""",html-keyboard-response,128,564165,0.0-128.0,"""","<img src='jspsych/CFDfaces/CFD-BF-226-119-N.jpg' height=""250px""></br><b>Meghan</b>","""",256,IntactFace,Memorization,78,5000,n,"""",CFD-AM-237-154-N.jpg,Austin,0,"""","""","""",1,4/18/2021 16:10,70.174.77.75,Mozilla/5.0 (Windows NT 10.0; Win64; x64; rv:87.0) Gecko/20100101 Firefox/87.0,,Firefox,87,Windows,10
4,1,null,"""",html-keyboard-response,129,564684,0.0-129.0,"""","<div style=""font-size:60px;"">+</div>","""",256,fixation,Memorization,null,500,"""","""","""","""","""","""","""","""",1,4/18/2021 16:10,70.174.77.75,Mozilla/5.0 (Windows NT 10.0; Win64; x64; rv:87.0) Gecko/20100101 Firefox/87.0,,Firefox,87,Windows,10
4,1,1813,"""",html-keyboard-response,130,569705,0.0-130.0,"""","<img src='jspsych/CFDfaces/CFD-WF-223-133-N.jpg' height=""250px""></br><b>Emily</b>","""",256,IntactFace,Memorization,70,5000,f,"""",CFD-AM-207-108-N.jpg,Kenneth,0,"""","""","""",1,4/18/2021 16:10,70.174.77.75,Mozilla/5.0 (Windows NT 10.0; Win64; x64; rv:87.0) Gecko/20100101 Firefox/87.0,,Firefox,87,Windows,10
4,1,null,"""",html-keyboard-response,131,570224,0.0-131.0,"""","<div style=""font-size:60px;"">+</div>","""",256,fixation,Memorization,null,500,"""","""","""","""","""","""","""","""",1,4/18/2021 16:10,70.174.77.75,Mozilla/5.0 (Windows NT 10.0; Win64; x64; rv:87.0) Gecko/20100101 Firefox/87.0,,Firefox,87,Windows,10
4,1,1530,"""",html-keyboard-response,132,575244,0.0-132.0,"""","<img src='jspsych/CFDfaces/CFD-BM-205-001-N.jpg' height=""250px""></br><b>Gregory</b>","""",256,IntactFace,Memorization,70,5000,f,"""",CFD-WF-204-038-N.jpg,Erin,0,"""","""","""",1,4/18/2021 16:10,70.174.77.75,Mozilla/5.0 (Windows NT 10.0; Win64; x64; rv:87.0) Gecko/20100101 Firefox/87.0,,Firefox,87,Windows,10
4,1,null,"""",html-keyboard-response,133,575764,0.0-133.0,"""","<div style=""font-size:60px;"">+</div>","""",256,fixation,Memorization,null,500,"""","""","""","""","""","""","""","""",1,4/18/2021 16:10,70.174.77.75,Mozilla/5.0 (Windows NT 10.0; Win64; x64; rv:87.0) Gecko/20100101 Firefox/87.0,,Firefox,87,Windows,10
4,1,2685,"""",html-keyboard-response,134,580774,0.0-134.0,"""","<img src='jspsych/CFDfaces/CFD-AM-246-184-N.jpg' height=""250px""></br><b>Nicholas</b>","""",256,IntactFace,Memorization,70,5000,f,"""",CFD-LM-213-061-N.jpg,Travis,0,"""","""","""",1,4/18/2021 16:10,70.174.77.75,Mozilla/5.0 (Windows NT 10.0; Win64; x64; rv:87.0) Gecko/20100101 Firefox/87.0,,Firefox,87,Windows,10
4,1,null,"""",html-keyboard-response,135,581294,0.0-135.0,"""","<div style=""font-size:60px;"">+</div>","""",256,fixation,Memorization,null,500,"""","""","""","""","""","""","""","""",1,4/18/2021 16:10,70.174.77.75,Mozilla/5.0 (Windows NT 10.0; Win64; x64; rv:87.0) Gecko/20100101 Firefox/87.0,,Firefox,87,Windows,10
4,1,3380,"""",html-keyboard-response,136,586314,0.0-136.0,"""","<img src='jspsych/CFDfaces/CFD-BF-005-001-N.jpg' height=""250px""></br><b>Kayla</b>","""",256,IntactFace,Memorization,70,5000,f,"""",CFD-AF-241-141-N.jpg,Rebecca,0,"""","""","""",1,4/18/2021 16:10,70.174.77.75,Mozilla/5.0 (Windows NT 10.0; Win64; x64; rv:87.0) Gecko/20100101 Firefox/87.0,,Firefox,87,Windows,10
4,1,null,"""",html-keyboard-response,137,586824,0.0-137.0,"""","<div style=""font-size:60px;"">+</div>","""",256,fixation,Memorization,null,500,"""","""","""","""","""","""","""","""",1,4/18/2021 16:10,70.174.77.75,Mozilla/5.0 (Windows NT 10.0; Win64; x64; rv:87.0) Gecko/20100101 Firefox/87.0,,Firefox,87,Windows,10
4,1,1977,"""",html-keyboard-response,138,591844,0.0-138.0,"""","<img src='jspsych/CFDfaces/CFD-BF-218-207-N.jpg' height=""250px""></br><b>Vanessa</b>","""",256,IntactFace,Memorization,70,5000,f,"""",CFD-BM-210-148-N.jpg,Ryan,0,"""","""","""",1,4/18/2021 16:10,70.174.77.75,Mozilla/5.0 (Windows NT 10.0; Win64; x64; rv:87.0) Gecko/20100101 Firefox/87.0,,Firefox,87,Windows,10
4,1,null,"""",html-keyboard-response,139,592374,0.0-139.0,"""","<div style=""font-size:60px;"">+</div>","""",256,fixation,Memorization,null,500,"""","""","""","""","""","""","""","""",1,4/18/2021 16:10,70.174.77.75,Mozilla/5.0 (Windows NT 10.0; Win64; x64; rv:87.0) Gecko/20100101 Firefox/87.0,,Firefox,87,Windows,10
4,1,3452,"""",html-keyboard-response,140,597394,0.0-140.0,"""","<img src='jspsych/CFDfaces/CFD-BF-016-017-N.jpg' height=""250px""></br><b>Andrea</b>","""",256,IntactFace,Memorization,70,5000,f,"""",CFD-WM-232-070-N.jpg,Steven,0,"""","""","""",1,4/18/2021 16:10,70.174.77.75,Mozilla/5.0 (Windows NT 10.0; Win64; x64; rv:87.0) Gecko/20100101 Firefox/87.0,,Firefox,87,Windows,10
4,1,null,"""",html-keyboard-response,141,597904,0.0-141.0,"""","<div style=""font-size:60px;"">+</div>","""",256,fixation,Memorization,null,500,"""","""","""","""","""","""","""","""",1,4/18/2021 16:10,70.174.77.75,Mozilla/5.0 (Windows NT 10.0; Win64; x64; rv:87.0) Gecko/20100101 Firefox/87.0,,Firefox,87,Windows,10
4,1,2641,"""",html-keyboard-response,142,602934,0.0-142.0,"""","<img src='jspsych/CFDfaces/CFD-BM-208-065-N.jpg' height=""250px""></br><b>Christian</b>","""",256,IntactFace,Memorization,70,5000,f,"""",CFD-WF-202-056-N.jpg,Whitney,0,"""","""","""",1,4/18/2021 16:10,70.174.77.75,Mozilla/5.0 (Windows NT 10.0; Win64; x64; rv:87.0) Gecko/20100101 Firefox/87.0,,Firefox,87,Windows,10
4,1,null,"""",html-keyboard-response,143,603444,0.0-143.0,"""","<div style=""font-size:60px;"">+</div>","""",256,fixation,Memorization,null,500,"""","""","""","""","""","""","""","""",1,4/18/2021 16:10,70.174.77.75,Mozilla/5.0 (Windows NT 10.0; Win64; x64; rv:87.0) Gecko/20100101 Firefox/87.0,,Firefox,87,Windows,10
4,1,1854,"""",html-keyboard-response,144,608454,0.0-144.0,"""","<img src='jspsych/CFDfaces/CFD-WM-034-030-N.jpg' height=""250px""></br><b>Brian</b>","""",256,IntactFace,Memorization,70,5000,f,"""",CFD-AM-230-150-N.jpg,Cameron,0,"""","""","""",1,4/18/2021 16:10,70.174.77.75,Mozilla/5.0 (Windows NT 10.0; Win64; x64; rv:87.0) Gecko/20100101 Firefox/87.0,,Firefox,87,Windows,10
4,1,null,"""",html-keyboard-response,145,608974,0.0-145.0,"""","<div style=""font-size:60px;"">+</div>","""",256,fixation,Memorization,null,500,"""","""","""","""","""","""","""","""",1,4/18/2021 16:10,70.174.77.75,Mozilla/5.0 (Windows NT 10.0; Win64; x64; rv:87.0) Gecko/20100101 Firefox/87.0,,Firefox,87,Windows,10
4,1,3004,"""",html-keyboard-response,146,613994,0.0-146.0,"""","<img src='jspsych/CFDfaces/CFD-BF-009-002-N.jpg' height=""250px""></br><b>Amanda</b>","""",256,IntactFace,Memorization,70,5000,f,"""",CFD-BF-222-240-N.jpg,Jasmine,0,"""","""","""",1,4/18/2021 16:10,70.174.77.75,Mozilla/5.0 (Windows NT 10.0; Win64; x64; rv:87.0) Gecko/20100101 Firefox/87.0,,Firefox,87,Windows,10
4,1,null,"""",html-keyboard-response,147,614504,0.0-147.0,"""","<div style=""font-size:60px;"">+</div>","""",256,fixation,Memorization,null,500,"""","""","""","""","""","""","""","""",1,4/18/2021 16:10,70.174.77.75,Mozilla/5.0 (Windows NT 10.0; Win64; x64; rv:87.0) Gecko/20100101 Firefox/87.0,,Firefox,87,Windows,10
4,1,2512,"""",html-keyboard-response,148,619534,0.0-148.0,"""","<img src='jspsych/CFDfaces/CFD-LF-204-133-N.jpg' height=""250px""></br><b>Kimberly</b>","""",256,IntactFace,Memorization,70,5000,f,"""",CFD-LF-208-127-N.jpg,Melissa,0,"""","""","""",1,4/18/2021 16:10,70.174.77.75,Mozilla/5.0 (Windows NT 10.0; Win64; x64; rv:87.0) Gecko/20100101 Firefox/87.0,,Firefox,87,Windows,10
4,1,null,"""",html-keyboard-response,149,620054,0.0-149.0,"""","<div style=""font-size:60px;"">+</div>","""",256,fixation,Memorization,null,500,"""","""","""","""","""","""","""","""",1,4/18/2021 16:10,70.174.77.75,Mozilla/5.0 (Windows NT 10.0; Win64; x64; rv:87.0) Gecko/20100101 Firefox/87.0,,Firefox,87,Windows,10
4,1,1828,"""",html-keyboard-response,150,625073,0.0-150.0,"""","<img src='jspsych/CFDfaces/CFD-LM-200-045-N.jpg' height=""250px""></br><b>Eric</b>","""",256,IntactFace,Memorization,70,5000,f,"""",CFD-WM-207-048-N.jpg,Jesse,0,"""","""","""",1,4/18/2021 16:10,70.174.77.75,Mozilla/5.0 (Windows NT 10.0; Win64; x64; rv:87.0) Gecko/20100101 Firefox/87.0,,Firefox,87,Windows,10
4,1,null,"""",html-keyboard-response,151,625604,0.0-151.0,"""","<div style=""font-size:60px;"">+</div>","""",256,fixation,Memorization,null,500,"""","""","""","""","""","""","""","""",1,4/18/2021 16:10,70.174.77.75,Mozilla/5.0 (Windows NT 10.0; Win64; x64; rv:87.0) Gecko/20100101 Firefox/87.0,,Firefox,87,Windows,10
4,1,1590,"""",html-keyboard-response,152,630624,0.0-152.0,"""","<img src='jspsych/CFDfaces/CFD-LM-201-057-N.jpg' height=""250px""></br><b>Joshua</b>","""",256,IntactFace,Memorization,70,5000,f,"""",CFD-WF-217-085-N.jpg,Sara,0,"""","""","""",1,4/18/2021 16:10,70.174.77.75,Mozilla/5.0 (Windows NT 10.0; Win64; x64; rv:87.0) Gecko/20100101 Firefox/87.0,,Firefox,87,Windows,10
4,1,null,"""",html-keyboard-response,153,631144,0.0-153.0,"""","<div style=""font-size:60px;"">+</div>","""",256,fixation,Memorization,null,500,"""","""","""","""","""","""","""","""",1,4/18/2021 16:10,70.174.77.75,Mozilla/5.0 (Windows NT 10.0; Win64; x64; rv:87.0) Gecko/20100101 Firefox/87.0,,Firefox,87,Windows,10
4,1,2257,"""",html-keyboard-response,154,633412,0.0-154.0,"""",Press Any Key to Begin Memory Test,"""",1,welcomeScreen,Break,74,"""","""","""","""","""","""","""","""","""",1,4/18/2021 16:10,70.174.77.75,Mozilla/5.0 (Windows NT 10.0; Win64; x64; rv:87.0) Gecko/20100101 Firefox/87.0,,Firefox,87,Windows,10
4,1,null,"""",html-keyboard-response,155,634414,0.0-155.0,"""","<div style=""font-size:60px;"">+</div>","""",256,ITI,Test,null,1000,"""","""","""","""","""","""","""","""",1,4/18/2021 16:10,70.174.77.75,Mozilla/5.0 (Windows NT 10.0; Win64; x64; rv:87.0) Gecko/20100101 Firefox/87.0,,Firefox,87,Windows,10
4,1,null,"""",image-keyboard-response,156,634674,0.0-156.0,"""",jspsych/scrambledDisgustFaces/scrambledBF16DIS.JPG,"""",256,forwardMask,Test,null,250,"""",d,"""","""","""","""","""","""",1,4/18/2021 16:10,70.174.77.75,Mozilla/5.0 (Windows NT 10.0; Win64; x64; rv:87.0) Gecko/20100101 Firefox/87.0,,Firefox,87,Windows,10
4,1,null,"""",image-keyboard-response,157,634714,0.0-157.0,"""",jspsych/disgustFaces/BF16DIS.JPG,"""",256,Cue,Test,null,16,"""","""","""","""","""","""","""","""",1,4/18/2021 16:10,70.174.77.75,Mozilla/5.0 (Windows NT 10.0; Win64; x64; rv:87.0) Gecko/20100101 Firefox/87.0,,Firefox,87,Windows,10
4,1,null,"""",image-keyboard-response,158,634834,0.0-158.0,"""",jspsych/neutralFaces/BF31NES.JPG,"""",256,backwardMask,Test,null,100,"""","""","""","""","""","""","""","""",1,4/18/2021 16:10,70.174.77.75,Mozilla/5.0 (Windows NT 10.0; Win64; x64; rv:87.0) Gecko/20100101 Firefox/87.0,,Firefox,87,Windows,10
4,1,null,"""",html-keyboard-response,159,635854,0.0-159.0,"""","<div style=""font-size:60px;"">+</div>","""",256,fixationBtwnNeutralMaskAndPrompt,Test,null,1000,"""","""","""","""","""","""","""","""",1,4/18/2021 16:10,70.174.77.75,Mozilla/5.0 (Windows NT 10.0; Win64; x64; rv:87.0) Gecko/20100101 Firefox/87.0,,Firefox,87,Windows,10
4,1,2043,"""",html-button-response,160,637898,0.0-160.0,"""","<img src='jspsych/CFDfaces/CFD-BM-208-065-N.jpg' height=""250px"">,</br><b>Joshua</b>",1,256,IntactOrRearranged,Test,"""","""","""","""",CFD-BF-222-240-N.jpg,Angela,1,"""","""",1,1,4/18/2021 16:10,70.174.77.75,Mozilla/5.0 (Windows NT 10.0; Win64; x64; rv:87.0) Gecko/20100101 Firefox/87.0,,Firefox,87,Windows,10
4,1,null,"""",html-slider-response,161,642913,0.0-161.0,"""","<img src='jspsych/CFDfaces/CFD-BM-208-065-N.jpg' height=""250px"">,</br><b>Joshua</b>","""",256,ConfidenceQuery,Test,"""","""","""","""",CFD-BF-222-240-N.jpg,Angela,1,0,null,"""",1,4/18/2021 16:10,70.174.77.75,Mozilla/5.0 (Windows NT 10.0; Win64; x64; rv:87.0) Gecko/20100101 Firefox/87.0,,Firefox,87,Windows,10
4,1,null,"""",html-keyboard-response,162,643934,0.0-162.0,"""","<div style=""font-size:60px;"">+</div>","""",256,ITI,Test,null,1000,"""","""","""","""","""","""","""","""",1,4/18/2021 16:10,70.174.77.75,Mozilla/5.0 (Windows NT 10.0; Win64; x64; rv:87.0) Gecko/20100101 Firefox/87.0,,Firefox,87,Windows,10
4,1,null,"""",image-keyboard-response,163,644213,0.0-163.0,"""",jspsych/scrambledNeutralFaces/scrambledAF16NES.JPG,"""",256,forwardMask,Test,null,250,"""",n,"""","""","""","""","""","""",1,4/18/2021 16:10,70.174.77.75,Mozilla/5.0 (Windows NT 10.0; Win64; x64; rv:87.0) Gecko/20100101 Firefox/87.0,,Firefox,87,Windows,10
4,1,null,"""",image-keyboard-response,164,644246,0.0-164.0,"""",jspsych/neutralFaces/AF16NES.JPG,"""",256,Cue,Test,null,16,"""","""","""","""","""","""","""","""",1,4/18/2021 16:10,70.174.77.75,Mozilla/5.0 (Windows NT 10.0; Win64; x64; rv:87.0) Gecko/20100101 Firefox/87.0,,Firefox,87,Windows,10
4,1,null,"""",image-keyboard-response,165,644354,0.0-165.0,"""",jspsych/neutralFaces/AF03NES.JPG,"""",256,backwardMask,Test,null,100,"""","""","""","""","""","""","""","""",1,4/18/2021 16:10,70.174.77.75,Mozilla/5.0 (Windows NT 10.0; Win64; x64; rv:87.0) Gecko/20100101 Firefox/87.0,,Firefox,87,Windows,10
4,1,null,"""",html-keyboard-response,166,645363,0.0-166.0,"""","<div style=""font-size:60px;"">+</div>","""",256,fixationBtwnNeutralMaskAndPrompt,Test,null,1000,"""","""","""","""","""","""","""","""",1,4/18/2021 16:10,70.174.77.75,Mozilla/5.0 (Windows NT 10.0; Win64; x64; rv:87.0) Gecko/20100101 Firefox/87.0,,Firefox,87,Windows,10
4,1,3056,"""",html-button-response,167,648421,0.0-167.0,"""","<img src='jspsych/CFDfaces/CFD-BF-005-001-N.jpg' height=""250px"">,</br><b>Kayla</b>",1,256,IntactOrRearranged,Test,"""","""","""","""",CFD-WF-217-085-N.jpg,Lauren,0,"""","""",1,1,4/18/2021 16:10,70.174.77.75,Mozilla/5.0 (Windows NT 10.0; Win64; x64; rv:87.0) Gecko/20100101 Firefox/87.0,,Firefox,87,Windows,10
4,1,2922,"""",html-slider-response,168,651345,0.0-168.0,"""","<img src='jspsych/CFDfaces/CFD-BF-005-001-N.jpg' height=""250px"">,</br><b>Kayla</b>","""",256,ConfidenceQuery,Test,"""","""","""","""",CFD-WF-217-085-N.jpg,Lauren,0,0,19,"""",1,4/18/2021 16:10,70.174.77.75,Mozilla/5.0 (Windows NT 10.0; Win64; x64; rv:87.0) Gecko/20100101 Firefox/87.0,,Firefox,87,Windows,10
4,1,null,"""",html-keyboard-response,169,652363,0.0-169.0,"""","<div style=""font-size:60px;"">+</div>","""",256,ITI,Test,null,1000,"""","""","""","""","""","""","""","""",1,4/18/2021 16:10,70.174.77.75,Mozilla/5.0 (Windows NT 10.0; Win64; x64; rv:87.0) Gecko/20100101 Firefox/87.0,,Firefox,87,Windows,10
4,1,null,"""",image-keyboard-response,170,652633,0.0-170.0,"""",jspsych/scrambledNeutralFaces/scrambledBF15NES.JPG,"""",256,forwardMask,Test,null,250,"""",n,"""","""","""","""","""","""",1,4/18/2021 16:10,70.174.77.75,Mozilla/5.0 (Windows NT 10.0; Win64; x64; rv:87.0) Gecko/20100101 Firefox/87.0,,Firefox,87,Windows,10
4,1,null,"""",image-keyboard-response,171,652674,0.0-171.0,"""",jspsych/neutralFaces/BF15NES.JPG,"""",256,Cue,Test,null,16,"""","""","""","""","""","""","""","""",1,4/18/2021 16:10,70.174.77.75,Mozilla/5.0 (Windows NT 10.0; Win64; x64; rv:87.0) Gecko/20100101 Firefox/87.0,,Firefox,87,Windows,10
4,1,null,"""",image-keyboard-response,172,652794,0.0-172.0,"""",jspsych/neutralFaces/BF25NES.JPG,"""",256,backwardMask,Test,null,100,"""","""","""","""","""","""","""","""",1,4/18/2021 16:10,70.174.77.75,Mozilla/5.0 (Windows NT 10.0; Win64; x64; rv:87.0) Gecko/20100101 Firefox/87.0,,Firefox,87,Windows,10
4,1,null,"""",html-keyboard-response,173,653803,0.0-173.0,"""","<div style=""font-size:60px;"">+</div>","""",256,fixationBtwnNeutralMaskAndPrompt,Test,null,1000,"""","""","""","""","""","""","""","""",1,4/18/2021 16:10,70.174.77.75,Mozilla/5.0 (Windows NT 10.0; Win64; x64; rv:87.0) Gecko/20100101 Firefox/87.0,,Firefox,87,Windows,10
4,1,2453,"""",html-button-response,174,656258,0.0-174.0,"""","<img src='jspsych/CFDfaces/CFD-BF-016-017-N.jpg' height=""250px"">,</br><b>Amanda</b>",0,256,IntactOrRearranged,Test,"""","""","""","""",CFD-WM-011-002-N.jpg,Luis,1,"""","""",0,1,4/18/2021 16:10,70.174.77.75,Mozilla/5.0 (Windows NT 10.0; Win64; x64; rv:87.0) Gecko/20100101 Firefox/87.0,,Firefox,87,Windows,10
4,1,2668,"""",html-slider-response,175,658928,0.0-175.0,"""","<img src='jspsych/CFDfaces/CFD-BF-016-017-N.jpg' height=""250px"">,</br><b>Amanda</b>","""",256,ConfidenceQuery,Test,"""","""","""","""",CFD-WM-011-002-N.jpg,Luis,1,0,38,"""",1,4/18/2021 16:10,70.174.77.75,Mozilla/5.0 (Windows NT 10.0; Win64; x64; rv:87.0) Gecko/20100101 Firefox/87.0,,Firefox,87,Windows,10
4,1,null,"""",html-keyboard-response,176,659934,0.0-176.0,"""","<div style=""font-size:60px;"">+</div>","""",256,ITI,Test,null,1000,"""","""","""","""","""","""","""","""",1,4/18/2021 16:10,70.174.77.75,Mozilla/5.0 (Windows NT 10.0; Win64; x64; rv:87.0) Gecko/20100101 Firefox/87.0,,Firefox,87,Windows,10
4,1,null,"""",image-keyboard-response,177,660194,0.0-177.0,"""",jspsych/scrambledDisgustFaces/scrambledBM06DIS.JPG,"""",256,forwardMask,Test,null,250,"""",d,"""","""","""","""","""","""",1,4/18/2021 16:10,70.174.77.75,Mozilla/5.0 (Windows NT 10.0; Win64; x64; rv:87.0) Gecko/20100101 Firefox/87.0,,Firefox,87,Windows,10
4,1,null,"""",image-keyboard-response,178,660233,0.0-178.0,"""",jspsych/disgustFaces/BM07DIS.JPG,"""",256,Cue,Test,null,16,"""","""","""","""","""","""","""","""",1,4/18/2021 16:10,70.174.77.75,Mozilla/5.0 (Windows NT 10.0; Win64; x64; rv:87.0) Gecko/20100101 Firefox/87.0,,Firefox,87,Windows,10
4,1,null,"""",image-keyboard-response,179,660354,0.0-179.0,"""",jspsych/neutralFaces/BM04NES.JPG,"""",256,backwardMask,Test,null,100,"""","""","""","""","""","""","""","""",1,4/18/2021 16:10,70.174.77.75,Mozilla/5.0 (Windows NT 10.0; Win64; x64; rv:87.0) Gecko/20100101 Firefox/87.0,,Firefox,87,Windows,10
4,1,null,"""",html-keyboard-response,180,661374,0.0-180.0,"""","<div style=""font-size:60px;"">+</div>","""",256,fixationBtwnNeutralMaskAndPrompt,Test,null,1000,"""","""","""","""","""","""","""","""",1,4/18/2021 16:10,70.174.77.75,Mozilla/5.0 (Windows NT 10.0; Win64; x64; rv:87.0) Gecko/20100101 Firefox/87.0,,Firefox,87,Windows,10
4,1,2243,"""",html-button-response,181,663618,0.0-181.0,"""","<img src='jspsych/CFDfaces/CFD-LF-218-072-N.jpg' height=""250px"">,</br><b>Kimberly</b>",0,256,IntactOrRearranged,Test,"""","""","""","""",CFD-WM-015-002-N.jpg,Dustin,1,"""","""",0,1,4/18/2021 16:10,70.174.77.75,Mozilla/5.0 (Windows NT 10.0; Win64; x64; rv:87.0) Gecko/20100101 Firefox/87.0,,Firefox,87,Windows,10
4,1,3678,"""",html-slider-response,182,667298,0.0-182.0,"""","<img src='jspsych/CFDfaces/CFD-LF-218-072-N.jpg' height=""250px"">,</br><b>Kimberly</b>","""",256,ConfidenceQuery,Test,"""","""","""","""",CFD-WM-015-002-N.jpg,Dustin,1,0,40,"""",1,4/18/2021 16:10,70.174.77.75,Mozilla/5.0 (Windows NT 10.0; Win64; x64; rv:87.0) Gecko/20100101 Firefox/87.0,,Firefox,87,Windows,10
4,1,null,"""",html-keyboard-response,183,668312,0.0-183.0,"""","<div style=""font-size:60px;"">+</div>","""",256,ITI,Test,null,1000,"""","""","""","""","""","""","""","""",1,4/18/2021 16:10,70.174.77.75,Mozilla/5.0 (Windows NT 10.0; Win64; x64; rv:87.0) Gecko/20100101 Firefox/87.0,,Firefox,87,Windows,10
4,1,null,"""",image-keyboard-response,184,668584,0.0-184.0,"""",jspsych/scrambledDisgustFaces/scrambledBF27DIS.JPG,"""",256,forwardMask,Test,null,250,"""",d,"""","""","""","""","""","""",1,4/18/2021 16:10,70.174.77.75,Mozilla/5.0 (Windows NT 10.0; Win64; x64; rv:87.0) Gecko/20100101 Firefox/87.0,,Firefox,87,Windows,10
4,1,null,"""",image-keyboard-response,185,668623,0.0-185.0,"""",jspsych/disgustFaces/BF27DIS.JPG,"""",256,Cue,Test,null,16,"""","""","""","""","""","""","""","""",1,4/18/2021 16:10,70.174.77.75,Mozilla/5.0 (Windows NT 10.0; Win64; x64; rv:87.0) Gecko/20100101 Firefox/87.0,,Firefox,87,Windows,10
4,1,null,"""",image-keyboard-response,186,668743,0.0-186.0,"""",jspsych/neutralFaces/AF27NES.JPG,"""",256,backwardMask,Test,null,100,"""","""","""","""","""","""","""","""",1,4/18/2021 16:10,70.174.77.75,Mozilla/5.0 (Windows NT 10.0; Win64; x64; rv:87.0) Gecko/20100101 Firefox/87.0,,Firefox,87,Windows,10
4,1,null,"""",html-keyboard-response,187,669763,0.0-187.0,"""","<div style=""font-size:60px;"">+</div>","""",256,fixationBtwnNeutralMaskAndPrompt,Test,null,1000,"""","""","""","""","""","""","""","""",1,4/18/2021 16:10,70.174.77.75,Mozilla/5.0 (Windows NT 10.0; Win64; x64; rv:87.0) Gecko/20100101 Firefox/87.0,,Firefox,87,Windows,10
4,1,2927,"""",html-button-response,188,672692,0.0-188.0,"""","<img src='jspsych/CFDfaces/CFD-BF-039-031-N.jpg' height=""250px"">,</br><b>Samantha</b>",1,256,IntactOrRearranged,Test,"""","""","""","""",CFD-LF-244-096-N.jpg,Jasmine,0,"""","""",1,1,4/18/2021 16:10,70.174.77.75,Mozilla/5.0 (Windows NT 10.0; Win64; x64; rv:87.0) Gecko/20100101 Firefox/87.0,,Firefox,87,Windows,10
4,1,2768,"""",html-slider-response,189,675462,0.0-189.0,"""","<img src='jspsych/CFDfaces/CFD-BF-039-031-N.jpg' height=""250px"">,</br><b>Samantha</b>","""",256,ConfidenceQuery,Test,"""","""","""","""",CFD-LF-244-096-N.jpg,Jasmine,0,0,19,"""",1,4/18/2021 16:10,70.174.77.75,Mozilla/5.0 (Windows NT 10.0; Win64; x64; rv:87.0) Gecko/20100101 Firefox/87.0,,Firefox,87,Windows,10
4,1,null,"""",html-keyboard-response,190,676474,0.0-190.0,"""","<div style=""font-size:60px;"">+</div>","""",256,ITI,Test,null,1000,"""","""","""","""","""","""","""","""",1,4/18/2021 16:10,70.174.77.75,Mozilla/5.0 (Windows NT 10.0; Win64; x64; rv:87.0) Gecko/20100101 Firefox/87.0,,Firefox,87,Windows,10
4,1,null,"""",image-keyboard-response,191,676734,0.0-191.0,"""",jspsych/scrambledNeutralFaces/scrambledAM05NES.JPG,"""",256,forwardMask,Test,null,250,"""",n,"""","""","""","""","""","""",1,4/18/2021 16:10,70.174.77.75,Mozilla/5.0 (Windows NT 10.0; Win64; x64; rv:87.0) Gecko/20100101 Firefox/87.0,,Firefox,87,Windows,10
4,1,null,"""",image-keyboard-response,192,676773,0.0-192.0,"""",jspsych/neutralFaces/AM05NES.JPG,"""",256,Cue,Test,null,16,"""","""","""","""","""","""","""","""",1,4/18/2021 16:10,70.174.77.75,Mozilla/5.0 (Windows NT 10.0; Win64; x64; rv:87.0) Gecko/20100101 Firefox/87.0,,Firefox,87,Windows,10
4,1,null,"""",image-keyboard-response,193,676884,0.0-193.0,"""",jspsych/neutralFaces/BM28NES.JPG,"""",256,backwardMask,Test,null,100,"""","""","""","""","""","""","""","""",1,4/18/2021 16:10,70.174.77.75,Mozilla/5.0 (Windows NT 10.0; Win64; x64; rv:87.0) Gecko/20100101 Firefox/87.0,,Firefox,87,Windows,10
4,1,null,"""",html-keyboard-response,194,677894,0.0-194.0,"""","<div style=""font-size:60px;"">+</div>","""",256,fixationBtwnNeutralMaskAndPrompt,Test,null,1000,"""","""","""","""","""","""","""","""",1,4/18/2021 16:10,70.174.77.75,Mozilla/5.0 (Windows NT 10.0; Win64; x64; rv:87.0) Gecko/20100101 Firefox/87.0,,Firefox,87,Windows,10
4,1,1625,"""",html-button-response,195,679521,0.0-195.0,"""","<img src='jspsych/CFDfaces/CFD-BF-218-207-N.jpg' height=""250px"">,</br><b>Vanessa</b>",0,256,IntactOrRearranged,Test,"""","""","""","""",CFD-AF-241-141-N.jpg,Rebecca,0,"""","""",0,1,4/18/2021 16:10,70.174.77.75,Mozilla/5.0 (Windows NT 10.0; Win64; x64; rv:87.0) Gecko/20100101 Firefox/87.0,,Firefox,87,Windows,10
4,1,3491,"""",html-slider-response,196,683015,0.0-196.0,"""","<img src='jspsych/CFDfaces/CFD-BF-218-207-N.jpg' height=""250px"">,</br><b>Vanessa</b>","""",256,ConfidenceQuery,Test,"""","""","""","""",CFD-AF-241-141-N.jpg,Rebecca,0,0,78,"""",1,4/18/2021 16:10,70.174.77.75,Mozilla/5.0 (Windows NT 10.0; Win64; x64; rv:87.0) Gecko/20100101 Firefox/87.0,,Firefox,87,Windows,10
4,1,null,"""",html-keyboard-response,197,684034,0.0-197.0,"""","<div style=""font-size:60px;"">+</div>","""",256,ITI,Test,null,1000,"""","""","""","""","""","""","""","""",1,4/18/2021 16:10,70.174.77.75,Mozilla/5.0 (Windows NT 10.0; Win64; x64; rv:87.0) Gecko/20100101 Firefox/87.0,,Firefox,87,Windows,10
4,1,null,"""",image-keyboard-response,198,684294,0.0-198.0,"""",jspsych/scrambledDisgustFaces/scrambledBF28DIS.JPG,"""",256,forwardMask,Test,null,250,"""",d,"""","""","""","""","""","""",1,4/18/2021 16:10,70.174.77.75,Mozilla/5.0 (Windows NT 10.0; Win64; x64; rv:87.0) Gecko/20100101 Firefox/87.0,,Firefox,87,Windows,10
4,1,null,"""",image-keyboard-response,199,684333,0.0-199.0,"""",jspsych/disgustFaces/BF28DIS.JPG,"""",256,Cue,Test,null,16,"""","""","""","""","""","""","""","""",1,4/18/2021 16:10,70.174.77.75,Mozilla/5.0 (Windows NT 10.0; Win64; x64; rv:87.0) Gecko/20100101 Firefox/87.0,,Firefox,87,Windows,10
4,1,null,"""",image-keyboard-response,200,684443,0.0-200.0,"""",jspsych/neutralFaces/AF20NES.JPG,"""",256,backwardMask,Test,null,100,"""","""","""","""","""","""","""","""",1,4/18/2021 16:10,70.174.77.75,Mozilla/5.0 (Windows NT 10.0; Win64; x64; rv:87.0) Gecko/20100101 Firefox/87.0,,Firefox,87,Windows,10
4,1,null,"""",html-keyboard-response,201,685463,0.0-201.0,"""","<div style=""font-size:60px;"">+</div>","""",256,fixationBtwnNeutralMaskAndPrompt,Test,null,1000,"""","""","""","""","""","""","""","""",1,4/18/2021 16:10,70.174.77.75,Mozilla/5.0 (Windows NT 10.0; Win64; x64; rv:87.0) Gecko/20100101 Firefox/87.0,,Firefox,87,Windows,10
4,1,3397,"""",html-button-response,202,688862,0.0-202.0,"""","<img src='jspsych/CFDfaces/CFD-LM-234-176-N.jpg' height=""250px"">,</br><b>James</b>",0,256,IntactOrRearranged,Test,"""","""","""","""",CFD-WM-020-001-N.jpg,Austin,1,"""","""",0,1,4/18/2021 16:10,70.174.77.75,Mozilla/5.0 (Windows NT 10.0; Win64; x64; rv:87.0) Gecko/20100101 Firefox/87.0,,Firefox,87,Windows,10
4,1,2788,"""",html-slider-response,203,691657,0.0-203.0,"""","<img src='jspsych/CFDfaces/CFD-LM-234-176-N.jpg' height=""250px"">,</br><b>James</b>","""",256,ConfidenceQuery,Test,"""","""","""","""",CFD-WM-020-001-N.jpg,Austin,1,0,31,"""",1,4/18/2021 16:10,70.174.77.75,Mozilla/5.0 (Windows NT 10.0; Win64; x64; rv:87.0) Gecko/20100101 Firefox/87.0,,Firefox,87,Windows,10
4,1,null,"""",html-keyboard-response,204,692674,0.0-204.0,"""","<div style=""font-size:60px;"">+</div>","""",256,ITI,Test,null,1000,"""","""","""","""","""","""","""","""",1,4/18/2021 16:10,70.174.77.75,Mozilla/5.0 (Windows NT 10.0; Win64; x64; rv:87.0) Gecko/20100101 Firefox/87.0,,Firefox,87,Windows,10
4,1,null,"""",image-keyboard-response,205,692944,0.0-205.0,"""",jspsych/scrambledDisgustFaces/scrambledBF15DIS.JPG,"""",256,forwardMask,Test,null,250,"""",d,"""","""","""","""","""","""",1,4/18/2021 16:10,70.174.77.75,Mozilla/5.0 (Windows NT 10.0; Win64; x64; rv:87.0) Gecko/20100101 Firefox/87.0,,Firefox,87,Windows,10
4,1,null,"""",image-keyboard-response,206,692979,0.0-206.0,"""",jspsych/disgustFaces/BF15DIS.JPG,"""",256,Cue,Test,null,16,"""","""","""","""","""","""","""","""",1,4/18/2021 16:10,70.174.77.75,Mozilla/5.0 (Windows NT 10.0; Win64; x64; rv:87.0) Gecko/20100101 Firefox/87.0,,Firefox,87,Windows,10
4,1,null,"""",image-keyboard-response,207,693093,0.0-207.0,"""",jspsych/neutralFaces/AF08NES.JPG,"""",256,backwardMask,Test,null,100,"""","""","""","""","""","""","""","""",1,4/18/2021 16:10,70.174.77.75,Mozilla/5.0 (Windows NT 10.0; Win64; x64; rv:87.0) Gecko/20100101 Firefox/87.0,,Firefox,87,Windows,10
4,1,null,"""",html-keyboard-response,208,694113,0.0-208.0,"""","<div style=""font-size:60px;"">+</div>","""",256,fixationBtwnNeutralMaskAndPrompt,Test,null,1000,"""","""","""","""","""","""","""","""",1,4/18/2021 16:10,70.174.77.75,Mozilla/5.0 (Windows NT 10.0; Win64; x64; rv:87.0) Gecko/20100101 Firefox/87.0,,Firefox,87,Windows,10
4,1,4067,"""",html-button-response,209,698182,0.0-209.0,"""","<img src='jspsych/CFDfaces/CFD-LM-209-111-N.jpg' height=""250px"">,</br><b>Jeffrey</b>",0,256,IntactOrRearranged,Test,"""","""","""","""",CFD-AF-243-170-N.jpg,Sara,1,"""","""",0,1,4/18/2021 16:10,70.174.77.75,Mozilla/5.0 (Windows NT 10.0; Win64; x64; rv:87.0) Gecko/20100101 Firefox/87.0,,Firefox,87,Windows,10
4,1,2826,"""",html-slider-response,210,701015,0.0-210.0,"""","<img src='jspsych/CFDfaces/CFD-LM-209-111-N.jpg' height=""250px"">,</br><b>Jeffrey</b>","""",256,ConfidenceQuery,Test,"""","""","""","""",CFD-AF-243-170-N.jpg,Sara,1,0,9,"""",1,4/18/2021 16:10,70.174.77.75,Mozilla/5.0 (Windows NT 10.0; Win64; x64; rv:87.0) Gecko/20100101 Firefox/87.0,,Firefox,87,Windows,10
4,1,null,"""",html-keyboard-response,211,702034,0.0-211.0,"""","<div style=""font-size:60px;"">+</div>","""",256,ITI,Test,null,1000,"""","""","""","""","""","""","""","""",1,4/18/2021 16:10,70.174.77.75,Mozilla/5.0 (Windows NT 10.0; Win64; x64; rv:87.0) Gecko/20100101 Firefox/87.0,,Firefox,87,Windows,10
4,1,null,"""",image-keyboard-response,212,702303,0.0-212.0,"""",jspsych/scrambledDisgustFaces/scrambledAF03DIS.JPG,"""",256,forwardMask,Test,null,250,"""",d,"""","""","""","""","""","""",1,4/18/2021 16:10,70.174.77.75,Mozilla/5.0 (Windows NT 10.0; Win64; x64; rv:87.0) Gecko/20100101 Firefox/87.0,,Firefox,87,Windows,10
4,1,null,"""",image-keyboard-response,213,702343,0.0-213.0,"""",jspsych/disgustFaces/AF03DIS.JPG,"""",256,Cue,Test,null,16,"""","""","""","""","""","""","""","""",1,4/18/2021 16:10,70.174.77.75,Mozilla/5.0 (Windows NT 10.0; Win64; x64; rv:87.0) Gecko/20100101 Firefox/87.0,,Firefox,87,Windows,10
4,1,null,"""",image-keyboard-response,214,702453,0.0-214.0,"""",jspsych/neutralFaces/BF12NES.JPG,"""",256,backwardMask,Test,null,100,"""","""","""","""","""","""","""","""",1,4/18/2021 16:10,70.174.77.75,Mozilla/5.0 (Windows NT 10.0; Win64; x64; rv:87.0) Gecko/20100101 Firefox/87.0,,Firefox,87,Windows,10
4,1,null,"""",html-keyboard-response,215,703463,0.0-215.0,"""","<div style=""font-size:60px;"">+</div>","""",256,fixationBtwnNeutralMaskAndPrompt,Test,null,1000,"""","""","""","""","""","""","""","""",1,4/18/2021 16:10,70.174.77.75,Mozilla/5.0 (Windows NT 10.0; Win64; x64; rv:87.0) Gecko/20100101 Firefox/87.0,,Firefox,87,Windows,10
4,1,2665,"""",html-button-response,216,706130,0.0-216.0,"""","<img src='jspsych/CFDfaces/CFD-AF-220-107-N.jpg' height=""250px"">,</br><b>Julie</b>",0,256,IntactOrRearranged,Test,"""","""","""","""",CFD-LF-210-220-N.jpg,Lindsey,0,"""","""",0,1,4/18/2021 16:10,70.174.77.75,Mozilla/5.0 (Windows NT 10.0; Win64; x64; rv:87.0) Gecko/20100101 Firefox/87.0,,Firefox,87,Windows,10
4,1,2934,"""",html-slider-response,217,709070,0.0-217.0,"""","<img src='jspsych/CFDfaces/CFD-AF-220-107-N.jpg' height=""250px"">,</br><b>Julie</b>","""",256,ConfidenceQuery,Test,"""","""","""","""",CFD-LF-210-220-N.jpg,Lindsey,0,0,39,"""",1,4/18/2021 16:10,70.174.77.75,Mozilla/5.0 (Windows NT 10.0; Win64; x64; rv:87.0) Gecko/20100101 Firefox/87.0,,Firefox,87,Windows,10
4,1,null,"""",html-keyboard-response,218,710083,0.0-218.0,"""","<div style=""font-size:60px;"">+</div>","""",256,ITI,Test,null,1000,"""","""","""","""","""","""","""","""",1,4/18/2021 16:10,70.174.77.75,Mozilla/5.0 (Windows NT 10.0; Win64; x64; rv:87.0) Gecko/20100101 Firefox/87.0,,Firefox,87,Windows,10
4,1,null,"""",image-keyboard-response,219,710344,0.0-219.0,"""",jspsych/scrambledDisgustFaces/scrambledAF04DIS.JPG,"""",256,forwardMask,Test,null,250,"""",d,"""","""","""","""","""","""",1,4/18/2021 16:10,70.174.77.75,Mozilla/5.0 (Windows NT 10.0; Win64; x64; rv:87.0) Gecko/20100101 Firefox/87.0,,Firefox,87,Windows,10
4,1,null,"""",image-keyboard-response,220,710384,0.0-220.0,"""",jspsych/disgustFaces/AF04DIS.JPG,"""",256,Cue,Test,null,16,"""","""","""","""","""","""","""","""",1,4/18/2021 16:10,70.174.77.75,Mozilla/5.0 (Windows NT 10.0; Win64; x64; rv:87.0) Gecko/20100101 Firefox/87.0,,Firefox,87,Windows,10
4,1,null,"""",image-keyboard-response,221,710503,0.0-221.0,"""",jspsych/neutralFaces/BF17NES.JPG,"""",256,backwardMask,Test,null,100,"""","""","""","""","""","""","""","""",1,4/18/2021 16:10,70.174.77.75,Mozilla/5.0 (Windows NT 10.0; Win64; x64; rv:87.0) Gecko/20100101 Firefox/87.0,,Firefox,87,Windows,10
4,1,null,"""",html-keyboard-response,222,711513,0.0-222.0,"""","<div style=""font-size:60px;"">+</div>","""",256,fixationBtwnNeutralMaskAndPrompt,Test,null,1000,"""","""","""","""","""","""","""","""",1,4/18/2021 16:10,70.174.77.75,Mozilla/5.0 (Windows NT 10.0; Win64; x64; rv:87.0) Gecko/20100101 Firefox/87.0,,Firefox,87,Windows,10
4,1,2476,"""",html-button-response,223,713992,0.0-223.0,"""","<img src='jspsych/CFDfaces/CFD-LF-206-078-N.jpg' height=""250px"">,</br><b>Elizabeth</b>",0,256,IntactOrRearranged,Test,"""","""","""","""",CFD-LM-213-061-N.jpg,Travis,1,"""","""",0,1,4/18/2021 16:10,70.174.77.75,Mozilla/5.0 (Windows NT 10.0; Win64; x64; rv:87.0) Gecko/20100101 Firefox/87.0,,Firefox,87,Windows,10
4,1,2777,"""",html-slider-response,224,716776,0.0-224.0,"""","<img src='jspsych/CFDfaces/CFD-LF-206-078-N.jpg' height=""250px"">,</br><b>Elizabeth</b>","""",256,ConfidenceQuery,Test,"""","""","""","""",CFD-LM-213-061-N.jpg,Travis,1,0,61,"""",1,4/18/2021 16:10,70.174.77.75,Mozilla/5.0 (Windows NT 10.0; Win64; x64; rv:87.0) Gecko/20100101 Firefox/87.0,,Firefox,87,Windows,10
4,1,null,"""",html-keyboard-response,225,717784,0.0-225.0,"""","<div style=""font-size:60px;"">+</div>","""",256,ITI,Test,null,1000,"""","""","""","""","""","""","""","""",1,4/18/2021 16:10,70.174.77.75,Mozilla/5.0 (Windows NT 10.0; Win64; x64; rv:87.0) Gecko/20100101 Firefox/87.0,,Firefox,87,Windows,10
4,1,null,"""",image-keyboard-response,226,718053,0.0-226.0,"""",jspsych/scrambledNeutralFaces/scrambledAM25NES.JPG,"""",256,forwardMask,Test,null,250,"""",n,"""","""","""","""","""","""",1,4/18/2021 16:10,70.174.77.75,Mozilla/5.0 (Windows NT 10.0; Win64; x64; rv:87.0) Gecko/20100101 Firefox/87.0,,Firefox,87,Windows,10
4,1,null,"""",image-keyboard-response,227,718093,0.0-227.0,"""",jspsych/neutralFaces/AM25NES.JPG,"""",256,Cue,Test,null,16,"""","""","""","""","""","""","""","""",1,4/18/2021 16:10,70.174.77.75,Mozilla/5.0 (Windows NT 10.0; Win64; x64; rv:87.0) Gecko/20100101 Firefox/87.0,,Firefox,87,Windows,10
4,1,null,"""",image-keyboard-response,228,718213,0.0-228.0,"""",jspsych/neutralFaces/AM18NES.JPG,"""",256,backwardMask,Test,null,100,"""","""","""","""","""","""","""","""",1,4/18/2021 16:10,70.174.77.75,Mozilla/5.0 (Windows NT 10.0; Win64; x64; rv:87.0) Gecko/20100101 Firefox/87.0,,Firefox,87,Windows,10
4,1,null,"""",html-keyboard-response,229,719234,0.0-229.0,"""","<div style=""font-size:60px;"">+</div>","""",256,fixationBtwnNeutralMaskAndPrompt,Test,null,1000,"""","""","""","""","""","""","""","""",1,4/18/2021 16:10,70.174.77.75,Mozilla/5.0 (Windows NT 10.0; Win64; x64; rv:87.0) Gecko/20100101 Firefox/87.0,,Firefox,87,Windows,10
4,1,2333,"""",html-button-response,230,721568,0.0-230.0,"""","<img src='jspsych/CFDfaces/CFD-WF-223-133-N.jpg' height=""250px"">,</br><b>Andrea</b>",1,256,IntactOrRearranged,Test,"""","""","""","""",CFD-WM-215-041-N.jpg,Vincent,1,"""","""",1,1,4/18/2021 16:10,70.174.77.75,Mozilla/5.0 (Windows NT 10.0; Win64; x64; rv:87.0) Gecko/20100101 Firefox/87.0,,Firefox,87,Windows,10
4,1,null,"""",html-slider-response,231,726584,0.0-231.0,"""","<img src='jspsych/CFDfaces/CFD-WF-223-133-N.jpg' height=""250px"">,</br><b>Andrea</b>","""",256,ConfidenceQuery,Test,"""","""","""","""",CFD-WM-215-041-N.jpg,Vincent,1,0,null,"""",1,4/18/2021 16:10,70.174.77.75,Mozilla/5.0 (Windows NT 10.0; Win64; x64; rv:87.0) Gecko/20100101 Firefox/87.0,,Firefox,87,Windows,10
4,1,null,"""",html-keyboard-response,232,727595,0.0-232.0,"""","<div style=""font-size:60px;"">+</div>","""",256,ITI,Test,null,1000,"""","""","""","""","""","""","""","""",1,4/18/2021 16:10,70.174.77.75,Mozilla/5.0 (Windows NT 10.0; Win64; x64; rv:87.0) Gecko/20100101 Firefox/87.0,,Firefox,87,Windows,10
4,1,null,"""",image-keyboard-response,233,727873,0.0-233.0,"""",jspsych/scrambledDisgustFaces/scrambledAM12DIS.JPG,"""",256,forwardMask,Test,null,250,"""",d,"""","""","""","""","""","""",1,4/18/2021 16:10,70.174.77.75,Mozilla/5.0 (Windows NT 10.0; Win64; x64; rv:87.0) Gecko/20100101 Firefox/87.0,,Firefox,87,Windows,10
4,1,null,"""",image-keyboard-response,234,727912,0.0-234.0,"""",jspsych/disgustFaces/AM12DIS.JPG,"""",256,Cue,Test,null,16,"""","""","""","""","""","""","""","""",1,4/18/2021 16:10,70.174.77.75,Mozilla/5.0 (Windows NT 10.0; Win64; x64; rv:87.0) Gecko/20100101 Firefox/87.0,,Firefox,87,Windows,10
4,1,null,"""",image-keyboard-response,235,728029,0.0-235.0,"""",jspsych/neutralFaces/AM21NES.JPG,"""",256,backwardMask,Test,null,100,"""","""","""","""","""","""","""","""",1,4/18/2021 16:10,70.174.77.75,Mozilla/5.0 (Windows NT 10.0; Win64; x64; rv:87.0) Gecko/20100101 Firefox/87.0,,Firefox,87,Windows,10
4,1,null,"""",html-keyboard-response,236,729033,0.0-236.0,"""","<div style=""font-size:60px;"">+</div>","""",256,fixationBtwnNeutralMaskAndPrompt,Test,null,1000,"""","""","""","""","""","""","""","""",1,4/18/2021 16:10,70.174.77.75,Mozilla/5.0 (Windows NT 10.0; Win64; x64; rv:87.0) Gecko/20100101 Firefox/87.0,,Firefox,87,Windows,10
4,1,2472,"""",html-button-response,237,731506,0.0-237.0,"""","<img src='jspsych/CFDfaces/CFD-BF-009-002-N.jpg' height=""250px"">,</br><b>Christina</b>",0,256,IntactOrRearranged,Test,"""","""","""","""",CFD-BM-002-013-N.jpg,Jacob,1,"""","""",0,1,4/18/2021 16:10,70.174.77.75,Mozilla/5.0 (Windows NT 10.0; Win64; x64; rv:87.0) Gecko/20100101 Firefox/87.0,,Firefox,87,Windows,10
4,1,3176,"""",html-slider-response,238,734684,0.0-238.0,"""","<img src='jspsych/CFDfaces/CFD-BF-009-002-N.jpg' height=""250px"">,</br><b>Christina</b>","""",256,ConfidenceQuery,Test,"""","""","""","""",CFD-BM-002-013-N.jpg,Jacob,1,0,49,"""",1,4/18/2021 16:10,70.174.77.75,Mozilla/5.0 (Windows NT 10.0; Win64; x64; rv:87.0) Gecko/20100101 Firefox/87.0,,Firefox,87,Windows,10
4,1,null,"""",html-keyboard-response,239,735693,0.0-239.0,"""","<div style=""font-size:60px;"">+</div>","""",256,ITI,Test,null,1000,"""","""","""","""","""","""","""","""",1,4/18/2021 16:10,70.174.77.75,Mozilla/5.0 (Windows NT 10.0; Win64; x64; rv:87.0) Gecko/20100101 Firefox/87.0,,Firefox,87,Windows,10
4,1,null,"""",image-keyboard-response,240,735963,0.0-240.0,"""",jspsych/scrambledDisgustFaces/scrambledBM32DIS.JPG,"""",256,forwardMask,Test,null,250,"""",d,"""","""","""","""","""","""",1,4/18/2021 16:10,70.174.77.75,Mozilla/5.0 (Windows NT 10.0; Win64; x64; rv:87.0) Gecko/20100101 Firefox/87.0,,Firefox,87,Windows,10
4,1,null,"""",image-keyboard-response,241,735993,0.0-241.0,"""",jspsych/disgustFaces/BM33DIS.JPG,"""",256,Cue,Test,null,16,"""","""","""","""","""","""","""","""",1,4/18/2021 16:10,70.174.77.75,Mozilla/5.0 (Windows NT 10.0; Win64; x64; rv:87.0) Gecko/20100101 Firefox/87.0,,Firefox,87,Windows,10
4,1,null,"""",image-keyboard-response,242,736103,0.0-242.0,"""",jspsych/neutralFaces/AM22NES.JPG,"""",256,backwardMask,Test,null,100,"""","""","""","""","""","""","""","""",1,4/18/2021 16:10,70.174.77.75,Mozilla/5.0 (Windows NT 10.0; Win64; x64; rv:87.0) Gecko/20100101 Firefox/87.0,,Firefox,87,Windows,10
4,1,null,"""",html-keyboard-response,243,737123,0.0-243.0,"""","<div style=""font-size:60px;"">+</div>","""",256,fixationBtwnNeutralMaskAndPrompt,Test,null,1000,"""","""","""","""","""","""","""","""",1,4/18/2021 16:10,70.174.77.75,Mozilla/5.0 (Windows NT 10.0; Win64; x64; rv:87.0) Gecko/20100101 Firefox/87.0,,Firefox,87,Windows,10
4,1,2459,"""",html-button-response,244,739583,0.0-244.0,"""","<img src='jspsych/CFDfaces/CFD-BM-022-022-N.jpg' height=""250px"">,</br><b>Christian</b>",1,256,IntactOrRearranged,Test,"""","""","""","""",CFD-WM-232-070-N.jpg,Steven,1,"""","""",1,1,4/18/2021 16:10,70.174.77.75,Mozilla/5.0 (Windows NT 10.0; Win64; x64; rv:87.0) Gecko/20100101 Firefox/87.0,,Firefox,87,Windows,10
4,1,3468,"""",html-slider-response,245,743054,0.0-245.0,"""","<img src='jspsych/CFDfaces/CFD-BM-022-022-N.jpg' height=""250px"">,</br><b>Christian</b>","""",256,ConfidenceQuery,Test,"""","""","""","""",CFD-WM-232-070-N.jpg,Steven,1,0,58,"""",1,4/18/2021 16:10,70.174.77.75,Mozilla/5.0 (Windows NT 10.0; Win64; x64; rv:87.0) Gecko/20100101 Firefox/87.0,,Firefox,87,Windows,10
4,1,null,"""",html-keyboard-response,246,744073,0.0-246.0,"""","<div style=""font-size:60px;"">+</div>","""",256,ITI,Test,null,1000,"""","""","""","""","""","""","""","""",1,4/18/2021 16:10,70.174.77.75,Mozilla/5.0 (Windows NT 10.0; Win64; x64; rv:87.0) Gecko/20100101 Firefox/87.0,,Firefox,87,Windows,10
4,1,null,"""",image-keyboard-response,247,744343,0.0-247.0,"""",jspsych/scrambledDisgustFaces/scrambledAM08DIS.JPG,"""",256,forwardMask,Test,null,250,"""",d,"""","""","""","""","""","""",1,4/18/2021 16:10,70.174.77.75,Mozilla/5.0 (Windows NT 10.0; Win64; x64; rv:87.0) Gecko/20100101 Firefox/87.0,,Firefox,87,Windows,10
4,1,null,"""",image-keyboard-response,248,744383,0.0-248.0,"""",jspsych/disgustFaces/AM08DIS.JPG,"""",256,Cue,Test,null,16,"""","""","""","""","""","""","""","""",1,4/18/2021 16:10,70.174.77.75,Mozilla/5.0 (Windows NT 10.0; Win64; x64; rv:87.0) Gecko/20100101 Firefox/87.0,,Firefox,87,Windows,10
4,1,null,"""",image-keyboard-response,249,744493,0.0-249.0,"""",jspsych/neutralFaces/BM04NES.JPG,"""",256,backwardMask,Test,null,100,"""","""","""","""","""","""","""","""",1,4/18/2021 16:10,70.174.77.75,Mozilla/5.0 (Windows NT 10.0; Win64; x64; rv:87.0) Gecko/20100101 Firefox/87.0,,Firefox,87,Windows,10
4,1,null,"""",html-keyboard-response,250,745514,0.0-250.0,"""","<div style=""font-size:60px;"">+</div>","""",256,fixationBtwnNeutralMaskAndPrompt,Test,null,1000,"""","""","""","""","""","""","""","""",1,4/18/2021 16:10,70.174.77.75,Mozilla/5.0 (Windows NT 10.0; Win64; x64; rv:87.0) Gecko/20100101 Firefox/87.0,,Firefox,87,Windows,10
4,1,3596,"""",html-button-response,251,749112,0.0-251.0,"""","<img src='jspsych/CFDfaces/CFD-AM-211-052-N.jpg' height=""250px"">,</br><b>Robert</b>",0,256,IntactOrRearranged,Test,"""","""","""","""",CFD-AM-207-108-N.jpg,Jeremy,0,"""","""",0,1,4/18/2021 16:10,70.174.77.75,Mozilla/5.0 (Windows NT 10.0; Win64; x64; rv:87.0) Gecko/20100101 Firefox/87.0,,Firefox,87,Windows,10
4,1,2246,"""",html-slider-response,252,751364,0.0-252.0,"""","<img src='jspsych/CFDfaces/CFD-AM-211-052-N.jpg' height=""250px"">,</br><b>Robert</b>","""",256,ConfidenceQuery,Test,"""","""","""","""",CFD-AM-207-108-N.jpg,Jeremy,0,0,34,"""",1,4/18/2021 16:10,70.174.77.75,Mozilla/5.0 (Windows NT 10.0; Win64; x64; rv:87.0) Gecko/20100101 Firefox/87.0,,Firefox,87,Windows,10
4,1,null,"""",html-keyboard-response,253,752383,0.0-253.0,"""","<div style=""font-size:60px;"">+</div>","""",256,ITI,Test,null,1000,"""","""","""","""","""","""","""","""",1,4/18/2021 16:10,70.174.77.75,Mozilla/5.0 (Windows NT 10.0; Win64; x64; rv:87.0) Gecko/20100101 Firefox/87.0,,Firefox,87,Windows,10
4,1,null,"""",image-keyboard-response,254,752643,0.0-254.0,"""",jspsych/scrambledNeutralFaces/scrambledAM26NES.JPG,"""",256,forwardMask,Test,null,250,"""",n,"""","""","""","""","""","""",1,4/18/2021 16:10,70.174.77.75,Mozilla/5.0 (Windows NT 10.0; Win64; x64; rv:87.0) Gecko/20100101 Firefox/87.0,,Firefox,87,Windows,10
4,1,null,"""",image-keyboard-response,255,752683,0.0-255.0,"""",jspsych/neutralFaces/AM26NES.JPG,"""",256,Cue,Test,null,16,"""","""","""","""","""","""","""","""",1,4/18/2021 16:10,70.174.77.75,Mozilla/5.0 (Windows NT 10.0; Win64; x64; rv:87.0) Gecko/20100101 Firefox/87.0,,Firefox,87,Windows,10
4,1,null,"""",image-keyboard-response,256,752804,0.0-256.0,"""",jspsych/neutralFaces/AM25NES.JPG,"""",256,backwardMask,Test,null,100,"""","""","""","""","""","""","""","""",1,4/18/2021 16:10,70.174.77.75,Mozilla/5.0 (Windows NT 10.0; Win64; x64; rv:87.0) Gecko/20100101 Firefox/87.0,,Firefox,87,Windows,10
4,1,null,"""",html-keyboard-response,257,753813,0.0-257.0,"""","<div style=""font-size:60px;"">+</div>","""",256,fixationBtwnNeutralMaskAndPrompt,Test,null,1000,"""","""","""","""","""","""","""","""",1,4/18/2021 16:10,70.174.77.75,Mozilla/5.0 (Windows NT 10.0; Win64; x64; rv:87.0) Gecko/20100101 Firefox/87.0,,Firefox,87,Windows,10
4,1,3877,"""",html-button-response,258,757692,0.0-258.0,"""","<img src='jspsych/CFDfaces/CFD-BF-021-013-N.jpg' height=""250px"">,</br><b>Victoria</b>",1,256,IntactOrRearranged,Test,"""","""","""","""",CFD-AF-208-003-N.jpg,Jordan,1,"""","""",1,1,4/18/2021 16:10,70.174.77.75,Mozilla/5.0 (Windows NT 10.0; Win64; x64; rv:87.0) Gecko/20100101 Firefox/87.0,,Firefox,87,Windows,10
4,1,2291,"""",html-slider-response,259,759990,0.0-259.0,"""","<img src='jspsych/CFDfaces/CFD-BF-021-013-N.jpg' height=""250px"">,</br><b>Victoria</b>","""",256,ConfidenceQuery,Test,"""","""","""","""",CFD-AF-208-003-N.jpg,Jordan,1,0,31,"""",1,4/18/2021 16:10,70.174.77.75,Mozilla/5.0 (Windows NT 10.0; Win64; x64; rv:87.0) Gecko/20100101 Firefox/87.0,,Firefox,87,Windows,10
4,1,null,"""",html-keyboard-response,260,760993,0.0-260.0,"""","<div style=""font-size:60px;"">+</div>","""",256,ITI,Test,null,1000,"""","""","""","""","""","""","""","""",1,4/18/2021 16:10,70.174.77.75,Mozilla/5.0 (Windows NT 10.0; Win64; x64; rv:87.0) Gecko/20100101 Firefox/87.0,,Firefox,87,Windows,10
4,1,null,"""",image-keyboard-response,261,761253,0.0-261.0,"""",jspsych/scrambledDisgustFaces/scrambledAM09DIS.JPG,"""",256,forwardMask,Test,null,250,"""",d,"""","""","""","""","""","""",1,4/18/2021 16:10,70.174.77.75,Mozilla/5.0 (Windows NT 10.0; Win64; x64; rv:87.0) Gecko/20100101 Firefox/87.0,,Firefox,87,Windows,10
4,1,null,"""",image-keyboard-response,262,761293,0.0-262.0,"""",jspsych/disgustFaces/AM09DIS.JPG,"""",256,Cue,Test,null,16,"""","""","""","""","""","""","""","""",1,4/18/2021 16:10,70.174.77.75,Mozilla/5.0 (Windows NT 10.0; Win64; x64; rv:87.0) Gecko/20100101 Firefox/87.0,,Firefox,87,Windows,10
4,1,null,"""",image-keyboard-response,263,761409,0.0-263.0,"""",jspsych/neutralFaces/AM35NES.JPG,"""",256,backwardMask,Test,null,100,"""","""","""","""","""","""","""","""",1,4/18/2021 16:10,70.174.77.75,Mozilla/5.0 (Windows NT 10.0; Win64; x64; rv:87.0) Gecko/20100101 Firefox/87.0,,Firefox,87,Windows,10
4,1,null,"""",html-keyboard-response,264,762423,0.0-264.0,"""","<div style=""font-size:60px;"">+</div>","""",256,fixationBtwnNeutralMaskAndPrompt,Test,null,1000,"""","""","""","""","""","""","""","""",1,4/18/2021 16:10,70.174.77.75,Mozilla/5.0 (Windows NT 10.0; Win64; x64; rv:87.0) Gecko/20100101 Firefox/87.0,,Firefox,87,Windows,10
4,1,1817,"""",html-button-response,265,764242,0.0-265.0,"""","<img src='jspsych/CFDfaces/CFD-AM-246-184-N.jpg' height=""250px"">,</br><b>Nicholas</b>",0,256,IntactOrRearranged,Test,"""","""","""","""",CFD-WF-024-003-N.jpg,Jenna,0,"""","""",0,1,4/18/2021 16:10,70.174.77.75,Mozilla/5.0 (Windows NT 10.0; Win64; x64; rv:87.0) Gecko/20100101 Firefox/87.0,,Firefox,87,Windows,10
4,1,2855,"""",html-slider-response,266,767104,0.0-266.0,"""","<img src='jspsych/CFDfaces/CFD-AM-246-184-N.jpg' height=""250px"">,</br><b>Nicholas</b>","""",256,ConfidenceQuery,Test,"""","""","""","""",CFD-WF-024-003-N.jpg,Jenna,0,0,67,"""",1,4/18/2021 16:10,70.174.77.75,Mozilla/5.0 (Windows NT 10.0; Win64; x64; rv:87.0) Gecko/20100101 Firefox/87.0,,Firefox,87,Windows,10
4,1,null,"""",html-keyboard-response,267,768123,0.0-267.0,"""","<div style=""font-size:60px;"">+</div>","""",256,ITI,Test,null,1000,"""","""","""","""","""","""","""","""",1,4/18/2021 16:10,70.174.77.75,Mozilla/5.0 (Windows NT 10.0; Win64; x64; rv:87.0) Gecko/20100101 Firefox/87.0,,Firefox,87,Windows,10
4,1,null,"""",image-keyboard-response,268,768383,0.0-268.0,"""",jspsych/scrambledNeutralFaces/scrambledAM05NES.JPG,"""",256,forwardMask,Test,null,250,"""",n,"""","""","""","""","""","""",1,4/18/2021 16:10,70.174.77.75,Mozilla/5.0 (Windows NT 10.0; Win64; x64; rv:87.0) Gecko/20100101 Firefox/87.0,,Firefox,87,Windows,10
4,1,null,"""",image-keyboard-response,269,768423,0.0-269.0,"""",jspsych/neutralFaces/AM05NES.JPG,"""",256,Cue,Test,null,16,"""","""","""","""","""","""","""","""",1,4/18/2021 16:10,70.174.77.75,Mozilla/5.0 (Windows NT 10.0; Win64; x64; rv:87.0) Gecko/20100101 Firefox/87.0,,Firefox,87,Windows,10
4,1,null,"""",image-keyboard-response,270,768543,0.0-270.0,"""",jspsych/neutralFaces/AM32NES.JPG,"""",256,backwardMask,Test,null,100,"""","""","""","""","""","""","""","""",1,4/18/2021 16:10,70.174.77.75,Mozilla/5.0 (Windows NT 10.0; Win64; x64; rv:87.0) Gecko/20100101 Firefox/87.0,,Firefox,87,Windows,10
4,1,null,"""",html-keyboard-response,271,769554,0.0-271.0,"""","<div style=""font-size:60px;"">+</div>","""",256,fixationBtwnNeutralMaskAndPrompt,Test,null,1000,"""","""","""","""","""","""","""","""",1,4/18/2021 16:10,70.174.77.75,Mozilla/5.0 (Windows NT 10.0; Win64; x64; rv:87.0) Gecko/20100101 Firefox/87.0,,Firefox,87,Windows,10
4,1,3282,"""",html-button-response,272,772836,0.0-272.0,"""","<img src='jspsych/CFDfaces/CFD-LM-252-076-N.jpg' height=""250px"">,</br><b>Peter</b>",0,256,IntactOrRearranged,Test,"""","""","""","""",CFD-WF-204-038-N.jpg,Laura,0,"""","""",0,1,4/18/2021 16:10,70.174.77.75,Mozilla/5.0 (Windows NT 10.0; Win64; x64; rv:87.0) Gecko/20100101 Firefox/87.0,,Firefox,87,Windows,10
4,1,2177,"""",html-slider-response,273,775020,0.0-273.0,"""","<img src='jspsych/CFDfaces/CFD-LM-252-076-N.jpg' height=""250px"">,</br><b>Peter</b>","""",256,ConfidenceQuery,Test,"""","""","""","""",CFD-WF-204-038-N.jpg,Laura,0,0,29,"""",1,4/18/2021 16:10,70.174.77.75,Mozilla/5.0 (Windows NT 10.0; Win64; x64; rv:87.0) Gecko/20100101 Firefox/87.0,,Firefox,87,Windows,10
4,1,null,"""",html-keyboard-response,274,776033,0.0-274.0,"""","<div style=""font-size:60px;"">+</div>","""",256,ITI,Test,null,1000,"""","""","""","""","""","""","""","""",1,4/18/2021 16:10,70.174.77.75,Mozilla/5.0 (Windows NT 10.0; Win64; x64; rv:87.0) Gecko/20100101 Firefox/87.0,,Firefox,87,Windows,10
4,1,null,"""",image-keyboard-response,275,776303,0.0-275.0,"""",jspsych/scrambledNeutralFaces/scrambledAF17NES.JPG,"""",256,forwardMask,Test,null,250,"""",n,"""","""","""","""","""","""",1,4/18/2021 16:10,70.174.77.75,Mozilla/5.0 (Windows NT 10.0; Win64; x64; rv:87.0) Gecko/20100101 Firefox/87.0,,Firefox,87,Windows,10
4,1,null,"""",image-keyboard-response,276,776342,0.0-276.0,"""",jspsych/neutralFaces/AF17NES.JPG,"""",256,Cue,Test,null,16,"""","""","""","""","""","""","""","""",1,4/18/2021 16:10,70.174.77.75,Mozilla/5.0 (Windows NT 10.0; Win64; x64; rv:87.0) Gecko/20100101 Firefox/87.0,,Firefox,87,Windows,10
4,1,null,"""",image-keyboard-response,277,776463,0.0-277.0,"""",jspsych/neutralFaces/AF24NES.JPG,"""",256,backwardMask,Test,null,100,"""","""","""","""","""","""","""","""",1,4/18/2021 16:10,70.174.77.75,Mozilla/5.0 (Windows NT 10.0; Win64; x64; rv:87.0) Gecko/20100101 Firefox/87.0,,Firefox,87,Windows,10
4,1,null,"""",html-keyboard-response,278,777473,0.0-278.0,"""","<div style=""font-size:60px;"">+</div>","""",256,fixationBtwnNeutralMaskAndPrompt,Test,null,1000,"""","""","""","""","""","""","""","""",1,4/18/2021 16:10,70.174.77.75,Mozilla/5.0 (Windows NT 10.0; Win64; x64; rv:87.0) Gecko/20100101 Firefox/87.0,,Firefox,87,Windows,10
4,1,2939,"""",html-button-response,279,780414,0.0-279.0,"""","<img src='jspsych/CFDfaces/CFD-LF-204-133-N.jpg' height=""250px"">,</br><b>Emily</b>",0,256,IntactOrRearranged,Test,"""","""","""","""",CFD-LF-208-127-N.jpg,Melissa,1,"""","""",0,1,4/18/2021 16:10,70.174.77.75,Mozilla/5.0 (Windows NT 10.0; Win64; x64; rv:87.0) Gecko/20100101 Firefox/87.0,,Firefox,87,Windows,10
4,1,2615,"""",html-slider-response,280,783035,0.0-280.0,"""","<img src='jspsych/CFDfaces/CFD-LF-204-133-N.jpg' height=""250px"">,</br><b>Emily</b>","""",256,ConfidenceQuery,Test,"""","""","""","""",CFD-LF-208-127-N.jpg,Melissa,1,0,48,"""",1,4/18/2021 16:10,70.174.77.75,Mozilla/5.0 (Windows NT 10.0; Win64; x64; rv:87.0) Gecko/20100101 Firefox/87.0,,Firefox,87,Windows,10
4,1,null,"""",html-keyboard-response,281,784053,0.0-281.0,"""","<div style=""font-size:60px;"">+</div>","""",256,ITI,Test,null,1000,"""","""","""","""","""","""","""","""",1,4/18/2021 16:10,70.174.77.75,Mozilla/5.0 (Windows NT 10.0; Win64; x64; rv:87.0) Gecko/20100101 Firefox/87.0,,Firefox,87,Windows,10
4,1,null,"""",image-keyboard-response,282,784313,0.0-282.0,"""",jspsych/scrambledDisgustFaces/scrambledBF13DIS.JPG,"""",256,forwardMask,Test,null,250,"""",d,"""","""","""","""","""","""",1,4/18/2021 16:10,70.174.77.75,Mozilla/5.0 (Windows NT 10.0; Win64; x64; rv:87.0) Gecko/20100101 Firefox/87.0,,Firefox,87,Windows,10
4,1,null,"""",image-keyboard-response,283,784352,0.0-283.0,"""",jspsych/disgustFaces/BF13DIS.JPG,"""",256,Cue,Test,null,16,"""","""","""","""","""","""","""","""",1,4/18/2021 16:10,70.174.77.75,Mozilla/5.0 (Windows NT 10.0; Win64; x64; rv:87.0) Gecko/20100101 Firefox/87.0,,Firefox,87,Windows,10
4,1,null,"""",image-keyboard-response,284,784473,0.0-284.0,"""",jspsych/neutralFaces/BF24NES.JPG,"""",256,backwardMask,Test,null,100,"""","""","""","""","""","""","""","""",1,4/18/2021 16:10,70.174.77.75,Mozilla/5.0 (Windows NT 10.0; Win64; x64; rv:87.0) Gecko/20100101 Firefox/87.0,,Firefox,87,Windows,10
4,1,null,"""",html-keyboard-response,285,785483,0.0-285.0,"""","<div style=""font-size:60px;"">+</div>","""",256,fixationBtwnNeutralMaskAndPrompt,Test,null,1000,"""","""","""","""","""","""","""","""",1,4/18/2021 16:10,70.174.77.75,Mozilla/5.0 (Windows NT 10.0; Win64; x64; rv:87.0) Gecko/20100101 Firefox/87.0,,Firefox,87,Windows,10
4,1,2157,"""",html-button-response,286,787642,0.0-286.0,"""","<img src='jspsych/CFDfaces/CFD-BF-226-119-N.jpg' height=""250px"">,</br><b>Meghan</b>",1,256,IntactOrRearranged,Test,"""","""","""","""",CFD-BM-026-002-N.jpg,Sean,0,"""","""",1,1,4/18/2021 16:10,70.174.77.75,Mozilla/5.0 (Windows NT 10.0; Win64; x64; rv:87.0) Gecko/20100101 Firefox/87.0,,Firefox,87,Windows,10
4,1,3279,"""",html-slider-response,287,790928,0.0-287.0,"""","<img src='jspsych/CFDfaces/CFD-BF-226-119-N.jpg' height=""250px"">,</br><b>Meghan</b>","""",256,ConfidenceQuery,Test,"""","""","""","""",CFD-BM-026-002-N.jpg,Sean,0,0,62,"""",1,4/18/2021 16:10,70.174.77.75,Mozilla/5.0 (Windows NT 10.0; Win64; x64; rv:87.0) Gecko/20100101 Firefox/87.0,,Firefox,87,Windows,10
4,1,null,"""",html-keyboard-response,288,791943,0.0-288.0,"""","<div style=""font-size:60px;"">+</div>","""",256,ITI,Test,null,1000,"""","""","""","""","""","""","""","""",1,4/18/2021 16:10,70.174.77.75,Mozilla/5.0 (Windows NT 10.0; Win64; x64; rv:87.0) Gecko/20100101 Firefox/87.0,,Firefox,87,Windows,10
4,1,null,"""",image-keyboard-response,289,792203,0.0-289.0,"""",jspsych/scrambledDisgustFaces/scrambledAM23DIS.JPG,"""",256,forwardMask,Test,null,250,"""",d,"""","""","""","""","""","""",1,4/18/2021 16:10,70.174.77.75,Mozilla/5.0 (Windows NT 10.0; Win64; x64; rv:87.0) Gecko/20100101 Firefox/87.0,,Firefox,87,Windows,10
4,1,null,"""",image-keyboard-response,290,792222,0.0-290.0,"""",jspsych/disgustFaces/AM23DIS.JPG,"""",256,Cue,Test,null,16,"""","""","""","""","""","""","""","""",1,4/18/2021 16:10,70.174.77.75,Mozilla/5.0 (Windows NT 10.0; Win64; x64; rv:87.0) Gecko/20100101 Firefox/87.0,,Firefox,87,Windows,10
4,1,null,"""",image-keyboard-response,291,792343,0.0-291.0,"""",jspsych/neutralFaces/AM15NES.JPG,"""",256,backwardMask,Test,null,100,"""","""","""","""","""","""","""","""",1,4/18/2021 16:10,70.174.77.75,Mozilla/5.0 (Windows NT 10.0; Win64; x64; rv:87.0) Gecko/20100101 Firefox/87.0,,Firefox,87,Windows,10
4,1,null,"""",html-keyboard-response,292,793345,0.0-292.0,"""","<div style=""font-size:60px;"">+</div>","""",256,fixationBtwnNeutralMaskAndPrompt,Test,null,1000,"""","""","""","""","""","""","""","""",1,4/18/2021 16:10,70.174.77.75,Mozilla/5.0 (Windows NT 10.0; Win64; x64; rv:87.0) Gecko/20100101 Firefox/87.0,,Firefox,87,Windows,10
4,1,3220,"""",html-button-response,293,796569,0.0-293.0,"""","<img src='jspsych/CFDfaces/CFD-LM-200-045-N.jpg' height=""250px"">,</br><b>Gregory</b>",1,256,IntactOrRearranged,Test,"""","""","""","""",CFD-AF-240-206-N.jpg,Heather,1,"""","""",1,1,4/18/2021 16:10,70.174.77.75,Mozilla/5.0 (Windows NT 10.0; Win64; x64; rv:87.0) Gecko/20100101 Firefox/87.0,,Firefox,87,Windows,10
4,1,3080,"""",html-slider-response,294,799663,0.0-294.0,"""","<img src='jspsych/CFDfaces/CFD-LM-200-045-N.jpg' height=""250px"">,</br><b>Gregory</b>","""",256,ConfidenceQuery,Test,"""","""","""","""",CFD-AF-240-206-N.jpg,Heather,1,0,51,"""",1,4/18/2021 16:10,70.174.77.75,Mozilla/5.0 (Windows NT 10.0; Win64; x64; rv:87.0) Gecko/20100101 Firefox/87.0,,Firefox,87,Windows,10
4,1,null,"""",html-keyboard-response,295,800675,0.0-295.0,"""","<div style=""font-size:60px;"">+</div>","""",256,ITI,Test,null,1000,"""","""","""","""","""","""","""","""",1,4/18/2021 16:10,70.174.77.75,Mozilla/5.0 (Windows NT 10.0; Win64; x64; rv:87.0) Gecko/20100101 Firefox/87.0,,Firefox,87,Windows,10
4,1,null,"""",image-keyboard-response,296,800934,0.0-296.0,"""",jspsych/scrambledDisgustFaces/scrambledBF11DIS.JPG,"""",256,forwardMask,Test,null,250,"""",d,"""","""","""","""","""","""",1,4/18/2021 16:10,70.174.77.75,Mozilla/5.0 (Windows NT 10.0; Win64; x64; rv:87.0) Gecko/20100101 Firefox/87.0,,Firefox,87,Windows,10
4,1,null,"""",image-keyboard-response,297,800974,0.0-297.0,"""",jspsych/disgustFaces/BF11DIS.JPG,"""",256,Cue,Test,null,16,"""","""","""","""","""","""","""","""",1,4/18/2021 16:10,70.174.77.75,Mozilla/5.0 (Windows NT 10.0; Win64; x64; rv:87.0) Gecko/20100101 Firefox/87.0,,Firefox,87,Windows,10
4,1,null,"""",image-keyboard-response,298,801094,0.0-298.0,"""",jspsych/neutralFaces/AF28NES.JPG,"""",256,backwardMask,Test,null,100,"""","""","""","""","""","""","""","""",1,4/18/2021 16:10,70.174.77.75,Mozilla/5.0 (Windows NT 10.0; Win64; x64; rv:87.0) Gecko/20100101 Firefox/87.0,,Firefox,87,Windows,10
