run_id,condition,rt,responses,trial_type,trial_index,time_elapsed,internal_node_id,question_order,stimulus,button_pressed,iTrial,Phase,ExperimentPhase,key_press,StimulusDurationSetting,CharacterResponse,correctResponse,Face,Name,rearranged,slider_start,response,didSubjectEnterRearranged,Block,recorded_at,ip,user_agent,device,browser,browser_version,platform,platform_version
169,1,5458,"{""Q0"":""A1MC3CCKEU9UTR""}",survey-text,0,5462,0.0-0.0,"""","""","""","""","""","""","""","""","""","""","""","""","""","""","""","""","""",4/26/2021 18:59,107.210.23.140,Mozilla/5.0 (Windows NT 10.0; Win64; x64; rv:88.0) Gecko/20100101 Firefox/88.0,,Firefox,88,Windows,10
169,1,1663,"{""Q0"":""30""}",survey-text,1,7132,0.0-1.0,"""","""","""","""","""","""","""","""","""","""","""","""","""","""","""","""","""",4/26/2021 18:59,107.210.23.140,Mozilla/5.0 (Windows NT 10.0; Win64; x64; rv:88.0) Gecko/20100101 Firefox/88.0,,Firefox,88,Windows,10
169,1,6317,"{""Q0"":""female"",""Q1"":""Not Hispanic/Latino"",""Q2"":""White or Caucasian""}",survey-multi-choice,2,13453,0.0-2.0,"[0,1,2]","""","""","""","""","""","""","""","""","""","""","""","""","""","""","""","""",4/26/2021 18:59,107.210.23.140,Mozilla/5.0 (Windows NT 10.0; Win64; x64; rv:88.0) Gecko/20100101 Firefox/88.0,,Firefox,88,Windows,10
169,1,16508,"""",image-button-response,3,29974,0.0-3.0,"""",directionsMemoryAssociation1.JPG,0,1,IntroDirections1,break,"""","""","""","""","""","""","""","""","""","""","""",4/26/2021 18:59,107.210.23.140,Mozilla/5.0 (Windows NT 10.0; Win64; x64; rv:88.0) Gecko/20100101 Firefox/88.0,,Firefox,88,Windows,10
169,1,17580,"""",image-button-response,4,47559,0.0-4.0,"""",directionsMemoryAssociation2.JPG,0,1,IntroDirections2,break,"""","""","""","""","""","""","""","""","""","""","""",4/26/2021 18:59,107.210.23.140,Mozilla/5.0 (Windows NT 10.0; Win64; x64; rv:88.0) Gecko/20100101 Firefox/88.0,,Firefox,88,Windows,10
169,1,3767,"""",html-keyboard-response,5,52578,0.0-5.0,"""","<img src='jspsych/CFDfaces/CFD-AF-226-251-N.jpg' height=""250px"">,</br><b>Cassandra</b>","""",1,IntactFace,Practice,70,5000,f,"""","""","""","""","""","""","""","""",4/26/2021 18:59,107.210.23.140,Mozilla/5.0 (Windows NT 10.0; Win64; x64; rv:88.0) Gecko/20100101 Firefox/88.0,,Firefox,88,Windows,10
169,1,null,"""",html-keyboard-response,6,53089,0.0-6.0,"""","<div style=""font-size:60px;"">+</div>","""",1,ITI,Practice,null,1000,"""","""","""","""","""","""","""","""","""",4/26/2021 18:59,107.210.23.140,Mozilla/5.0 (Windows NT 10.0; Win64; x64; rv:88.0) Gecko/20100101 Firefox/88.0,,Firefox,88,Windows,10
169,1,null,"""",html-keyboard-response,7,58108,0.0-7.0,"""","<img src='jspsych/CFDfaces/CFD-LF-210-220-N.jpg' height=""250px"">,</br><b>Tara</b>","""",2,IntactFace,Practice,null,5000,"""","""","""","""","""","""","""","""","""",4/26/2021 18:59,107.210.23.140,Mozilla/5.0 (Windows NT 10.0; Win64; x64; rv:88.0) Gecko/20100101 Firefox/88.0,,Firefox,88,Windows,10
169,1,null,"""",html-keyboard-response,8,58611,0.0-8.0,"""","<div style=""font-size:60px;"">+</div>","""",2,ITI,Practice,null,1000,"""","""","""","""","""","""","""","""","""",4/26/2021 18:59,107.210.23.140,Mozilla/5.0 (Windows NT 10.0; Win64; x64; rv:88.0) Gecko/20100101 Firefox/88.0,,Firefox,88,Windows,10
169,1,1453,"""",html-keyboard-response,9,63620,0.0-9.0,"""","<img src='jspsych/CFDfaces/CFD-AM-230-150-N.jpg' height=""250px"">,</br><b>Carlos</b>","""",3,IntactFace,Practice,70,5000,f,"""","""","""","""","""","""","""","""",4/26/2021 18:59,107.210.23.140,Mozilla/5.0 (Windows NT 10.0; Win64; x64; rv:88.0) Gecko/20100101 Firefox/88.0,,Firefox,88,Windows,10
169,1,null,"""",html-keyboard-response,10,64129,0.0-10.0,"""","<div style=""font-size:60px;"">+</div>","""",3,ITI,Practice,null,1000,"""","""","""","""","""","""","""","""","""",4/26/2021 18:59,107.210.23.140,Mozilla/5.0 (Windows NT 10.0; Win64; x64; rv:88.0) Gecko/20100101 Firefox/88.0,,Firefox,88,Windows,10
169,1,1324,"""",html-keyboard-response,11,69134,0.0-11.0,"""","<img src='jspsych/CFDfaces/CFD-WM-011-002-N.jpg' height=""250px"">,</br><b>Patrick</b>","""",4,IntactFace,Practice,70,5000,f,"""","""","""","""","""","""","""","""",4/26/2021 18:59,107.210.23.140,Mozilla/5.0 (Windows NT 10.0; Win64; x64; rv:88.0) Gecko/20100101 Firefox/88.0,,Firefox,88,Windows,10
169,1,null,"""",html-keyboard-response,12,69658,0.0-12.0,"""","<div style=""font-size:60px;"">+</div>","""",4,ITI,Practice,null,1000,"""","""","""","""","""","""","""","""","""",4/26/2021 18:59,107.210.23.140,Mozilla/5.0 (Windows NT 10.0; Win64; x64; rv:88.0) Gecko/20100101 Firefox/88.0,,Firefox,88,Windows,10
169,1,1413,"""",html-keyboard-response,13,74666,0.0-13.0,"""","<img src='jspsych/CFDfaces/CFD-AF-208-003-N.jpg' height=""250px"">,</br><b>Katelyn</b>","""",5,IntactFace,Practice,78,5000,n,"""","""","""","""","""","""","""","""",4/26/2021 18:59,107.210.23.140,Mozilla/5.0 (Windows NT 10.0; Win64; x64; rv:88.0) Gecko/20100101 Firefox/88.0,,Firefox,88,Windows,10
169,1,null,"""",html-keyboard-response,14,75179,0.0-14.0,"""","<div style=""font-size:60px;"">+</div>","""",5,ITI,Practice,null,1000,"""","""","""","""","""","""","""","""","""",4/26/2021 18:59,107.210.23.140,Mozilla/5.0 (Windows NT 10.0; Win64; x64; rv:88.0) Gecko/20100101 Firefox/88.0,,Firefox,88,Windows,10
169,1,4045,"""",html-keyboard-response,15,80183,0.0-15.0,"""","<img src='jspsych/CFDfaces/CFD-AM-234-355-N.jpg' height=""250px"">,</br><b>Marcus</b>","""",6,IntactFace,Practice,70,5000,f,"""","""","""","""","""","""","""","""",4/26/2021 18:59,107.210.23.140,Mozilla/5.0 (Windows NT 10.0; Win64; x64; rv:88.0) Gecko/20100101 Firefox/88.0,,Firefox,88,Windows,10
169,1,null,"""",html-keyboard-response,16,80696,0.0-16.0,"""","<div style=""font-size:60px;"">+</div>","""",6,ITI,Practice,null,1000,"""","""","""","""","""","""","""","""","""",4/26/2021 18:59,107.210.23.140,Mozilla/5.0 (Windows NT 10.0; Win64; x64; rv:88.0) Gecko/20100101 Firefox/88.0,,Firefox,88,Windows,10
169,1,2192,"""",html-keyboard-response,17,85707,0.0-17.0,"""","<img src='jspsych/CFDfaces/CFD-BF-023-010-N.jpg' height=""250px"">,</br><b>Shannon</b>","""",7,IntactFace,Practice,78,5000,n,"""","""","""","""","""","""","""","""",4/26/2021 18:59,107.210.23.140,Mozilla/5.0 (Windows NT 10.0; Win64; x64; rv:88.0) Gecko/20100101 Firefox/88.0,,Firefox,88,Windows,10
169,1,null,"""",html-keyboard-response,18,86220,0.0-18.0,"""","<div style=""font-size:60px;"">+</div>","""",7,ITI,Practice,null,1000,"""","""","""","""","""","""","""","""","""",4/26/2021 18:59,107.210.23.140,Mozilla/5.0 (Windows NT 10.0; Win64; x64; rv:88.0) Gecko/20100101 Firefox/88.0,,Firefox,88,Windows,10
169,1,2441,"""",html-keyboard-response,19,91239,0.0-19.0,"""","<img src='jspsych/CFDfaces/CFD-LM-233-171-N.jpg' height=""250px"">,</br><b>Samuel</b>","""",8,IntactFace,Practice,70,5000,f,"""","""","""","""","""","""","""","""",4/26/2021 18:59,107.210.23.140,Mozilla/5.0 (Windows NT 10.0; Win64; x64; rv:88.0) Gecko/20100101 Firefox/88.0,,Firefox,88,Windows,10
169,1,null,"""",html-keyboard-response,20,91753,0.0-20.0,"""","<div style=""font-size:60px;"">+</div>","""",8,ITI,Practice,null,1000,"""","""","""","""","""","""","""","""","""",4/26/2021 18:59,107.210.23.140,Mozilla/5.0 (Windows NT 10.0; Win64; x64; rv:88.0) Gecko/20100101 Firefox/88.0,,Firefox,88,Windows,10
169,1,12974,"""",image-button-response,21,104734,0.0-21.0,"""",directionsForTest.JPG,0,1,directionsForTest,break,"""","""","""","""","""","""","""","""","""","""","""",4/26/2021 18:59,107.210.23.140,Mozilla/5.0 (Windows NT 10.0; Win64; x64; rv:88.0) Gecko/20100101 Firefox/88.0,,Firefox,88,Windows,10
169,1,8836,"""",image-button-response,22,113575,0.0-22.0,"""",directionsForTest2.JPG,0,1,directionsForTest2,break,"""","""","""","""","""","""","""","""","""","""","""",4/26/2021 18:59,107.210.23.140,Mozilla/5.0 (Windows NT 10.0; Win64; x64; rv:88.0) Gecko/20100101 Firefox/88.0,,Firefox,88,Windows,10
169,1,null,"""",html-keyboard-response,23,114589,0.0-23.0,"""","<div style=""font-size:60px;"">+</div>","""",1,ITI,Practice,null,1000,"""","""","""","""","""","""","""","""","""",4/26/2021 18:59,107.210.23.140,Mozilla/5.0 (Windows NT 10.0; Win64; x64; rv:88.0) Gecko/20100101 Firefox/88.0,,Firefox,88,Windows,10
169,1,null,"""",image-keyboard-response,24,114850,0.0-24.0,"""",jspsych/scrambledDisgustFaces/scrambledAM23DIS.JPG,"""",1,forwardMask,Practice,null,250,"""",d,"""","""","""","""","""","""","""",4/26/2021 18:59,107.210.23.140,Mozilla/5.0 (Windows NT 10.0; Win64; x64; rv:88.0) Gecko/20100101 Firefox/88.0,,Firefox,88,Windows,10
169,1,null,"""",image-keyboard-response,25,114880,0.0-25.0,"""",jspsych/disgustFaces/AM23DIS.JPG,"""",1,Cue,Practice,null,16,"""","""","""","""","""","""","""","""","""",4/26/2021 18:59,107.210.23.140,Mozilla/5.0 (Windows NT 10.0; Win64; x64; rv:88.0) Gecko/20100101 Firefox/88.0,,Firefox,88,Windows,10
169,1,null,"""",image-keyboard-response,26,114988,0.0-26.0,"""",jspsych/neutralFaces/BM33NES.JPG,"""",1,backwardMask,Practice,null,100,"""","""","""","""","""","""","""","""","""",4/26/2021 18:59,107.210.23.140,Mozilla/5.0 (Windows NT 10.0; Win64; x64; rv:88.0) Gecko/20100101 Firefox/88.0,,Firefox,88,Windows,10
169,1,null,"""",html-keyboard-response,27,115998,0.0-27.0,"""","<div style=""font-size:60px;"">+</div>","""",1,fixationBtwnNeutralMaskAndPrompt,Practice,null,1000,"""","""","""","""","""","""","""","""","""",4/26/2021 18:59,107.210.23.140,Mozilla/5.0 (Windows NT 10.0; Win64; x64; rv:88.0) Gecko/20100101 Firefox/88.0,,Firefox,88,Windows,10
169,1,null,"""",html-button-response,28,121018,0.0-28.0,"""","<img src='jspsych/CFDfaces/CFD-AF-208-003-N.jpg'height=""250px""></br><b>Cassandra</b>",null,1,IntactOrRearranged,Practice,"""","""","""","""",CFD-AF-208-003-N.jpg,Cassandra,1,"""","""","""","""",4/26/2021 18:59,107.210.23.140,Mozilla/5.0 (Windows NT 10.0; Win64; x64; rv:88.0) Gecko/20100101 Firefox/88.0,,Firefox,88,Windows,10
169,1,null,"""",html-slider-response,29,126030,0.0-29.0,"""","<img src='jspsych/CFDfaces/CFD-AF-208-003-N.jpg'height=""250px""></br><b>Cassandra</b>","""",1,ConfidenceQuery,Practice,"""","""","""","""",CFD-AF-239-171-N.jpg,Jasmine,1,0,null,"""","""",4/26/2021 18:59,107.210.23.140,Mozilla/5.0 (Windows NT 10.0; Win64; x64; rv:88.0) Gecko/20100101 Firefox/88.0,,Firefox,88,Windows,10
169,1,2685,"""",html-button-response,30,128717,0.0-30.0,"""",<p>Please click either button: REARRANGED or INTACT before the 5-second time limit.</p>,0,1,feedback,Practice,"""","""","""","""","""","""","""","""","""","""","""",4/26/2021 18:59,107.210.23.140,Mozilla/5.0 (Windows NT 10.0; Win64; x64; rv:88.0) Gecko/20100101 Firefox/88.0,,Firefox,88,Windows,10
169,1,null,"""",html-keyboard-response,31,129723,0.0-31.0,"""","<div style=""font-size:60px;"">+</div>","""",2,ITI,Practice,null,1000,"""","""","""","""","""","""","""","""","""",4/26/2021 18:59,107.210.23.140,Mozilla/5.0 (Windows NT 10.0; Win64; x64; rv:88.0) Gecko/20100101 Firefox/88.0,,Firefox,88,Windows,10
169,1,null,"""",image-keyboard-response,32,129978,0.0-32.0,"""",jspsych/scrambledDisgustFaces/scrambledBM34DIS.JPG,"""",2,forwardMask,Practice,null,250,"""",d,"""","""","""","""","""","""","""",4/26/2021 18:59,107.210.23.140,Mozilla/5.0 (Windows NT 10.0; Win64; x64; rv:88.0) Gecko/20100101 Firefox/88.0,,Firefox,88,Windows,10
169,1,null,"""",image-keyboard-response,33,130008,0.0-33.0,"""",jspsych/disgustFaces/BM35DIS.JPG,"""",2,Cue,Practice,null,16,"""","""","""","""","""","""","""","""","""",4/26/2021 18:59,107.210.23.140,Mozilla/5.0 (Windows NT 10.0; Win64; x64; rv:88.0) Gecko/20100101 Firefox/88.0,,Firefox,88,Windows,10
169,1,null,"""",image-keyboard-response,34,130113,0.0-34.0,"""",jspsych/neutralFaces/BM27NES.JPG,"""",2,backwardMask,Practice,null,100,"""","""","""","""","""","""","""","""","""",4/26/2021 18:59,107.210.23.140,Mozilla/5.0 (Windows NT 10.0; Win64; x64; rv:88.0) Gecko/20100101 Firefox/88.0,,Firefox,88,Windows,10
169,1,null,"""",html-keyboard-response,35,131118,0.0-35.0,"""","<div style=""font-size:60px;"">+</div>","""",2,fixationBtwnNeutralMaskAndPrompt,Practice,null,1000,"""","""","""","""","""","""","""","""","""",4/26/2021 18:59,107.210.23.140,Mozilla/5.0 (Windows NT 10.0; Win64; x64; rv:88.0) Gecko/20100101 Firefox/88.0,,Firefox,88,Windows,10
169,1,2182,"""",html-button-response,36,133301,0.0-36.0,"""","<img src='jspsych/CFDfaces/CFD-AM-234-355-N.jpg'height=""250px""></br><b>Carlos</b>",1,2,IntactOrRearranged,Practice,"""","""","""","""",CFD-AM-234-355-N.jpg,Carlos,1,"""","""",1,"""",4/26/2021 18:59,107.210.23.140,Mozilla/5.0 (Windows NT 10.0; Win64; x64; rv:88.0) Gecko/20100101 Firefox/88.0,,Firefox,88,Windows,10
169,1,2060,"""",html-slider-response,37,135362,0.0-37.0,"""","<img src='jspsych/CFDfaces/CFD-AM-234-355-N.jpg'height=""250px""></br><b>Carlos</b>","""",2,ConfidenceQuery,Practice,"""","""","""","""",CFD-AF-239-171-N.jpg,Jasmine,1,0,84,"""","""",4/26/2021 18:59,107.210.23.140,Mozilla/5.0 (Windows NT 10.0; Win64; x64; rv:88.0) Gecko/20100101 Firefox/88.0,,Firefox,88,Windows,10
169,1,2702,"""",html-button-response,38,138067,0.0-38.0,"""",You are Correct. You Called A Rearranged Pair Rearranged,0,2,feedback,Practice,"""","""","""","""","""","""","""","""","""","""","""",4/26/2021 18:59,107.210.23.140,Mozilla/5.0 (Windows NT 10.0; Win64; x64; rv:88.0) Gecko/20100101 Firefox/88.0,,Firefox,88,Windows,10
169,1,null,"""",html-keyboard-response,39,139067,0.0-39.0,"""","<div style=""font-size:60px;"">+</div>","""",3,ITI,Practice,null,1000,"""","""","""","""","""","""","""","""","""",4/26/2021 18:59,107.210.23.140,Mozilla/5.0 (Windows NT 10.0; Win64; x64; rv:88.0) Gecko/20100101 Firefox/88.0,,Firefox,88,Windows,10
169,1,null,"""",image-keyboard-response,40,139328,0.0-40.0,"""",jspsych/scrambledDisgustFaces/scrambledAF07DIS.JPG,"""",3,forwardMask,Practice,null,250,"""",d,"""","""","""","""","""","""","""",4/26/2021 18:59,107.210.23.140,Mozilla/5.0 (Windows NT 10.0; Win64; x64; rv:88.0) Gecko/20100101 Firefox/88.0,,Firefox,88,Windows,10
169,1,null,"""",image-keyboard-response,41,139357,0.0-41.0,"""",jspsych/disgustFaces/AF07DIS.JPG,"""",3,Cue,Practice,null,16,"""","""","""","""","""","""","""","""","""",4/26/2021 18:59,107.210.23.140,Mozilla/5.0 (Windows NT 10.0; Win64; x64; rv:88.0) Gecko/20100101 Firefox/88.0,,Firefox,88,Windows,10
169,1,null,"""",image-keyboard-response,42,139466,0.0-42.0,"""",jspsych/neutralFaces/BF34NES.JPG,"""",3,backwardMask,Practice,null,100,"""","""","""","""","""","""","""","""","""",4/26/2021 18:59,107.210.23.140,Mozilla/5.0 (Windows NT 10.0; Win64; x64; rv:88.0) Gecko/20100101 Firefox/88.0,,Firefox,88,Windows,10
169,1,null,"""",html-keyboard-response,43,140477,0.0-43.0,"""","<div style=""font-size:60px;"">+</div>","""",3,fixationBtwnNeutralMaskAndPrompt,Practice,null,1000,"""","""","""","""","""","""","""","""","""",4/26/2021 18:59,107.210.23.140,Mozilla/5.0 (Windows NT 10.0; Win64; x64; rv:88.0) Gecko/20100101 Firefox/88.0,,Firefox,88,Windows,10
169,1,1151,"""",html-button-response,44,141628,0.0-44.0,"""","<img src='jspsych/CFDfaces/CFD-LM-233-171-N.jpg'height=""250px""></br><b>Samuel</b>",0,3,IntactOrRearranged,Practice,"""","""","""","""",CFD-LM-233-171-N.jpg,Samuel,0,"""","""",0,"""",4/26/2021 18:59,107.210.23.140,Mozilla/5.0 (Windows NT 10.0; Win64; x64; rv:88.0) Gecko/20100101 Firefox/88.0,,Firefox,88,Windows,10
169,1,1667,"""",html-slider-response,45,143298,0.0-45.0,"""","<img src='jspsych/CFDfaces/CFD-LM-233-171-N.jpg'height=""250px""></br><b>Samuel</b>","""",3,ConfidenceQuery,Practice,"""","""","""","""",CFD-AF-239-171-N.jpg,Jasmine,0,0,100,"""","""",4/26/2021 18:59,107.210.23.140,Mozilla/5.0 (Windows NT 10.0; Win64; x64; rv:88.0) Gecko/20100101 Firefox/88.0,,Firefox,88,Windows,10
169,1,1089,"""",html-button-response,46,144388,0.0-46.0,"""",You are Correct. You called an Intact Pair Intact,0,3,feedback,Practice,"""","""","""","""","""","""","""","""","""","""","""",4/26/2021 18:59,107.210.23.140,Mozilla/5.0 (Windows NT 10.0; Win64; x64; rv:88.0) Gecko/20100101 Firefox/88.0,,Firefox,88,Windows,10
169,1,null,"""",html-keyboard-response,47,145424,0.0-47.0,"""","<div style=""font-size:60px;"">+</div>","""",4,ITI,Practice,null,1000,"""","""","""","""","""","""","""","""","""",4/26/2021 18:59,107.210.23.140,Mozilla/5.0 (Windows NT 10.0; Win64; x64; rv:88.0) Gecko/20100101 Firefox/88.0,,Firefox,88,Windows,10
169,1,null,"""",image-keyboard-response,48,145684,0.0-48.0,"""",jspsych/scrambledNeutralFaces/scrambledAF16NES.JPG,"""",4,forwardMask,Practice,null,250,"""",n,"""","""","""","""","""","""","""",4/26/2021 18:59,107.210.23.140,Mozilla/5.0 (Windows NT 10.0; Win64; x64; rv:88.0) Gecko/20100101 Firefox/88.0,,Firefox,88,Windows,10
169,1,null,"""",image-keyboard-response,49,145713,0.0-49.0,"""",jspsych/neutralFaces/AF16NES.JPG,"""",4,Cue,Practice,null,16,"""","""","""","""","""","""","""","""","""",4/26/2021 18:59,107.210.23.140,Mozilla/5.0 (Windows NT 10.0; Win64; x64; rv:88.0) Gecko/20100101 Firefox/88.0,,Firefox,88,Windows,10
169,1,null,"""",image-keyboard-response,50,145827,0.0-50.0,"""",jspsych/neutralFaces/BF11NES.JPG,"""",4,backwardMask,Practice,null,100,"""","""","""","""","""","""","""","""","""",4/26/2021 18:59,107.210.23.140,Mozilla/5.0 (Windows NT 10.0; Win64; x64; rv:88.0) Gecko/20100101 Firefox/88.0,,Firefox,88,Windows,10
169,1,null,"""",html-keyboard-response,51,146834,0.0-51.0,"""","<div style=""font-size:60px;"">+</div>","""",4,fixationBtwnNeutralMaskAndPrompt,Practice,null,1000,"""","""","""","""","""","""","""","""","""",4/26/2021 18:59,107.210.23.140,Mozilla/5.0 (Windows NT 10.0; Win64; x64; rv:88.0) Gecko/20100101 Firefox/88.0,,Firefox,88,Windows,10
169,1,1859,"""",html-button-response,52,148695,0.0-52.0,"""","<img src='jspsych/CFDfaces/CFD-AF-226-251-N.jpg'height=""250px""></br><b>Katelyn</b>",1,4,IntactOrRearranged,Practice,"""","""","""","""",CFD-AF-226-251-N.jpg,Katelyn,1,"""","""",1,"""",4/26/2021 18:59,107.210.23.140,Mozilla/5.0 (Windows NT 10.0; Win64; x64; rv:88.0) Gecko/20100101 Firefox/88.0,,Firefox,88,Windows,10
169,1,1426,"""",html-slider-response,53,150129,0.0-53.0,"""","<img src='jspsych/CFDfaces/CFD-AF-226-251-N.jpg'height=""250px""></br><b>Katelyn</b>","""",4,ConfidenceQuery,Practice,"""","""","""","""",CFD-AF-239-171-N.jpg,Jasmine,1,0,100,"""","""",4/26/2021 18:59,107.210.23.140,Mozilla/5.0 (Windows NT 10.0; Win64; x64; rv:88.0) Gecko/20100101 Firefox/88.0,,Firefox,88,Windows,10
169,1,865,"""",html-button-response,54,150995,0.0-54.0,"""",You are Correct. You Called A Rearranged Pair Rearranged,0,4,feedback,Practice,"""","""","""","""","""","""","""","""","""","""","""",4/26/2021 18:59,107.210.23.140,Mozilla/5.0 (Windows NT 10.0; Win64; x64; rv:88.0) Gecko/20100101 Firefox/88.0,,Firefox,88,Windows,10
169,1,null,"""",html-keyboard-response,55,152003,0.0-55.0,"""","<div style=""font-size:60px;"">+</div>","""",5,ITI,Practice,null,1000,"""","""","""","""","""","""","""","""","""",4/26/2021 18:59,107.210.23.140,Mozilla/5.0 (Windows NT 10.0; Win64; x64; rv:88.0) Gecko/20100101 Firefox/88.0,,Firefox,88,Windows,10
169,1,null,"""",image-keyboard-response,56,152263,0.0-56.0,"""",jspsych/scrambledNeutralFaces/scrambledBF32NES.JPG,"""",5,forwardMask,Practice,null,250,"""",n,"""","""","""","""","""","""","""",4/26/2021 18:59,107.210.23.140,Mozilla/5.0 (Windows NT 10.0; Win64; x64; rv:88.0) Gecko/20100101 Firefox/88.0,,Firefox,88,Windows,10
169,1,null,"""",image-keyboard-response,57,152287,0.0-57.0,"""",jspsych/neutralFaces/BF32NES.JPG,"""",5,Cue,Practice,null,16,"""","""","""","""","""","""","""","""","""",4/26/2021 18:59,107.210.23.140,Mozilla/5.0 (Windows NT 10.0; Win64; x64; rv:88.0) Gecko/20100101 Firefox/88.0,,Firefox,88,Windows,10
169,1,null,"""",image-keyboard-response,58,152404,0.0-58.0,"""",jspsych/neutralFaces/AF11NES.JPG,"""",5,backwardMask,Practice,null,100,"""","""","""","""","""","""","""","""","""",4/26/2021 18:59,107.210.23.140,Mozilla/5.0 (Windows NT 10.0; Win64; x64; rv:88.0) Gecko/20100101 Firefox/88.0,,Firefox,88,Windows,10
169,1,null,"""",html-keyboard-response,59,153418,0.0-59.0,"""","<div style=""font-size:60px;"">+</div>","""",5,fixationBtwnNeutralMaskAndPrompt,Practice,null,1000,"""","""","""","""","""","""","""","""","""",4/26/2021 18:59,107.210.23.140,Mozilla/5.0 (Windows NT 10.0; Win64; x64; rv:88.0) Gecko/20100101 Firefox/88.0,,Firefox,88,Windows,10
169,1,1283,"""",html-button-response,60,154702,0.0-60.0,"""","<img src='jspsych/CFDfaces/CFD-WM-011-002-N.jpg'height=""250px""></br><b>Patrick</b>",0,5,IntactOrRearranged,Practice,"""","""","""","""",CFD-WM-011-002-N.jpg,Patrick,0,"""","""",0,"""",4/26/2021 18:59,107.210.23.140,Mozilla/5.0 (Windows NT 10.0; Win64; x64; rv:88.0) Gecko/20100101 Firefox/88.0,,Firefox,88,Windows,10
169,1,1564,"""",html-slider-response,61,156270,0.0-61.0,"""","<img src='jspsych/CFDfaces/CFD-WM-011-002-N.jpg'height=""250px""></br><b>Patrick</b>","""",5,ConfidenceQuery,Practice,"""","""","""","""",CFD-AF-239-171-N.jpg,Jasmine,0,0,100,"""","""",4/26/2021 18:59,107.210.23.140,Mozilla/5.0 (Windows NT 10.0; Win64; x64; rv:88.0) Gecko/20100101 Firefox/88.0,,Firefox,88,Windows,10
169,1,801,"""",html-button-response,62,157072,0.0-62.0,"""",You are Correct. You called an Intact Pair Intact,0,5,feedback,Practice,"""","""","""","""","""","""","""","""","""","""","""",4/26/2021 18:59,107.210.23.140,Mozilla/5.0 (Windows NT 10.0; Win64; x64; rv:88.0) Gecko/20100101 Firefox/88.0,,Firefox,88,Windows,10
169,1,null,"""",html-keyboard-response,63,158077,0.0-63.0,"""","<div style=""font-size:60px;"">+</div>","""",6,ITI,Practice,null,1000,"""","""","""","""","""","""","""","""","""",4/26/2021 18:59,107.210.23.140,Mozilla/5.0 (Windows NT 10.0; Win64; x64; rv:88.0) Gecko/20100101 Firefox/88.0,,Firefox,88,Windows,10
169,1,null,"""",image-keyboard-response,64,158337,0.0-64.0,"""",jspsych/scrambledDisgustFaces/scrambledBF03DIS.JPG,"""",6,forwardMask,Practice,null,250,"""",d,"""","""","""","""","""","""","""",4/26/2021 18:59,107.210.23.140,Mozilla/5.0 (Windows NT 10.0; Win64; x64; rv:88.0) Gecko/20100101 Firefox/88.0,,Firefox,88,Windows,10
169,1,null,"""",image-keyboard-response,65,158357,0.0-65.0,"""",jspsych/disgustFaces/BF03DIS.JPG,"""",6,Cue,Practice,null,16,"""","""","""","""","""","""","""","""","""",4/26/2021 18:59,107.210.23.140,Mozilla/5.0 (Windows NT 10.0; Win64; x64; rv:88.0) Gecko/20100101 Firefox/88.0,,Firefox,88,Windows,10
169,1,null,"""",image-keyboard-response,66,158468,0.0-66.0,"""",jspsych/neutralFaces/BF10NES.JPG,"""",6,backwardMask,Practice,null,100,"""","""","""","""","""","""","""","""","""",4/26/2021 18:59,107.210.23.140,Mozilla/5.0 (Windows NT 10.0; Win64; x64; rv:88.0) Gecko/20100101 Firefox/88.0,,Firefox,88,Windows,10
169,1,null,"""",html-keyboard-response,67,159482,0.0-67.0,"""","<div style=""font-size:60px;"">+</div>","""",6,fixationBtwnNeutralMaskAndPrompt,Practice,null,1000,"""","""","""","""","""","""","""","""","""",4/26/2021 18:59,107.210.23.140,Mozilla/5.0 (Windows NT 10.0; Win64; x64; rv:88.0) Gecko/20100101 Firefox/88.0,,Firefox,88,Windows,10
169,1,1374,"""",html-button-response,68,160858,0.0-68.0,"""","<img src='jspsych/CFDfaces/CFD-LF-210-220-N.jpg'height=""250px""></br><b>Tara</b>",0,6,IntactOrRearranged,Practice,"""","""","""","""",CFD-LF-210-220-N.jpg,Tara,0,"""","""",0,"""",4/26/2021 18:59,107.210.23.140,Mozilla/5.0 (Windows NT 10.0; Win64; x64; rv:88.0) Gecko/20100101 Firefox/88.0,,Firefox,88,Windows,10
169,1,1409,"""",html-slider-response,69,162271,0.0-69.0,"""","<img src='jspsych/CFDfaces/CFD-LF-210-220-N.jpg'height=""250px""></br><b>Tara</b>","""",6,ConfidenceQuery,Practice,"""","""","""","""",CFD-AF-239-171-N.jpg,Jasmine,0,0,100,"""","""",4/26/2021 18:59,107.210.23.140,Mozilla/5.0 (Windows NT 10.0; Win64; x64; rv:88.0) Gecko/20100101 Firefox/88.0,,Firefox,88,Windows,10
169,1,699,"""",html-button-response,70,162970,0.0-70.0,"""",You are Correct. You called an Intact Pair Intact,0,6,feedback,Practice,"""","""","""","""","""","""","""","""","""","""","""",4/26/2021 18:59,107.210.23.140,Mozilla/5.0 (Windows NT 10.0; Win64; x64; rv:88.0) Gecko/20100101 Firefox/88.0,,Firefox,88,Windows,10
169,1,null,"""",html-keyboard-response,71,163972,0.0-71.0,"""","<div style=""font-size:60px;"">+</div>","""",7,ITI,Practice,null,1000,"""","""","""","""","""","""","""","""","""",4/26/2021 18:59,107.210.23.140,Mozilla/5.0 (Windows NT 10.0; Win64; x64; rv:88.0) Gecko/20100101 Firefox/88.0,,Firefox,88,Windows,10
169,1,null,"""",image-keyboard-response,72,164227,0.0-72.0,"""",jspsych/scrambledNeutralFaces/scrambledBM14NES.JPG,"""",7,forwardMask,Practice,null,250,"""",n,"""","""","""","""","""","""","""",4/26/2021 18:59,107.210.23.140,Mozilla/5.0 (Windows NT 10.0; Win64; x64; rv:88.0) Gecko/20100101 Firefox/88.0,,Firefox,88,Windows,10
169,1,null,"""",image-keyboard-response,73,164257,0.0-73.0,"""",jspsych/neutralFaces/BM14NES.JPG,"""",7,Cue,Practice,null,16,"""","""","""","""","""","""","""","""","""",4/26/2021 18:59,107.210.23.140,Mozilla/5.0 (Windows NT 10.0; Win64; x64; rv:88.0) Gecko/20100101 Firefox/88.0,,Firefox,88,Windows,10
169,1,null,"""",image-keyboard-response,74,164363,0.0-74.0,"""",jspsych/neutralFaces/BM10NES.JPG,"""",7,backwardMask,Practice,null,100,"""","""","""","""","""","""","""","""","""",4/26/2021 18:59,107.210.23.140,Mozilla/5.0 (Windows NT 10.0; Win64; x64; rv:88.0) Gecko/20100101 Firefox/88.0,,Firefox,88,Windows,10
169,1,null,"""",html-keyboard-response,75,165367,0.0-75.0,"""","<div style=""font-size:60px;"">+</div>","""",7,fixationBtwnNeutralMaskAndPrompt,Practice,null,1000,"""","""","""","""","""","""","""","""","""",4/26/2021 18:59,107.210.23.140,Mozilla/5.0 (Windows NT 10.0; Win64; x64; rv:88.0) Gecko/20100101 Firefox/88.0,,Firefox,88,Windows,10
169,1,1071,"""",html-button-response,76,166438,0.0-76.0,"""","<img src='jspsych/CFDfaces/CFD-BF-023-010-N.jpg'height=""250px""></br><b>Shannon</b>",0,7,IntactOrRearranged,Practice,"""","""","""","""",CFD-BF-023-010-N.jpg,Shannon,0,"""","""",0,"""",4/26/2021 18:59,107.210.23.140,Mozilla/5.0 (Windows NT 10.0; Win64; x64; rv:88.0) Gecko/20100101 Firefox/88.0,,Firefox,88,Windows,10
169,1,1320,"""",html-slider-response,77,167762,0.0-77.0,"""","<img src='jspsych/CFDfaces/CFD-BF-023-010-N.jpg'height=""250px""></br><b>Shannon</b>","""",7,ConfidenceQuery,Practice,"""","""","""","""",CFD-AF-239-171-N.jpg,Jasmine,0,0,100,"""","""",4/26/2021 18:59,107.210.23.140,Mozilla/5.0 (Windows NT 10.0; Win64; x64; rv:88.0) Gecko/20100101 Firefox/88.0,,Firefox,88,Windows,10
169,1,761,"""",html-button-response,78,168524,0.0-78.0,"""",You are Correct. You called an Intact Pair Intact,0,7,feedback,Practice,"""","""","""","""","""","""","""","""","""","""","""",4/26/2021 18:59,107.210.23.140,Mozilla/5.0 (Windows NT 10.0; Win64; x64; rv:88.0) Gecko/20100101 Firefox/88.0,,Firefox,88,Windows,10
169,1,null,"""",html-keyboard-response,79,169527,0.0-79.0,"""","<div style=""font-size:60px;"">+</div>","""",8,ITI,Practice,null,1000,"""","""","""","""","""","""","""","""","""",4/26/2021 18:59,107.210.23.140,Mozilla/5.0 (Windows NT 10.0; Win64; x64; rv:88.0) Gecko/20100101 Firefox/88.0,,Firefox,88,Windows,10
169,1,null,"""",image-keyboard-response,80,169792,0.0-80.0,"""",jspsych/scrambledNeutralFaces/scrambledAM13NES.JPG,"""",8,forwardMask,Practice,null,250,"""",n,"""","""","""","""","""","""","""",4/26/2021 18:59,107.210.23.140,Mozilla/5.0 (Windows NT 10.0; Win64; x64; rv:88.0) Gecko/20100101 Firefox/88.0,,Firefox,88,Windows,10
169,1,null,"""",image-keyboard-response,81,169822,0.0-81.0,"""",jspsych/neutralFaces/AM13NES.JPG,"""",8,Cue,Practice,null,16,"""","""","""","""","""","""","""","""","""",4/26/2021 18:59,107.210.23.140,Mozilla/5.0 (Windows NT 10.0; Win64; x64; rv:88.0) Gecko/20100101 Firefox/88.0,,Firefox,88,Windows,10
169,1,null,"""",image-keyboard-response,82,169928,0.0-82.0,"""",jspsych/neutralFaces/BM26NES.JPG,"""",8,backwardMask,Practice,null,100,"""","""","""","""","""","""","""","""","""",4/26/2021 18:59,107.210.23.140,Mozilla/5.0 (Windows NT 10.0; Win64; x64; rv:88.0) Gecko/20100101 Firefox/88.0,,Firefox,88,Windows,10
169,1,null,"""",html-keyboard-response,83,170930,0.0-83.0,"""","<div style=""font-size:60px;"">+</div>","""",8,fixationBtwnNeutralMaskAndPrompt,Practice,null,1000,"""","""","""","""","""","""","""","""","""",4/26/2021 18:59,107.210.23.140,Mozilla/5.0 (Windows NT 10.0; Win64; x64; rv:88.0) Gecko/20100101 Firefox/88.0,,Firefox,88,Windows,10
169,1,2493,"""",html-button-response,84,173424,0.0-84.0,"""","<img src='jspsych/CFDfaces/CFD-AM-230-150-N.jpg'height=""250px""></br><b>Marcus</b>",1,8,IntactOrRearranged,Practice,"""","""","""","""",CFD-AM-230-150-N.jpg,Marcus,1,"""","""",1,"""",4/26/2021 18:59,107.210.23.140,Mozilla/5.0 (Windows NT 10.0; Win64; x64; rv:88.0) Gecko/20100101 Firefox/88.0,,Firefox,88,Windows,10
169,1,1812,"""",html-slider-response,85,175240,0.0-85.0,"""","<img src='jspsych/CFDfaces/CFD-AM-230-150-N.jpg'height=""250px""></br><b>Marcus</b>","""",8,ConfidenceQuery,Practice,"""","""","""","""",CFD-AF-239-171-N.jpg,Jasmine,1,0,67,"""","""",4/26/2021 18:59,107.210.23.140,Mozilla/5.0 (Windows NT 10.0; Win64; x64; rv:88.0) Gecko/20100101 Firefox/88.0,,Firefox,88,Windows,10
169,1,985,"""",html-button-response,86,176226,0.0-86.0,"""",You are Correct. You Called A Rearranged Pair Rearranged,0,8,feedback,Practice,"""","""","""","""","""","""","""","""","""","""","""",4/26/2021 18:59,107.210.23.140,Mozilla/5.0 (Windows NT 10.0; Win64; x64; rv:88.0) Gecko/20100101 Firefox/88.0,,Firefox,88,Windows,10
169,1,3266,"""",image-button-response,87,179497,0.0-87.0,"""",directionsMemoryAssociation3.JPG,0,128,DirectionsBeforeActualTEst,Break,"""","""","""","""","""","""","""","""","""","""","""",4/26/2021 18:59,107.210.23.140,Mozilla/5.0 (Windows NT 10.0; Win64; x64; rv:88.0) Gecko/20100101 Firefox/88.0,,Firefox,88,Windows,10
169,1,2304,"""",image-button-response,88,181804,0.0-88.0,"""",directionsForTest2.JPG,0,1,directionsForTest2,break,"""","""","""","""","""","""","""","""","""","""","""",4/26/2021 18:59,107.210.23.140,Mozilla/5.0 (Windows NT 10.0; Win64; x64; rv:88.0) Gecko/20100101 Firefox/88.0,,Firefox,88,Windows,10
169,1,5346,"""",html-button-response,89,187152,0.0-89.0,"""","<p>You will be asked to memorize and then recall four sets of face-name pairs. </p> <p> Each set will have 32 pairs. </p> <p>After the fourth set, there will be a brief follow-up experiment (<40 min alltogether)</p>",0,"""","""","""","""","""","""","""","""","""","""","""","""","""","""",4/26/2021 18:59,107.210.23.140,Mozilla/5.0 (Windows NT 10.0; Win64; x64; rv:88.0) Gecko/20100101 Firefox/88.0,,Firefox,88,Windows,10
169,1,2414,"""",html-keyboard-response,90,192158,0.0-90.0,"""","<img src='jspsych/CFDfaces/CFD-WF-204-038-N.jpg' height=""250px""></br><b>Vanessa</b>","""",256,IntactFace,Memorization,70,5000,f,"""",CFD-AF-240-206-N.jpg,Melissa,0,"""","""","""",1,4/26/2021 18:59,107.210.23.140,Mozilla/5.0 (Windows NT 10.0; Win64; x64; rv:88.0) Gecko/20100101 Firefox/88.0,,Firefox,88,Windows,10
169,1,null,"""",html-keyboard-response,91,192664,0.0-91.0,"""","<div style=""font-size:60px;"">+</div>","""",256,fixation,Memorization,null,500,"""","""","""","""","""","""","""","""",1,4/26/2021 18:59,107.210.23.140,Mozilla/5.0 (Windows NT 10.0; Win64; x64; rv:88.0) Gecko/20100101 Firefox/88.0,,Firefox,88,Windows,10
169,1,2389,"""",html-keyboard-response,92,197667,0.0-92.0,"""","<img src='jspsych/CFDfaces/CFD-LM-248-089-N.jpg' height=""250px""></br><b>Jeffrey</b>","""",256,IntactFace,Memorization,78,5000,n,"""",CFD-LF-243-175-N.jpg,Heather,0,"""","""","""",1,4/26/2021 18:59,107.210.23.140,Mozilla/5.0 (Windows NT 10.0; Win64; x64; rv:88.0) Gecko/20100101 Firefox/88.0,,Firefox,88,Windows,10
169,1,null,"""",html-keyboard-response,93,198177,0.0-93.0,"""","<div style=""font-size:60px;"">+</div>","""",256,fixation,Memorization,null,500,"""","""","""","""","""","""","""","""",1,4/26/2021 18:59,107.210.23.140,Mozilla/5.0 (Windows NT 10.0; Win64; x64; rv:88.0) Gecko/20100101 Firefox/88.0,,Firefox,88,Windows,10
169,1,2873,"""",html-keyboard-response,94,203193,0.0-94.0,"""","<img src='jspsych/CFDfaces/CFD-WF-003-003-N.jpg' height=""250px""></br><b>Elizabeth</b>","""",256,IntactFace,Memorization,70,5000,f,"""",CFD-BM-211-174-N.jpg,Steven,0,"""","""","""",1,4/26/2021 18:59,107.210.23.140,Mozilla/5.0 (Windows NT 10.0; Win64; x64; rv:88.0) Gecko/20100101 Firefox/88.0,,Firefox,88,Windows,10
169,1,null,"""",html-keyboard-response,95,203703,0.0-95.0,"""","<div style=""font-size:60px;"">+</div>","""",256,fixation,Memorization,null,500,"""","""","""","""","""","""","""","""",1,4/26/2021 18:59,107.210.23.140,Mozilla/5.0 (Windows NT 10.0; Win64; x64; rv:88.0) Gecko/20100101 Firefox/88.0,,Firefox,88,Windows,10
169,1,1526,"""",html-keyboard-response,96,208708,0.0-96.0,"""","<img src='jspsych/CFDfaces/CFD-BM-027-001-N.jpg' height=""250px""></br><b>Robert</b>","""",256,IntactFace,Memorization,70,5000,f,"""",CFD-LF-244-096-N.jpg,Rebecca,0,"""","""","""",1,4/26/2021 18:59,107.210.23.140,Mozilla/5.0 (Windows NT 10.0; Win64; x64; rv:88.0) Gecko/20100101 Firefox/88.0,,Firefox,88,Windows,10
169,1,null,"""",html-keyboard-response,97,209213,0.0-97.0,"""","<div style=""font-size:60px;"">+</div>","""",256,fixation,Memorization,null,500,"""","""","""","""","""","""","""","""",1,4/26/2021 18:59,107.210.23.140,Mozilla/5.0 (Windows NT 10.0; Win64; x64; rv:88.0) Gecko/20100101 Firefox/88.0,,Firefox,88,Windows,10
169,1,1502,"""",html-keyboard-response,98,214237,0.0-98.0,"""","<img src='jspsych/CFDfaces/CFD-BM-203-001-N.jpg' height=""250px""></br><b>Nicholas</b>","""",256,IntactFace,Memorization,78,5000,n,"""",CFD-WM-213-076-N.jpg,Vincent,0,"""","""","""",1,4/26/2021 18:59,107.210.23.140,Mozilla/5.0 (Windows NT 10.0; Win64; x64; rv:88.0) Gecko/20100101 Firefox/88.0,,Firefox,88,Windows,10
169,1,null,"""",html-keyboard-response,99,214747,0.0-99.0,"""","<div style=""font-size:60px;"">+</div>","""",256,fixation,Memorization,null,500,"""","""","""","""","""","""","""","""",1,4/26/2021 18:59,107.210.23.140,Mozilla/5.0 (Windows NT 10.0; Win64; x64; rv:88.0) Gecko/20100101 Firefox/88.0,,Firefox,88,Windows,10
169,1,2553,"""",html-keyboard-response,100,219752,0.0-100.0,"""","<img src='jspsych/CFDfaces/CFD-AM-237-154-N.jpg' height=""250px""></br><b>Christian</b>","""",256,IntactFace,Memorization,78,5000,n,"""",CFD-BM-017-021-N.jpg,Cameron,0,"""","""","""",1,4/26/2021 18:59,107.210.23.140,Mozilla/5.0 (Windows NT 10.0; Win64; x64; rv:88.0) Gecko/20100101 Firefox/88.0,,Firefox,88,Windows,10
169,1,null,"""",html-keyboard-response,101,220264,0.0-101.0,"""","<div style=""font-size:60px;"">+</div>","""",256,fixation,Memorization,null,500,"""","""","""","""","""","""","""","""",1,4/26/2021 18:59,107.210.23.140,Mozilla/5.0 (Windows NT 10.0; Win64; x64; rv:88.0) Gecko/20100101 Firefox/88.0,,Firefox,88,Windows,10
169,1,1533,"""",html-keyboard-response,102,225278,0.0-102.0,"""","<img src='jspsych/CFDfaces/CFD-WF-218-087-N.jpg' height=""250px""></br><b>Brittany</b>","""",256,IntactFace,Memorization,70,5000,f,"""",CFD-AM-228-214-N.jpg,Jeremy,0,"""","""","""",1,4/26/2021 18:59,107.210.23.140,Mozilla/5.0 (Windows NT 10.0; Win64; x64; rv:88.0) Gecko/20100101 Firefox/88.0,,Firefox,88,Windows,10
169,1,null,"""",html-keyboard-response,103,225782,0.0-103.0,"""","<div style=""font-size:60px;"">+</div>","""",256,fixation,Memorization,null,500,"""","""","""","""","""","""","""","""",1,4/26/2021 18:59,107.210.23.140,Mozilla/5.0 (Windows NT 10.0; Win64; x64; rv:88.0) Gecko/20100101 Firefox/88.0,,Firefox,88,Windows,10
169,1,1183,"""",html-keyboard-response,104,230789,0.0-104.0,"""","<img src='jspsych/CFDfaces/CFD-WF-016-015-N.jpg' height=""250px""></br><b>Ashley</b>","""",256,IntactFace,Memorization,70,5000,f,"""",CFD-BM-207-024-N.jpg,Kenneth,0,"""","""","""",1,4/26/2021 18:59,107.210.23.140,Mozilla/5.0 (Windows NT 10.0; Win64; x64; rv:88.0) Gecko/20100101 Firefox/88.0,,Firefox,88,Windows,10
169,1,null,"""",html-keyboard-response,105,231302,0.0-105.0,"""","<div style=""font-size:60px;"">+</div>","""",256,fixation,Memorization,null,500,"""","""","""","""","""","""","""","""",1,4/26/2021 18:59,107.210.23.140,Mozilla/5.0 (Windows NT 10.0; Win64; x64; rv:88.0) Gecko/20100101 Firefox/88.0,,Firefox,88,Windows,10
169,1,1248,"""",html-keyboard-response,106,236318,0.0-106.0,"""","<img src='jspsych/CFDfaces/CFD-AM-231-136-N.jpg' height=""250px""></br><b>James</b>","""",256,IntactFace,Memorization,70,5000,f,"""",CFD-LM-200-045-N.jpg,Jacob,0,"""","""","""",1,4/26/2021 18:59,107.210.23.140,Mozilla/5.0 (Windows NT 10.0; Win64; x64; rv:88.0) Gecko/20100101 Firefox/88.0,,Firefox,88,Windows,10
169,1,null,"""",html-keyboard-response,107,236837,0.0-107.0,"""","<div style=""font-size:60px;"">+</div>","""",256,fixation,Memorization,null,500,"""","""","""","""","""","""","""","""",1,4/26/2021 18:59,107.210.23.140,Mozilla/5.0 (Windows NT 10.0; Win64; x64; rv:88.0) Gecko/20100101 Firefox/88.0,,Firefox,88,Windows,10
169,1,1456,"""",html-keyboard-response,108,241845,0.0-108.0,"""","<img src='jspsych/CFDfaces/CFD-LF-202-065-N.jpg' height=""250px""></br><b>Amanda</b>","""",256,IntactFace,Memorization,70,5000,f,"""",CFD-AM-207-108-N.jpg,Sean,0,"""","""","""",1,4/26/2021 18:59,107.210.23.140,Mozilla/5.0 (Windows NT 10.0; Win64; x64; rv:88.0) Gecko/20100101 Firefox/88.0,,Firefox,88,Windows,10
169,1,null,"""",html-keyboard-response,109,242357,0.0-109.0,"""","<div style=""font-size:60px;"">+</div>","""",256,fixation,Memorization,null,500,"""","""","""","""","""","""","""","""",1,4/26/2021 18:59,107.210.23.140,Mozilla/5.0 (Windows NT 10.0; Win64; x64; rv:88.0) Gecko/20100101 Firefox/88.0,,Firefox,88,Windows,10
169,1,1360,"""",html-keyboard-response,110,247373,0.0-110.0,"""","<img src='jspsych/CFDfaces/CFD-WM-032-001-N.jpg' height=""250px""></br><b>Brian</b>","""",256,IntactFace,Memorization,70,5000,f,"""",CFD-AM-205-153-N.jpg,Austin,0,"""","""","""",1,4/26/2021 18:59,107.210.23.140,Mozilla/5.0 (Windows NT 10.0; Win64; x64; rv:88.0) Gecko/20100101 Firefox/88.0,,Firefox,88,Windows,10
169,1,null,"""",html-keyboard-response,111,247877,0.0-111.0,"""","<div style=""font-size:60px;"">+</div>","""",256,fixation,Memorization,null,500,"""","""","""","""","""","""","""","""",1,4/26/2021 18:59,107.210.23.140,Mozilla/5.0 (Windows NT 10.0; Win64; x64; rv:88.0) Gecko/20100101 Firefox/88.0,,Firefox,88,Windows,10
169,1,2903,"""",html-keyboard-response,112,252897,0.0-112.0,"""","<img src='jspsych/CFDfaces/CFD-BF-019-001-N.jpg' height=""250px""></br><b>Victoria</b>","""",256,IntactFace,Memorization,70,5000,f,"""",CFD-BM-001-014-N.jpg,Travis,0,"""","""","""",1,4/26/2021 18:59,107.210.23.140,Mozilla/5.0 (Windows NT 10.0; Win64; x64; rv:88.0) Gecko/20100101 Firefox/88.0,,Firefox,88,Windows,10
169,1,null,"""",html-keyboard-response,113,253412,0.0-113.0,"""","<div style=""font-size:60px;"">+</div>","""",256,fixation,Memorization,null,500,"""","""","""","""","""","""","""","""",1,4/26/2021 18:59,107.210.23.140,Mozilla/5.0 (Windows NT 10.0; Win64; x64; rv:88.0) Gecko/20100101 Firefox/88.0,,Firefox,88,Windows,10
169,1,1313,"""",html-keyboard-response,114,258426,0.0-114.0,"""","<img src='jspsych/CFDfaces/CFD-AM-211-052-N.jpg' height=""250px""></br><b>Eric</b>","""",256,IntactFace,Memorization,70,5000,f,"""",CFD-LF-218-072-N.jpg,Jasmine,0,"""","""","""",1,4/26/2021 18:59,107.210.23.140,Mozilla/5.0 (Windows NT 10.0; Win64; x64; rv:88.0) Gecko/20100101 Firefox/88.0,,Firefox,88,Windows,10
169,1,null,"""",html-keyboard-response,115,258936,0.0-115.0,"""","<div style=""font-size:60px;"">+</div>","""",256,fixation,Memorization,null,500,"""","""","""","""","""","""","""","""",1,4/26/2021 18:59,107.210.23.140,Mozilla/5.0 (Windows NT 10.0; Win64; x64; rv:88.0) Gecko/20100101 Firefox/88.0,,Firefox,88,Windows,10
169,1,3427,"""",html-keyboard-response,116,263952,0.0-116.0,"""","<img src='jspsych/CFDfaces/CFD-AM-246-184-N.jpg' height=""250px""></br><b>Brandon</b>","""",256,IntactFace,Memorization,78,5000,n,"""",CFD-BF-025-002-N.jpg,Jordan,0,"""","""","""",1,4/26/2021 18:59,107.210.23.140,Mozilla/5.0 (Windows NT 10.0; Win64; x64; rv:88.0) Gecko/20100101 Firefox/88.0,,Firefox,88,Windows,10
169,1,null,"""",html-keyboard-response,117,264462,0.0-117.0,"""","<div style=""font-size:60px;"">+</div>","""",256,fixation,Memorization,null,500,"""","""","""","""","""","""","""","""",1,4/26/2021 18:59,107.210.23.140,Mozilla/5.0 (Windows NT 10.0; Win64; x64; rv:88.0) Gecko/20100101 Firefox/88.0,,Firefox,88,Windows,10
169,1,3807,"""",html-keyboard-response,118,269485,0.0-118.0,"""","<img src='jspsych/CFDfaces/CFD-LM-225-130-N.jpg' height=""250px""></br><b>Jason</b>","""",256,IntactFace,Memorization,70,5000,f,"""",CFD-LM-220-329-N.jpg,Mark,0,"""","""","""",1,4/26/2021 18:59,107.210.23.140,Mozilla/5.0 (Windows NT 10.0; Win64; x64; rv:88.0) Gecko/20100101 Firefox/88.0,,Firefox,88,Windows,10
169,1,null,"""",html-keyboard-response,119,269991,0.0-119.0,"""","<div style=""font-size:60px;"">+</div>","""",256,fixation,Memorization,null,500,"""","""","""","""","""","""","""","""",1,4/26/2021 18:59,107.210.23.140,Mozilla/5.0 (Windows NT 10.0; Win64; x64; rv:88.0) Gecko/20100101 Firefox/88.0,,Firefox,88,Windows,10
169,1,1357,"""",html-keyboard-response,120,274997,0.0-120.0,"""","<img src='jspsych/CFDfaces/CFD-LM-221-216-N.jpg' height=""250px""></br><b>Richard</b>","""",256,IntactFace,Memorization,70,5000,f,"""",CFD-AF-241-141-N.jpg,Lauren,0,"""","""","""",1,4/26/2021 18:59,107.210.23.140,Mozilla/5.0 (Windows NT 10.0; Win64; x64; rv:88.0) Gecko/20100101 Firefox/88.0,,Firefox,88,Windows,10
169,1,null,"""",html-keyboard-response,121,275502,0.0-121.0,"""","<div style=""font-size:60px;"">+</div>","""",256,fixation,Memorization,null,500,"""","""","""","""","""","""","""","""",1,4/26/2021 18:59,107.210.23.140,Mozilla/5.0 (Windows NT 10.0; Win64; x64; rv:88.0) Gecko/20100101 Firefox/88.0,,Firefox,88,Windows,10
169,1,1470,"""",html-keyboard-response,122,280513,0.0-122.0,"""","<img src='jspsych/CFDfaces/CFD-AF-230-193-N.jpg' height=""250px""></br><b>Julie</b>","""",256,IntactFace,Memorization,70,5000,f,"""",CFD-LF-200-058-N.jpg,Erin,0,"""","""","""",1,4/26/2021 18:59,107.210.23.140,Mozilla/5.0 (Windows NT 10.0; Win64; x64; rv:88.0) Gecko/20100101 Firefox/88.0,,Firefox,88,Windows,10
169,1,null,"""",html-keyboard-response,123,281028,0.0-123.0,"""","<div style=""font-size:60px;"">+</div>","""",256,fixation,Memorization,null,500,"""","""","""","""","""","""","""","""",1,4/26/2021 18:59,107.210.23.140,Mozilla/5.0 (Windows NT 10.0; Win64; x64; rv:88.0) Gecko/20100101 Firefox/88.0,,Firefox,88,Windows,10
169,1,1595,"""",html-keyboard-response,124,286036,0.0-124.0,"""","<img src='jspsych/CFDfaces/CFD-AF-242-158-N.jpg' height=""250px""></br><b>Christina</b>","""",256,IntactFace,Memorization,70,5000,f,"""",CFD-AF-222-134-N.jpg,Whitney,0,"""","""","""",1,4/26/2021 18:59,107.210.23.140,Mozilla/5.0 (Windows NT 10.0; Win64; x64; rv:88.0) Gecko/20100101 Firefox/88.0,,Firefox,88,Windows,10
169,1,null,"""",html-keyboard-response,125,286548,0.0-125.0,"""","<div style=""font-size:60px;"">+</div>","""",256,fixation,Memorization,null,500,"""","""","""","""","""","""","""","""",1,4/26/2021 18:59,107.210.23.140,Mozilla/5.0 (Windows NT 10.0; Win64; x64; rv:88.0) Gecko/20100101 Firefox/88.0,,Firefox,88,Windows,10
169,1,2587,"""",html-keyboard-response,126,291562,0.0-126.0,"""","<img src='jspsych/CFDfaces/CFD-BF-021-013-N.jpg' height=""250px""></br><b>Andrea</b>","""",256,IntactFace,Memorization,70,5000,f,"""",CFD-LM-201-057-N.jpg,Justin,0,"""","""","""",1,4/26/2021 18:59,107.210.23.140,Mozilla/5.0 (Windows NT 10.0; Win64; x64; rv:88.0) Gecko/20100101 Firefox/88.0,,Firefox,88,Windows,10
169,1,null,"""",html-keyboard-response,127,292067,0.0-127.0,"""","<div style=""font-size:60px;"">+</div>","""",256,fixation,Memorization,null,500,"""","""","""","""","""","""","""","""",1,4/26/2021 18:59,107.210.23.140,Mozilla/5.0 (Windows NT 10.0; Win64; x64; rv:88.0) Gecko/20100101 Firefox/88.0,,Firefox,88,Windows,10
169,1,1659,"""",html-keyboard-response,128,297087,0.0-128.0,"""","<img src='jspsych/CFDfaces/CFD-BF-005-001-N.jpg' height=""250px""></br><b>Kayla</b>","""",256,IntactFace,Memorization,78,5000,n,"""",CFD-WM-041-021-N.jpg,Dustin,0,"""","""","""",1,4/26/2021 18:59,107.210.23.140,Mozilla/5.0 (Windows NT 10.0; Win64; x64; rv:88.0) Gecko/20100101 Firefox/88.0,,Firefox,88,Windows,10
169,1,null,"""",html-keyboard-response,129,297601,0.0-129.0,"""","<div style=""font-size:60px;"">+</div>","""",256,fixation,Memorization,null,500,"""","""","""","""","""","""","""","""",1,4/26/2021 18:59,107.210.23.140,Mozilla/5.0 (Windows NT 10.0; Win64; x64; rv:88.0) Gecko/20100101 Firefox/88.0,,Firefox,88,Windows,10
169,1,2381,"""",html-keyboard-response,130,302618,0.0-130.0,"""","<img src='jspsych/CFDfaces/CFD-WM-222-057-N.jpg' height=""250px""></br><b>Ian</b>","""",256,IntactFace,Memorization,70,5000,f,"""",CFD-WF-207-014-N.jpg,Sara,0,"""","""","""",1,4/26/2021 18:59,107.210.23.140,Mozilla/5.0 (Windows NT 10.0; Win64; x64; rv:88.0) Gecko/20100101 Firefox/88.0,,Firefox,88,Windows,10
169,1,null,"""",html-keyboard-response,131,303136,0.0-131.0,"""","<div style=""font-size:60px;"">+</div>","""",256,fixation,Memorization,null,500,"""","""","""","""","""","""","""","""",1,4/26/2021 18:59,107.210.23.140,Mozilla/5.0 (Windows NT 10.0; Win64; x64; rv:88.0) Gecko/20100101 Firefox/88.0,,Firefox,88,Windows,10
169,1,1182,"""",html-keyboard-response,132,308145,0.0-132.0,"""","<img src='jspsych/CFDfaces/CFD-WM-215-041-N.jpg' height=""250px""></br><b>Joshua</b>","""",256,IntactFace,Memorization,70,5000,f,"""",CFD-WF-006-002-N.jpg,Amy,0,"""","""","""",1,4/26/2021 18:59,107.210.23.140,Mozilla/5.0 (Windows NT 10.0; Win64; x64; rv:88.0) Gecko/20100101 Firefox/88.0,,Firefox,88,Windows,10
169,1,null,"""",html-keyboard-response,133,308654,0.0-133.0,"""","<div style=""font-size:60px;"">+</div>","""",256,fixation,Memorization,null,500,"""","""","""","""","""","""","""","""",1,4/26/2021 18:59,107.210.23.140,Mozilla/5.0 (Windows NT 10.0; Win64; x64; rv:88.0) Gecko/20100101 Firefox/88.0,,Firefox,88,Windows,10
169,1,1344,"""",html-keyboard-response,134,313667,0.0-134.0,"""","<img src='jspsych/CFDfaces/CFD-WM-232-070-N.jpg' height=""250px""></br><b>Daniel</b>","""",256,IntactFace,Memorization,70,5000,f,"""",CFD-LF-206-078-N.jpg,Angela,0,"""","""","""",1,4/26/2021 18:59,107.210.23.140,Mozilla/5.0 (Windows NT 10.0; Win64; x64; rv:88.0) Gecko/20100101 Firefox/88.0,,Firefox,88,Windows,10
169,1,null,"""",html-keyboard-response,135,314176,0.0-135.0,"""","<div style=""font-size:60px;"">+</div>","""",256,fixation,Memorization,null,500,"""","""","""","""","""","""","""","""",1,4/26/2021 18:59,107.210.23.140,Mozilla/5.0 (Windows NT 10.0; Win64; x64; rv:88.0) Gecko/20100101 Firefox/88.0,,Firefox,88,Windows,10
169,1,2727,"""",html-keyboard-response,136,319192,0.0-136.0,"""","<img src='jspsych/CFDfaces/CFD-LF-213-079-N.jpg' height=""250px""></br><b>Meghan</b>","""",256,IntactFace,Memorization,78,5000,n,"""",CFD-WF-023-003-N.jpg,Taylor,0,"""","""","""",1,4/26/2021 18:59,107.210.23.140,Mozilla/5.0 (Windows NT 10.0; Win64; x64; rv:88.0) Gecko/20100101 Firefox/88.0,,Firefox,88,Windows,10
169,1,null,"""",html-keyboard-response,137,319697,0.0-137.0,"""","<div style=""font-size:60px;"">+</div>","""",256,fixation,Memorization,null,500,"""","""","""","""","""","""","""","""",1,4/26/2021 18:59,107.210.23.140,Mozilla/5.0 (Windows NT 10.0; Win64; x64; rv:88.0) Gecko/20100101 Firefox/88.0,,Firefox,88,Windows,10
169,1,1403,"""",html-keyboard-response,138,324716,0.0-138.0,"""","<img src='jspsych/CFDfaces/CFD-BF-221-223-N.jpg' height=""250px""></br><b>Samantha</b>","""",256,IntactFace,Memorization,78,5000,n,"""",CFD-WM-015-002-N.jpg,Ryan,0,"""","""","""",1,4/26/2021 18:59,107.210.23.140,Mozilla/5.0 (Windows NT 10.0; Win64; x64; rv:88.0) Gecko/20100101 Firefox/88.0,,Firefox,88,Windows,10
169,1,null,"""",html-keyboard-response,139,325236,0.0-139.0,"""","<div style=""font-size:60px;"">+</div>","""",256,fixation,Memorization,null,500,"""","""","""","""","""","""","""","""",1,4/26/2021 18:59,107.210.23.140,Mozilla/5.0 (Windows NT 10.0; Win64; x64; rv:88.0) Gecko/20100101 Firefox/88.0,,Firefox,88,Windows,10
169,1,3216,"""",html-keyboard-response,140,330257,0.0-140.0,"""","<img src='jspsych/CFDfaces/CFD-BF-047-003-N.jpg' height=""250px""></br><b>Stephanie</b>","""",256,IntactFace,Memorization,78,5000,n,"""",CFD-WF-029-002-N.jpg,Laura,0,"""","""","""",1,4/26/2021 18:59,107.210.23.140,Mozilla/5.0 (Windows NT 10.0; Win64; x64; rv:88.0) Gecko/20100101 Firefox/88.0,,Firefox,88,Windows,10
169,1,null,"""",html-keyboard-response,141,330767,0.0-141.0,"""","<div style=""font-size:60px;"">+</div>","""",256,fixation,Memorization,null,500,"""","""","""","""","""","""","""","""",1,4/26/2021 18:59,107.210.23.140,Mozilla/5.0 (Windows NT 10.0; Win64; x64; rv:88.0) Gecko/20100101 Firefox/88.0,,Firefox,88,Windows,10
169,1,2918,"""",html-keyboard-response,142,335780,0.0-142.0,"""","<img src='jspsych/CFDfaces/CFD-WM-207-048-N.jpg' height=""250px""></br><b>Juan</b>","""",256,IntactFace,Memorization,78,5000,n,"""",CFD-AM-243-212-N.jpg,Timothy,0,"""","""","""",1,4/26/2021 18:59,107.210.23.140,Mozilla/5.0 (Windows NT 10.0; Win64; x64; rv:88.0) Gecko/20100101 Firefox/88.0,,Firefox,88,Windows,10
169,1,null,"""",html-keyboard-response,143,336287,0.0-143.0,"""","<div style=""font-size:60px;"">+</div>","""",256,fixation,Memorization,null,500,"""","""","""","""","""","""","""","""",1,4/26/2021 18:59,107.210.23.140,Mozilla/5.0 (Windows NT 10.0; Win64; x64; rv:88.0) Gecko/20100101 Firefox/88.0,,Firefox,88,Windows,10
169,1,2408,"""",html-keyboard-response,144,341291,0.0-144.0,"""","<img src='jspsych/CFDfaces/CFD-BM-010-003-N.jpg' height=""250px""></br><b>Gregory</b>","""",256,IntactFace,Memorization,78,5000,n,"""",CFD-BF-010-001-N.jpg,Lindsey,0,"""","""","""",1,4/26/2021 18:59,107.210.23.140,Mozilla/5.0 (Windows NT 10.0; Win64; x64; rv:88.0) Gecko/20100101 Firefox/88.0,,Firefox,88,Windows,10
169,1,null,"""",html-keyboard-response,145,341803,0.0-145.0,"""","<div style=""font-size:60px;"">+</div>","""",256,fixation,Memorization,null,500,"""","""","""","""","""","""","""","""",1,4/26/2021 18:59,107.210.23.140,Mozilla/5.0 (Windows NT 10.0; Win64; x64; rv:88.0) Gecko/20100101 Firefox/88.0,,Firefox,88,Windows,10
169,1,3275,"""",html-keyboard-response,146,346816,0.0-146.0,"""","<img src='jspsych/CFDfaces/CFD-LF-205-100-N.jpg' height=""250px""></br><b>Kimberly</b>","""",256,IntactFace,Memorization,70,5000,f,"""",CFD-WF-215-145-N.jpg,Tiffany,0,"""","""","""",1,4/26/2021 18:59,107.210.23.140,Mozilla/5.0 (Windows NT 10.0; Win64; x64; rv:88.0) Gecko/20100101 Firefox/88.0,,Firefox,88,Windows,10
169,1,null,"""",html-keyboard-response,147,347336,0.0-147.0,"""","<div style=""font-size:60px;"">+</div>","""",256,fixation,Memorization,null,500,"""","""","""","""","""","""","""","""",1,4/26/2021 18:59,107.210.23.140,Mozilla/5.0 (Windows NT 10.0; Win64; x64; rv:88.0) Gecko/20100101 Firefox/88.0,,Firefox,88,Windows,10
169,1,1046,"""",html-keyboard-response,148,352356,0.0-148.0,"""","<img src='jspsych/CFDfaces/CFD-WF-024-003-N.jpg' height=""250px""></br><b>Michelle</b>","""",256,IntactFace,Memorization,70,5000,f,"""",CFD-BM-039-029-N.jpg,Luis,0,"""","""","""",1,4/26/2021 18:59,107.210.23.140,Mozilla/5.0 (Windows NT 10.0; Win64; x64; rv:88.0) Gecko/20100101 Firefox/88.0,,Firefox,88,Windows,10
169,1,null,"""",html-keyboard-response,149,352875,0.0-149.0,"""","<div style=""font-size:60px;"">+</div>","""",256,fixation,Memorization,null,500,"""","""","""","""","""","""","""","""",1,4/26/2021 18:59,107.210.23.140,Mozilla/5.0 (Windows NT 10.0; Win64; x64; rv:88.0) Gecko/20100101 Firefox/88.0,,Firefox,88,Windows,10
169,1,1674,"""",html-keyboard-response,150,357895,0.0-150.0,"""","<img src='jspsych/CFDfaces/CFD-WM-017-002-N.jpg' height=""250px""></br><b>Peter</b>","""",256,IntactFace,Memorization,70,5000,f,"""",CFD-AF-239-171-N.jpg,Jenna,0,"""","""","""",1,4/26/2021 18:59,107.210.23.140,Mozilla/5.0 (Windows NT 10.0; Win64; x64; rv:88.0) Gecko/20100101 Firefox/88.0,,Firefox,88,Windows,10
169,1,null,"""",html-keyboard-response,151,358405,0.0-151.0,"""","<div style=""font-size:60px;"">+</div>","""",256,fixation,Memorization,null,500,"""","""","""","""","""","""","""","""",1,4/26/2021 18:59,107.210.23.140,Mozilla/5.0 (Windows NT 10.0; Win64; x64; rv:88.0) Gecko/20100101 Firefox/88.0,,Firefox,88,Windows,10
169,1,2208,"""",html-keyboard-response,152,363410,0.0-152.0,"""","<img src='jspsych/CFDfaces/CFD-AF-214-139-N.jpg' height=""250px""></br><b>Emily</b>","""",256,IntactFace,Memorization,70,5000,f,"""",CFD-LM-246-087-N.jpg,Jesse,0,"""","""","""",1,4/26/2021 18:59,107.210.23.140,Mozilla/5.0 (Windows NT 10.0; Win64; x64; rv:88.0) Gecko/20100101 Firefox/88.0,,Firefox,88,Windows,10
169,1,null,"""",html-keyboard-response,153,363923,0.0-153.0,"""","<div style=""font-size:60px;"">+</div>","""",256,fixation,Memorization,null,500,"""","""","""","""","""","""","""","""",1,4/26/2021 18:59,107.210.23.140,Mozilla/5.0 (Windows NT 10.0; Win64; x64; rv:88.0) Gecko/20100101 Firefox/88.0,,Firefox,88,Windows,10
169,1,1442,"""",html-keyboard-response,154,365367,0.0-154.0,"""",Press Any Key to Begin Memory Test,"""",1,welcomeScreen,Break,78,"""","""","""","""","""","""","""","""","""",1,4/26/2021 18:59,107.210.23.140,Mozilla/5.0 (Windows NT 10.0; Win64; x64; rv:88.0) Gecko/20100101 Firefox/88.0,,Firefox,88,Windows,10
169,1,null,"""",html-keyboard-response,155,366375,0.0-155.0,"""","<div style=""font-size:60px;"">+</div>","""",256,ITI,Test,null,1000,"""","""","""","""","""","""","""","""",1,4/26/2021 18:59,107.210.23.140,Mozilla/5.0 (Windows NT 10.0; Win64; x64; rv:88.0) Gecko/20100101 Firefox/88.0,,Firefox,88,Windows,10
169,1,null,"""",image-keyboard-response,156,366642,0.0-156.0,"""",jspsych/scrambledDisgustFaces/scrambledAM23DIS.JPG,"""",256,forwardMask,Test,null,250,"""",d,"""","""","""","""","""","""",1,4/26/2021 18:59,107.210.23.140,Mozilla/5.0 (Windows NT 10.0; Win64; x64; rv:88.0) Gecko/20100101 Firefox/88.0,,Firefox,88,Windows,10
169,1,null,"""",image-keyboard-response,157,366660,0.0-157.0,"""",jspsych/disgustFaces/AM23DIS.JPG,"""",256,Cue,Test,null,16,"""","""","""","""","""","""","""","""",1,4/26/2021 18:59,107.210.23.140,Mozilla/5.0 (Windows NT 10.0; Win64; x64; rv:88.0) Gecko/20100101 Firefox/88.0,,Firefox,88,Windows,10
169,1,null,"""",image-keyboard-response,158,366765,0.0-158.0,"""",jspsych/neutralFaces/BM33NES.JPG,"""",256,backwardMask,Test,null,100,"""","""","""","""","""","""","""","""",1,4/26/2021 18:59,107.210.23.140,Mozilla/5.0 (Windows NT 10.0; Win64; x64; rv:88.0) Gecko/20100101 Firefox/88.0,,Firefox,88,Windows,10
169,1,null,"""",html-keyboard-response,159,367770,0.0-159.0,"""","<div style=""font-size:60px;"">+</div>","""",256,fixationBtwnNeutralMaskAndPrompt,Test,null,1000,"""","""","""","""","""","""","""","""",1,4/26/2021 18:59,107.210.23.140,Mozilla/5.0 (Windows NT 10.0; Win64; x64; rv:88.0) Gecko/20100101 Firefox/88.0,,Firefox,88,Windows,10
169,1,1855,"""",html-button-response,160,369627,0.0-160.0,"""","<img src='jspsych/CFDfaces/CFD-LM-221-216-N.jpg' height=""250px"">,</br><b>Christian</b>",0,256,IntactOrRearranged,Test,"""","""","""","""",CFD-BM-039-029-N.jpg,Luis,1,"""","""",0,1,4/26/2021 18:59,107.210.23.140,Mozilla/5.0 (Windows NT 10.0; Win64; x64; rv:88.0) Gecko/20100101 Firefox/88.0,,Firefox,88,Windows,10
169,1,1918,"""",html-slider-response,161,371549,0.0-161.0,"""","<img src='jspsych/CFDfaces/CFD-LM-221-216-N.jpg' height=""250px"">,</br><b>Christian</b>","""",256,ConfidenceQuery,Test,"""","""","""","""",CFD-BM-039-029-N.jpg,Luis,1,0,70,"""",1,4/26/2021 18:59,107.210.23.140,Mozilla/5.0 (Windows NT 10.0; Win64; x64; rv:88.0) Gecko/20100101 Firefox/88.0,,Firefox,88,Windows,10
169,1,null,"""",html-keyboard-response,162,372549,0.0-162.0,"""","<div style=""font-size:60px;"">+</div>","""",256,ITI,Test,null,1000,"""","""","""","""","""","""","""","""",1,4/26/2021 18:59,107.210.23.140,Mozilla/5.0 (Windows NT 10.0; Win64; x64; rv:88.0) Gecko/20100101 Firefox/88.0,,Firefox,88,Windows,10
169,1,null,"""",image-keyboard-response,163,372806,0.0-163.0,"""",jspsych/scrambledDisgustFaces/scrambledBM34DIS.JPG,"""",256,forwardMask,Test,null,250,"""",d,"""","""","""","""","""","""",1,4/26/2021 18:59,107.210.23.140,Mozilla/5.0 (Windows NT 10.0; Win64; x64; rv:88.0) Gecko/20100101 Firefox/88.0,,Firefox,88,Windows,10
169,1,null,"""",image-keyboard-response,164,372837,0.0-164.0,"""",jspsych/disgustFaces/BM35DIS.JPG,"""",256,Cue,Test,null,16,"""","""","""","""","""","""","""","""",1,4/26/2021 18:59,107.210.23.140,Mozilla/5.0 (Windows NT 10.0; Win64; x64; rv:88.0) Gecko/20100101 Firefox/88.0,,Firefox,88,Windows,10
169,1,null,"""",image-keyboard-response,165,372942,0.0-165.0,"""",jspsych/neutralFaces/BM27NES.JPG,"""",256,backwardMask,Test,null,100,"""","""","""","""","""","""","""","""",1,4/26/2021 18:59,107.210.23.140,Mozilla/5.0 (Windows NT 10.0; Win64; x64; rv:88.0) Gecko/20100101 Firefox/88.0,,Firefox,88,Windows,10
169,1,null,"""",html-keyboard-response,166,373954,0.0-166.0,"""","<div style=""font-size:60px;"">+</div>","""",256,fixationBtwnNeutralMaskAndPrompt,Test,null,1000,"""","""","""","""","""","""","""","""",1,4/26/2021 18:59,107.210.23.140,Mozilla/5.0 (Windows NT 10.0; Win64; x64; rv:88.0) Gecko/20100101 Firefox/88.0,,Firefox,88,Windows,10
169,1,2457,"""",html-button-response,167,376410,0.0-167.0,"""","<img src='jspsych/CFDfaces/CFD-AF-214-139-N.jpg' height=""250px"">,</br><b>Andrea</b>",1,256,IntactOrRearranged,Test,"""","""","""","""",CFD-WM-041-021-N.jpg,Dustin,1,"""","""",1,1,4/26/2021 18:59,107.210.23.140,Mozilla/5.0 (Windows NT 10.0; Win64; x64; rv:88.0) Gecko/20100101 Firefox/88.0,,Firefox,88,Windows,10
169,1,1671,"""",html-slider-response,168,378086,0.0-168.0,"""","<img src='jspsych/CFDfaces/CFD-AF-214-139-N.jpg' height=""250px"">,</br><b>Andrea</b>","""",256,ConfidenceQuery,Test,"""","""","""","""",CFD-WM-041-021-N.jpg,Dustin,1,0,78,"""",1,4/26/2021 18:59,107.210.23.140,Mozilla/5.0 (Windows NT 10.0; Win64; x64; rv:88.0) Gecko/20100101 Firefox/88.0,,Firefox,88,Windows,10
169,1,null,"""",html-keyboard-response,169,379096,0.0-169.0,"""","<div style=""font-size:60px;"">+</div>","""",256,ITI,Test,null,1000,"""","""","""","""","""","""","""","""",1,4/26/2021 18:59,107.210.23.140,Mozilla/5.0 (Windows NT 10.0; Win64; x64; rv:88.0) Gecko/20100101 Firefox/88.0,,Firefox,88,Windows,10
169,1,null,"""",image-keyboard-response,170,379352,0.0-170.0,"""",jspsych/scrambledDisgustFaces/scrambledAF07DIS.JPG,"""",256,forwardMask,Test,null,250,"""",d,"""","""","""","""","""","""",1,4/26/2021 18:59,107.210.23.140,Mozilla/5.0 (Windows NT 10.0; Win64; x64; rv:88.0) Gecko/20100101 Firefox/88.0,,Firefox,88,Windows,10
169,1,null,"""",image-keyboard-response,171,379383,0.0-171.0,"""",jspsych/disgustFaces/AF07DIS.JPG,"""",256,Cue,Test,null,16,"""","""","""","""","""","""","""","""",1,4/26/2021 18:59,107.210.23.140,Mozilla/5.0 (Windows NT 10.0; Win64; x64; rv:88.0) Gecko/20100101 Firefox/88.0,,Firefox,88,Windows,10
169,1,null,"""",image-keyboard-response,172,379487,0.0-172.0,"""",jspsych/neutralFaces/BF34NES.JPG,"""",256,backwardMask,Test,null,100,"""","""","""","""","""","""","""","""",1,4/26/2021 18:59,107.210.23.140,Mozilla/5.0 (Windows NT 10.0; Win64; x64; rv:88.0) Gecko/20100101 Firefox/88.0,,Firefox,88,Windows,10
169,1,null,"""",html-keyboard-response,173,380498,0.0-173.0,"""","<div style=""font-size:60px;"">+</div>","""",256,fixationBtwnNeutralMaskAndPrompt,Test,null,1000,"""","""","""","""","""","""","""","""",1,4/26/2021 18:59,107.210.23.140,Mozilla/5.0 (Windows NT 10.0; Win64; x64; rv:88.0) Gecko/20100101 Firefox/88.0,,Firefox,88,Windows,10
169,1,1366,"""",html-button-response,174,381865,0.0-174.0,"""","<img src='jspsych/CFDfaces/CFD-AM-231-136-N.jpg' height=""250px"">,</br><b>Jeffrey</b>",0,256,IntactOrRearranged,Test,"""","""","""","""",CFD-AM-243-212-N.jpg,Austin,1,"""","""",0,1,4/26/2021 18:59,107.210.23.140,Mozilla/5.0 (Windows NT 10.0; Win64; x64; rv:88.0) Gecko/20100101 Firefox/88.0,,Firefox,88,Windows,10
169,1,2140,"""",html-slider-response,175,384010,0.0-175.0,"""","<img src='jspsych/CFDfaces/CFD-AM-231-136-N.jpg' height=""250px"">,</br><b>Jeffrey</b>","""",256,ConfidenceQuery,Test,"""","""","""","""",CFD-AM-243-212-N.jpg,Austin,1,0,100,"""",1,4/26/2021 18:59,107.210.23.140,Mozilla/5.0 (Windows NT 10.0; Win64; x64; rv:88.0) Gecko/20100101 Firefox/88.0,,Firefox,88,Windows,10
169,1,null,"""",html-keyboard-response,176,385013,0.0-176.0,"""","<div style=""font-size:60px;"">+</div>","""",256,ITI,Test,null,1000,"""","""","""","""","""","""","""","""",1,4/26/2021 18:59,107.210.23.140,Mozilla/5.0 (Windows NT 10.0; Win64; x64; rv:88.0) Gecko/20100101 Firefox/88.0,,Firefox,88,Windows,10
169,1,null,"""",image-keyboard-response,177,385265,0.0-177.0,"""",jspsych/scrambledNeutralFaces/scrambledAF16NES.JPG,"""",256,forwardMask,Test,null,250,"""",n,"""","""","""","""","""","""",1,4/26/2021 18:59,107.210.23.140,Mozilla/5.0 (Windows NT 10.0; Win64; x64; rv:88.0) Gecko/20100101 Firefox/88.0,,Firefox,88,Windows,10
169,1,null,"""",image-keyboard-response,178,385295,0.0-178.0,"""",jspsych/neutralFaces/AF16NES.JPG,"""",256,Cue,Test,null,16,"""","""","""","""","""","""","""","""",1,4/26/2021 18:59,107.210.23.140,Mozilla/5.0 (Windows NT 10.0; Win64; x64; rv:88.0) Gecko/20100101 Firefox/88.0,,Firefox,88,Windows,10
169,1,null,"""",image-keyboard-response,179,385400,0.0-179.0,"""",jspsych/neutralFaces/BF11NES.JPG,"""",256,backwardMask,Test,null,100,"""","""","""","""","""","""","""","""",1,4/26/2021 18:59,107.210.23.140,Mozilla/5.0 (Windows NT 10.0; Win64; x64; rv:88.0) Gecko/20100101 Firefox/88.0,,Firefox,88,Windows,10
169,1,null,"""",html-keyboard-response,180,386416,0.0-180.0,"""","<div style=""font-size:60px;"">+</div>","""",256,fixationBtwnNeutralMaskAndPrompt,Test,null,1000,"""","""","""","""","""","""","""","""",1,4/26/2021 18:59,107.210.23.140,Mozilla/5.0 (Windows NT 10.0; Win64; x64; rv:88.0) Gecko/20100101 Firefox/88.0,,Firefox,88,Windows,10
169,1,1492,"""",html-button-response,181,387908,0.0-181.0,"""","<img src='jspsych/CFDfaces/CFD-WM-032-001-N.jpg' height=""250px"">,</br><b>Brian</b>",0,256,IntactOrRearranged,Test,"""","""","""","""",CFD-WF-006-002-N.jpg,Amy,0,"""","""",0,1,4/26/2021 18:59,107.210.23.140,Mozilla/5.0 (Windows NT 10.0; Win64; x64; rv:88.0) Gecko/20100101 Firefox/88.0,,Firefox,88,Windows,10
169,1,2366,"""",html-slider-response,182,390278,0.0-182.0,"""","<img src='jspsych/CFDfaces/CFD-WM-032-001-N.jpg' height=""250px"">,</br><b>Brian</b>","""",256,ConfidenceQuery,Test,"""","""","""","""",CFD-WF-006-002-N.jpg,Amy,0,0,100,"""",1,4/26/2021 18:59,107.210.23.140,Mozilla/5.0 (Windows NT 10.0; Win64; x64; rv:88.0) Gecko/20100101 Firefox/88.0,,Firefox,88,Windows,10
169,1,null,"""",html-keyboard-response,183,391279,0.0-183.0,"""","<div style=""font-size:60px;"">+</div>","""",256,ITI,Test,null,1000,"""","""","""","""","""","""","""","""",1,4/26/2021 18:59,107.210.23.140,Mozilla/5.0 (Windows NT 10.0; Win64; x64; rv:88.0) Gecko/20100101 Firefox/88.0,,Firefox,88,Windows,10
169,1,null,"""",image-keyboard-response,184,391531,0.0-184.0,"""",jspsych/scrambledNeutralFaces/scrambledBF32NES.JPG,"""",256,forwardMask,Test,null,250,"""",n,"""","""","""","""","""","""",1,4/26/2021 18:59,107.210.23.140,Mozilla/5.0 (Windows NT 10.0; Win64; x64; rv:88.0) Gecko/20100101 Firefox/88.0,,Firefox,88,Windows,10
169,1,null,"""",image-keyboard-response,185,391561,0.0-185.0,"""",jspsych/neutralFaces/BF32NES.JPG,"""",256,Cue,Test,null,16,"""","""","""","""","""","""","""","""",1,4/26/2021 18:59,107.210.23.140,Mozilla/5.0 (Windows NT 10.0; Win64; x64; rv:88.0) Gecko/20100101 Firefox/88.0,,Firefox,88,Windows,10
169,1,null,"""",image-keyboard-response,186,391666,0.0-186.0,"""",jspsych/neutralFaces/AF11NES.JPG,"""",256,backwardMask,Test,null,100,"""","""","""","""","""","""","""","""",1,4/26/2021 18:59,107.210.23.140,Mozilla/5.0 (Windows NT 10.0; Win64; x64; rv:88.0) Gecko/20100101 Firefox/88.0,,Firefox,88,Windows,10
169,1,null,"""",html-keyboard-response,187,392686,0.0-187.0,"""","<div style=""font-size:60px;"">+</div>","""",256,fixationBtwnNeutralMaskAndPrompt,Test,null,1000,"""","""","""","""","""","""","""","""",1,4/26/2021 18:59,107.210.23.140,Mozilla/5.0 (Windows NT 10.0; Win64; x64; rv:88.0) Gecko/20100101 Firefox/88.0,,Firefox,88,Windows,10
169,1,1201,"""",html-button-response,188,393888,0.0-188.0,"""","<img src='jspsych/CFDfaces/CFD-WM-222-057-N.jpg' height=""250px"">,</br><b>Ian</b>",0,256,IntactOrRearranged,Test,"""","""","""","""",CFD-BM-017-021-N.jpg,Timothy,0,"""","""",0,1,4/26/2021 18:59,107.210.23.140,Mozilla/5.0 (Windows NT 10.0; Win64; x64; rv:88.0) Gecko/20100101 Firefox/88.0,,Firefox,88,Windows,10
169,1,1205,"""",html-slider-response,189,395098,0.0-189.0,"""","<img src='jspsych/CFDfaces/CFD-WM-222-057-N.jpg' height=""250px"">,</br><b>Ian</b>","""",256,ConfidenceQuery,Test,"""","""","""","""",CFD-BM-017-021-N.jpg,Timothy,0,0,100,"""",1,4/26/2021 18:59,107.210.23.140,Mozilla/5.0 (Windows NT 10.0; Win64; x64; rv:88.0) Gecko/20100101 Firefox/88.0,,Firefox,88,Windows,10
169,1,null,"""",html-keyboard-response,190,396101,0.0-190.0,"""","<div style=""font-size:60px;"">+</div>","""",256,ITI,Test,null,1000,"""","""","""","""","""","""","""","""",1,4/26/2021 18:59,107.210.23.140,Mozilla/5.0 (Windows NT 10.0; Win64; x64; rv:88.0) Gecko/20100101 Firefox/88.0,,Firefox,88,Windows,10
169,1,null,"""",image-keyboard-response,191,396355,0.0-191.0,"""",jspsych/scrambledDisgustFaces/scrambledBF03DIS.JPG,"""",256,forwardMask,Test,null,250,"""",d,"""","""","""","""","""","""",1,4/26/2021 18:59,107.210.23.140,Mozilla/5.0 (Windows NT 10.0; Win64; x64; rv:88.0) Gecko/20100101 Firefox/88.0,,Firefox,88,Windows,10
169,1,null,"""",image-keyboard-response,192,396375,0.0-192.0,"""",jspsych/disgustFaces/BF03DIS.JPG,"""",256,Cue,Test,null,16,"""","""","""","""","""","""","""","""",1,4/26/2021 18:59,107.210.23.140,Mozilla/5.0 (Windows NT 10.0; Win64; x64; rv:88.0) Gecko/20100101 Firefox/88.0,,Firefox,88,Windows,10
169,1,null,"""",image-keyboard-response,193,396495,0.0-193.0,"""",jspsych/neutralFaces/BF10NES.JPG,"""",256,backwardMask,Test,null,100,"""","""","""","""","""","""","""","""",1,4/26/2021 18:59,107.210.23.140,Mozilla/5.0 (Windows NT 10.0; Win64; x64; rv:88.0) Gecko/20100101 Firefox/88.0,,Firefox,88,Windows,10
169,1,null,"""",html-keyboard-response,194,397500,0.0-194.0,"""","<div style=""font-size:60px;"">+</div>","""",256,fixationBtwnNeutralMaskAndPrompt,Test,null,1000,"""","""","""","""","""","""","""","""",1,4/26/2021 18:59,107.210.23.140,Mozilla/5.0 (Windows NT 10.0; Win64; x64; rv:88.0) Gecko/20100101 Firefox/88.0,,Firefox,88,Windows,10
169,1,1499,"""",html-button-response,195,399000,0.0-195.0,"""","<img src='jspsych/CFDfaces/CFD-AM-211-052-N.jpg' height=""250px"">,</br><b>Gregory</b>",1,256,IntactOrRearranged,Test,"""","""","""","""",CFD-WM-015-002-N.jpg,Cameron,1,"""","""",1,1,4/26/2021 18:59,107.210.23.140,Mozilla/5.0 (Windows NT 10.0; Win64; x64; rv:88.0) Gecko/20100101 Firefox/88.0,,Firefox,88,Windows,10
169,1,1404,"""",html-slider-response,196,400406,0.0-196.0,"""","<img src='jspsych/CFDfaces/CFD-AM-211-052-N.jpg' height=""250px"">,</br><b>Gregory</b>","""",256,ConfidenceQuery,Test,"""","""","""","""",CFD-WM-015-002-N.jpg,Cameron,1,0,75,"""",1,4/26/2021 18:59,107.210.23.140,Mozilla/5.0 (Windows NT 10.0; Win64; x64; rv:88.0) Gecko/20100101 Firefox/88.0,,Firefox,88,Windows,10
169,1,null,"""",html-keyboard-response,197,401411,0.0-197.0,"""","<div style=""font-size:60px;"">+</div>","""",256,ITI,Test,null,1000,"""","""","""","""","""","""","""","""",1,4/26/2021 18:59,107.210.23.140,Mozilla/5.0 (Windows NT 10.0; Win64; x64; rv:88.0) Gecko/20100101 Firefox/88.0,,Firefox,88,Windows,10
169,1,null,"""",image-keyboard-response,198,401666,0.0-198.0,"""",jspsych/scrambledNeutralFaces/scrambledBM14NES.JPG,"""",256,forwardMask,Test,null,250,"""",n,"""","""","""","""","""","""",1,4/26/2021 18:59,107.210.23.140,Mozilla/5.0 (Windows NT 10.0; Win64; x64; rv:88.0) Gecko/20100101 Firefox/88.0,,Firefox,88,Windows,10
169,1,null,"""",image-keyboard-response,199,401696,0.0-199.0,"""",jspsych/neutralFaces/BM14NES.JPG,"""",256,Cue,Test,null,16,"""","""","""","""","""","""","""","""",1,4/26/2021 18:59,107.210.23.140,Mozilla/5.0 (Windows NT 10.0; Win64; x64; rv:88.0) Gecko/20100101 Firefox/88.0,,Firefox,88,Windows,10
169,1,null,"""",image-keyboard-response,200,401801,0.0-200.0,"""",jspsych/neutralFaces/BM10NES.JPG,"""",256,backwardMask,Test,null,100,"""","""","""","""","""","""","""","""",1,4/26/2021 18:59,107.210.23.140,Mozilla/5.0 (Windows NT 10.0; Win64; x64; rv:88.0) Gecko/20100101 Firefox/88.0,,Firefox,88,Windows,10
169,1,null,"""",html-keyboard-response,201,402806,0.0-201.0,"""","<div style=""font-size:60px;"">+</div>","""",256,fixationBtwnNeutralMaskAndPrompt,Test,null,1000,"""","""","""","""","""","""","""","""",1,4/26/2021 18:59,107.210.23.140,Mozilla/5.0 (Windows NT 10.0; Win64; x64; rv:88.0) Gecko/20100101 Firefox/88.0,,Firefox,88,Windows,10
169,1,1318,"""",html-button-response,202,404124,0.0-202.0,"""","<img src='jspsych/CFDfaces/CFD-LF-213-079-N.jpg' height=""250px"">,</br><b>Meghan</b>",0,256,IntactOrRearranged,Test,"""","""","""","""",CFD-BM-211-174-N.jpg,Steven,0,"""","""",0,1,4/26/2021 18:59,107.210.23.140,Mozilla/5.0 (Windows NT 10.0; Win64; x64; rv:88.0) Gecko/20100101 Firefox/88.0,,Firefox,88,Windows,10
169,1,2021,"""",html-slider-response,203,406146,0.0-203.0,"""","<img src='jspsych/CFDfaces/CFD-LF-213-079-N.jpg' height=""250px"">,</br><b>Meghan</b>","""",256,ConfidenceQuery,Test,"""","""","""","""",CFD-BM-211-174-N.jpg,Steven,0,0,55,"""",1,4/26/2021 18:59,107.210.23.140,Mozilla/5.0 (Windows NT 10.0; Win64; x64; rv:88.0) Gecko/20100101 Firefox/88.0,,Firefox,88,Windows,10
169,1,null,"""",html-keyboard-response,204,407151,0.0-204.0,"""","<div style=""font-size:60px;"">+</div>","""",256,ITI,Test,null,1000,"""","""","""","""","""","""","""","""",1,4/26/2021 18:59,107.210.23.140,Mozilla/5.0 (Windows NT 10.0; Win64; x64; rv:88.0) Gecko/20100101 Firefox/88.0,,Firefox,88,Windows,10
169,1,null,"""",image-keyboard-response,205,407416,0.0-205.0,"""",jspsych/scrambledNeutralFaces/scrambledAM13NES.JPG,"""",256,forwardMask,Test,null,250,"""",n,"""","""","""","""","""","""",1,4/26/2021 18:59,107.210.23.140,Mozilla/5.0 (Windows NT 10.0; Win64; x64; rv:88.0) Gecko/20100101 Firefox/88.0,,Firefox,88,Windows,10
169,1,null,"""",image-keyboard-response,206,407446,0.0-206.0,"""",jspsych/neutralFaces/AM13NES.JPG,"""",256,Cue,Test,null,16,"""","""","""","""","""","""","""","""",1,4/26/2021 18:59,107.210.23.140,Mozilla/5.0 (Windows NT 10.0; Win64; x64; rv:88.0) Gecko/20100101 Firefox/88.0,,Firefox,88,Windows,10
169,1,null,"""",image-keyboard-response,207,407561,0.0-207.0,"""",jspsych/neutralFaces/BM26NES.JPG,"""",256,backwardMask,Test,null,100,"""","""","""","""","""","""","""","""",1,4/26/2021 18:59,107.210.23.140,Mozilla/5.0 (Windows NT 10.0; Win64; x64; rv:88.0) Gecko/20100101 Firefox/88.0,,Firefox,88,Windows,10
169,1,null,"""",html-keyboard-response,208,408562,0.0-208.0,"""","<div style=""font-size:60px;"">+</div>","""",256,fixationBtwnNeutralMaskAndPrompt,Test,null,1000,"""","""","""","""","""","""","""","""",1,4/26/2021 18:59,107.210.23.140,Mozilla/5.0 (Windows NT 10.0; Win64; x64; rv:88.0) Gecko/20100101 Firefox/88.0,,Firefox,88,Windows,10
169,1,1342,"""",html-button-response,209,409903,0.0-209.0,"""","<img src='jspsych/CFDfaces/CFD-BF-021-013-N.jpg' height=""250px"">,</br><b>Amanda</b>",0,256,IntactOrRearranged,Test,"""","""","""","""",CFD-WF-029-002-N.jpg,Sara,1,"""","""",0,1,4/26/2021 18:59,107.210.23.140,Mozilla/5.0 (Windows NT 10.0; Win64; x64; rv:88.0) Gecko/20100101 Firefox/88.0,,Firefox,88,Windows,10
169,1,1395,"""",html-slider-response,210,411299,0.0-210.0,"""","<img src='jspsych/CFDfaces/CFD-BF-021-013-N.jpg' height=""250px"">,</br><b>Amanda</b>","""",256,ConfidenceQuery,Test,"""","""","""","""",CFD-WF-029-002-N.jpg,Sara,1,0,81,"""",1,4/26/2021 18:59,107.210.23.140,Mozilla/5.0 (Windows NT 10.0; Win64; x64; rv:88.0) Gecko/20100101 Firefox/88.0,,Firefox,88,Windows,10
169,1,null,"""",html-keyboard-response,211,412317,0.0-211.0,"""","<div style=""font-size:60px;"">+</div>","""",256,ITI,Test,null,1000,"""","""","""","""","""","""","""","""",1,4/26/2021 18:59,107.210.23.140,Mozilla/5.0 (Windows NT 10.0; Win64; x64; rv:88.0) Gecko/20100101 Firefox/88.0,,Firefox,88,Windows,10
169,1,null,"""",image-keyboard-response,212,412575,0.0-212.0,"""",jspsych/scrambledNeutralFaces/scrambledAM32NES.JPG,"""",256,forwardMask,Test,null,250,"""",n,"""","""","""","""","""","""",1,4/26/2021 18:59,107.210.23.140,Mozilla/5.0 (Windows NT 10.0; Win64; x64; rv:88.0) Gecko/20100101 Firefox/88.0,,Firefox,88,Windows,10
169,1,null,"""",image-keyboard-response,213,412735,0.0-213.0,"""",jspsych/neutralFaces/AM32NES.JPG,"""",256,Cue,Test,null,16,"""","""","""","""","""","""","""","""",1,4/26/2021 18:59,107.210.23.140,Mozilla/5.0 (Windows NT 10.0; Win64; x64; rv:88.0) Gecko/20100101 Firefox/88.0,,Firefox,88,Windows,10
169,1,null,"""",image-keyboard-response,214,412854,0.0-214.0,"""",jspsych/neutralFaces/BM13NES.JPG,"""",256,backwardMask,Test,null,100,"""","""","""","""","""","""","""","""",1,4/26/2021 18:59,107.210.23.140,Mozilla/5.0 (Windows NT 10.0; Win64; x64; rv:88.0) Gecko/20100101 Firefox/88.0,,Firefox,88,Windows,10
169,1,null,"""",html-keyboard-response,215,413865,0.0-215.0,"""","<div style=""font-size:60px;"">+</div>","""",256,fixationBtwnNeutralMaskAndPrompt,Test,null,1000,"""","""","""","""","""","""","""","""",1,4/26/2021 18:59,107.210.23.140,Mozilla/5.0 (Windows NT 10.0; Win64; x64; rv:88.0) Gecko/20100101 Firefox/88.0,,Firefox,88,Windows,10
169,1,1528,"""",html-button-response,216,415394,0.0-216.0,"""","<img src='jspsych/CFDfaces/CFD-AF-242-158-N.jpg' height=""250px"">,</br><b>Victoria</b>",1,256,IntactOrRearranged,Test,"""","""","""","""",CFD-AM-228-214-N.jpg,Ryan,1,"""","""",1,1,4/26/2021 18:59,107.210.23.140,Mozilla/5.0 (Windows NT 10.0; Win64; x64; rv:88.0) Gecko/20100101 Firefox/88.0,,Firefox,88,Windows,10
169,1,1179,"""",html-slider-response,217,416574,0.0-217.0,"""","<img src='jspsych/CFDfaces/CFD-AF-242-158-N.jpg' height=""250px"">,</br><b>Victoria</b>","""",256,ConfidenceQuery,Test,"""","""","""","""",CFD-AM-228-214-N.jpg,Ryan,1,0,100,"""",1,4/26/2021 18:59,107.210.23.140,Mozilla/5.0 (Windows NT 10.0; Win64; x64; rv:88.0) Gecko/20100101 Firefox/88.0,,Firefox,88,Windows,10
169,1,null,"""",html-keyboard-response,218,417581,0.0-218.0,"""","<div style=""font-size:60px;"">+</div>","""",256,ITI,Test,null,1000,"""","""","""","""","""","""","""","""",1,4/26/2021 18:59,107.210.23.140,Mozilla/5.0 (Windows NT 10.0; Win64; x64; rv:88.0) Gecko/20100101 Firefox/88.0,,Firefox,88,Windows,10
169,1,null,"""",image-keyboard-response,219,417837,0.0-219.0,"""",jspsych/scrambledNeutralFaces/scrambledAM15NES.JPG,"""",256,forwardMask,Test,null,250,"""",n,"""","""","""","""","""","""",1,4/26/2021 18:59,107.210.23.140,Mozilla/5.0 (Windows NT 10.0; Win64; x64; rv:88.0) Gecko/20100101 Firefox/88.0,,Firefox,88,Windows,10
169,1,null,"""",image-keyboard-response,220,417870,0.0-220.0,"""",jspsych/neutralFaces/AM15NES.JPG,"""",256,Cue,Test,null,16,"""","""","""","""","""","""","""","""",1,4/26/2021 18:59,107.210.23.140,Mozilla/5.0 (Windows NT 10.0; Win64; x64; rv:88.0) Gecko/20100101 Firefox/88.0,,Firefox,88,Windows,10
169,1,null,"""",image-keyboard-response,221,417974,0.0-221.0,"""",jspsych/neutralFaces/BM07NES.JPG,"""",256,backwardMask,Test,null,100,"""","""","""","""","""","""","""","""",1,4/26/2021 18:59,107.210.23.140,Mozilla/5.0 (Windows NT 10.0; Win64; x64; rv:88.0) Gecko/20100101 Firefox/88.0,,Firefox,88,Windows,10
169,1,null,"""",html-keyboard-response,222,418984,0.0-222.0,"""","<div style=""font-size:60px;"">+</div>","""",256,fixationBtwnNeutralMaskAndPrompt,Test,null,1000,"""","""","""","""","""","""","""","""",1,4/26/2021 18:59,107.210.23.140,Mozilla/5.0 (Windows NT 10.0; Win64; x64; rv:88.0) Gecko/20100101 Firefox/88.0,,Firefox,88,Windows,10
169,1,1563,"""",html-button-response,223,420547,0.0-223.0,"""","<img src='jspsych/CFDfaces/CFD-LF-205-100-N.jpg' height=""250px"">,</br><b>Emily</b>",0,256,IntactOrRearranged,Test,"""","""","""","""",CFD-AF-240-206-N.jpg,Melissa,1,"""","""",0,1,4/26/2021 18:59,107.210.23.140,Mozilla/5.0 (Windows NT 10.0; Win64; x64; rv:88.0) Gecko/20100101 Firefox/88.0,,Firefox,88,Windows,10
169,1,2159,"""",html-slider-response,224,422708,0.0-224.0,"""","<img src='jspsych/CFDfaces/CFD-LF-205-100-N.jpg' height=""250px"">,</br><b>Emily</b>","""",256,ConfidenceQuery,Test,"""","""","""","""",CFD-AF-240-206-N.jpg,Melissa,1,0,86,"""",1,4/26/2021 18:59,107.210.23.140,Mozilla/5.0 (Windows NT 10.0; Win64; x64; rv:88.0) Gecko/20100101 Firefox/88.0,,Firefox,88,Windows,10
169,1,null,"""",html-keyboard-response,225,423721,0.0-225.0,"""","<div style=""font-size:60px;"">+</div>","""",256,ITI,Test,null,1000,"""","""","""","""","""","""","""","""",1,4/26/2021 18:59,107.210.23.140,Mozilla/5.0 (Windows NT 10.0; Win64; x64; rv:88.0) Gecko/20100101 Firefox/88.0,,Firefox,88,Windows,10
169,1,null,"""",image-keyboard-response,226,423981,0.0-226.0,"""",jspsych/scrambledNeutralFaces/scrambledBF18NES.JPG,"""",256,forwardMask,Test,null,250,"""",n,"""","""","""","""","""","""",1,4/26/2021 18:59,107.210.23.140,Mozilla/5.0 (Windows NT 10.0; Win64; x64; rv:88.0) Gecko/20100101 Firefox/88.0,,Firefox,88,Windows,10
169,1,null,"""",image-keyboard-response,227,424015,0.0-227.0,"""",jspsych/neutralFaces/BF18NES.JPG,"""",256,Cue,Test,null,16,"""","""","""","""","""","""","""","""",1,4/26/2021 18:59,107.210.23.140,Mozilla/5.0 (Windows NT 10.0; Win64; x64; rv:88.0) Gecko/20100101 Firefox/88.0,,Firefox,88,Windows,10
169,1,null,"""",image-keyboard-response,228,424124,0.0-228.0,"""",jspsych/neutralFaces/AF10NES.JPG,"""",256,backwardMask,Test,null,100,"""","""","""","""","""","""","""","""",1,4/26/2021 18:59,107.210.23.140,Mozilla/5.0 (Windows NT 10.0; Win64; x64; rv:88.0) Gecko/20100101 Firefox/88.0,,Firefox,88,Windows,10
169,1,null,"""",html-keyboard-response,229,425125,0.0-229.0,"""","<div style=""font-size:60px;"">+</div>","""",256,fixationBtwnNeutralMaskAndPrompt,Test,null,1000,"""","""","""","""","""","""","""","""",1,4/26/2021 18:59,107.210.23.140,Mozilla/5.0 (Windows NT 10.0; Win64; x64; rv:88.0) Gecko/20100101 Firefox/88.0,,Firefox,88,Windows,10
169,1,2858,"""",html-button-response,230,427983,0.0-230.0,"""","<img src='jspsych/CFDfaces/CFD-WF-016-015-N.jpg' height=""250px"">,</br><b>Elizabeth</b>",0,256,IntactOrRearranged,Test,"""","""","""","""",CFD-BF-025-002-N.jpg,Jenna,1,"""","""",0,1,4/26/2021 18:59,107.210.23.140,Mozilla/5.0 (Windows NT 10.0; Win64; x64; rv:88.0) Gecko/20100101 Firefox/88.0,,Firefox,88,Windows,10
169,1,1244,"""",html-slider-response,231,429230,0.0-231.0,"""","<img src='jspsych/CFDfaces/CFD-WF-016-015-N.jpg' height=""250px"">,</br><b>Elizabeth</b>","""",256,ConfidenceQuery,Test,"""","""","""","""",CFD-BF-025-002-N.jpg,Jenna,1,0,68,"""",1,4/26/2021 18:59,107.210.23.140,Mozilla/5.0 (Windows NT 10.0; Win64; x64; rv:88.0) Gecko/20100101 Firefox/88.0,,Firefox,88,Windows,10
169,1,null,"""",html-keyboard-response,232,430245,0.0-232.0,"""","<div style=""font-size:60px;"">+</div>","""",256,ITI,Test,null,1000,"""","""","""","""","""","""","""","""",1,4/26/2021 18:59,107.210.23.140,Mozilla/5.0 (Windows NT 10.0; Win64; x64; rv:88.0) Gecko/20100101 Firefox/88.0,,Firefox,88,Windows,10
169,1,null,"""",image-keyboard-response,233,430515,0.0-233.0,"""",jspsych/scrambledDisgustFaces/scrambledBF30DIS.JPG,"""",256,forwardMask,Test,null,250,"""",d,"""","""","""","""","""","""",1,4/26/2021 18:59,107.210.23.140,Mozilla/5.0 (Windows NT 10.0; Win64; x64; rv:88.0) Gecko/20100101 Firefox/88.0,,Firefox,88,Windows,10
169,1,null,"""",image-keyboard-response,234,430546,0.0-234.0,"""",jspsych/disgustFaces/BF30DIS.JPG,"""",256,Cue,Test,null,16,"""","""","""","""","""","""","""","""",1,4/26/2021 18:59,107.210.23.140,Mozilla/5.0 (Windows NT 10.0; Win64; x64; rv:88.0) Gecko/20100101 Firefox/88.0,,Firefox,88,Windows,10
169,1,null,"""",image-keyboard-response,235,430650,0.0-235.0,"""",jspsych/neutralFaces/AF17NES.JPG,"""",256,backwardMask,Test,null,100,"""","""","""","""","""","""","""","""",1,4/26/2021 18:59,107.210.23.140,Mozilla/5.0 (Windows NT 10.0; Win64; x64; rv:88.0) Gecko/20100101 Firefox/88.0,,Firefox,88,Windows,10
169,1,null,"""",html-keyboard-response,236,431661,0.0-236.0,"""","<div style=""font-size:60px;"">+</div>","""",256,fixationBtwnNeutralMaskAndPrompt,Test,null,1000,"""","""","""","""","""","""","""","""",1,4/26/2021 18:59,107.210.23.140,Mozilla/5.0 (Windows NT 10.0; Win64; x64; rv:88.0) Gecko/20100101 Firefox/88.0,,Firefox,88,Windows,10
169,1,3398,"""",html-button-response,237,435060,0.0-237.0,"""","<img src='jspsych/CFDfaces/CFD-BM-203-001-N.jpg' height=""250px"">,</br><b>Nicholas</b>",0,256,IntactOrRearranged,Test,"""","""","""","""",CFD-LF-243-175-N.jpg,Heather,0,"""","""",0,1,4/26/2021 18:59,107.210.23.140,Mozilla/5.0 (Windows NT 10.0; Win64; x64; rv:88.0) Gecko/20100101 Firefox/88.0,,Firefox,88,Windows,10
169,1,1687,"""",html-slider-response,238,436752,0.0-238.0,"""","<img src='jspsych/CFDfaces/CFD-BM-203-001-N.jpg' height=""250px"">,</br><b>Nicholas</b>","""",256,ConfidenceQuery,Test,"""","""","""","""",CFD-LF-243-175-N.jpg,Heather,0,0,44,"""",1,4/26/2021 18:59,107.210.23.140,Mozilla/5.0 (Windows NT 10.0; Win64; x64; rv:88.0) Gecko/20100101 Firefox/88.0,,Firefox,88,Windows,10
169,1,null,"""",html-keyboard-response,239,437758,0.0-239.0,"""","<div style=""font-size:60px;"">+</div>","""",256,ITI,Test,null,1000,"""","""","""","""","""","""","""","""",1,4/26/2021 18:59,107.210.23.140,Mozilla/5.0 (Windows NT 10.0; Win64; x64; rv:88.0) Gecko/20100101 Firefox/88.0,,Firefox,88,Windows,10
169,1,null,"""",image-keyboard-response,240,438011,0.0-240.0,"""",jspsych/scrambledDisgustFaces/scrambledAM10DIS.JPG,"""",256,forwardMask,Test,null,250,"""",d,"""","""","""","""","""","""",1,4/26/2021 18:59,107.210.23.140,Mozilla/5.0 (Windows NT 10.0; Win64; x64; rv:88.0) Gecko/20100101 Firefox/88.0,,Firefox,88,Windows,10
169,1,null,"""",image-keyboard-response,241,438042,0.0-241.0,"""",jspsych/disgustFaces/AM10DIS.JPG,"""",256,Cue,Test,null,16,"""","""","""","""","""","""","""","""",1,4/26/2021 18:59,107.210.23.140,Mozilla/5.0 (Windows NT 10.0; Win64; x64; rv:88.0) Gecko/20100101 Firefox/88.0,,Firefox,88,Windows,10
169,1,null,"""",image-keyboard-response,242,438145,0.0-242.0,"""",jspsych/neutralFaces/AM18NES.JPG,"""",256,backwardMask,Test,null,100,"""","""","""","""","""","""","""","""",1,4/26/2021 18:59,107.210.23.140,Mozilla/5.0 (Windows NT 10.0; Win64; x64; rv:88.0) Gecko/20100101 Firefox/88.0,,Firefox,88,Windows,10
169,1,null,"""",html-keyboard-response,243,439155,0.0-243.0,"""","<div style=""font-size:60px;"">+</div>","""",256,fixationBtwnNeutralMaskAndPrompt,Test,null,1000,"""","""","""","""","""","""","""","""",1,4/26/2021 18:59,107.210.23.140,Mozilla/5.0 (Windows NT 10.0; Win64; x64; rv:88.0) Gecko/20100101 Firefox/88.0,,Firefox,88,Windows,10
169,1,4362,"""",html-button-response,244,443518,0.0-244.0,"""","<img src='jspsych/CFDfaces/CFD-BF-019-001-N.jpg' height=""250px"">,</br><b>Ashley</b>",1,256,IntactOrRearranged,Test,"""","""","""","""",CFD-LF-244-096-N.jpg,Rebecca,1,"""","""",1,1,4/26/2021 18:59,107.210.23.140,Mozilla/5.0 (Windows NT 10.0; Win64; x64; rv:88.0) Gecko/20100101 Firefox/88.0,,Firefox,88,Windows,10
169,1,1588,"""",html-slider-response,245,445112,0.0-245.0,"""","<img src='jspsych/CFDfaces/CFD-BF-019-001-N.jpg' height=""250px"">,</br><b>Ashley</b>","""",256,ConfidenceQuery,Test,"""","""","""","""",CFD-LF-244-096-N.jpg,Rebecca,1,0,89,"""",1,4/26/2021 18:59,107.210.23.140,Mozilla/5.0 (Windows NT 10.0; Win64; x64; rv:88.0) Gecko/20100101 Firefox/88.0,,Firefox,88,Windows,10
169,1,null,"""",html-keyboard-response,246,446115,0.0-246.0,"""","<div style=""font-size:60px;"">+</div>","""",256,ITI,Test,null,1000,"""","""","""","""","""","""","""","""",1,4/26/2021 18:59,107.210.23.140,Mozilla/5.0 (Windows NT 10.0; Win64; x64; rv:88.0) Gecko/20100101 Firefox/88.0,,Firefox,88,Windows,10
169,1,null,"""",image-keyboard-response,247,446379,0.0-247.0,"""",jspsych/scrambledNeutralFaces/scrambledAM15NES.JPG,"""",256,forwardMask,Test,null,250,"""",n,"""","""","""","""","""","""",1,4/26/2021 18:59,107.210.23.140,Mozilla/5.0 (Windows NT 10.0; Win64; x64; rv:88.0) Gecko/20100101 Firefox/88.0,,Firefox,88,Windows,10
169,1,null,"""",image-keyboard-response,248,446405,0.0-248.0,"""",jspsych/neutralFaces/AM15NES.JPG,"""",256,Cue,Test,null,16,"""","""","""","""","""","""","""","""",1,4/26/2021 18:59,107.210.23.140,Mozilla/5.0 (Windows NT 10.0; Win64; x64; rv:88.0) Gecko/20100101 Firefox/88.0,,Firefox,88,Windows,10
169,1,null,"""",image-keyboard-response,249,446509,0.0-249.0,"""",jspsych/neutralFaces/BM23NES.JPG,"""",256,backwardMask,Test,null,100,"""","""","""","""","""","""","""","""",1,4/26/2021 18:59,107.210.23.140,Mozilla/5.0 (Windows NT 10.0; Win64; x64; rv:88.0) Gecko/20100101 Firefox/88.0,,Firefox,88,Windows,10
169,1,null,"""",html-keyboard-response,250,447520,0.0-250.0,"""","<div style=""font-size:60px;"">+</div>","""",256,fixationBtwnNeutralMaskAndPrompt,Test,null,1000,"""","""","""","""","""","""","""","""",1,4/26/2021 18:59,107.210.23.140,Mozilla/5.0 (Windows NT 10.0; Win64; x64; rv:88.0) Gecko/20100101 Firefox/88.0,,Firefox,88,Windows,10
169,1,2169,"""",html-button-response,251,449692,0.0-251.0,"""","<img src='jspsych/CFDfaces/CFD-BF-221-223-N.jpg' height=""250px"">,</br><b>Samantha</b>",0,256,IntactOrRearranged,Test,"""","""","""","""",CFD-LF-200-058-N.jpg,Laura,0,"""","""",0,1,4/26/2021 18:59,107.210.23.140,Mozilla/5.0 (Windows NT 10.0; Win64; x64; rv:88.0) Gecko/20100101 Firefox/88.0,,Firefox,88,Windows,10
169,1,1356,"""",html-slider-response,252,451051,0.0-252.0,"""","<img src='jspsych/CFDfaces/CFD-BF-221-223-N.jpg' height=""250px"">,</br><b>Samantha</b>","""",256,ConfidenceQuery,Test,"""","""","""","""",CFD-LF-200-058-N.jpg,Laura,0,0,100,"""",1,4/26/2021 18:59,107.210.23.140,Mozilla/5.0 (Windows NT 10.0; Win64; x64; rv:88.0) Gecko/20100101 Firefox/88.0,,Firefox,88,Windows,10
169,1,null,"""",html-keyboard-response,253,452062,0.0-253.0,"""","<div style=""font-size:60px;"">+</div>","""",256,ITI,Test,null,1000,"""","""","""","""","""","""","""","""",1,4/26/2021 18:59,107.210.23.140,Mozilla/5.0 (Windows NT 10.0; Win64; x64; rv:88.0) Gecko/20100101 Firefox/88.0,,Firefox,88,Windows,10
169,1,null,"""",image-keyboard-response,254,452320,0.0-254.0,"""",jspsych/scrambledNeutralFaces/scrambledBM30NES.JPG,"""",256,forwardMask,Test,null,250,"""",n,"""","""","""","""","""","""",1,4/26/2021 18:59,107.210.23.140,Mozilla/5.0 (Windows NT 10.0; Win64; x64; rv:88.0) Gecko/20100101 Firefox/88.0,,Firefox,88,Windows,10
169,1,null,"""",image-keyboard-response,255,452350,0.0-255.0,"""",jspsych/neutralFaces/BM30NES.JPG,"""",256,Cue,Test,null,16,"""","""","""","""","""","""","""","""",1,4/26/2021 18:59,107.210.23.140,Mozilla/5.0 (Windows NT 10.0; Win64; x64; rv:88.0) Gecko/20100101 Firefox/88.0,,Firefox,88,Windows,10
169,1,null,"""",image-keyboard-response,256,452455,0.0-256.0,"""",jspsych/neutralFaces/AM13NES.JPG,"""",256,backwardMask,Test,null,100,"""","""","""","""","""","""","""","""",1,4/26/2021 18:59,107.210.23.140,Mozilla/5.0 (Windows NT 10.0; Win64; x64; rv:88.0) Gecko/20100101 Firefox/88.0,,Firefox,88,Windows,10
169,1,null,"""",html-keyboard-response,257,453460,0.0-257.0,"""","<div style=""font-size:60px;"">+</div>","""",256,fixationBtwnNeutralMaskAndPrompt,Test,null,1000,"""","""","""","""","""","""","""","""",1,4/26/2021 18:59,107.210.23.140,Mozilla/5.0 (Windows NT 10.0; Win64; x64; rv:88.0) Gecko/20100101 Firefox/88.0,,Firefox,88,Windows,10
169,1,1167,"""",html-button-response,258,454630,0.0-258.0,"""","<img src='jspsych/CFDfaces/CFD-WF-204-038-N.jpg' height=""250px"">,</br><b>Vanessa</b>",0,256,IntactOrRearranged,Test,"""","""","""","""",CFD-LF-218-072-N.jpg,Angela,0,"""","""",0,1,4/26/2021 18:59,107.210.23.140,Mozilla/5.0 (Windows NT 10.0; Win64; x64; rv:88.0) Gecko/20100101 Firefox/88.0,,Firefox,88,Windows,10
169,1,1695,"""",html-slider-response,259,456325,0.0-259.0,"""","<img src='jspsych/CFDfaces/CFD-WF-204-038-N.jpg' height=""250px"">,</br><b>Vanessa</b>","""",256,ConfidenceQuery,Test,"""","""","""","""",CFD-LF-218-072-N.jpg,Angela,0,0,100,"""",1,4/26/2021 18:59,107.210.23.140,Mozilla/5.0 (Windows NT 10.0; Win64; x64; rv:88.0) Gecko/20100101 Firefox/88.0,,Firefox,88,Windows,10
169,1,null,"""",html-keyboard-response,260,457341,0.0-260.0,"""","<div style=""font-size:60px;"">+</div>","""",256,ITI,Test,null,1000,"""","""","""","""","""","""","""","""",1,4/26/2021 18:59,107.210.23.140,Mozilla/5.0 (Windows NT 10.0; Win64; x64; rv:88.0) Gecko/20100101 Firefox/88.0,,Firefox,88,Windows,10
169,1,null,"""",image-keyboard-response,261,457601,0.0-261.0,"""",jspsych/scrambledDisgustFaces/scrambledAM23DIS.JPG,"""",256,forwardMask,Test,null,250,"""",d,"""","""","""","""","""","""",1,4/26/2021 18:59,107.210.23.140,Mozilla/5.0 (Windows NT 10.0; Win64; x64; rv:88.0) Gecko/20100101 Firefox/88.0,,Firefox,88,Windows,10
169,1,null,"""",image-keyboard-response,262,457631,0.0-262.0,"""",jspsych/disgustFaces/AM23DIS.JPG,"""",256,Cue,Test,null,16,"""","""","""","""","""","""","""","""",1,4/26/2021 18:59,107.210.23.140,Mozilla/5.0 (Windows NT 10.0; Win64; x64; rv:88.0) Gecko/20100101 Firefox/88.0,,Firefox,88,Windows,10
169,1,null,"""",image-keyboard-response,263,457742,0.0-263.0,"""",jspsych/neutralFaces/AM35NES.JPG,"""",256,backwardMask,Test,null,100,"""","""","""","""","""","""","""","""",1,4/26/2021 18:59,107.210.23.140,Mozilla/5.0 (Windows NT 10.0; Win64; x64; rv:88.0) Gecko/20100101 Firefox/88.0,,Firefox,88,Windows,10
169,1,null,"""",html-keyboard-response,264,458754,0.0-264.0,"""","<div style=""font-size:60px;"">+</div>","""",256,fixationBtwnNeutralMaskAndPrompt,Test,null,1000,"""","""","""","""","""","""","""","""",1,4/26/2021 18:59,107.210.23.140,Mozilla/5.0 (Windows NT 10.0; Win64; x64; rv:88.0) Gecko/20100101 Firefox/88.0,,Firefox,88,Windows,10
169,1,1134,"""",html-button-response,265,459890,0.0-265.0,"""","<img src='jspsych/CFDfaces/CFD-BF-047-003-N.jpg' height=""250px"">,</br><b>Stephanie</b>",0,256,IntactOrRearranged,Test,"""","""","""","""",CFD-AM-205-153-N.jpg,Mark,0,"""","""",0,1,4/26/2021 18:59,107.210.23.140,Mozilla/5.0 (Windows NT 10.0; Win64; x64; rv:88.0) Gecko/20100101 Firefox/88.0,,Firefox,88,Windows,10
169,1,1332,"""",html-slider-response,266,461223,0.0-266.0,"""","<img src='jspsych/CFDfaces/CFD-BF-047-003-N.jpg' height=""250px"">,</br><b>Stephanie</b>","""",256,ConfidenceQuery,Test,"""","""","""","""",CFD-AM-205-153-N.jpg,Mark,0,0,100,"""",1,4/26/2021 18:59,107.210.23.140,Mozilla/5.0 (Windows NT 10.0; Win64; x64; rv:88.0) Gecko/20100101 Firefox/88.0,,Firefox,88,Windows,10
169,1,null,"""",html-keyboard-response,267,462235,0.0-267.0,"""","<div style=""font-size:60px;"">+</div>","""",256,ITI,Test,null,1000,"""","""","""","""","""","""","""","""",1,4/26/2021 18:59,107.210.23.140,Mozilla/5.0 (Windows NT 10.0; Win64; x64; rv:88.0) Gecko/20100101 Firefox/88.0,,Firefox,88,Windows,10
169,1,null,"""",image-keyboard-response,268,462495,0.0-268.0,"""",jspsych/scrambledNeutralFaces/scrambledAF10NES.JPG,"""",256,forwardMask,Test,null,250,"""",n,"""","""","""","""","""","""",1,4/26/2021 18:59,107.210.23.140,Mozilla/5.0 (Windows NT 10.0; Win64; x64; rv:88.0) Gecko/20100101 Firefox/88.0,,Firefox,88,Windows,10
169,1,null,"""",image-keyboard-response,269,462525,0.0-269.0,"""",jspsych/neutralFaces/AF10NES.JPG,"""",256,Cue,Test,null,16,"""","""","""","""","""","""","""","""",1,4/26/2021 18:59,107.210.23.140,Mozilla/5.0 (Windows NT 10.0; Win64; x64; rv:88.0) Gecko/20100101 Firefox/88.0,,Firefox,88,Windows,10
169,1,null,"""",image-keyboard-response,270,462628,0.0-270.0,"""",jspsych/neutralFaces/AF13NES.JPG,"""",256,backwardMask,Test,null,100,"""","""","""","""","""","""","""","""",1,4/26/2021 18:59,107.210.23.140,Mozilla/5.0 (Windows NT 10.0; Win64; x64; rv:88.0) Gecko/20100101 Firefox/88.0,,Firefox,88,Windows,10
169,1,null,"""",html-keyboard-response,271,463642,0.0-271.0,"""","<div style=""font-size:60px;"">+</div>","""",256,fixationBtwnNeutralMaskAndPrompt,Test,null,1000,"""","""","""","""","""","""","""","""",1,4/26/2021 18:59,107.210.23.140,Mozilla/5.0 (Windows NT 10.0; Win64; x64; rv:88.0) Gecko/20100101 Firefox/88.0,,Firefox,88,Windows,10
169,1,2451,"""",html-button-response,272,466093,0.0-272.0,"""","<img src='jspsych/CFDfaces/CFD-WF-003-003-N.jpg' height=""250px"">,</br><b>Kimberly</b>",1,256,IntactOrRearranged,Test,"""","""","""","""",CFD-BF-010-001-N.jpg,Lindsey,1,"""","""",1,1,4/26/2021 18:59,107.210.23.140,Mozilla/5.0 (Windows NT 10.0; Win64; x64; rv:88.0) Gecko/20100101 Firefox/88.0,,Firefox,88,Windows,10
169,1,1206,"""",html-slider-response,273,467301,0.0-273.0,"""","<img src='jspsych/CFDfaces/CFD-WF-003-003-N.jpg' height=""250px"">,</br><b>Kimberly</b>","""",256,ConfidenceQuery,Test,"""","""","""","""",CFD-BF-010-001-N.jpg,Lindsey,1,0,97,"""",1,4/26/2021 18:59,107.210.23.140,Mozilla/5.0 (Windows NT 10.0; Win64; x64; rv:88.0) Gecko/20100101 Firefox/88.0,,Firefox,88,Windows,10
169,1,null,"""",html-keyboard-response,274,468305,0.0-274.0,"""","<div style=""font-size:60px;"">+</div>","""",256,ITI,Test,null,1000,"""","""","""","""","""","""","""","""",1,4/26/2021 18:59,107.210.23.140,Mozilla/5.0 (Windows NT 10.0; Win64; x64; rv:88.0) Gecko/20100101 Firefox/88.0,,Firefox,88,Windows,10
169,1,null,"""",image-keyboard-response,275,468566,0.0-275.0,"""",jspsych/scrambledDisgustFaces/scrambledBF14DIS.JPG,"""",256,forwardMask,Test,null,250,"""",d,"""","""","""","""","""","""",1,4/26/2021 18:59,107.210.23.140,Mozilla/5.0 (Windows NT 10.0; Win64; x64; rv:88.0) Gecko/20100101 Firefox/88.0,,Firefox,88,Windows,10
169,1,null,"""",image-keyboard-response,276,468596,0.0-276.0,"""",jspsych/disgustFaces/BF14DIS.JPG,"""",256,Cue,Test,null,16,"""","""","""","""","""","""","""","""",1,4/26/2021 18:59,107.210.23.140,Mozilla/5.0 (Windows NT 10.0; Win64; x64; rv:88.0) Gecko/20100101 Firefox/88.0,,Firefox,88,Windows,10
169,1,null,"""",image-keyboard-response,277,468701,0.0-277.0,"""",jspsych/neutralFaces/BF13NES.JPG,"""",256,backwardMask,Test,null,100,"""","""","""","""","""","""","""","""",1,4/26/2021 18:59,107.210.23.140,Mozilla/5.0 (Windows NT 10.0; Win64; x64; rv:88.0) Gecko/20100101 Firefox/88.0,,Firefox,88,Windows,10
169,1,null,"""",html-keyboard-response,278,469715,0.0-278.0,"""","<div style=""font-size:60px;"">+</div>","""",256,fixationBtwnNeutralMaskAndPrompt,Test,null,1000,"""","""","""","""","""","""","""","""",1,4/26/2021 18:59,107.210.23.140,Mozilla/5.0 (Windows NT 10.0; Win64; x64; rv:88.0) Gecko/20100101 Firefox/88.0,,Firefox,88,Windows,10
169,1,4646,"""",html-button-response,279,474361,0.0-279.0,"""","<img src='jspsych/CFDfaces/CFD-AM-237-154-N.jpg' height=""250px"">,</br><b>Joshua</b>",0,256,IntactOrRearranged,Test,"""","""","""","""",CFD-LF-206-078-N.jpg,Erin,1,"""","""",0,1,4/26/2021 18:59,107.210.23.140,Mozilla/5.0 (Windows NT 10.0; Win64; x64; rv:88.0) Gecko/20100101 Firefox/88.0,,Firefox,88,Windows,10
169,1,1577,"""",html-slider-response,280,475946,0.0-280.0,"""","<img src='jspsych/CFDfaces/CFD-AM-237-154-N.jpg' height=""250px"">,</br><b>Joshua</b>","""",256,ConfidenceQuery,Test,"""","""","""","""",CFD-LF-206-078-N.jpg,Erin,1,0,24,"""",1,4/26/2021 18:59,107.210.23.140,Mozilla/5.0 (Windows NT 10.0; Win64; x64; rv:88.0) Gecko/20100101 Firefox/88.0,,Firefox,88,Windows,10
169,1,null,"""",html-keyboard-response,281,476955,0.0-281.0,"""","<div style=""font-size:60px;"">+</div>","""",256,ITI,Test,null,1000,"""","""","""","""","""","""","""","""",1,4/26/2021 18:59,107.210.23.140,Mozilla/5.0 (Windows NT 10.0; Win64; x64; rv:88.0) Gecko/20100101 Firefox/88.0,,Firefox,88,Windows,10
169,1,null,"""",image-keyboard-response,282,477214,0.0-282.0,"""",jspsych/scrambledDisgustFaces/scrambledBM33DIS.JPG,"""",256,forwardMask,Test,null,250,"""",d,"""","""","""","""","""","""",1,4/26/2021 18:59,107.210.23.140,Mozilla/5.0 (Windows NT 10.0; Win64; x64; rv:88.0) Gecko/20100101 Firefox/88.0,,Firefox,88,Windows,10
169,1,null,"""",image-keyboard-response,283,477245,0.0-283.0,"""",jspsych/disgustFaces/BM34DIS.JPG,"""",256,Cue,Test,null,16,"""","""","""","""","""","""","""","""",1,4/26/2021 18:59,107.210.23.140,Mozilla/5.0 (Windows NT 10.0; Win64; x64; rv:88.0) Gecko/20100101 Firefox/88.0,,Firefox,88,Windows,10
169,1,null,"""",image-keyboard-response,284,477354,0.0-284.0,"""",jspsych/neutralFaces/BM05NES.JPG,"""",256,backwardMask,Test,null,100,"""","""","""","""","""","""","""","""",1,4/26/2021 18:59,107.210.23.140,Mozilla/5.0 (Windows NT 10.0; Win64; x64; rv:88.0) Gecko/20100101 Firefox/88.0,,Firefox,88,Windows,10
169,1,null,"""",html-keyboard-response,285,478365,0.0-285.0,"""","<div style=""font-size:60px;"">+</div>","""",256,fixationBtwnNeutralMaskAndPrompt,Test,null,1000,"""","""","""","""","""","""","""","""",1,4/26/2021 18:59,107.210.23.140,Mozilla/5.0 (Windows NT 10.0; Win64; x64; rv:88.0) Gecko/20100101 Firefox/88.0,,Firefox,88,Windows,10
169,1,1807,"""",html-button-response,286,480173,0.0-286.0,"""","<img src='jspsych/CFDfaces/CFD-LM-225-130-N.jpg' height=""250px"">,</br><b>Jason</b>",0,256,IntactOrRearranged,Test,"""","""","""","""",CFD-WF-215-145-N.jpg,Tiffany,0,"""","""",0,1,4/26/2021 18:59,107.210.23.140,Mozilla/5.0 (Windows NT 10.0; Win64; x64; rv:88.0) Gecko/20100101 Firefox/88.0,,Firefox,88,Windows,10
169,1,1144,"""",html-slider-response,287,481319,0.0-287.0,"""","<img src='jspsych/CFDfaces/CFD-LM-225-130-N.jpg' height=""250px"">,</br><b>Jason</b>","""",256,ConfidenceQuery,Test,"""","""","""","""",CFD-WF-215-145-N.jpg,Tiffany,0,0,100,"""",1,4/26/2021 18:59,107.210.23.140,Mozilla/5.0 (Windows NT 10.0; Win64; x64; rv:88.0) Gecko/20100101 Firefox/88.0,,Firefox,88,Windows,10
169,1,null,"""",html-keyboard-response,288,482335,0.0-288.0,"""","<div style=""font-size:60px;"">+</div>","""",256,ITI,Test,null,1000,"""","""","""","""","""","""","""","""",1,4/26/2021 18:59,107.210.23.140,Mozilla/5.0 (Windows NT 10.0; Win64; x64; rv:88.0) Gecko/20100101 Firefox/88.0,,Firefox,88,Windows,10
169,1,null,"""",image-keyboard-response,289,482595,0.0-289.0,"""",jspsych/scrambledDisgustFaces/scrambledAM02DIS.JPG,"""",256,forwardMask,Test,null,250,"""",d,"""","""","""","""","""","""",1,4/26/2021 18:59,107.210.23.140,Mozilla/5.0 (Windows NT 10.0; Win64; x64; rv:88.0) Gecko/20100101 Firefox/88.0,,Firefox,88,Windows,10
169,1,null,"""",image-keyboard-response,290,482625,0.0-290.0,"""",jspsych/disgustFaces/AM02DIS.JPG,"""",256,Cue,Test,null,16,"""","""","""","""","""","""","""","""",1,4/26/2021 18:59,107.210.23.140,Mozilla/5.0 (Windows NT 10.0; Win64; x64; rv:88.0) Gecko/20100101 Firefox/88.0,,Firefox,88,Windows,10
169,1,null,"""",image-keyboard-response,291,482730,0.0-291.0,"""",jspsych/neutralFaces/AM13NES.JPG,"""",256,backwardMask,Test,null,100,"""","""","""","""","""","""","""","""",1,4/26/2021 18:59,107.210.23.140,Mozilla/5.0 (Windows NT 10.0; Win64; x64; rv:88.0) Gecko/20100101 Firefox/88.0,,Firefox,88,Windows,10
169,1,null,"""",html-keyboard-response,292,483744,0.0-292.0,"""","<div style=""font-size:60px;"">+</div>","""",256,fixationBtwnNeutralMaskAndPrompt,Test,null,1000,"""","""","""","""","""","""","""","""",1,4/26/2021 18:59,107.210.23.140,Mozilla/5.0 (Windows NT 10.0; Win64; x64; rv:88.0) Gecko/20100101 Firefox/88.0,,Firefox,88,Windows,10
169,1,3579,"""",html-button-response,293,487326,0.0-293.0,"""","<img src='jspsych/CFDfaces/CFD-BM-027-001-N.jpg' height=""250px"">,</br><b>Robert</b>",0,256,IntactOrRearranged,Test,"""","""","""","""",CFD-LM-246-087-N.jpg,Kenneth,0,"""","""",0,1,4/26/2021 18:59,107.210.23.140,Mozilla/5.0 (Windows NT 10.0; Win64; x64; rv:88.0) Gecko/20100101 Firefox/88.0,,Firefox,88,Windows,10
169,1,1458,"""",html-slider-response,294,488791,0.0-294.0,"""","<img src='jspsych/CFDfaces/CFD-BM-027-001-N.jpg' height=""250px"">,</br><b>Robert</b>","""",256,ConfidenceQuery,Test,"""","""","""","""",CFD-LM-246-087-N.jpg,Kenneth,0,0,100,"""",1,4/26/2021 18:59,107.210.23.140,Mozilla/5.0 (Windows NT 10.0; Win64; x64; rv:88.0) Gecko/20100101 Firefox/88.0,,Firefox,88,Windows,10
