run_id,condition,rt,responses,trial_type,trial_index,time_elapsed,internal_node_id,question_order,stimulus,button_pressed,iTrial,Phase,ExperimentPhase,key_press,StimulusDurationSetting,CharacterResponse,correctResponse,Face,Name,rearranged,slider_start,response,didSubjectEnterRearranged,Block,recorded_at,ip,user_agent,device,browser,browser_version,platform,platform_version
142,1,4212,"{""Q0"":""A2NJ68SAK3AN1Q""}",survey-text,0,4216,0.0-0.0,"""","""","""","""","""","""","""","""","""","""","""","""","""","""","""","""","""",4/25/2021 18:17,98.42.46.186,Mozilla/5.0 (Macintosh; Intel Mac OS X 10.15; rv:88.0) Gecko/20100101 Firefox/88.0,Macintosh,Firefox,88,OS X,10.15
142,1,4291,"{""Q0"":""57""}",survey-text,1,8517,0.0-1.0,"""","""","""","""","""","""","""","""","""","""","""","""","""","""","""","""","""",4/25/2021 18:17,98.42.46.186,Mozilla/5.0 (Macintosh; Intel Mac OS X 10.15; rv:88.0) Gecko/20100101 Firefox/88.0,Macintosh,Firefox,88,OS X,10.15
142,1,5008,"{""Q0"":""female"",""Q1"":""Not Hispanic/Latino"",""Q2"":""Asian""}",survey-multi-choice,2,13533,0.0-2.0,"[0,1,2]","""","""","""","""","""","""","""","""","""","""","""","""","""","""","""","""",4/25/2021 18:17,98.42.46.186,Mozilla/5.0 (Macintosh; Intel Mac OS X 10.15; rv:88.0) Gecko/20100101 Firefox/88.0,Macintosh,Firefox,88,OS X,10.15
142,1,2143,"""",image-button-response,3,15693,0.0-3.0,"""",directionsMemoryAssociation1.JPG,0,1,IntroDirections1,break,"""","""","""","""","""","""","""","""","""","""","""",4/25/2021 18:17,98.42.46.186,Mozilla/5.0 (Macintosh; Intel Mac OS X 10.15; rv:88.0) Gecko/20100101 Firefox/88.0,Macintosh,Firefox,88,OS X,10.15
142,1,2859,"""",image-button-response,4,18561,0.0-4.0,"""",directionsMemoryAssociation2.JPG,0,1,IntroDirections2,break,"""","""","""","""","""","""","""","""","""","""","""",4/25/2021 18:17,98.42.46.186,Mozilla/5.0 (Macintosh; Intel Mac OS X 10.15; rv:88.0) Gecko/20100101 Firefox/88.0,Macintosh,Firefox,88,OS X,10.15
142,1,null,"""",html-keyboard-response,5,23567,0.0-5.0,"""","<img src='jspsych/CFDfaces/CFD-AF-228-173-N.jpg' height=""250px"">,</br><b>Tara</b>","""",1,IntactFace,Practice,null,5000,"""","""","""","""","""","""","""","""","""",4/25/2021 18:17,98.42.46.186,Mozilla/5.0 (Macintosh; Intel Mac OS X 10.15; rv:88.0) Gecko/20100101 Firefox/88.0,Macintosh,Firefox,88,OS X,10.15
142,1,null,"""",html-keyboard-response,6,24076,0.0-6.0,"""","<div style=""font-size:60px;"">+</div>","""",1,ITI,Practice,null,1000,"""","""","""","""","""","""","""","""","""",4/25/2021 18:17,98.42.46.186,Mozilla/5.0 (Macintosh; Intel Mac OS X 10.15; rv:88.0) Gecko/20100101 Firefox/88.0,Macintosh,Firefox,88,OS X,10.15
142,1,4106,"""",html-keyboard-response,7,29082,0.0-7.0,"""","<img src='jspsych/CFDfaces/CFD-LF-218-072-N.jpg' height=""250px"">,</br><b>Shannon</b>","""",2,IntactFace,Practice,78,5000,n,"""","""","""","""","""","""","""","""",4/25/2021 18:17,98.42.46.186,Mozilla/5.0 (Macintosh; Intel Mac OS X 10.15; rv:88.0) Gecko/20100101 Firefox/88.0,Macintosh,Firefox,88,OS X,10.15
142,1,null,"""",html-keyboard-response,8,29590,0.0-8.0,"""","<div style=""font-size:60px;"">+</div>","""",2,ITI,Practice,null,1000,"""","""","""","""","""","""","""","""","""",4/25/2021 18:17,98.42.46.186,Mozilla/5.0 (Macintosh; Intel Mac OS X 10.15; rv:88.0) Gecko/20100101 Firefox/88.0,Macintosh,Firefox,88,OS X,10.15
142,1,3716,"""",html-keyboard-response,9,34600,0.0-9.0,"""","<img src='jspsych/CFDfaces/CFD-BF-021-013-N.jpg' height=""250px"">,</br><b>Katelyn</b>","""",3,IntactFace,Practice,78,5000,n,"""","""","""","""","""","""","""","""",4/25/2021 18:17,98.42.46.186,Mozilla/5.0 (Macintosh; Intel Mac OS X 10.15; rv:88.0) Gecko/20100101 Firefox/88.0,Macintosh,Firefox,88,OS X,10.15
142,1,null,"""",html-keyboard-response,10,35106,0.0-10.0,"""","<div style=""font-size:60px;"">+</div>","""",3,ITI,Practice,null,1000,"""","""","""","""","""","""","""","""","""",4/25/2021 18:17,98.42.46.186,Mozilla/5.0 (Macintosh; Intel Mac OS X 10.15; rv:88.0) Gecko/20100101 Firefox/88.0,Macintosh,Firefox,88,OS X,10.15
142,1,1832,"""",html-keyboard-response,11,40115,0.0-11.0,"""","<img src='jspsych/CFDfaces/CFD-AF-230-193-N.jpg' height=""250px"">,</br><b>Cassandra</b>","""",4,IntactFace,Practice,78,5000,n,"""","""","""","""","""","""","""","""",4/25/2021 18:17,98.42.46.186,Mozilla/5.0 (Macintosh; Intel Mac OS X 10.15; rv:88.0) Gecko/20100101 Firefox/88.0,Macintosh,Firefox,88,OS X,10.15
142,1,null,"""",html-keyboard-response,12,40623,0.0-12.0,"""","<div style=""font-size:60px;"">+</div>","""",4,ITI,Practice,null,1000,"""","""","""","""","""","""","""","""","""",4/25/2021 18:17,98.42.46.186,Mozilla/5.0 (Macintosh; Intel Mac OS X 10.15; rv:88.0) Gecko/20100101 Firefox/88.0,Macintosh,Firefox,88,OS X,10.15
142,1,4747,"""",html-keyboard-response,13,45629,0.0-13.0,"""","<img src='jspsych/CFDfaces/CFD-WM-020-001-N.jpg' height=""250px"">,</br><b>Samuel</b>","""",5,IntactFace,Practice,70,5000,f,"""","""","""","""","""","""","""","""",4/25/2021 18:17,98.42.46.186,Mozilla/5.0 (Macintosh; Intel Mac OS X 10.15; rv:88.0) Gecko/20100101 Firefox/88.0,Macintosh,Firefox,88,OS X,10.15
142,1,null,"""",html-keyboard-response,14,46136,0.0-14.0,"""","<div style=""font-size:60px;"">+</div>","""",5,ITI,Practice,null,1000,"""","""","""","""","""","""","""","""","""",4/25/2021 18:17,98.42.46.186,Mozilla/5.0 (Macintosh; Intel Mac OS X 10.15; rv:88.0) Gecko/20100101 Firefox/88.0,Macintosh,Firefox,88,OS X,10.15
142,1,3444,"""",html-keyboard-response,15,51143,0.0-15.0,"""","<img src='jspsych/CFDfaces/CFD-WM-015-002-N.jpg' height=""250px"">,</br><b>Marcus</b>","""",6,IntactFace,Practice,70,5000,f,"""","""","""","""","""","""","""","""",4/25/2021 18:17,98.42.46.186,Mozilla/5.0 (Macintosh; Intel Mac OS X 10.15; rv:88.0) Gecko/20100101 Firefox/88.0,Macintosh,Firefox,88,OS X,10.15
142,1,null,"""",html-keyboard-response,16,51649,0.0-16.0,"""","<div style=""font-size:60px;"">+</div>","""",6,ITI,Practice,null,1000,"""","""","""","""","""","""","""","""","""",4/25/2021 18:17,98.42.46.186,Mozilla/5.0 (Macintosh; Intel Mac OS X 10.15; rv:88.0) Gecko/20100101 Firefox/88.0,Macintosh,Firefox,88,OS X,10.15
142,1,2308,"""",html-keyboard-response,17,56652,0.0-17.0,"""","<img src='jspsych/CFDfaces/CFD-WM-022-001-N.jpg' height=""250px"">,</br><b>Carlos</b>","""",7,IntactFace,Practice,70,5000,f,"""","""","""","""","""","""","""","""",4/25/2021 18:17,98.42.46.186,Mozilla/5.0 (Macintosh; Intel Mac OS X 10.15; rv:88.0) Gecko/20100101 Firefox/88.0,Macintosh,Firefox,88,OS X,10.15
142,1,null,"""",html-keyboard-response,18,57164,0.0-18.0,"""","<div style=""font-size:60px;"">+</div>","""",7,ITI,Practice,null,1000,"""","""","""","""","""","""","""","""","""",4/25/2021 18:17,98.42.46.186,Mozilla/5.0 (Macintosh; Intel Mac OS X 10.15; rv:88.0) Gecko/20100101 Firefox/88.0,Macintosh,Firefox,88,OS X,10.15
142,1,2725,"""",html-keyboard-response,19,62167,0.0-19.0,"""","<img src='jspsych/CFDfaces/CFD-WM-019-003-N.jpg' height=""250px"">,</br><b>Patrick</b>","""",8,IntactFace,Practice,70,5000,f,"""","""","""","""","""","""","""","""",4/25/2021 18:17,98.42.46.186,Mozilla/5.0 (Macintosh; Intel Mac OS X 10.15; rv:88.0) Gecko/20100101 Firefox/88.0,Macintosh,Firefox,88,OS X,10.15
142,1,null,"""",html-keyboard-response,20,62672,0.0-20.0,"""","<div style=""font-size:60px;"">+</div>","""",8,ITI,Practice,null,1000,"""","""","""","""","""","""","""","""","""",4/25/2021 18:17,98.42.46.186,Mozilla/5.0 (Macintosh; Intel Mac OS X 10.15; rv:88.0) Gecko/20100101 Firefox/88.0,Macintosh,Firefox,88,OS X,10.15
142,1,15896,"""",image-button-response,21,78579,0.0-21.0,"""",directionsForTest.JPG,0,1,directionsForTest,break,"""","""","""","""","""","""","""","""","""","""","""",4/25/2021 18:17,98.42.46.186,Mozilla/5.0 (Macintosh; Intel Mac OS X 10.15; rv:88.0) Gecko/20100101 Firefox/88.0,Macintosh,Firefox,88,OS X,10.15
142,1,16703,"""",image-button-response,22,95300,0.0-22.0,"""",directionsForTest2.JPG,0,1,directionsForTest2,break,"""","""","""","""","""","""","""","""","""","""","""",4/25/2021 18:17,98.42.46.186,Mozilla/5.0 (Macintosh; Intel Mac OS X 10.15; rv:88.0) Gecko/20100101 Firefox/88.0,Macintosh,Firefox,88,OS X,10.15
142,1,null,"""",html-keyboard-response,23,96305,0.0-23.0,"""","<div style=""font-size:60px;"">+</div>","""",1,ITI,Practice,null,1000,"""","""","""","""","""","""","""","""","""",4/25/2021 18:17,98.42.46.186,Mozilla/5.0 (Macintosh; Intel Mac OS X 10.15; rv:88.0) Gecko/20100101 Firefox/88.0,Macintosh,Firefox,88,OS X,10.15
142,1,null,"""",image-keyboard-response,24,96566,0.0-24.0,"""",jspsych/scrambledNeutralFaces/scrambledAM04NES.JPG,"""",1,forwardMask,Practice,null,250,"""",n,"""","""","""","""","""","""","""",4/25/2021 18:17,98.42.46.186,Mozilla/5.0 (Macintosh; Intel Mac OS X 10.15; rv:88.0) Gecko/20100101 Firefox/88.0,Macintosh,Firefox,88,OS X,10.15
142,1,null,"""",image-keyboard-response,25,96590,0.0-25.0,"""",jspsych/neutralFaces/AM04NES.JPG,"""",1,Cue,Practice,null,16,"""","""","""","""","""","""","""","""","""",4/25/2021 18:17,98.42.46.186,Mozilla/5.0 (Macintosh; Intel Mac OS X 10.15; rv:88.0) Gecko/20100101 Firefox/88.0,Macintosh,Firefox,88,OS X,10.15
142,1,null,"""",image-keyboard-response,26,96695,0.0-26.0,"""",jspsych/neutralFaces/BM11NES.JPG,"""",1,backwardMask,Practice,null,100,"""","""","""","""","""","""","""","""","""",4/25/2021 18:17,98.42.46.186,Mozilla/5.0 (Macintosh; Intel Mac OS X 10.15; rv:88.0) Gecko/20100101 Firefox/88.0,Macintosh,Firefox,88,OS X,10.15
142,1,null,"""",html-keyboard-response,27,97703,0.0-27.0,"""","<div style=""font-size:60px;"">+</div>","""",1,fixationBtwnNeutralMaskAndPrompt,Practice,null,1000,"""","""","""","""","""","""","""","""","""",4/25/2021 18:17,98.42.46.186,Mozilla/5.0 (Macintosh; Intel Mac OS X 10.15; rv:88.0) Gecko/20100101 Firefox/88.0,Macintosh,Firefox,88,OS X,10.15
142,1,null,"""",html-button-response,28,102707,0.0-28.0,"""","<img src='jspsych/CFDfaces/CFD-WM-015-002-N.jpg'height=""250px""></br><b>Carlos</b>",null,1,IntactOrRearranged,Practice,"""","""","""","""",CFD-WM-015-002-N.jpg,Carlos,1,"""","""","""","""",4/25/2021 18:17,98.42.46.186,Mozilla/5.0 (Macintosh; Intel Mac OS X 10.15; rv:88.0) Gecko/20100101 Firefox/88.0,Macintosh,Firefox,88,OS X,10.15
142,1,null,"""",html-slider-response,29,107716,0.0-29.0,"""","<img src='jspsych/CFDfaces/CFD-WM-015-002-N.jpg'height=""250px""></br><b>Carlos</b>","""",1,ConfidenceQuery,Practice,"""","""","""","""",CFD-BM-011-016-N.jpg,Kenneth,1,0,null,"""","""",4/25/2021 18:17,98.42.46.186,Mozilla/5.0 (Macintosh; Intel Mac OS X 10.15; rv:88.0) Gecko/20100101 Firefox/88.0,Macintosh,Firefox,88,OS X,10.15
142,1,2475,"""",html-button-response,30,110193,0.0-30.0,"""",<p>Please click either button: REARRANGED or INTACT before the 5-second time limit.</p>,0,1,feedback,Practice,"""","""","""","""","""","""","""","""","""","""","""",4/25/2021 18:17,98.42.46.186,Mozilla/5.0 (Macintosh; Intel Mac OS X 10.15; rv:88.0) Gecko/20100101 Firefox/88.0,Macintosh,Firefox,88,OS X,10.15
142,1,null,"""",html-keyboard-response,31,111197,0.0-31.0,"""","<div style=""font-size:60px;"">+</div>","""",2,ITI,Practice,null,1000,"""","""","""","""","""","""","""","""","""",4/25/2021 18:17,98.42.46.186,Mozilla/5.0 (Macintosh; Intel Mac OS X 10.15; rv:88.0) Gecko/20100101 Firefox/88.0,Macintosh,Firefox,88,OS X,10.15
142,1,null,"""",image-keyboard-response,32,111458,0.0-32.0,"""",jspsych/scrambledDisgustFaces/scrambledAM20DIS.JPG,"""",2,forwardMask,Practice,null,250,"""",d,"""","""","""","""","""","""","""",4/25/2021 18:17,98.42.46.186,Mozilla/5.0 (Macintosh; Intel Mac OS X 10.15; rv:88.0) Gecko/20100101 Firefox/88.0,Macintosh,Firefox,88,OS X,10.15
142,1,null,"""",image-keyboard-response,33,111484,0.0-33.0,"""",jspsych/disgustFaces/AM20DIS.JPG,"""",2,Cue,Practice,null,16,"""","""","""","""","""","""","""","""","""",4/25/2021 18:17,98.42.46.186,Mozilla/5.0 (Macintosh; Intel Mac OS X 10.15; rv:88.0) Gecko/20100101 Firefox/88.0,Macintosh,Firefox,88,OS X,10.15
142,1,null,"""",image-keyboard-response,34,111591,0.0-34.0,"""",jspsych/neutralFaces/BM12NES.JPG,"""",2,backwardMask,Practice,null,100,"""","""","""","""","""","""","""","""","""",4/25/2021 18:17,98.42.46.186,Mozilla/5.0 (Macintosh; Intel Mac OS X 10.15; rv:88.0) Gecko/20100101 Firefox/88.0,Macintosh,Firefox,88,OS X,10.15
142,1,null,"""",html-keyboard-response,35,112592,0.0-35.0,"""","<div style=""font-size:60px;"">+</div>","""",2,fixationBtwnNeutralMaskAndPrompt,Practice,null,1000,"""","""","""","""","""","""","""","""","""",4/25/2021 18:17,98.42.46.186,Mozilla/5.0 (Macintosh; Intel Mac OS X 10.15; rv:88.0) Gecko/20100101 Firefox/88.0,Macintosh,Firefox,88,OS X,10.15
142,1,1884,"""",html-button-response,36,114481,0.0-36.0,"""","<img src='jspsych/CFDfaces/CFD-LF-218-072-N.jpg'height=""250px""></br><b>Shannon</b>",0,2,IntactOrRearranged,Practice,"""","""","""","""",CFD-LF-218-072-N.jpg,Shannon,0,"""","""",0,"""",4/25/2021 18:17,98.42.46.186,Mozilla/5.0 (Macintosh; Intel Mac OS X 10.15; rv:88.0) Gecko/20100101 Firefox/88.0,Macintosh,Firefox,88,OS X,10.15
142,1,3278,"""",html-slider-response,37,117766,0.0-37.0,"""","<img src='jspsych/CFDfaces/CFD-LF-218-072-N.jpg'height=""250px""></br><b>Shannon</b>","""",2,ConfidenceQuery,Practice,"""","""","""","""",CFD-BM-011-016-N.jpg,Kenneth,0,0,100,"""","""",4/25/2021 18:17,98.42.46.186,Mozilla/5.0 (Macintosh; Intel Mac OS X 10.15; rv:88.0) Gecko/20100101 Firefox/88.0,Macintosh,Firefox,88,OS X,10.15
142,1,1248,"""",html-button-response,38,119026,0.0-38.0,"""",You are Correct. You called an Intact Pair Intact,0,2,feedback,Practice,"""","""","""","""","""","""","""","""","""","""","""",4/25/2021 18:17,98.42.46.186,Mozilla/5.0 (Macintosh; Intel Mac OS X 10.15; rv:88.0) Gecko/20100101 Firefox/88.0,Macintosh,Firefox,88,OS X,10.15
142,1,null,"""",html-keyboard-response,39,120031,0.0-39.0,"""","<div style=""font-size:60px;"">+</div>","""",3,ITI,Practice,null,1000,"""","""","""","""","""","""","""","""","""",4/25/2021 18:17,98.42.46.186,Mozilla/5.0 (Macintosh; Intel Mac OS X 10.15; rv:88.0) Gecko/20100101 Firefox/88.0,Macintosh,Firefox,88,OS X,10.15
142,1,null,"""",image-keyboard-response,40,120288,0.0-40.0,"""",jspsych/scrambledDisgustFaces/scrambledBF15DIS.JPG,"""",3,forwardMask,Practice,null,250,"""",d,"""","""","""","""","""","""","""",4/25/2021 18:17,98.42.46.186,Mozilla/5.0 (Macintosh; Intel Mac OS X 10.15; rv:88.0) Gecko/20100101 Firefox/88.0,Macintosh,Firefox,88,OS X,10.15
142,1,null,"""",image-keyboard-response,41,120313,0.0-41.0,"""",jspsych/disgustFaces/BF15DIS.JPG,"""",3,Cue,Practice,null,16,"""","""","""","""","""","""","""","""","""",4/25/2021 18:17,98.42.46.186,Mozilla/5.0 (Macintosh; Intel Mac OS X 10.15; rv:88.0) Gecko/20100101 Firefox/88.0,Macintosh,Firefox,88,OS X,10.15
142,1,null,"""",image-keyboard-response,42,120420,0.0-42.0,"""",jspsych/neutralFaces/BF05NES.JPG,"""",3,backwardMask,Practice,null,100,"""","""","""","""","""","""","""","""","""",4/25/2021 18:17,98.42.46.186,Mozilla/5.0 (Macintosh; Intel Mac OS X 10.15; rv:88.0) Gecko/20100101 Firefox/88.0,Macintosh,Firefox,88,OS X,10.15
142,1,null,"""",html-keyboard-response,43,121422,0.0-43.0,"""","<div style=""font-size:60px;"">+</div>","""",3,fixationBtwnNeutralMaskAndPrompt,Practice,null,1000,"""","""","""","""","""","""","""","""","""",4/25/2021 18:17,98.42.46.186,Mozilla/5.0 (Macintosh; Intel Mac OS X 10.15; rv:88.0) Gecko/20100101 Firefox/88.0,Macintosh,Firefox,88,OS X,10.15
142,1,3776,"""",html-button-response,44,125200,0.0-44.0,"""","<img src='jspsych/CFDfaces/CFD-AF-230-193-N.jpg'height=""250px""></br><b>Katelyn</b>",0,3,IntactOrRearranged,Practice,"""","""","""","""",CFD-AF-230-193-N.jpg,Katelyn,1,"""","""",0,"""",4/25/2021 18:17,98.42.46.186,Mozilla/5.0 (Macintosh; Intel Mac OS X 10.15; rv:88.0) Gecko/20100101 Firefox/88.0,Macintosh,Firefox,88,OS X,10.15
142,1,3714,"""",html-slider-response,45,128920,0.0-45.0,"""","<img src='jspsych/CFDfaces/CFD-AF-230-193-N.jpg'height=""250px""></br><b>Katelyn</b>","""",3,ConfidenceQuery,Practice,"""","""","""","""",CFD-BM-011-016-N.jpg,Kenneth,1,0,0,"""","""",4/25/2021 18:17,98.42.46.186,Mozilla/5.0 (Macintosh; Intel Mac OS X 10.15; rv:88.0) Gecko/20100101 Firefox/88.0,Macintosh,Firefox,88,OS X,10.15
142,1,2414,"""",html-button-response,46,131338,0.0-46.0,"""",You are Incorrect. You called a Rearranged Pair Intact,0,3,feedback,Practice,"""","""","""","""","""","""","""","""","""","""","""",4/25/2021 18:17,98.42.46.186,Mozilla/5.0 (Macintosh; Intel Mac OS X 10.15; rv:88.0) Gecko/20100101 Firefox/88.0,Macintosh,Firefox,88,OS X,10.15
142,1,null,"""",html-keyboard-response,47,132346,0.0-47.0,"""","<div style=""font-size:60px;"">+</div>","""",4,ITI,Practice,null,1000,"""","""","""","""","""","""","""","""","""",4/25/2021 18:17,98.42.46.186,Mozilla/5.0 (Macintosh; Intel Mac OS X 10.15; rv:88.0) Gecko/20100101 Firefox/88.0,Macintosh,Firefox,88,OS X,10.15
142,1,null,"""",image-keyboard-response,48,132602,0.0-48.0,"""",jspsych/scrambledNeutralFaces/scrambledBF26NES.JPG,"""",4,forwardMask,Practice,null,250,"""",n,"""","""","""","""","""","""","""",4/25/2021 18:17,98.42.46.186,Mozilla/5.0 (Macintosh; Intel Mac OS X 10.15; rv:88.0) Gecko/20100101 Firefox/88.0,Macintosh,Firefox,88,OS X,10.15
142,1,null,"""",image-keyboard-response,49,132625,0.0-49.0,"""",jspsych/neutralFaces/BF26NES.JPG,"""",4,Cue,Practice,null,16,"""","""","""","""","""","""","""","""","""",4/25/2021 18:17,98.42.46.186,Mozilla/5.0 (Macintosh; Intel Mac OS X 10.15; rv:88.0) Gecko/20100101 Firefox/88.0,Macintosh,Firefox,88,OS X,10.15
142,1,null,"""",image-keyboard-response,50,132730,0.0-50.0,"""",jspsych/neutralFaces/AF09NES.JPG,"""",4,backwardMask,Practice,null,100,"""","""","""","""","""","""","""","""","""",4/25/2021 18:17,98.42.46.186,Mozilla/5.0 (Macintosh; Intel Mac OS X 10.15; rv:88.0) Gecko/20100101 Firefox/88.0,Macintosh,Firefox,88,OS X,10.15
142,1,null,"""",html-keyboard-response,51,133732,0.0-51.0,"""","<div style=""font-size:60px;"">+</div>","""",4,fixationBtwnNeutralMaskAndPrompt,Practice,null,1000,"""","""","""","""","""","""","""","""","""",4/25/2021 18:17,98.42.46.186,Mozilla/5.0 (Macintosh; Intel Mac OS X 10.15; rv:88.0) Gecko/20100101 Firefox/88.0,Macintosh,Firefox,88,OS X,10.15
142,1,2010,"""",html-button-response,52,135745,0.0-52.0,"""","<img src='jspsych/CFDfaces/CFD-WM-019-003-N.jpg'height=""250px""></br><b>Patrick</b>",0,4,IntactOrRearranged,Practice,"""","""","""","""",CFD-WM-019-003-N.jpg,Patrick,0,"""","""",0,"""",4/25/2021 18:17,98.42.46.186,Mozilla/5.0 (Macintosh; Intel Mac OS X 10.15; rv:88.0) Gecko/20100101 Firefox/88.0,Macintosh,Firefox,88,OS X,10.15
142,1,3684,"""",html-slider-response,53,139432,0.0-53.0,"""","<img src='jspsych/CFDfaces/CFD-WM-019-003-N.jpg'height=""250px""></br><b>Patrick</b>","""",4,ConfidenceQuery,Practice,"""","""","""","""",CFD-BM-011-016-N.jpg,Kenneth,0,0,74,"""","""",4/25/2021 18:17,98.42.46.186,Mozilla/5.0 (Macintosh; Intel Mac OS X 10.15; rv:88.0) Gecko/20100101 Firefox/88.0,Macintosh,Firefox,88,OS X,10.15
142,1,1602,"""",html-button-response,54,141039,0.0-54.0,"""",You are Correct. You called an Intact Pair Intact,0,4,feedback,Practice,"""","""","""","""","""","""","""","""","""","""","""",4/25/2021 18:17,98.42.46.186,Mozilla/5.0 (Macintosh; Intel Mac OS X 10.15; rv:88.0) Gecko/20100101 Firefox/88.0,Macintosh,Firefox,88,OS X,10.15
142,1,null,"""",html-keyboard-response,55,142043,0.0-55.0,"""","<div style=""font-size:60px;"">+</div>","""",5,ITI,Practice,null,1000,"""","""","""","""","""","""","""","""","""",4/25/2021 18:17,98.42.46.186,Mozilla/5.0 (Macintosh; Intel Mac OS X 10.15; rv:88.0) Gecko/20100101 Firefox/88.0,Macintosh,Firefox,88,OS X,10.15
142,1,null,"""",image-keyboard-response,56,142297,0.0-56.0,"""",jspsych/scrambledDisgustFaces/scrambledBF21DIS.JPG,"""",5,forwardMask,Practice,null,250,"""",d,"""","""","""","""","""","""","""",4/25/2021 18:17,98.42.46.186,Mozilla/5.0 (Macintosh; Intel Mac OS X 10.15; rv:88.0) Gecko/20100101 Firefox/88.0,Macintosh,Firefox,88,OS X,10.15
142,1,null,"""",image-keyboard-response,57,142321,0.0-57.0,"""",jspsych/disgustFaces/BF21DIS.JPG,"""",5,Cue,Practice,null,16,"""","""","""","""","""","""","""","""","""",4/25/2021 18:17,98.42.46.186,Mozilla/5.0 (Macintosh; Intel Mac OS X 10.15; rv:88.0) Gecko/20100101 Firefox/88.0,Macintosh,Firefox,88,OS X,10.15
142,1,null,"""",image-keyboard-response,58,142428,0.0-58.0,"""",jspsych/neutralFaces/BF31NES.JPG,"""",5,backwardMask,Practice,null,100,"""","""","""","""","""","""","""","""","""",4/25/2021 18:17,98.42.46.186,Mozilla/5.0 (Macintosh; Intel Mac OS X 10.15; rv:88.0) Gecko/20100101 Firefox/88.0,Macintosh,Firefox,88,OS X,10.15
142,1,null,"""",html-keyboard-response,59,143430,0.0-59.0,"""","<div style=""font-size:60px;"">+</div>","""",5,fixationBtwnNeutralMaskAndPrompt,Practice,null,1000,"""","""","""","""","""","""","""","""","""",4/25/2021 18:17,98.42.46.186,Mozilla/5.0 (Macintosh; Intel Mac OS X 10.15; rv:88.0) Gecko/20100101 Firefox/88.0,Macintosh,Firefox,88,OS X,10.15
142,1,4930,"""",html-button-response,60,148361,0.0-60.0,"""","<img src='jspsych/CFDfaces/CFD-WM-022-001-N.jpg'height=""250px""></br><b>Marcus</b>",1,5,IntactOrRearranged,Practice,"""","""","""","""",CFD-WM-022-001-N.jpg,Marcus,1,"""","""",1,"""",4/25/2021 18:17,98.42.46.186,Mozilla/5.0 (Macintosh; Intel Mac OS X 10.15; rv:88.0) Gecko/20100101 Firefox/88.0,Macintosh,Firefox,88,OS X,10.15
142,1,2738,"""",html-slider-response,61,151106,0.0-61.0,"""","<img src='jspsych/CFDfaces/CFD-WM-022-001-N.jpg'height=""250px""></br><b>Marcus</b>","""",5,ConfidenceQuery,Practice,"""","""","""","""",CFD-BM-011-016-N.jpg,Kenneth,1,0,39,"""","""",4/25/2021 18:17,98.42.46.186,Mozilla/5.0 (Macintosh; Intel Mac OS X 10.15; rv:88.0) Gecko/20100101 Firefox/88.0,Macintosh,Firefox,88,OS X,10.15
142,1,1549,"""",html-button-response,62,152658,0.0-62.0,"""",You are Correct. You Called A Rearranged Pair Rearranged,0,5,feedback,Practice,"""","""","""","""","""","""","""","""","""","""","""",4/25/2021 18:17,98.42.46.186,Mozilla/5.0 (Macintosh; Intel Mac OS X 10.15; rv:88.0) Gecko/20100101 Firefox/88.0,Macintosh,Firefox,88,OS X,10.15
142,1,null,"""",html-keyboard-response,63,153662,0.0-63.0,"""","<div style=""font-size:60px;"">+</div>","""",6,ITI,Practice,null,1000,"""","""","""","""","""","""","""","""","""",4/25/2021 18:17,98.42.46.186,Mozilla/5.0 (Macintosh; Intel Mac OS X 10.15; rv:88.0) Gecko/20100101 Firefox/88.0,Macintosh,Firefox,88,OS X,10.15
142,1,null,"""",image-keyboard-response,64,153919,0.0-64.0,"""",jspsych/scrambledNeutralFaces/scrambledAF17NES.JPG,"""",6,forwardMask,Practice,null,250,"""",n,"""","""","""","""","""","""","""",4/25/2021 18:17,98.42.46.186,Mozilla/5.0 (Macintosh; Intel Mac OS X 10.15; rv:88.0) Gecko/20100101 Firefox/88.0,Macintosh,Firefox,88,OS X,10.15
142,1,null,"""",image-keyboard-response,65,153945,0.0-65.0,"""",jspsych/neutralFaces/AF17NES.JPG,"""",6,Cue,Practice,null,16,"""","""","""","""","""","""","""","""","""",4/25/2021 18:17,98.42.46.186,Mozilla/5.0 (Macintosh; Intel Mac OS X 10.15; rv:88.0) Gecko/20100101 Firefox/88.0,Macintosh,Firefox,88,OS X,10.15
142,1,null,"""",image-keyboard-response,66,154052,0.0-66.0,"""",jspsych/neutralFaces/BF12NES.JPG,"""",6,backwardMask,Practice,null,100,"""","""","""","""","""","""","""","""","""",4/25/2021 18:17,98.42.46.186,Mozilla/5.0 (Macintosh; Intel Mac OS X 10.15; rv:88.0) Gecko/20100101 Firefox/88.0,Macintosh,Firefox,88,OS X,10.15
142,1,null,"""",html-keyboard-response,67,155059,0.0-67.0,"""","<div style=""font-size:60px;"">+</div>","""",6,fixationBtwnNeutralMaskAndPrompt,Practice,null,1000,"""","""","""","""","""","""","""","""","""",4/25/2021 18:17,98.42.46.186,Mozilla/5.0 (Macintosh; Intel Mac OS X 10.15; rv:88.0) Gecko/20100101 Firefox/88.0,Macintosh,Firefox,88,OS X,10.15
142,1,3075,"""",html-button-response,68,158135,0.0-68.0,"""","<img src='jspsych/CFDfaces/CFD-BF-021-013-N.jpg'height=""250px""></br><b>Cassandra</b>",1,6,IntactOrRearranged,Practice,"""","""","""","""",CFD-BF-021-013-N.jpg,Cassandra,1,"""","""",1,"""",4/25/2021 18:17,98.42.46.186,Mozilla/5.0 (Macintosh; Intel Mac OS X 10.15; rv:88.0) Gecko/20100101 Firefox/88.0,Macintosh,Firefox,88,OS X,10.15
142,1,2382,"""",html-slider-response,69,160522,0.0-69.0,"""","<img src='jspsych/CFDfaces/CFD-BF-021-013-N.jpg'height=""250px""></br><b>Cassandra</b>","""",6,ConfidenceQuery,Practice,"""","""","""","""",CFD-BM-011-016-N.jpg,Kenneth,1,0,96,"""","""",4/25/2021 18:17,98.42.46.186,Mozilla/5.0 (Macintosh; Intel Mac OS X 10.15; rv:88.0) Gecko/20100101 Firefox/88.0,Macintosh,Firefox,88,OS X,10.15
142,1,1365,"""",html-button-response,70,161892,0.0-70.0,"""",You are Correct. You Called A Rearranged Pair Rearranged,0,6,feedback,Practice,"""","""","""","""","""","""","""","""","""","""","""",4/25/2021 18:17,98.42.46.186,Mozilla/5.0 (Macintosh; Intel Mac OS X 10.15; rv:88.0) Gecko/20100101 Firefox/88.0,Macintosh,Firefox,88,OS X,10.15
142,1,null,"""",html-keyboard-response,71,162898,0.0-71.0,"""","<div style=""font-size:60px;"">+</div>","""",7,ITI,Practice,null,1000,"""","""","""","""","""","""","""","""","""",4/25/2021 18:17,98.42.46.186,Mozilla/5.0 (Macintosh; Intel Mac OS X 10.15; rv:88.0) Gecko/20100101 Firefox/88.0,Macintosh,Firefox,88,OS X,10.15
142,1,null,"""",image-keyboard-response,72,163154,0.0-72.0,"""",jspsych/scrambledDisgustFaces/scrambledBM22DIS.JPG,"""",7,forwardMask,Practice,null,250,"""",d,"""","""","""","""","""","""","""",4/25/2021 18:17,98.42.46.186,Mozilla/5.0 (Macintosh; Intel Mac OS X 10.15; rv:88.0) Gecko/20100101 Firefox/88.0,Macintosh,Firefox,88,OS X,10.15
142,1,null,"""",image-keyboard-response,73,163176,0.0-73.0,"""",jspsych/disgustFaces/BM23DIS.JPG,"""",7,Cue,Practice,null,16,"""","""","""","""","""","""","""","""","""",4/25/2021 18:17,98.42.46.186,Mozilla/5.0 (Macintosh; Intel Mac OS X 10.15; rv:88.0) Gecko/20100101 Firefox/88.0,Macintosh,Firefox,88,OS X,10.15
142,1,null,"""",image-keyboard-response,74,163285,0.0-74.0,"""",jspsych/neutralFaces/AM17NES.JPG,"""",7,backwardMask,Practice,null,100,"""","""","""","""","""","""","""","""","""",4/25/2021 18:17,98.42.46.186,Mozilla/5.0 (Macintosh; Intel Mac OS X 10.15; rv:88.0) Gecko/20100101 Firefox/88.0,Macintosh,Firefox,88,OS X,10.15
142,1,null,"""",html-keyboard-response,75,164293,0.0-75.0,"""","<div style=""font-size:60px;"">+</div>","""",7,fixationBtwnNeutralMaskAndPrompt,Practice,null,1000,"""","""","""","""","""","""","""","""","""",4/25/2021 18:17,98.42.46.186,Mozilla/5.0 (Macintosh; Intel Mac OS X 10.15; rv:88.0) Gecko/20100101 Firefox/88.0,Macintosh,Firefox,88,OS X,10.15
142,1,null,"""",html-button-response,76,169299,0.0-76.0,"""","<img src='jspsych/CFDfaces/CFD-AF-228-173-N.jpg'height=""250px""></br><b>Tara</b>",null,7,IntactOrRearranged,Practice,"""","""","""","""",CFD-AF-228-173-N.jpg,Tara,0,"""","""","""","""",4/25/2021 18:17,98.42.46.186,Mozilla/5.0 (Macintosh; Intel Mac OS X 10.15; rv:88.0) Gecko/20100101 Firefox/88.0,Macintosh,Firefox,88,OS X,10.15
142,1,2892,"""",html-slider-response,77,172198,0.0-77.0,"""","<img src='jspsych/CFDfaces/CFD-AF-228-173-N.jpg'height=""250px""></br><b>Tara</b>","""",7,ConfidenceQuery,Practice,"""","""","""","""",CFD-BM-011-016-N.jpg,Kenneth,0,0,47,"""","""",4/25/2021 18:17,98.42.46.186,Mozilla/5.0 (Macintosh; Intel Mac OS X 10.15; rv:88.0) Gecko/20100101 Firefox/88.0,Macintosh,Firefox,88,OS X,10.15
142,1,1569,"""",html-button-response,78,173774,0.0-78.0,"""",<p>Please click either button: REARRANGED or INTACT before the 5-second time limit.</p>,0,7,feedback,Practice,"""","""","""","""","""","""","""","""","""","""","""",4/25/2021 18:17,98.42.46.186,Mozilla/5.0 (Macintosh; Intel Mac OS X 10.15; rv:88.0) Gecko/20100101 Firefox/88.0,Macintosh,Firefox,88,OS X,10.15
142,1,null,"""",html-keyboard-response,79,174781,0.0-79.0,"""","<div style=""font-size:60px;"">+</div>","""",8,ITI,Practice,null,1000,"""","""","""","""","""","""","""","""","""",4/25/2021 18:17,98.42.46.186,Mozilla/5.0 (Macintosh; Intel Mac OS X 10.15; rv:88.0) Gecko/20100101 Firefox/88.0,Macintosh,Firefox,88,OS X,10.15
142,1,null,"""",image-keyboard-response,80,175047,0.0-80.0,"""",jspsych/scrambledDisgustFaces/scrambledAM04DIS.JPG,"""",8,forwardMask,Practice,null,250,"""",d,"""","""","""","""","""","""","""",4/25/2021 18:17,98.42.46.186,Mozilla/5.0 (Macintosh; Intel Mac OS X 10.15; rv:88.0) Gecko/20100101 Firefox/88.0,Macintosh,Firefox,88,OS X,10.15
142,1,null,"""",image-keyboard-response,81,175074,0.0-81.0,"""",jspsych/disgustFaces/AM04DIS.JPG,"""",8,Cue,Practice,null,16,"""","""","""","""","""","""","""","""","""",4/25/2021 18:17,98.42.46.186,Mozilla/5.0 (Macintosh; Intel Mac OS X 10.15; rv:88.0) Gecko/20100101 Firefox/88.0,Macintosh,Firefox,88,OS X,10.15
142,1,null,"""",image-keyboard-response,82,175185,0.0-82.0,"""",jspsych/neutralFaces/AM31NES.JPG,"""",8,backwardMask,Practice,null,100,"""","""","""","""","""","""","""","""","""",4/25/2021 18:17,98.42.46.186,Mozilla/5.0 (Macintosh; Intel Mac OS X 10.15; rv:88.0) Gecko/20100101 Firefox/88.0,Macintosh,Firefox,88,OS X,10.15
142,1,null,"""",html-keyboard-response,83,176188,0.0-83.0,"""","<div style=""font-size:60px;"">+</div>","""",8,fixationBtwnNeutralMaskAndPrompt,Practice,null,1000,"""","""","""","""","""","""","""","""","""",4/25/2021 18:17,98.42.46.186,Mozilla/5.0 (Macintosh; Intel Mac OS X 10.15; rv:88.0) Gecko/20100101 Firefox/88.0,Macintosh,Firefox,88,OS X,10.15
142,1,1935,"""",html-button-response,84,178127,0.0-84.0,"""","<img src='jspsych/CFDfaces/CFD-WM-020-001-N.jpg'height=""250px""></br><b>Samuel</b>",0,8,IntactOrRearranged,Practice,"""","""","""","""",CFD-WM-020-001-N.jpg,Samuel,0,"""","""",0,"""",4/25/2021 18:17,98.42.46.186,Mozilla/5.0 (Macintosh; Intel Mac OS X 10.15; rv:88.0) Gecko/20100101 Firefox/88.0,Macintosh,Firefox,88,OS X,10.15
142,1,3628,"""",html-slider-response,85,181761,0.0-85.0,"""","<img src='jspsych/CFDfaces/CFD-WM-020-001-N.jpg'height=""250px""></br><b>Samuel</b>","""",8,ConfidenceQuery,Practice,"""","""","""","""",CFD-BM-011-016-N.jpg,Kenneth,0,0,73,"""","""",4/25/2021 18:17,98.42.46.186,Mozilla/5.0 (Macintosh; Intel Mac OS X 10.15; rv:88.0) Gecko/20100101 Firefox/88.0,Macintosh,Firefox,88,OS X,10.15
142,1,935,"""",html-button-response,86,182705,0.0-86.0,"""",You are Correct. You called an Intact Pair Intact,0,8,feedback,Practice,"""","""","""","""","""","""","""","""","""","""","""",4/25/2021 18:17,98.42.46.186,Mozilla/5.0 (Macintosh; Intel Mac OS X 10.15; rv:88.0) Gecko/20100101 Firefox/88.0,Macintosh,Firefox,88,OS X,10.15
142,1,3386,"""",image-button-response,87,186103,0.0-87.0,"""",directionsMemoryAssociation3.JPG,0,128,DirectionsBeforeActualTEst,Break,"""","""","""","""","""","""","""","""","""","""","""",4/25/2021 18:17,98.42.46.186,Mozilla/5.0 (Macintosh; Intel Mac OS X 10.15; rv:88.0) Gecko/20100101 Firefox/88.0,Macintosh,Firefox,88,OS X,10.15
142,1,3580,"""",image-button-response,88,189691,0.0-88.0,"""",directionsForTest2.JPG,0,1,directionsForTest2,break,"""","""","""","""","""","""","""","""","""","""","""",4/25/2021 18:17,98.42.46.186,Mozilla/5.0 (Macintosh; Intel Mac OS X 10.15; rv:88.0) Gecko/20100101 Firefox/88.0,Macintosh,Firefox,88,OS X,10.15
142,1,4583,"""",html-button-response,89,194282,0.0-89.0,"""","<p>You will be asked to memorize and then recall four sets of face-name pairs. </p> <p> Each set will have 32 pairs. </p> <p>After the fourth set, there will be a brief follow-up experiment (<40 min alltogether)</p>",0,"""","""","""","""","""","""","""","""","""","""","""","""","""","""",4/25/2021 18:17,98.42.46.186,Mozilla/5.0 (Macintosh; Intel Mac OS X 10.15; rv:88.0) Gecko/20100101 Firefox/88.0,Macintosh,Firefox,88,OS X,10.15
142,1,3690,"""",html-keyboard-response,90,199289,0.0-90.0,"""","<img src='jspsych/CFDfaces/CFD-LM-200-045-N.jpg' height=""250px""></br><b>Eric</b>","""",256,IntactFace,Memorization,70,5000,f,"""",CFD-WM-216-061-N.jpg,Austin,0,"""","""","""",1,4/25/2021 18:17,98.42.46.186,Mozilla/5.0 (Macintosh; Intel Mac OS X 10.15; rv:88.0) Gecko/20100101 Firefox/88.0,Macintosh,Firefox,88,OS X,10.15
142,1,null,"""",html-keyboard-response,91,199801,0.0-91.0,"""","<div style=""font-size:60px;"">+</div>","""",256,fixation,Memorization,null,500,"""","""","""","""","""","""","""","""",1,4/25/2021 18:17,98.42.46.186,Mozilla/5.0 (Macintosh; Intel Mac OS X 10.15; rv:88.0) Gecko/20100101 Firefox/88.0,Macintosh,Firefox,88,OS X,10.15
142,1,2075,"""",html-keyboard-response,92,204806,0.0-92.0,"""","<img src='jspsych/CFDfaces/CFD-AM-248-104-N.jpg' height=""250px""></br><b>James</b>","""",256,IntactFace,Memorization,70,5000,f,"""",CFD-WF-016-015-N.jpg,Lauren,0,"""","""","""",1,4/25/2021 18:17,98.42.46.186,Mozilla/5.0 (Macintosh; Intel Mac OS X 10.15; rv:88.0) Gecko/20100101 Firefox/88.0,Macintosh,Firefox,88,OS X,10.15
142,1,null,"""",html-keyboard-response,93,205318,0.0-93.0,"""","<div style=""font-size:60px;"">+</div>","""",256,fixation,Memorization,null,500,"""","""","""","""","""","""","""","""",1,4/25/2021 18:17,98.42.46.186,Mozilla/5.0 (Macintosh; Intel Mac OS X 10.15; rv:88.0) Gecko/20100101 Firefox/88.0,Macintosh,Firefox,88,OS X,10.15
142,1,1635,"""",html-keyboard-response,94,210322,0.0-94.0,"""","<img src='jspsych/CFDfaces/CFD-WM-006-002-N.jpg' height=""250px""></br><b>Brandon</b>","""",256,IntactFace,Memorization,70,5000,f,"""",CFD-AM-234-355-N.jpg,Kenneth,0,"""","""","""",1,4/25/2021 18:17,98.42.46.186,Mozilla/5.0 (Macintosh; Intel Mac OS X 10.15; rv:88.0) Gecko/20100101 Firefox/88.0,Macintosh,Firefox,88,OS X,10.15
142,1,null,"""",html-keyboard-response,95,210833,0.0-95.0,"""","<div style=""font-size:60px;"">+</div>","""",256,fixation,Memorization,null,500,"""","""","""","""","""","""","""","""",1,4/25/2021 18:17,98.42.46.186,Mozilla/5.0 (Macintosh; Intel Mac OS X 10.15; rv:88.0) Gecko/20100101 Firefox/88.0,Macintosh,Firefox,88,OS X,10.15
142,1,1995,"""",html-keyboard-response,96,215836,0.0-96.0,"""","<img src='jspsych/CFDfaces/CFD-LM-220-329-N.jpg' height=""250px""></br><b>Brian</b>","""",256,IntactFace,Memorization,70,5000,f,"""",CFD-BF-039-031-N.jpg,Jasmine,0,"""","""","""",1,4/25/2021 18:17,98.42.46.186,Mozilla/5.0 (Macintosh; Intel Mac OS X 10.15; rv:88.0) Gecko/20100101 Firefox/88.0,Macintosh,Firefox,88,OS X,10.15
142,1,null,"""",html-keyboard-response,97,216338,0.0-97.0,"""","<div style=""font-size:60px;"">+</div>","""",256,fixation,Memorization,null,500,"""","""","""","""","""","""","""","""",1,4/25/2021 18:17,98.42.46.186,Mozilla/5.0 (Macintosh; Intel Mac OS X 10.15; rv:88.0) Gecko/20100101 Firefox/88.0,Macintosh,Firefox,88,OS X,10.15
142,1,2633,"""",html-keyboard-response,98,221347,0.0-98.0,"""","<img src='jspsych/CFDfaces/CFD-BM-203-001-N.jpg' height=""250px""></br><b>Daniel</b>","""",256,IntactFace,Memorization,70,5000,f,"""",CFD-WF-204-038-N.jpg,Laura,0,"""","""","""",1,4/25/2021 18:17,98.42.46.186,Mozilla/5.0 (Macintosh; Intel Mac OS X 10.15; rv:88.0) Gecko/20100101 Firefox/88.0,Macintosh,Firefox,88,OS X,10.15
142,1,null,"""",html-keyboard-response,99,221852,0.0-99.0,"""","<div style=""font-size:60px;"">+</div>","""",256,fixation,Memorization,null,500,"""","""","""","""","""","""","""","""",1,4/25/2021 18:17,98.42.46.186,Mozilla/5.0 (Macintosh; Intel Mac OS X 10.15; rv:88.0) Gecko/20100101 Firefox/88.0,Macintosh,Firefox,88,OS X,10.15
142,1,2621,"""",html-keyboard-response,100,226854,0.0-100.0,"""","<img src='jspsych/CFDfaces/CFD-WM-032-001-N.jpg' height=""250px""></br><b>Peter</b>","""",256,IntactFace,Memorization,78,5000,n,"""",CFD-WM-222-057-N.jpg,Mark,0,"""","""","""",1,4/25/2021 18:17,98.42.46.186,Mozilla/5.0 (Macintosh; Intel Mac OS X 10.15; rv:88.0) Gecko/20100101 Firefox/88.0,Macintosh,Firefox,88,OS X,10.15
142,1,null,"""",html-keyboard-response,101,227367,0.0-101.0,"""","<div style=""font-size:60px;"">+</div>","""",256,fixation,Memorization,null,500,"""","""","""","""","""","""","""","""",1,4/25/2021 18:17,98.42.46.186,Mozilla/5.0 (Macintosh; Intel Mac OS X 10.15; rv:88.0) Gecko/20100101 Firefox/88.0,Macintosh,Firefox,88,OS X,10.15
142,1,2069,"""",html-keyboard-response,102,232370,0.0-102.0,"""","<img src='jspsych/CFDfaces/CFD-LF-202-065-N.jpg' height=""250px""></br><b>Christina</b>","""",256,IntactFace,Memorization,70,5000,f,"""",CFD-AF-233-190-N.jpg,Whitney,0,"""","""","""",1,4/25/2021 18:17,98.42.46.186,Mozilla/5.0 (Macintosh; Intel Mac OS X 10.15; rv:88.0) Gecko/20100101 Firefox/88.0,Macintosh,Firefox,88,OS X,10.15
142,1,null,"""",html-keyboard-response,103,232882,0.0-103.0,"""","<div style=""font-size:60px;"">+</div>","""",256,fixation,Memorization,null,500,"""","""","""","""","""","""","""","""",1,4/25/2021 18:17,98.42.46.186,Mozilla/5.0 (Macintosh; Intel Mac OS X 10.15; rv:88.0) Gecko/20100101 Firefox/88.0,Macintosh,Firefox,88,OS X,10.15
142,1,2014,"""",html-keyboard-response,104,237885,0.0-104.0,"""","<img src='jspsych/CFDfaces/CFD-LM-225-130-N.jpg' height=""250px""></br><b>Richard</b>","""",256,IntactFace,Memorization,78,5000,n,"""",CFD-LM-209-111-N.jpg,Jacob,0,"""","""","""",1,4/25/2021 18:17,98.42.46.186,Mozilla/5.0 (Macintosh; Intel Mac OS X 10.15; rv:88.0) Gecko/20100101 Firefox/88.0,Macintosh,Firefox,88,OS X,10.15
142,1,null,"""",html-keyboard-response,105,238396,0.0-105.0,"""","<div style=""font-size:60px;"">+</div>","""",256,fixation,Memorization,null,500,"""","""","""","""","""","""","""","""",1,4/25/2021 18:17,98.42.46.186,Mozilla/5.0 (Macintosh; Intel Mac OS X 10.15; rv:88.0) Gecko/20100101 Firefox/88.0,Macintosh,Firefox,88,OS X,10.15
142,1,1986,"""",html-keyboard-response,106,243400,0.0-106.0,"""","<img src='jspsych/CFDfaces/CFD-AF-200-228-N.jpg' height=""250px""></br><b>Ashley</b>","""",256,IntactFace,Memorization,78,5000,n,"""",CFD-AM-230-150-N.jpg,Jeremy,0,"""","""","""",1,4/25/2021 18:17,98.42.46.186,Mozilla/5.0 (Macintosh; Intel Mac OS X 10.15; rv:88.0) Gecko/20100101 Firefox/88.0,Macintosh,Firefox,88,OS X,10.15
142,1,null,"""",html-keyboard-response,107,243912,0.0-107.0,"""","<div style=""font-size:60px;"">+</div>","""",256,fixation,Memorization,null,500,"""","""","""","""","""","""","""","""",1,4/25/2021 18:17,98.42.46.186,Mozilla/5.0 (Macintosh; Intel Mac OS X 10.15; rv:88.0) Gecko/20100101 Firefox/88.0,Macintosh,Firefox,88,OS X,10.15
142,1,1929,"""",html-keyboard-response,108,248914,0.0-108.0,"""","<img src='jspsych/CFDfaces/CFD-WF-017-003-N.jpg' height=""250px""></br><b>Kimberly</b>","""",256,IntactFace,Memorization,70,5000,f,"""",CFD-BM-026-002-N.jpg,Dustin,0,"""","""","""",1,4/25/2021 18:17,98.42.46.186,Mozilla/5.0 (Macintosh; Intel Mac OS X 10.15; rv:88.0) Gecko/20100101 Firefox/88.0,Macintosh,Firefox,88,OS X,10.15
142,1,null,"""",html-keyboard-response,109,249426,0.0-109.0,"""","<div style=""font-size:60px;"">+</div>","""",256,fixation,Memorization,null,500,"""","""","""","""","""","""","""","""",1,4/25/2021 18:17,98.42.46.186,Mozilla/5.0 (Macintosh; Intel Mac OS X 10.15; rv:88.0) Gecko/20100101 Firefox/88.0,Macintosh,Firefox,88,OS X,10.15
142,1,2711,"""",html-keyboard-response,110,254429,0.0-110.0,"""","<img src='jspsych/CFDfaces/CFD-BF-009-002-N.jpg' height=""250px""></br><b>Julie</b>","""",256,IntactFace,Memorization,78,5000,n,"""",CFD-AF-241-141-N.jpg,Taylor,0,"""","""","""",1,4/25/2021 18:17,98.42.46.186,Mozilla/5.0 (Macintosh; Intel Mac OS X 10.15; rv:88.0) Gecko/20100101 Firefox/88.0,Macintosh,Firefox,88,OS X,10.15
142,1,null,"""",html-keyboard-response,111,254936,0.0-111.0,"""","<div style=""font-size:60px;"">+</div>","""",256,fixation,Memorization,null,500,"""","""","""","""","""","""","""","""",1,4/25/2021 18:17,98.42.46.186,Mozilla/5.0 (Macintosh; Intel Mac OS X 10.15; rv:88.0) Gecko/20100101 Firefox/88.0,Macintosh,Firefox,88,OS X,10.15
142,1,4125,"""",html-keyboard-response,112,259941,0.0-112.0,"""","<img src='jspsych/CFDfaces/CFD-WF-023-003-N.jpg' height=""250px""></br><b>Emily</b>","""",256,IntactFace,Memorization,70,5000,f,"""",CFD-BM-022-022-N.jpg,Travis,0,"""","""","""",1,4/25/2021 18:17,98.42.46.186,Mozilla/5.0 (Macintosh; Intel Mac OS X 10.15; rv:88.0) Gecko/20100101 Firefox/88.0,Macintosh,Firefox,88,OS X,10.15
142,1,null,"""",html-keyboard-response,113,260447,0.0-113.0,"""","<div style=""font-size:60px;"">+</div>","""",256,fixation,Memorization,null,500,"""","""","""","""","""","""","""","""",1,4/25/2021 18:17,98.42.46.186,Mozilla/5.0 (Macintosh; Intel Mac OS X 10.15; rv:88.0) Gecko/20100101 Firefox/88.0,Macintosh,Firefox,88,OS X,10.15
142,1,3088,"""",html-keyboard-response,114,265453,0.0-114.0,"""","<img src='jspsych/CFDfaces/CFD-AF-239-171-N.jpg' height=""250px""></br><b>Amanda</b>","""",256,IntactFace,Memorization,70,5000,f,"""",CFD-BF-209-172-N.jpg,Erin,0,"""","""","""",1,4/25/2021 18:17,98.42.46.186,Mozilla/5.0 (Macintosh; Intel Mac OS X 10.15; rv:88.0) Gecko/20100101 Firefox/88.0,Macintosh,Firefox,88,OS X,10.15
142,1,null,"""",html-keyboard-response,115,265958,0.0-115.0,"""","<div style=""font-size:60px;"">+</div>","""",256,fixation,Memorization,null,500,"""","""","""","""","""","""","""","""",1,4/25/2021 18:17,98.42.46.186,Mozilla/5.0 (Macintosh; Intel Mac OS X 10.15; rv:88.0) Gecko/20100101 Firefox/88.0,Macintosh,Firefox,88,OS X,10.15
142,1,4795,"""",html-keyboard-response,116,270966,0.0-116.0,"""","<img src='jspsych/CFDfaces/CFD-WM-213-076-N.jpg' height=""250px""></br><b>Christian</b>","""",256,IntactFace,Memorization,78,5000,n,"""",CFD-BM-041-035-N.jpg,Luis,0,"""","""","""",1,4/25/2021 18:17,98.42.46.186,Mozilla/5.0 (Macintosh; Intel Mac OS X 10.15; rv:88.0) Gecko/20100101 Firefox/88.0,Macintosh,Firefox,88,OS X,10.15
142,1,null,"""",html-keyboard-response,117,271469,0.0-117.0,"""","<div style=""font-size:60px;"">+</div>","""",256,fixation,Memorization,null,500,"""","""","""","""","""","""","""","""",1,4/25/2021 18:17,98.42.46.186,Mozilla/5.0 (Macintosh; Intel Mac OS X 10.15; rv:88.0) Gecko/20100101 Firefox/88.0,Macintosh,Firefox,88,OS X,10.15
142,1,1706,"""",html-keyboard-response,118,276477,0.0-118.0,"""","<img src='jspsych/CFDfaces/CFD-WF-018-017-N.jpg' height=""250px""></br><b>Andrea</b>","""",256,IntactFace,Memorization,70,5000,f,"""",CFD-AF-222-134-N.jpg,Jenna,0,"""","""","""",1,4/25/2021 18:17,98.42.46.186,Mozilla/5.0 (Macintosh; Intel Mac OS X 10.15; rv:88.0) Gecko/20100101 Firefox/88.0,Macintosh,Firefox,88,OS X,10.15
142,1,null,"""",html-keyboard-response,119,276986,0.0-119.0,"""","<div style=""font-size:60px;"">+</div>","""",256,fixation,Memorization,null,500,"""","""","""","""","""","""","""","""",1,4/25/2021 18:17,98.42.46.186,Mozilla/5.0 (Macintosh; Intel Mac OS X 10.15; rv:88.0) Gecko/20100101 Firefox/88.0,Macintosh,Firefox,88,OS X,10.15
142,1,2903,"""",html-keyboard-response,120,281992,0.0-120.0,"""","<img src='jspsych/CFDfaces/CFD-WF-223-133-N.jpg' height=""250px""></br><b>Elizabeth</b>","""",256,IntactFace,Memorization,70,5000,f,"""",CFD-BF-226-119-N.jpg,Heather,0,"""","""","""",1,4/25/2021 18:17,98.42.46.186,Mozilla/5.0 (Macintosh; Intel Mac OS X 10.15; rv:88.0) Gecko/20100101 Firefox/88.0,Macintosh,Firefox,88,OS X,10.15
142,1,null,"""",html-keyboard-response,121,282504,0.0-121.0,"""","<div style=""font-size:60px;"">+</div>","""",256,fixation,Memorization,null,500,"""","""","""","""","""","""","""","""",1,4/25/2021 18:17,98.42.46.186,Mozilla/5.0 (Macintosh; Intel Mac OS X 10.15; rv:88.0) Gecko/20100101 Firefox/88.0,Macintosh,Firefox,88,OS X,10.15
142,1,2531,"""",html-keyboard-response,122,287507,0.0-122.0,"""","<img src='jspsych/CFDfaces/CFD-WF-024-003-N.jpg' height=""250px""></br><b>Kayla</b>","""",256,IntactFace,Memorization,70,5000,f,"""",CFD-BM-029-024-N.jpg,Vincent,0,"""","""","""",1,4/25/2021 18:17,98.42.46.186,Mozilla/5.0 (Macintosh; Intel Mac OS X 10.15; rv:88.0) Gecko/20100101 Firefox/88.0,Macintosh,Firefox,88,OS X,10.15
142,1,null,"""",html-keyboard-response,123,288012,0.0-123.0,"""","<div style=""font-size:60px;"">+</div>","""",256,fixation,Memorization,null,500,"""","""","""","""","""","""","""","""",1,4/25/2021 18:17,98.42.46.186,Mozilla/5.0 (Macintosh; Intel Mac OS X 10.15; rv:88.0) Gecko/20100101 Firefox/88.0,Macintosh,Firefox,88,OS X,10.15
142,1,3494,"""",html-keyboard-response,124,293019,0.0-124.0,"""","<img src='jspsych/CFDfaces/CFD-BM-207-024-N.jpg' height=""250px""></br><b>Joshua</b>","""",256,IntactFace,Memorization,78,5000,n,"""",CFD-LF-244-096-N.jpg,Melissa,0,"""","""","""",1,4/25/2021 18:17,98.42.46.186,Mozilla/5.0 (Macintosh; Intel Mac OS X 10.15; rv:88.0) Gecko/20100101 Firefox/88.0,Macintosh,Firefox,88,OS X,10.15
142,1,null,"""",html-keyboard-response,125,293522,0.0-125.0,"""","<div style=""font-size:60px;"">+</div>","""",256,fixation,Memorization,null,500,"""","""","""","""","""","""","""","""",1,4/25/2021 18:17,98.42.46.186,Mozilla/5.0 (Macintosh; Intel Mac OS X 10.15; rv:88.0) Gecko/20100101 Firefox/88.0,Macintosh,Firefox,88,OS X,10.15
142,1,2872,"""",html-keyboard-response,126,298526,0.0-126.0,"""","<img src='jspsych/CFDfaces/CFD-LF-206-078-N.jpg' height=""250px""></br><b>Vanessa</b>","""",256,IntactFace,Memorization,78,5000,n,"""",CFD-WF-038-021-N.jpg,Lindsey,0,"""","""","""",1,4/25/2021 18:17,98.42.46.186,Mozilla/5.0 (Macintosh; Intel Mac OS X 10.15; rv:88.0) Gecko/20100101 Firefox/88.0,Macintosh,Firefox,88,OS X,10.15
142,1,null,"""",html-keyboard-response,127,299037,0.0-127.0,"""","<div style=""font-size:60px;"">+</div>","""",256,fixation,Memorization,null,500,"""","""","""","""","""","""","""","""",1,4/25/2021 18:17,98.42.46.186,Mozilla/5.0 (Macintosh; Intel Mac OS X 10.15; rv:88.0) Gecko/20100101 Firefox/88.0,Macintosh,Firefox,88,OS X,10.15
142,1,1590,"""",html-keyboard-response,128,304041,0.0-128.0,"""","<img src='jspsych/CFDfaces/CFD-LF-213-079-N.jpg' height=""250px""></br><b>Samantha</b>","""",256,IntactFace,Memorization,78,5000,n,"""",CFD-BF-221-223-N.jpg,Jordan,0,"""","""","""",1,4/25/2021 18:17,98.42.46.186,Mozilla/5.0 (Macintosh; Intel Mac OS X 10.15; rv:88.0) Gecko/20100101 Firefox/88.0,Macintosh,Firefox,88,OS X,10.15
142,1,null,"""",html-keyboard-response,129,304550,0.0-129.0,"""","<div style=""font-size:60px;"">+</div>","""",256,fixation,Memorization,null,500,"""","""","""","""","""","""","""","""",1,4/25/2021 18:17,98.42.46.186,Mozilla/5.0 (Macintosh; Intel Mac OS X 10.15; rv:88.0) Gecko/20100101 Firefox/88.0,Macintosh,Firefox,88,OS X,10.15
142,1,2201,"""",html-keyboard-response,130,309558,0.0-130.0,"""","<img src='jspsych/CFDfaces/CFD-WM-212-097-N.jpg' height=""250px""></br><b>Jeffrey</b>","""",256,IntactFace,Memorization,70,5000,f,"""",CFD-AM-231-136-N.jpg,Timothy,0,"""","""","""",1,4/25/2021 18:17,98.42.46.186,Mozilla/5.0 (Macintosh; Intel Mac OS X 10.15; rv:88.0) Gecko/20100101 Firefox/88.0,Macintosh,Firefox,88,OS X,10.15
142,1,null,"""",html-keyboard-response,131,310067,0.0-131.0,"""","<div style=""font-size:60px;"">+</div>","""",256,fixation,Memorization,null,500,"""","""","""","""","""","""","""","""",1,4/25/2021 18:17,98.42.46.186,Mozilla/5.0 (Macintosh; Intel Mac OS X 10.15; rv:88.0) Gecko/20100101 Firefox/88.0,Macintosh,Firefox,88,OS X,10.15
142,1,1276,"""",html-keyboard-response,132,315070,0.0-132.0,"""","<img src='jspsych/CFDfaces/CFD-WM-034-030-N.jpg' height=""250px""></br><b>Juan</b>","""",256,IntactFace,Memorization,78,5000,n,"""",CFD-WM-237-052-N.jpg,Justin,0,"""","""","""",1,4/25/2021 18:17,98.42.46.186,Mozilla/5.0 (Macintosh; Intel Mac OS X 10.15; rv:88.0) Gecko/20100101 Firefox/88.0,Macintosh,Firefox,88,OS X,10.15
142,1,null,"""",html-keyboard-response,133,315582,0.0-133.0,"""","<div style=""font-size:60px;"">+</div>","""",256,fixation,Memorization,null,500,"""","""","""","""","""","""","""","""",1,4/25/2021 18:17,98.42.46.186,Mozilla/5.0 (Macintosh; Intel Mac OS X 10.15; rv:88.0) Gecko/20100101 Firefox/88.0,Macintosh,Firefox,88,OS X,10.15
142,1,2616,"""",html-keyboard-response,134,320585,0.0-134.0,"""","<img src='jspsych/CFDfaces/CFD-LM-201-057-N.jpg' height=""250px""></br><b>Robert</b>","""",256,IntactFace,Memorization,70,5000,f,"""",CFD-BF-212-315-N.jpg,Amy,0,"""","""","""",1,4/25/2021 18:17,98.42.46.186,Mozilla/5.0 (Macintosh; Intel Mac OS X 10.15; rv:88.0) Gecko/20100101 Firefox/88.0,Macintosh,Firefox,88,OS X,10.15
142,1,null,"""",html-keyboard-response,135,321096,0.0-135.0,"""","<div style=""font-size:60px;"">+</div>","""",256,fixation,Memorization,null,500,"""","""","""","""","""","""","""","""",1,4/25/2021 18:17,98.42.46.186,Mozilla/5.0 (Macintosh; Intel Mac OS X 10.15; rv:88.0) Gecko/20100101 Firefox/88.0,Macintosh,Firefox,88,OS X,10.15
142,1,3427,"""",html-keyboard-response,136,326100,0.0-136.0,"""","<img src='jspsych/CFDfaces/CFD-BM-208-065-N.jpg' height=""250px""></br><b>Ian</b>","""",256,IntactFace,Memorization,78,5000,n,"""",CFD-AM-221-184-N.jpg,Steven,0,"""","""","""",1,4/25/2021 18:17,98.42.46.186,Mozilla/5.0 (Macintosh; Intel Mac OS X 10.15; rv:88.0) Gecko/20100101 Firefox/88.0,Macintosh,Firefox,88,OS X,10.15
142,1,null,"""",html-keyboard-response,137,326612,0.0-137.0,"""","<div style=""font-size:60px;"">+</div>","""",256,fixation,Memorization,null,500,"""","""","""","""","""","""","""","""",1,4/25/2021 18:17,98.42.46.186,Mozilla/5.0 (Macintosh; Intel Mac OS X 10.15; rv:88.0) Gecko/20100101 Firefox/88.0,Macintosh,Firefox,88,OS X,10.15
142,1,1568,"""",html-keyboard-response,138,331614,0.0-138.0,"""","<img src='jspsych/CFDfaces/CFD-WF-218-087-N.jpg' height=""250px""></br><b>Victoria</b>","""",256,IntactFace,Memorization,70,5000,f,"""",CFD-WM-003-002-N.jpg,Cameron,0,"""","""","""",1,4/25/2021 18:17,98.42.46.186,Mozilla/5.0 (Macintosh; Intel Mac OS X 10.15; rv:88.0) Gecko/20100101 Firefox/88.0,Macintosh,Firefox,88,OS X,10.15
142,1,null,"""",html-keyboard-response,139,332121,0.0-139.0,"""","<div style=""font-size:60px;"">+</div>","""",256,fixation,Memorization,null,500,"""","""","""","""","""","""","""","""",1,4/25/2021 18:17,98.42.46.186,Mozilla/5.0 (Macintosh; Intel Mac OS X 10.15; rv:88.0) Gecko/20100101 Firefox/88.0,Macintosh,Firefox,88,OS X,10.15
142,1,2164,"""",html-keyboard-response,140,337133,0.0-140.0,"""","<img src='jspsych/CFDfaces/CFD-LM-224-162-N.jpg' height=""250px""></br><b>Jason</b>","""",256,IntactFace,Memorization,70,5000,f,"""",CFD-LF-203-066-N.jpg,Sara,0,"""","""","""",1,4/25/2021 18:17,98.42.46.186,Mozilla/5.0 (Macintosh; Intel Mac OS X 10.15; rv:88.0) Gecko/20100101 Firefox/88.0,Macintosh,Firefox,88,OS X,10.15
142,1,null,"""",html-keyboard-response,141,337634,0.0-141.0,"""","<div style=""font-size:60px;"">+</div>","""",256,fixation,Memorization,null,500,"""","""","""","""","""","""","""","""",1,4/25/2021 18:17,98.42.46.186,Mozilla/5.0 (Macintosh; Intel Mac OS X 10.15; rv:88.0) Gecko/20100101 Firefox/88.0,Macintosh,Firefox,88,OS X,10.15
142,1,2403,"""",html-keyboard-response,142,342642,0.0-142.0,"""","<img src='jspsych/CFDfaces/CFD-BM-001-014-N.jpg' height=""250px""></br><b>Gregory</b>","""",256,IntactFace,Memorization,70,5000,f,"""",CFD-BF-019-001-N.jpg,Angela,0,"""","""","""",1,4/25/2021 18:17,98.42.46.186,Mozilla/5.0 (Macintosh; Intel Mac OS X 10.15; rv:88.0) Gecko/20100101 Firefox/88.0,Macintosh,Firefox,88,OS X,10.15
142,1,null,"""",html-keyboard-response,143,343150,0.0-143.0,"""","<div style=""font-size:60px;"">+</div>","""",256,fixation,Memorization,null,500,"""","""","""","""","""","""","""","""",1,4/25/2021 18:17,98.42.46.186,Mozilla/5.0 (Macintosh; Intel Mac OS X 10.15; rv:88.0) Gecko/20100101 Firefox/88.0,Macintosh,Firefox,88,OS X,10.15
142,1,2145,"""",html-keyboard-response,144,348159,0.0-144.0,"""","<img src='jspsych/CFDfaces/CFD-LF-215-157-N.jpg' height=""250px""></br><b>Michelle</b>","""",256,IntactFace,Memorization,70,5000,f,"""",CFD-LM-246-087-N.jpg,Sean,0,"""","""","""",1,4/25/2021 18:17,98.42.46.186,Mozilla/5.0 (Macintosh; Intel Mac OS X 10.15; rv:88.0) Gecko/20100101 Firefox/88.0,Macintosh,Firefox,88,OS X,10.15
142,1,null,"""",html-keyboard-response,145,348666,0.0-145.0,"""","<div style=""font-size:60px;"">+</div>","""",256,fixation,Memorization,null,500,"""","""","""","""","""","""","""","""",1,4/25/2021 18:17,98.42.46.186,Mozilla/5.0 (Macintosh; Intel Mac OS X 10.15; rv:88.0) Gecko/20100101 Firefox/88.0,Macintosh,Firefox,88,OS X,10.15
142,1,2319,"""",html-keyboard-response,146,353674,0.0-146.0,"""","<img src='jspsych/CFDfaces/CFD-WF-202-056-N.jpg' height=""250px""></br><b>Meghan</b>","""",256,IntactFace,Memorization,70,5000,f,"""",CFD-BM-011-016-N.jpg,Jesse,0,"""","""","""",1,4/25/2021 18:17,98.42.46.186,Mozilla/5.0 (Macintosh; Intel Mac OS X 10.15; rv:88.0) Gecko/20100101 Firefox/88.0,Macintosh,Firefox,88,OS X,10.15
142,1,null,"""",html-keyboard-response,147,354175,0.0-147.0,"""","<div style=""font-size:60px;"">+</div>","""",256,fixation,Memorization,null,500,"""","""","""","""","""","""","""","""",1,4/25/2021 18:17,98.42.46.186,Mozilla/5.0 (Macintosh; Intel Mac OS X 10.15; rv:88.0) Gecko/20100101 Firefox/88.0,Macintosh,Firefox,88,OS X,10.15
142,1,2543,"""",html-keyboard-response,148,359188,0.0-148.0,"""","<img src='jspsych/CFDfaces/CFD-AM-202-079-N.jpg' height=""250px""></br><b>Nicholas</b>","""",256,IntactFace,Memorization,78,5000,n,"""",CFD-LF-210-220-N.jpg,Rebecca,0,"""","""","""",1,4/25/2021 18:17,98.42.46.186,Mozilla/5.0 (Macintosh; Intel Mac OS X 10.15; rv:88.0) Gecko/20100101 Firefox/88.0,Macintosh,Firefox,88,OS X,10.15
142,1,null,"""",html-keyboard-response,149,359691,0.0-149.0,"""","<div style=""font-size:60px;"">+</div>","""",256,fixation,Memorization,null,500,"""","""","""","""","""","""","""","""",1,4/25/2021 18:17,98.42.46.186,Mozilla/5.0 (Macintosh; Intel Mac OS X 10.15; rv:88.0) Gecko/20100101 Firefox/88.0,Macintosh,Firefox,88,OS X,10.15
142,1,2100,"""",html-keyboard-response,150,364697,0.0-150.0,"""","<img src='jspsych/CFDfaces/CFD-AF-214-139-N.jpg' height=""250px""></br><b>Stephanie</b>","""",256,IntactFace,Memorization,78,5000,n,"""",CFD-AM-242-176-N.jpg,Ryan,0,"""","""","""",1,4/25/2021 18:17,98.42.46.186,Mozilla/5.0 (Macintosh; Intel Mac OS X 10.15; rv:88.0) Gecko/20100101 Firefox/88.0,Macintosh,Firefox,88,OS X,10.15
142,1,null,"""",html-keyboard-response,151,365208,0.0-151.0,"""","<div style=""font-size:60px;"">+</div>","""",256,fixation,Memorization,null,500,"""","""","""","""","""","""","""","""",1,4/25/2021 18:17,98.42.46.186,Mozilla/5.0 (Macintosh; Intel Mac OS X 10.15; rv:88.0) Gecko/20100101 Firefox/88.0,Macintosh,Firefox,88,OS X,10.15
142,1,1733,"""",html-keyboard-response,152,370216,0.0-152.0,"""","<img src='jspsych/CFDfaces/CFD-AF-237-223-N.jpg' height=""250px""></br><b>Brittany</b>","""",256,IntactFace,Memorization,78,5000,n,"""",CFD-LF-236-221-N.jpg,Tiffany,0,"""","""","""",1,4/25/2021 18:17,98.42.46.186,Mozilla/5.0 (Macintosh; Intel Mac OS X 10.15; rv:88.0) Gecko/20100101 Firefox/88.0,Macintosh,Firefox,88,OS X,10.15
142,1,null,"""",html-keyboard-response,153,370724,0.0-153.0,"""","<div style=""font-size:60px;"">+</div>","""",256,fixation,Memorization,null,500,"""","""","""","""","""","""","""","""",1,4/25/2021 18:17,98.42.46.186,Mozilla/5.0 (Macintosh; Intel Mac OS X 10.15; rv:88.0) Gecko/20100101 Firefox/88.0,Macintosh,Firefox,88,OS X,10.15
142,1,1695,"""",html-keyboard-response,154,372420,0.0-154.0,"""",Press Any Key to Begin Memory Test,"""",1,welcomeScreen,Break,78,"""","""","""","""","""","""","""","""","""",1,4/25/2021 18:17,98.42.46.186,Mozilla/5.0 (Macintosh; Intel Mac OS X 10.15; rv:88.0) Gecko/20100101 Firefox/88.0,Macintosh,Firefox,88,OS X,10.15
142,1,null,"""",html-keyboard-response,155,373428,0.0-155.0,"""","<div style=""font-size:60px;"">+</div>","""",256,ITI,Test,null,1000,"""","""","""","""","""","""","""","""",1,4/25/2021 18:17,98.42.46.186,Mozilla/5.0 (Macintosh; Intel Mac OS X 10.15; rv:88.0) Gecko/20100101 Firefox/88.0,Macintosh,Firefox,88,OS X,10.15
142,1,null,"""",image-keyboard-response,156,373689,0.0-156.0,"""",jspsych/scrambledNeutralFaces/scrambledAM04NES.JPG,"""",256,forwardMask,Test,null,250,"""",n,"""","""","""","""","""","""",1,4/25/2021 18:17,98.42.46.186,Mozilla/5.0 (Macintosh; Intel Mac OS X 10.15; rv:88.0) Gecko/20100101 Firefox/88.0,Macintosh,Firefox,88,OS X,10.15
142,1,null,"""",image-keyboard-response,157,373711,0.0-157.0,"""",jspsych/neutralFaces/AM04NES.JPG,"""",256,Cue,Test,null,16,"""","""","""","""","""","""","""","""",1,4/25/2021 18:17,98.42.46.186,Mozilla/5.0 (Macintosh; Intel Mac OS X 10.15; rv:88.0) Gecko/20100101 Firefox/88.0,Macintosh,Firefox,88,OS X,10.15
142,1,null,"""",image-keyboard-response,158,373822,0.0-158.0,"""",jspsych/neutralFaces/BM11NES.JPG,"""",256,backwardMask,Test,null,100,"""","""","""","""","""","""","""","""",1,4/25/2021 18:17,98.42.46.186,Mozilla/5.0 (Macintosh; Intel Mac OS X 10.15; rv:88.0) Gecko/20100101 Firefox/88.0,Macintosh,Firefox,88,OS X,10.15
142,1,null,"""",html-keyboard-response,159,374826,0.0-159.0,"""","<div style=""font-size:60px;"">+</div>","""",256,fixationBtwnNeutralMaskAndPrompt,Test,null,1000,"""","""","""","""","""","""","""","""",1,4/25/2021 18:17,98.42.46.186,Mozilla/5.0 (Macintosh; Intel Mac OS X 10.15; rv:88.0) Gecko/20100101 Firefox/88.0,Macintosh,Firefox,88,OS X,10.15
142,1,2596,"""",html-button-response,160,377423,0.0-160.0,"""","<img src='jspsych/CFDfaces/CFD-WM-006-002-N.jpg' height=""250px"">,</br><b>Brandon</b>",0,256,IntactOrRearranged,Test,"""","""","""","""",CFD-BM-041-035-N.jpg,Luis,0,"""","""",0,1,4/25/2021 18:17,98.42.46.186,Mozilla/5.0 (Macintosh; Intel Mac OS X 10.15; rv:88.0) Gecko/20100101 Firefox/88.0,Macintosh,Firefox,88,OS X,10.15
142,1,2729,"""",html-slider-response,161,380159,0.0-161.0,"""","<img src='jspsych/CFDfaces/CFD-WM-006-002-N.jpg' height=""250px"">,</br><b>Brandon</b>","""",256,ConfidenceQuery,Test,"""","""","""","""",CFD-BM-041-035-N.jpg,Luis,0,0,42,"""",1,4/25/2021 18:17,98.42.46.186,Mozilla/5.0 (Macintosh; Intel Mac OS X 10.15; rv:88.0) Gecko/20100101 Firefox/88.0,Macintosh,Firefox,88,OS X,10.15
142,1,null,"""",html-keyboard-response,162,381168,0.0-162.0,"""","<div style=""font-size:60px;"">+</div>","""",256,ITI,Test,null,1000,"""","""","""","""","""","""","""","""",1,4/25/2021 18:17,98.42.46.186,Mozilla/5.0 (Macintosh; Intel Mac OS X 10.15; rv:88.0) Gecko/20100101 Firefox/88.0,Macintosh,Firefox,88,OS X,10.15
142,1,null,"""",image-keyboard-response,163,381426,0.0-163.0,"""",jspsych/scrambledDisgustFaces/scrambledAM20DIS.JPG,"""",256,forwardMask,Test,null,250,"""",d,"""","""","""","""","""","""",1,4/25/2021 18:17,98.42.46.186,Mozilla/5.0 (Macintosh; Intel Mac OS X 10.15; rv:88.0) Gecko/20100101 Firefox/88.0,Macintosh,Firefox,88,OS X,10.15
142,1,null,"""",image-keyboard-response,164,381451,0.0-164.0,"""",jspsych/disgustFaces/AM20DIS.JPG,"""",256,Cue,Test,null,16,"""","""","""","""","""","""","""","""",1,4/25/2021 18:17,98.42.46.186,Mozilla/5.0 (Macintosh; Intel Mac OS X 10.15; rv:88.0) Gecko/20100101 Firefox/88.0,Macintosh,Firefox,88,OS X,10.15
142,1,null,"""",image-keyboard-response,165,381556,0.0-165.0,"""",jspsych/neutralFaces/BM12NES.JPG,"""",256,backwardMask,Test,null,100,"""","""","""","""","""","""","""","""",1,4/25/2021 18:17,98.42.46.186,Mozilla/5.0 (Macintosh; Intel Mac OS X 10.15; rv:88.0) Gecko/20100101 Firefox/88.0,Macintosh,Firefox,88,OS X,10.15
142,1,null,"""",html-keyboard-response,166,382560,0.0-166.0,"""","<div style=""font-size:60px;"">+</div>","""",256,fixationBtwnNeutralMaskAndPrompt,Test,null,1000,"""","""","""","""","""","""","""","""",1,4/25/2021 18:17,98.42.46.186,Mozilla/5.0 (Macintosh; Intel Mac OS X 10.15; rv:88.0) Gecko/20100101 Firefox/88.0,Macintosh,Firefox,88,OS X,10.15
142,1,3084,"""",html-button-response,167,385648,0.0-167.0,"""","<img src='jspsych/CFDfaces/CFD-BM-203-001-N.jpg' height=""250px"">,</br><b>James</b>",0,256,IntactOrRearranged,Test,"""","""","""","""",CFD-BM-026-002-N.jpg,Dustin,1,"""","""",0,1,4/25/2021 18:17,98.42.46.186,Mozilla/5.0 (Macintosh; Intel Mac OS X 10.15; rv:88.0) Gecko/20100101 Firefox/88.0,Macintosh,Firefox,88,OS X,10.15
142,1,2747,"""",html-slider-response,168,388405,0.0-168.0,"""","<img src='jspsych/CFDfaces/CFD-BM-203-001-N.jpg' height=""250px"">,</br><b>James</b>","""",256,ConfidenceQuery,Test,"""","""","""","""",CFD-BM-026-002-N.jpg,Dustin,1,0,48,"""",1,4/25/2021 18:17,98.42.46.186,Mozilla/5.0 (Macintosh; Intel Mac OS X 10.15; rv:88.0) Gecko/20100101 Firefox/88.0,Macintosh,Firefox,88,OS X,10.15
142,1,null,"""",html-keyboard-response,169,389413,0.0-169.0,"""","<div style=""font-size:60px;"">+</div>","""",256,ITI,Test,null,1000,"""","""","""","""","""","""","""","""",1,4/25/2021 18:17,98.42.46.186,Mozilla/5.0 (Macintosh; Intel Mac OS X 10.15; rv:88.0) Gecko/20100101 Firefox/88.0,Macintosh,Firefox,88,OS X,10.15
142,1,null,"""",image-keyboard-response,170,389670,0.0-170.0,"""",jspsych/scrambledDisgustFaces/scrambledBF15DIS.JPG,"""",256,forwardMask,Test,null,250,"""",d,"""","""","""","""","""","""",1,4/25/2021 18:17,98.42.46.186,Mozilla/5.0 (Macintosh; Intel Mac OS X 10.15; rv:88.0) Gecko/20100101 Firefox/88.0,Macintosh,Firefox,88,OS X,10.15
142,1,null,"""",image-keyboard-response,171,389695,0.0-171.0,"""",jspsych/disgustFaces/BF15DIS.JPG,"""",256,Cue,Test,null,16,"""","""","""","""","""","""","""","""",1,4/25/2021 18:17,98.42.46.186,Mozilla/5.0 (Macintosh; Intel Mac OS X 10.15; rv:88.0) Gecko/20100101 Firefox/88.0,Macintosh,Firefox,88,OS X,10.15
142,1,null,"""",image-keyboard-response,172,389802,0.0-172.0,"""",jspsych/neutralFaces/BF05NES.JPG,"""",256,backwardMask,Test,null,100,"""","""","""","""","""","""","""","""",1,4/25/2021 18:17,98.42.46.186,Mozilla/5.0 (Macintosh; Intel Mac OS X 10.15; rv:88.0) Gecko/20100101 Firefox/88.0,Macintosh,Firefox,88,OS X,10.15
142,1,null,"""",html-keyboard-response,173,390808,0.0-173.0,"""","<div style=""font-size:60px;"">+</div>","""",256,fixationBtwnNeutralMaskAndPrompt,Test,null,1000,"""","""","""","""","""","""","""","""",1,4/25/2021 18:17,98.42.46.186,Mozilla/5.0 (Macintosh; Intel Mac OS X 10.15; rv:88.0) Gecko/20100101 Firefox/88.0,Macintosh,Firefox,88,OS X,10.15
142,1,2962,"""",html-button-response,174,393771,0.0-174.0,"""","<img src='jspsych/CFDfaces/CFD-BM-208-065-N.jpg' height=""250px"">,</br><b>Ian</b>",1,256,IntactOrRearranged,Test,"""","""","""","""",CFD-WM-237-052-N.jpg,Justin,0,"""","""",1,1,4/25/2021 18:17,98.42.46.186,Mozilla/5.0 (Macintosh; Intel Mac OS X 10.15; rv:88.0) Gecko/20100101 Firefox/88.0,Macintosh,Firefox,88,OS X,10.15
142,1,2410,"""",html-slider-response,175,396189,0.0-175.0,"""","<img src='jspsych/CFDfaces/CFD-BM-208-065-N.jpg' height=""250px"">,</br><b>Ian</b>","""",256,ConfidenceQuery,Test,"""","""","""","""",CFD-WM-237-052-N.jpg,Justin,0,0,28,"""",1,4/25/2021 18:17,98.42.46.186,Mozilla/5.0 (Macintosh; Intel Mac OS X 10.15; rv:88.0) Gecko/20100101 Firefox/88.0,Macintosh,Firefox,88,OS X,10.15
142,1,null,"""",html-keyboard-response,176,397194,0.0-176.0,"""","<div style=""font-size:60px;"">+</div>","""",256,ITI,Test,null,1000,"""","""","""","""","""","""","""","""",1,4/25/2021 18:17,98.42.46.186,Mozilla/5.0 (Macintosh; Intel Mac OS X 10.15; rv:88.0) Gecko/20100101 Firefox/88.0,Macintosh,Firefox,88,OS X,10.15
142,1,null,"""",image-keyboard-response,177,397451,0.0-177.0,"""",jspsych/scrambledNeutralFaces/scrambledBF26NES.JPG,"""",256,forwardMask,Test,null,250,"""",n,"""","""","""","""","""","""",1,4/25/2021 18:17,98.42.46.186,Mozilla/5.0 (Macintosh; Intel Mac OS X 10.15; rv:88.0) Gecko/20100101 Firefox/88.0,Macintosh,Firefox,88,OS X,10.15
142,1,null,"""",image-keyboard-response,178,397477,0.0-178.0,"""",jspsych/neutralFaces/BF26NES.JPG,"""",256,Cue,Test,null,16,"""","""","""","""","""","""","""","""",1,4/25/2021 18:17,98.42.46.186,Mozilla/5.0 (Macintosh; Intel Mac OS X 10.15; rv:88.0) Gecko/20100101 Firefox/88.0,Macintosh,Firefox,88,OS X,10.15
142,1,null,"""",image-keyboard-response,179,397587,0.0-179.0,"""",jspsych/neutralFaces/AF09NES.JPG,"""",256,backwardMask,Test,null,100,"""","""","""","""","""","""","""","""",1,4/25/2021 18:17,98.42.46.186,Mozilla/5.0 (Macintosh; Intel Mac OS X 10.15; rv:88.0) Gecko/20100101 Firefox/88.0,Macintosh,Firefox,88,OS X,10.15
142,1,null,"""",html-keyboard-response,180,398591,0.0-180.0,"""","<div style=""font-size:60px;"">+</div>","""",256,fixationBtwnNeutralMaskAndPrompt,Test,null,1000,"""","""","""","""","""","""","""","""",1,4/25/2021 18:17,98.42.46.186,Mozilla/5.0 (Macintosh; Intel Mac OS X 10.15; rv:88.0) Gecko/20100101 Firefox/88.0,Macintosh,Firefox,88,OS X,10.15
142,1,3995,"""",html-button-response,181,402592,0.0-181.0,"""","<img src='jspsych/CFDfaces/CFD-AF-237-223-N.jpg' height=""250px"">,</br><b>Brittany</b>",0,256,IntactOrRearranged,Test,"""","""","""","""",CFD-BF-209-172-N.jpg,Laura,0,"""","""",0,1,4/25/2021 18:17,98.42.46.186,Mozilla/5.0 (Macintosh; Intel Mac OS X 10.15; rv:88.0) Gecko/20100101 Firefox/88.0,Macintosh,Firefox,88,OS X,10.15
142,1,2332,"""",html-slider-response,182,404933,0.0-182.0,"""","<img src='jspsych/CFDfaces/CFD-AF-237-223-N.jpg' height=""250px"">,</br><b>Brittany</b>","""",256,ConfidenceQuery,Test,"""","""","""","""",CFD-BF-209-172-N.jpg,Laura,0,0,42,"""",1,4/25/2021 18:17,98.42.46.186,Mozilla/5.0 (Macintosh; Intel Mac OS X 10.15; rv:88.0) Gecko/20100101 Firefox/88.0,Macintosh,Firefox,88,OS X,10.15
142,1,null,"""",html-keyboard-response,183,405938,0.0-183.0,"""","<div style=""font-size:60px;"">+</div>","""",256,ITI,Test,null,1000,"""","""","""","""","""","""","""","""",1,4/25/2021 18:17,98.42.46.186,Mozilla/5.0 (Macintosh; Intel Mac OS X 10.15; rv:88.0) Gecko/20100101 Firefox/88.0,Macintosh,Firefox,88,OS X,10.15
142,1,null,"""",image-keyboard-response,184,406196,0.0-184.0,"""",jspsych/scrambledDisgustFaces/scrambledBF21DIS.JPG,"""",256,forwardMask,Test,null,250,"""",d,"""","""","""","""","""","""",1,4/25/2021 18:17,98.42.46.186,Mozilla/5.0 (Macintosh; Intel Mac OS X 10.15; rv:88.0) Gecko/20100101 Firefox/88.0,Macintosh,Firefox,88,OS X,10.15
142,1,null,"""",image-keyboard-response,185,406222,0.0-185.0,"""",jspsych/disgustFaces/BF21DIS.JPG,"""",256,Cue,Test,null,16,"""","""","""","""","""","""","""","""",1,4/25/2021 18:17,98.42.46.186,Mozilla/5.0 (Macintosh; Intel Mac OS X 10.15; rv:88.0) Gecko/20100101 Firefox/88.0,Macintosh,Firefox,88,OS X,10.15
142,1,null,"""",image-keyboard-response,186,406327,0.0-186.0,"""",jspsych/neutralFaces/BF31NES.JPG,"""",256,backwardMask,Test,null,100,"""","""","""","""","""","""","""","""",1,4/25/2021 18:17,98.42.46.186,Mozilla/5.0 (Macintosh; Intel Mac OS X 10.15; rv:88.0) Gecko/20100101 Firefox/88.0,Macintosh,Firefox,88,OS X,10.15
142,1,null,"""",html-keyboard-response,187,407330,0.0-187.0,"""","<div style=""font-size:60px;"">+</div>","""",256,fixationBtwnNeutralMaskAndPrompt,Test,null,1000,"""","""","""","""","""","""","""","""",1,4/25/2021 18:17,98.42.46.186,Mozilla/5.0 (Macintosh; Intel Mac OS X 10.15; rv:88.0) Gecko/20100101 Firefox/88.0,Macintosh,Firefox,88,OS X,10.15
142,1,2109,"""",html-button-response,188,409441,0.0-188.0,"""","<img src='jspsych/CFDfaces/CFD-LM-224-162-N.jpg' height=""250px"">,</br><b>Jason</b>",0,256,IntactOrRearranged,Test,"""","""","""","""",CFD-AM-221-184-N.jpg,Steven,0,"""","""",0,1,4/25/2021 18:17,98.42.46.186,Mozilla/5.0 (Macintosh; Intel Mac OS X 10.15; rv:88.0) Gecko/20100101 Firefox/88.0,Macintosh,Firefox,88,OS X,10.15
142,1,2770,"""",html-slider-response,189,412222,0.0-189.0,"""","<img src='jspsych/CFDfaces/CFD-LM-224-162-N.jpg' height=""250px"">,</br><b>Jason</b>","""",256,ConfidenceQuery,Test,"""","""","""","""",CFD-AM-221-184-N.jpg,Steven,0,0,74,"""",1,4/25/2021 18:17,98.42.46.186,Mozilla/5.0 (Macintosh; Intel Mac OS X 10.15; rv:88.0) Gecko/20100101 Firefox/88.0,Macintosh,Firefox,88,OS X,10.15
142,1,null,"""",html-keyboard-response,190,413226,0.0-190.0,"""","<div style=""font-size:60px;"">+</div>","""",256,ITI,Test,null,1000,"""","""","""","""","""","""","""","""",1,4/25/2021 18:17,98.42.46.186,Mozilla/5.0 (Macintosh; Intel Mac OS X 10.15; rv:88.0) Gecko/20100101 Firefox/88.0,Macintosh,Firefox,88,OS X,10.15
142,1,null,"""",image-keyboard-response,191,413482,0.0-191.0,"""",jspsych/scrambledNeutralFaces/scrambledAF17NES.JPG,"""",256,forwardMask,Test,null,250,"""",n,"""","""","""","""","""","""",1,4/25/2021 18:17,98.42.46.186,Mozilla/5.0 (Macintosh; Intel Mac OS X 10.15; rv:88.0) Gecko/20100101 Firefox/88.0,Macintosh,Firefox,88,OS X,10.15
142,1,null,"""",image-keyboard-response,192,413506,0.0-192.0,"""",jspsych/neutralFaces/AF17NES.JPG,"""",256,Cue,Test,null,16,"""","""","""","""","""","""","""","""",1,4/25/2021 18:17,98.42.46.186,Mozilla/5.0 (Macintosh; Intel Mac OS X 10.15; rv:88.0) Gecko/20100101 Firefox/88.0,Macintosh,Firefox,88,OS X,10.15
142,1,null,"""",image-keyboard-response,193,413613,0.0-193.0,"""",jspsych/neutralFaces/BF12NES.JPG,"""",256,backwardMask,Test,null,100,"""","""","""","""","""","""","""","""",1,4/25/2021 18:17,98.42.46.186,Mozilla/5.0 (Macintosh; Intel Mac OS X 10.15; rv:88.0) Gecko/20100101 Firefox/88.0,Macintosh,Firefox,88,OS X,10.15
142,1,null,"""",html-keyboard-response,194,414617,0.0-194.0,"""","<div style=""font-size:60px;"">+</div>","""",256,fixationBtwnNeutralMaskAndPrompt,Test,null,1000,"""","""","""","""","""","""","""","""",1,4/25/2021 18:17,98.42.46.186,Mozilla/5.0 (Macintosh; Intel Mac OS X 10.15; rv:88.0) Gecko/20100101 Firefox/88.0,Macintosh,Firefox,88,OS X,10.15
142,1,1924,"""",html-button-response,195,416542,0.0-195.0,"""","<img src='jspsych/CFDfaces/CFD-WF-024-003-N.jpg' height=""250px"">,</br><b>Kayla</b>",0,256,IntactOrRearranged,Test,"""","""","""","""",CFD-BF-039-031-N.jpg,Angela,0,"""","""",0,1,4/25/2021 18:17,98.42.46.186,Mozilla/5.0 (Macintosh; Intel Mac OS X 10.15; rv:88.0) Gecko/20100101 Firefox/88.0,Macintosh,Firefox,88,OS X,10.15
142,1,4008,"""",html-slider-response,196,420559,0.0-196.0,"""","<img src='jspsych/CFDfaces/CFD-WF-024-003-N.jpg' height=""250px"">,</br><b>Kayla</b>","""",256,ConfidenceQuery,Test,"""","""","""","""",CFD-BF-039-031-N.jpg,Angela,0,0,96,"""",1,4/25/2021 18:17,98.42.46.186,Mozilla/5.0 (Macintosh; Intel Mac OS X 10.15; rv:88.0) Gecko/20100101 Firefox/88.0,Macintosh,Firefox,88,OS X,10.15
142,1,null,"""",html-keyboard-response,197,421568,0.0-197.0,"""","<div style=""font-size:60px;"">+</div>","""",256,ITI,Test,null,1000,"""","""","""","""","""","""","""","""",1,4/25/2021 18:17,98.42.46.186,Mozilla/5.0 (Macintosh; Intel Mac OS X 10.15; rv:88.0) Gecko/20100101 Firefox/88.0,Macintosh,Firefox,88,OS X,10.15
142,1,null,"""",image-keyboard-response,198,421824,0.0-198.0,"""",jspsych/scrambledDisgustFaces/scrambledBM22DIS.JPG,"""",256,forwardMask,Test,null,250,"""",d,"""","""","""","""","""","""",1,4/25/2021 18:17,98.42.46.186,Mozilla/5.0 (Macintosh; Intel Mac OS X 10.15; rv:88.0) Gecko/20100101 Firefox/88.0,Macintosh,Firefox,88,OS X,10.15
142,1,null,"""",image-keyboard-response,199,421847,0.0-199.0,"""",jspsych/disgustFaces/BM23DIS.JPG,"""",256,Cue,Test,null,16,"""","""","""","""","""","""","""","""",1,4/25/2021 18:17,98.42.46.186,Mozilla/5.0 (Macintosh; Intel Mac OS X 10.15; rv:88.0) Gecko/20100101 Firefox/88.0,Macintosh,Firefox,88,OS X,10.15
142,1,null,"""",image-keyboard-response,200,421953,0.0-200.0,"""",jspsych/neutralFaces/AM17NES.JPG,"""",256,backwardMask,Test,null,100,"""","""","""","""","""","""","""","""",1,4/25/2021 18:17,98.42.46.186,Mozilla/5.0 (Macintosh; Intel Mac OS X 10.15; rv:88.0) Gecko/20100101 Firefox/88.0,Macintosh,Firefox,88,OS X,10.15
142,1,null,"""",html-keyboard-response,201,422957,0.0-201.0,"""","<div style=""font-size:60px;"">+</div>","""",256,fixationBtwnNeutralMaskAndPrompt,Test,null,1000,"""","""","""","""","""","""","""","""",1,4/25/2021 18:17,98.42.46.186,Mozilla/5.0 (Macintosh; Intel Mac OS X 10.15; rv:88.0) Gecko/20100101 Firefox/88.0,Macintosh,Firefox,88,OS X,10.15
142,1,null,"""",html-button-response,202,427968,0.0-202.0,"""","<img src='jspsych/CFDfaces/CFD-AM-202-079-N.jpg' height=""250px"">,</br><b>Nicholas</b>",null,256,IntactOrRearranged,Test,"""","""","""","""",CFD-BF-221-223-N.jpg,Jenna,0,"""","""","""",1,4/25/2021 18:17,98.42.46.186,Mozilla/5.0 (Macintosh; Intel Mac OS X 10.15; rv:88.0) Gecko/20100101 Firefox/88.0,Macintosh,Firefox,88,OS X,10.15
142,1,2316,"""",html-slider-response,203,430290,0.0-203.0,"""","<img src='jspsych/CFDfaces/CFD-AM-202-079-N.jpg' height=""250px"">,</br><b>Nicholas</b>","""",256,ConfidenceQuery,Test,"""","""","""","""",CFD-BF-221-223-N.jpg,Jenna,0,0,34,"""",1,4/25/2021 18:17,98.42.46.186,Mozilla/5.0 (Macintosh; Intel Mac OS X 10.15; rv:88.0) Gecko/20100101 Firefox/88.0,Macintosh,Firefox,88,OS X,10.15
142,1,null,"""",html-keyboard-response,204,431299,0.0-204.0,"""","<div style=""font-size:60px;"">+</div>","""",256,ITI,Test,null,1000,"""","""","""","""","""","""","""","""",1,4/25/2021 18:17,98.42.46.186,Mozilla/5.0 (Macintosh; Intel Mac OS X 10.15; rv:88.0) Gecko/20100101 Firefox/88.0,Macintosh,Firefox,88,OS X,10.15
142,1,null,"""",image-keyboard-response,205,431556,0.0-205.0,"""",jspsych/scrambledDisgustFaces/scrambledAM04DIS.JPG,"""",256,forwardMask,Test,null,250,"""",d,"""","""","""","""","""","""",1,4/25/2021 18:17,98.42.46.186,Mozilla/5.0 (Macintosh; Intel Mac OS X 10.15; rv:88.0) Gecko/20100101 Firefox/88.0,Macintosh,Firefox,88,OS X,10.15
142,1,null,"""",image-keyboard-response,206,431579,0.0-206.0,"""",jspsych/disgustFaces/AM04DIS.JPG,"""",256,Cue,Test,null,16,"""","""","""","""","""","""","""","""",1,4/25/2021 18:17,98.42.46.186,Mozilla/5.0 (Macintosh; Intel Mac OS X 10.15; rv:88.0) Gecko/20100101 Firefox/88.0,Macintosh,Firefox,88,OS X,10.15
142,1,null,"""",image-keyboard-response,207,431684,0.0-207.0,"""",jspsych/neutralFaces/AM31NES.JPG,"""",256,backwardMask,Test,null,100,"""","""","""","""","""","""","""","""",1,4/25/2021 18:17,98.42.46.186,Mozilla/5.0 (Macintosh; Intel Mac OS X 10.15; rv:88.0) Gecko/20100101 Firefox/88.0,Macintosh,Firefox,88,OS X,10.15
142,1,null,"""",html-keyboard-response,208,432690,0.0-208.0,"""","<div style=""font-size:60px;"">+</div>","""",256,fixationBtwnNeutralMaskAndPrompt,Test,null,1000,"""","""","""","""","""","""","""","""",1,4/25/2021 18:17,98.42.46.186,Mozilla/5.0 (Macintosh; Intel Mac OS X 10.15; rv:88.0) Gecko/20100101 Firefox/88.0,Macintosh,Firefox,88,OS X,10.15
142,1,2668,"""",html-button-response,209,435363,0.0-209.0,"""","<img src='jspsych/CFDfaces/CFD-WF-202-056-N.jpg' height=""250px"">,</br><b>Meghan</b>",0,256,IntactOrRearranged,Test,"""","""","""","""",CFD-AM-231-136-N.jpg,Austin,0,"""","""",0,1,4/25/2021 18:17,98.42.46.186,Mozilla/5.0 (Macintosh; Intel Mac OS X 10.15; rv:88.0) Gecko/20100101 Firefox/88.0,Macintosh,Firefox,88,OS X,10.15
142,1,4608,"""",html-slider-response,210,439976,0.0-210.0,"""","<img src='jspsych/CFDfaces/CFD-WF-202-056-N.jpg' height=""250px"">,</br><b>Meghan</b>","""",256,ConfidenceQuery,Test,"""","""","""","""",CFD-AM-231-136-N.jpg,Austin,0,0,18,"""",1,4/25/2021 18:17,98.42.46.186,Mozilla/5.0 (Macintosh; Intel Mac OS X 10.15; rv:88.0) Gecko/20100101 Firefox/88.0,Macintosh,Firefox,88,OS X,10.15
142,1,null,"""",html-keyboard-response,211,440988,0.0-211.0,"""","<div style=""font-size:60px;"">+</div>","""",256,ITI,Test,null,1000,"""","""","""","""","""","""","""","""",1,4/25/2021 18:17,98.42.46.186,Mozilla/5.0 (Macintosh; Intel Mac OS X 10.15; rv:88.0) Gecko/20100101 Firefox/88.0,Macintosh,Firefox,88,OS X,10.15
142,1,null,"""",image-keyboard-response,212,441248,0.0-212.0,"""",jspsych/scrambledDisgustFaces/scrambledBM11DIS.JPG,"""",256,forwardMask,Test,null,250,"""",d,"""","""","""","""","""","""",1,4/25/2021 18:17,98.42.46.186,Mozilla/5.0 (Macintosh; Intel Mac OS X 10.15; rv:88.0) Gecko/20100101 Firefox/88.0,Macintosh,Firefox,88,OS X,10.15
142,1,null,"""",image-keyboard-response,213,441267,0.0-213.0,"""",jspsych/disgustFaces/BM12DIS.JPG,"""",256,Cue,Test,null,16,"""","""","""","""","""","""","""","""",1,4/25/2021 18:17,98.42.46.186,Mozilla/5.0 (Macintosh; Intel Mac OS X 10.15; rv:88.0) Gecko/20100101 Firefox/88.0,Macintosh,Firefox,88,OS X,10.15
142,1,null,"""",image-keyboard-response,214,441378,0.0-214.0,"""",jspsych/neutralFaces/BM08NES.JPG,"""",256,backwardMask,Test,null,100,"""","""","""","""","""","""","""","""",1,4/25/2021 18:17,98.42.46.186,Mozilla/5.0 (Macintosh; Intel Mac OS X 10.15; rv:88.0) Gecko/20100101 Firefox/88.0,Macintosh,Firefox,88,OS X,10.15
142,1,null,"""",html-keyboard-response,215,442380,0.0-215.0,"""","<div style=""font-size:60px;"">+</div>","""",256,fixationBtwnNeutralMaskAndPrompt,Test,null,1000,"""","""","""","""","""","""","""","""",1,4/25/2021 18:17,98.42.46.186,Mozilla/5.0 (Macintosh; Intel Mac OS X 10.15; rv:88.0) Gecko/20100101 Firefox/88.0,Macintosh,Firefox,88,OS X,10.15
142,1,3632,"""",html-button-response,216,446014,0.0-216.0,"""","<img src='jspsych/CFDfaces/CFD-LF-213-079-N.jpg' height=""250px"">,</br><b>Samantha</b>",0,256,IntactOrRearranged,Test,"""","""","""","""",CFD-BF-212-315-N.jpg,Amy,0,"""","""",0,1,4/25/2021 18:17,98.42.46.186,Mozilla/5.0 (Macintosh; Intel Mac OS X 10.15; rv:88.0) Gecko/20100101 Firefox/88.0,Macintosh,Firefox,88,OS X,10.15
142,1,2324,"""",html-slider-response,217,448347,0.0-217.0,"""","<img src='jspsych/CFDfaces/CFD-LF-213-079-N.jpg' height=""250px"">,</br><b>Samantha</b>","""",256,ConfidenceQuery,Test,"""","""","""","""",CFD-BF-212-315-N.jpg,Amy,0,0,21,"""",1,4/25/2021 18:17,98.42.46.186,Mozilla/5.0 (Macintosh; Intel Mac OS X 10.15; rv:88.0) Gecko/20100101 Firefox/88.0,Macintosh,Firefox,88,OS X,10.15
142,1,null,"""",html-keyboard-response,218,449350,0.0-218.0,"""","<div style=""font-size:60px;"">+</div>","""",256,ITI,Test,null,1000,"""","""","""","""","""","""","""","""",1,4/25/2021 18:17,98.42.46.186,Mozilla/5.0 (Macintosh; Intel Mac OS X 10.15; rv:88.0) Gecko/20100101 Firefox/88.0,Macintosh,Firefox,88,OS X,10.15
142,1,null,"""",image-keyboard-response,219,449611,0.0-219.0,"""",jspsych/scrambledDisgustFaces/scrambledBF23DIS.JPG,"""",256,forwardMask,Test,null,250,"""",d,"""","""","""","""","""","""",1,4/25/2021 18:17,98.42.46.186,Mozilla/5.0 (Macintosh; Intel Mac OS X 10.15; rv:88.0) Gecko/20100101 Firefox/88.0,Macintosh,Firefox,88,OS X,10.15
142,1,null,"""",image-keyboard-response,220,449633,0.0-220.0,"""",jspsych/disgustFaces/BF23DIS.JPG,"""",256,Cue,Test,null,16,"""","""","""","""","""","""","""","""",1,4/25/2021 18:17,98.42.46.186,Mozilla/5.0 (Macintosh; Intel Mac OS X 10.15; rv:88.0) Gecko/20100101 Firefox/88.0,Macintosh,Firefox,88,OS X,10.15
142,1,null,"""",image-keyboard-response,221,449738,0.0-221.0,"""",jspsych/neutralFaces/AF24NES.JPG,"""",256,backwardMask,Test,null,100,"""","""","""","""","""","""","""","""",1,4/25/2021 18:17,98.42.46.186,Mozilla/5.0 (Macintosh; Intel Mac OS X 10.15; rv:88.0) Gecko/20100101 Firefox/88.0,Macintosh,Firefox,88,OS X,10.15
142,1,null,"""",html-keyboard-response,222,450741,0.0-222.0,"""","<div style=""font-size:60px;"">+</div>","""",256,fixationBtwnNeutralMaskAndPrompt,Test,null,1000,"""","""","""","""","""","""","""","""",1,4/25/2021 18:17,98.42.46.186,Mozilla/5.0 (Macintosh; Intel Mac OS X 10.15; rv:88.0) Gecko/20100101 Firefox/88.0,Macintosh,Firefox,88,OS X,10.15
142,1,2045,"""",html-button-response,223,452790,0.0-223.0,"""","<img src='jspsych/CFDfaces/CFD-WF-223-133-N.jpg' height=""250px"">,</br><b>Kimberly</b>",0,256,IntactOrRearranged,Test,"""","""","""","""",CFD-AM-230-150-N.jpg,Ryan,1,"""","""",0,1,4/25/2021 18:17,98.42.46.186,Mozilla/5.0 (Macintosh; Intel Mac OS X 10.15; rv:88.0) Gecko/20100101 Firefox/88.0,Macintosh,Firefox,88,OS X,10.15
142,1,2252,"""",html-slider-response,224,455051,0.0-224.0,"""","<img src='jspsych/CFDfaces/CFD-WF-223-133-N.jpg' height=""250px"">,</br><b>Kimberly</b>","""",256,ConfidenceQuery,Test,"""","""","""","""",CFD-AM-230-150-N.jpg,Ryan,1,0,9,"""",1,4/25/2021 18:17,98.42.46.186,Mozilla/5.0 (Macintosh; Intel Mac OS X 10.15; rv:88.0) Gecko/20100101 Firefox/88.0,Macintosh,Firefox,88,OS X,10.15
142,1,null,"""",html-keyboard-response,225,456054,0.0-225.0,"""","<div style=""font-size:60px;"">+</div>","""",256,ITI,Test,null,1000,"""","""","""","""","""","""","""","""",1,4/25/2021 18:17,98.42.46.186,Mozilla/5.0 (Macintosh; Intel Mac OS X 10.15; rv:88.0) Gecko/20100101 Firefox/88.0,Macintosh,Firefox,88,OS X,10.15
142,1,null,"""",image-keyboard-response,226,456310,0.0-226.0,"""",jspsych/scrambledNeutralFaces/scrambledAM18NES.JPG,"""",256,forwardMask,Test,null,250,"""",n,"""","""","""","""","""","""",1,4/25/2021 18:17,98.42.46.186,Mozilla/5.0 (Macintosh; Intel Mac OS X 10.15; rv:88.0) Gecko/20100101 Firefox/88.0,Macintosh,Firefox,88,OS X,10.15
142,1,null,"""",image-keyboard-response,227,456335,0.0-227.0,"""",jspsych/neutralFaces/AM18NES.JPG,"""",256,Cue,Test,null,16,"""","""","""","""","""","""","""","""",1,4/25/2021 18:17,98.42.46.186,Mozilla/5.0 (Macintosh; Intel Mac OS X 10.15; rv:88.0) Gecko/20100101 Firefox/88.0,Macintosh,Firefox,88,OS X,10.15
142,1,null,"""",image-keyboard-response,228,456442,0.0-228.0,"""",jspsych/neutralFaces/AM23NES.JPG,"""",256,backwardMask,Test,null,100,"""","""","""","""","""","""","""","""",1,4/25/2021 18:17,98.42.46.186,Mozilla/5.0 (Macintosh; Intel Mac OS X 10.15; rv:88.0) Gecko/20100101 Firefox/88.0,Macintosh,Firefox,88,OS X,10.15
142,1,null,"""",html-keyboard-response,229,457449,0.0-229.0,"""","<div style=""font-size:60px;"">+</div>","""",256,fixationBtwnNeutralMaskAndPrompt,Test,null,1000,"""","""","""","""","""","""","""","""",1,4/25/2021 18:17,98.42.46.186,Mozilla/5.0 (Macintosh; Intel Mac OS X 10.15; rv:88.0) Gecko/20100101 Firefox/88.0,Macintosh,Firefox,88,OS X,10.15
142,1,2178,"""",html-button-response,230,459630,0.0-230.0,"""","<img src='jspsych/CFDfaces/CFD-BF-009-002-N.jpg' height=""250px"">,</br><b>Julie</b>",0,256,IntactOrRearranged,Test,"""","""","""","""",CFD-WF-038-021-N.jpg,Lindsey,0,"""","""",0,1,4/25/2021 18:17,98.42.46.186,Mozilla/5.0 (Macintosh; Intel Mac OS X 10.15; rv:88.0) Gecko/20100101 Firefox/88.0,Macintosh,Firefox,88,OS X,10.15
142,1,1586,"""",html-slider-response,231,461228,0.0-231.0,"""","<img src='jspsych/CFDfaces/CFD-BF-009-002-N.jpg' height=""250px"">,</br><b>Julie</b>","""",256,ConfidenceQuery,Test,"""","""","""","""",CFD-WF-038-021-N.jpg,Lindsey,0,0,29,"""",1,4/25/2021 18:17,98.42.46.186,Mozilla/5.0 (Macintosh; Intel Mac OS X 10.15; rv:88.0) Gecko/20100101 Firefox/88.0,Macintosh,Firefox,88,OS X,10.15
142,1,null,"""",html-keyboard-response,232,462235,0.0-232.0,"""","<div style=""font-size:60px;"">+</div>","""",256,ITI,Test,null,1000,"""","""","""","""","""","""","""","""",1,4/25/2021 18:17,98.42.46.186,Mozilla/5.0 (Macintosh; Intel Mac OS X 10.15; rv:88.0) Gecko/20100101 Firefox/88.0,Macintosh,Firefox,88,OS X,10.15
142,1,null,"""",image-keyboard-response,233,462495,0.0-233.0,"""",jspsych/scrambledDisgustFaces/scrambledAF17DIS.JPG,"""",256,forwardMask,Test,null,250,"""",d,"""","""","""","""","""","""",1,4/25/2021 18:17,98.42.46.186,Mozilla/5.0 (Macintosh; Intel Mac OS X 10.15; rv:88.0) Gecko/20100101 Firefox/88.0,Macintosh,Firefox,88,OS X,10.15
142,1,null,"""",image-keyboard-response,234,462519,0.0-234.0,"""",jspsych/disgustFaces/AF17DIS.JPG,"""",256,Cue,Test,null,16,"""","""","""","""","""","""","""","""",1,4/25/2021 18:17,98.42.46.186,Mozilla/5.0 (Macintosh; Intel Mac OS X 10.15; rv:88.0) Gecko/20100101 Firefox/88.0,Macintosh,Firefox,88,OS X,10.15
142,1,null,"""",image-keyboard-response,235,462624,0.0-235.0,"""",jspsych/neutralFaces/BF09NES.JPG,"""",256,backwardMask,Test,null,100,"""","""","""","""","""","""","""","""",1,4/25/2021 18:17,98.42.46.186,Mozilla/5.0 (Macintosh; Intel Mac OS X 10.15; rv:88.0) Gecko/20100101 Firefox/88.0,Macintosh,Firefox,88,OS X,10.15
142,1,null,"""",html-keyboard-response,236,463628,0.0-236.0,"""","<div style=""font-size:60px;"">+</div>","""",256,fixationBtwnNeutralMaskAndPrompt,Test,null,1000,"""","""","""","""","""","""","""","""",1,4/25/2021 18:17,98.42.46.186,Mozilla/5.0 (Macintosh; Intel Mac OS X 10.15; rv:88.0) Gecko/20100101 Firefox/88.0,Macintosh,Firefox,88,OS X,10.15
142,1,1648,"""",html-button-response,237,465278,0.0-237.0,"""","<img src='jspsych/CFDfaces/CFD-LM-200-045-N.jpg' height=""250px"">,</br><b>Gregory</b>",0,256,IntactOrRearranged,Test,"""","""","""","""",CFD-LF-210-220-N.jpg,Rebecca,1,"""","""",0,1,4/25/2021 18:17,98.42.46.186,Mozilla/5.0 (Macintosh; Intel Mac OS X 10.15; rv:88.0) Gecko/20100101 Firefox/88.0,Macintosh,Firefox,88,OS X,10.15
142,1,2488,"""",html-slider-response,238,467775,0.0-238.0,"""","<img src='jspsych/CFDfaces/CFD-LM-200-045-N.jpg' height=""250px"">,</br><b>Gregory</b>","""",256,ConfidenceQuery,Test,"""","""","""","""",CFD-LF-210-220-N.jpg,Rebecca,1,0,50,"""",1,4/25/2021 18:17,98.42.46.186,Mozilla/5.0 (Macintosh; Intel Mac OS X 10.15; rv:88.0) Gecko/20100101 Firefox/88.0,Macintosh,Firefox,88,OS X,10.15
142,1,null,"""",html-keyboard-response,239,468780,0.0-239.0,"""","<div style=""font-size:60px;"">+</div>","""",256,ITI,Test,null,1000,"""","""","""","""","""","""","""","""",1,4/25/2021 18:17,98.42.46.186,Mozilla/5.0 (Macintosh; Intel Mac OS X 10.15; rv:88.0) Gecko/20100101 Firefox/88.0,Macintosh,Firefox,88,OS X,10.15
142,1,null,"""",image-keyboard-response,240,469035,0.0-240.0,"""",jspsych/scrambledNeutralFaces/scrambledAM21NES.JPG,"""",256,forwardMask,Test,null,250,"""",n,"""","""","""","""","""","""",1,4/25/2021 18:17,98.42.46.186,Mozilla/5.0 (Macintosh; Intel Mac OS X 10.15; rv:88.0) Gecko/20100101 Firefox/88.0,Macintosh,Firefox,88,OS X,10.15
142,1,null,"""",image-keyboard-response,241,469062,0.0-241.0,"""",jspsych/neutralFaces/AM21NES.JPG,"""",256,Cue,Test,null,16,"""","""","""","""","""","""","""","""",1,4/25/2021 18:17,98.42.46.186,Mozilla/5.0 (Macintosh; Intel Mac OS X 10.15; rv:88.0) Gecko/20100101 Firefox/88.0,Macintosh,Firefox,88,OS X,10.15
142,1,null,"""",image-keyboard-response,242,469171,0.0-242.0,"""",jspsych/neutralFaces/AM13NES.JPG,"""",256,backwardMask,Test,null,100,"""","""","""","""","""","""","""","""",1,4/25/2021 18:17,98.42.46.186,Mozilla/5.0 (Macintosh; Intel Mac OS X 10.15; rv:88.0) Gecko/20100101 Firefox/88.0,Macintosh,Firefox,88,OS X,10.15
142,1,null,"""",html-keyboard-response,243,470177,0.0-243.0,"""","<div style=""font-size:60px;"">+</div>","""",256,fixationBtwnNeutralMaskAndPrompt,Test,null,1000,"""","""","""","""","""","""","""","""",1,4/25/2021 18:17,98.42.46.186,Mozilla/5.0 (Macintosh; Intel Mac OS X 10.15; rv:88.0) Gecko/20100101 Firefox/88.0,Macintosh,Firefox,88,OS X,10.15
142,1,2345,"""",html-button-response,244,472523,0.0-244.0,"""","<img src='jspsych/CFDfaces/CFD-WF-023-003-N.jpg' height=""250px"">,</br><b>Andrea</b>",0,256,IntactOrRearranged,Test,"""","""","""","""",CFD-LF-203-066-N.jpg,Lauren,1,"""","""",0,1,4/25/2021 18:17,98.42.46.186,Mozilla/5.0 (Macintosh; Intel Mac OS X 10.15; rv:88.0) Gecko/20100101 Firefox/88.0,Macintosh,Firefox,88,OS X,10.15
142,1,3263,"""",html-slider-response,245,475797,0.0-245.0,"""","<img src='jspsych/CFDfaces/CFD-WF-023-003-N.jpg' height=""250px"">,</br><b>Andrea</b>","""",256,ConfidenceQuery,Test,"""","""","""","""",CFD-LF-203-066-N.jpg,Lauren,1,0,22,"""",1,4/25/2021 18:17,98.42.46.186,Mozilla/5.0 (Macintosh; Intel Mac OS X 10.15; rv:88.0) Gecko/20100101 Firefox/88.0,Macintosh,Firefox,88,OS X,10.15
142,1,null,"""",html-keyboard-response,246,476801,0.0-246.0,"""","<div style=""font-size:60px;"">+</div>","""",256,ITI,Test,null,1000,"""","""","""","""","""","""","""","""",1,4/25/2021 18:17,98.42.46.186,Mozilla/5.0 (Macintosh; Intel Mac OS X 10.15; rv:88.0) Gecko/20100101 Firefox/88.0,Macintosh,Firefox,88,OS X,10.15
142,1,null,"""",image-keyboard-response,247,477057,0.0-247.0,"""",jspsych/scrambledNeutralFaces/scrambledBM11NES.JPG,"""",256,forwardMask,Test,null,250,"""",n,"""","""","""","""","""","""",1,4/25/2021 18:17,98.42.46.186,Mozilla/5.0 (Macintosh; Intel Mac OS X 10.15; rv:88.0) Gecko/20100101 Firefox/88.0,Macintosh,Firefox,88,OS X,10.15
142,1,null,"""",image-keyboard-response,248,477078,0.0-248.0,"""",jspsych/neutralFaces/BM11NES.JPG,"""",256,Cue,Test,null,16,"""","""","""","""","""","""","""","""",1,4/25/2021 18:17,98.42.46.186,Mozilla/5.0 (Macintosh; Intel Mac OS X 10.15; rv:88.0) Gecko/20100101 Firefox/88.0,Macintosh,Firefox,88,OS X,10.15
142,1,null,"""",image-keyboard-response,249,477185,0.0-249.0,"""",jspsych/neutralFaces/BM24NES.JPG,"""",256,backwardMask,Test,null,100,"""","""","""","""","""","""","""","""",1,4/25/2021 18:17,98.42.46.186,Mozilla/5.0 (Macintosh; Intel Mac OS X 10.15; rv:88.0) Gecko/20100101 Firefox/88.0,Macintosh,Firefox,88,OS X,10.15
142,1,null,"""",html-keyboard-response,250,478188,0.0-250.0,"""","<div style=""font-size:60px;"">+</div>","""",256,fixationBtwnNeutralMaskAndPrompt,Test,null,1000,"""","""","""","""","""","""","""","""",1,4/25/2021 18:17,98.42.46.186,Mozilla/5.0 (Macintosh; Intel Mac OS X 10.15; rv:88.0) Gecko/20100101 Firefox/88.0,Macintosh,Firefox,88,OS X,10.15
142,1,3377,"""",html-button-response,251,481568,0.0-251.0,"""","<img src='jspsych/CFDfaces/CFD-WF-018-017-N.jpg' height=""250px"">,</br><b>Amanda</b>",0,256,IntactOrRearranged,Test,"""","""","""","""",CFD-AF-233-190-N.jpg,Whitney,1,"""","""",0,1,4/25/2021 18:17,98.42.46.186,Mozilla/5.0 (Macintosh; Intel Mac OS X 10.15; rv:88.0) Gecko/20100101 Firefox/88.0,Macintosh,Firefox,88,OS X,10.15
142,1,2105,"""",html-slider-response,252,483683,0.0-252.0,"""","<img src='jspsych/CFDfaces/CFD-WF-018-017-N.jpg' height=""250px"">,</br><b>Amanda</b>","""",256,ConfidenceQuery,Test,"""","""","""","""",CFD-AF-233-190-N.jpg,Whitney,1,0,12,"""",1,4/25/2021 18:17,98.42.46.186,Mozilla/5.0 (Macintosh; Intel Mac OS X 10.15; rv:88.0) Gecko/20100101 Firefox/88.0,Macintosh,Firefox,88,OS X,10.15
142,1,null,"""",html-keyboard-response,253,484686,0.0-253.0,"""","<div style=""font-size:60px;"">+</div>","""",256,ITI,Test,null,1000,"""","""","""","""","""","""","""","""",1,4/25/2021 18:17,98.42.46.186,Mozilla/5.0 (Macintosh; Intel Mac OS X 10.15; rv:88.0) Gecko/20100101 Firefox/88.0,Macintosh,Firefox,88,OS X,10.15
142,1,null,"""",image-keyboard-response,254,484946,0.0-254.0,"""",jspsych/scrambledNeutralFaces/scrambledBF08NES.JPG,"""",256,forwardMask,Test,null,250,"""",n,"""","""","""","""","""","""",1,4/25/2021 18:17,98.42.46.186,Mozilla/5.0 (Macintosh; Intel Mac OS X 10.15; rv:88.0) Gecko/20100101 Firefox/88.0,Macintosh,Firefox,88,OS X,10.15
142,1,null,"""",image-keyboard-response,255,484972,0.0-255.0,"""",jspsych/neutralFaces/BF08NES.JPG,"""",256,Cue,Test,null,16,"""","""","""","""","""","""","""","""",1,4/25/2021 18:17,98.42.46.186,Mozilla/5.0 (Macintosh; Intel Mac OS X 10.15; rv:88.0) Gecko/20100101 Firefox/88.0,Macintosh,Firefox,88,OS X,10.15
142,1,null,"""",image-keyboard-response,256,485081,0.0-256.0,"""",jspsych/neutralFaces/AF16NES.JPG,"""",256,backwardMask,Test,null,100,"""","""","""","""","""","""","""","""",1,4/25/2021 18:17,98.42.46.186,Mozilla/5.0 (Macintosh; Intel Mac OS X 10.15; rv:88.0) Gecko/20100101 Firefox/88.0,Macintosh,Firefox,88,OS X,10.15
142,1,null,"""",html-keyboard-response,257,486087,0.0-257.0,"""","<div style=""font-size:60px;"">+</div>","""",256,fixationBtwnNeutralMaskAndPrompt,Test,null,1000,"""","""","""","""","""","""","""","""",1,4/25/2021 18:17,98.42.46.186,Mozilla/5.0 (Macintosh; Intel Mac OS X 10.15; rv:88.0) Gecko/20100101 Firefox/88.0,Macintosh,Firefox,88,OS X,10.15
142,1,1936,"""",html-button-response,258,488026,0.0-258.0,"""","<img src='jspsych/CFDfaces/CFD-AF-200-228-N.jpg' height=""250px"">,</br><b>Elizabeth</b>",0,256,IntactOrRearranged,Test,"""","""","""","""",CFD-BF-019-001-N.jpg,Erin,1,"""","""",0,1,4/25/2021 18:17,98.42.46.186,Mozilla/5.0 (Macintosh; Intel Mac OS X 10.15; rv:88.0) Gecko/20100101 Firefox/88.0,Macintosh,Firefox,88,OS X,10.15
142,1,3253,"""",html-slider-response,259,491288,0.0-259.0,"""","<img src='jspsych/CFDfaces/CFD-AF-200-228-N.jpg' height=""250px"">,</br><b>Elizabeth</b>","""",256,ConfidenceQuery,Test,"""","""","""","""",CFD-BF-019-001-N.jpg,Erin,1,0,10,"""",1,4/25/2021 18:17,98.42.46.186,Mozilla/5.0 (Macintosh; Intel Mac OS X 10.15; rv:88.0) Gecko/20100101 Firefox/88.0,Macintosh,Firefox,88,OS X,10.15
142,1,null,"""",html-keyboard-response,260,492293,0.0-260.0,"""","<div style=""font-size:60px;"">+</div>","""",256,ITI,Test,null,1000,"""","""","""","""","""","""","""","""",1,4/25/2021 18:17,98.42.46.186,Mozilla/5.0 (Macintosh; Intel Mac OS X 10.15; rv:88.0) Gecko/20100101 Firefox/88.0,Macintosh,Firefox,88,OS X,10.15
142,1,null,"""",image-keyboard-response,261,492553,0.0-261.0,"""",jspsych/scrambledNeutralFaces/scrambledAF25NES.JPG,"""",256,forwardMask,Test,null,250,"""",n,"""","""","""","""","""","""",1,4/25/2021 18:17,98.42.46.186,Mozilla/5.0 (Macintosh; Intel Mac OS X 10.15; rv:88.0) Gecko/20100101 Firefox/88.0,Macintosh,Firefox,88,OS X,10.15
142,1,null,"""",image-keyboard-response,262,492577,0.0-262.0,"""",jspsych/neutralFaces/AF25NES.JPG,"""",256,Cue,Test,null,16,"""","""","""","""","""","""","""","""",1,4/25/2021 18:17,98.42.46.186,Mozilla/5.0 (Macintosh; Intel Mac OS X 10.15; rv:88.0) Gecko/20100101 Firefox/88.0,Macintosh,Firefox,88,OS X,10.15
142,1,null,"""",image-keyboard-response,263,492683,0.0-263.0,"""",jspsych/neutralFaces/AF17NES.JPG,"""",256,backwardMask,Test,null,100,"""","""","""","""","""","""","""","""",1,4/25/2021 18:17,98.42.46.186,Mozilla/5.0 (Macintosh; Intel Mac OS X 10.15; rv:88.0) Gecko/20100101 Firefox/88.0,Macintosh,Firefox,88,OS X,10.15
142,1,null,"""",html-keyboard-response,264,493686,0.0-264.0,"""","<div style=""font-size:60px;"">+</div>","""",256,fixationBtwnNeutralMaskAndPrompt,Test,null,1000,"""","""","""","""","""","""","""","""",1,4/25/2021 18:17,98.42.46.186,Mozilla/5.0 (Macintosh; Intel Mac OS X 10.15; rv:88.0) Gecko/20100101 Firefox/88.0,Macintosh,Firefox,88,OS X,10.15
142,1,4296,"""",html-button-response,265,497993,0.0-265.0,"""","<img src='jspsych/CFDfaces/CFD-AF-239-171-N.jpg' height=""250px"">,</br><b>Christina</b>",1,256,IntactOrRearranged,Test,"""","""","""","""",CFD-WM-222-057-N.jpg,Jesse,1,"""","""",1,1,4/25/2021 18:17,98.42.46.186,Mozilla/5.0 (Macintosh; Intel Mac OS X 10.15; rv:88.0) Gecko/20100101 Firefox/88.0,Macintosh,Firefox,88,OS X,10.15
142,1,1962,"""",html-slider-response,266,499962,0.0-266.0,"""","<img src='jspsych/CFDfaces/CFD-AF-239-171-N.jpg' height=""250px"">,</br><b>Christina</b>","""",256,ConfidenceQuery,Test,"""","""","""","""",CFD-WM-222-057-N.jpg,Jesse,1,0,21,"""",1,4/25/2021 18:17,98.42.46.186,Mozilla/5.0 (Macintosh; Intel Mac OS X 10.15; rv:88.0) Gecko/20100101 Firefox/88.0,Macintosh,Firefox,88,OS X,10.15
142,1,null,"""",html-keyboard-response,267,500973,0.0-267.0,"""","<div style=""font-size:60px;"">+</div>","""",256,ITI,Test,null,1000,"""","""","""","""","""","""","""","""",1,4/25/2021 18:17,98.42.46.186,Mozilla/5.0 (Macintosh; Intel Mac OS X 10.15; rv:88.0) Gecko/20100101 Firefox/88.0,Macintosh,Firefox,88,OS X,10.15
142,1,null,"""",image-keyboard-response,268,501228,0.0-268.0,"""",jspsych/scrambledNeutralFaces/scrambledAF34NES.JPG,"""",256,forwardMask,Test,null,250,"""",n,"""","""","""","""","""","""",1,4/25/2021 18:17,98.42.46.186,Mozilla/5.0 (Macintosh; Intel Mac OS X 10.15; rv:88.0) Gecko/20100101 Firefox/88.0,Macintosh,Firefox,88,OS X,10.15
142,1,null,"""",image-keyboard-response,269,501253,0.0-269.0,"""",jspsych/neutralFaces/AF34NES.JPG,"""",256,Cue,Test,null,16,"""","""","""","""","""","""","""","""",1,4/25/2021 18:17,98.42.46.186,Mozilla/5.0 (Macintosh; Intel Mac OS X 10.15; rv:88.0) Gecko/20100101 Firefox/88.0,Macintosh,Firefox,88,OS X,10.15
142,1,null,"""",image-keyboard-response,270,501364,0.0-270.0,"""",jspsych/neutralFaces/BF01NES.JPG,"""",256,backwardMask,Test,null,100,"""","""","""","""","""","""","""","""",1,4/25/2021 18:17,98.42.46.186,Mozilla/5.0 (Macintosh; Intel Mac OS X 10.15; rv:88.0) Gecko/20100101 Firefox/88.0,Macintosh,Firefox,88,OS X,10.15
142,1,null,"""",html-keyboard-response,271,502370,0.0-271.0,"""","<div style=""font-size:60px;"">+</div>","""",256,fixationBtwnNeutralMaskAndPrompt,Test,null,1000,"""","""","""","""","""","""","""","""",1,4/25/2021 18:17,98.42.46.186,Mozilla/5.0 (Macintosh; Intel Mac OS X 10.15; rv:88.0) Gecko/20100101 Firefox/88.0,Macintosh,Firefox,88,OS X,10.15
142,1,1818,"""",html-button-response,272,504191,0.0-272.0,"""","<img src='jspsych/CFDfaces/CFD-WF-017-003-N.jpg' height=""250px"">,</br><b>Emily</b>",0,256,IntactOrRearranged,Test,"""","""","""","""",CFD-AM-242-176-N.jpg,Cameron,1,"""","""",0,1,4/25/2021 18:17,98.42.46.186,Mozilla/5.0 (Macintosh; Intel Mac OS X 10.15; rv:88.0) Gecko/20100101 Firefox/88.0,Macintosh,Firefox,88,OS X,10.15
142,1,2136,"""",html-slider-response,273,506330,0.0-273.0,"""","<img src='jspsych/CFDfaces/CFD-WF-017-003-N.jpg' height=""250px"">,</br><b>Emily</b>","""",256,ConfidenceQuery,Test,"""","""","""","""",CFD-AM-242-176-N.jpg,Cameron,1,0,22,"""",1,4/25/2021 18:17,98.42.46.186,Mozilla/5.0 (Macintosh; Intel Mac OS X 10.15; rv:88.0) Gecko/20100101 Firefox/88.0,Macintosh,Firefox,88,OS X,10.15
142,1,null,"""",html-keyboard-response,274,507340,0.0-274.0,"""","<div style=""font-size:60px;"">+</div>","""",256,ITI,Test,null,1000,"""","""","""","""","""","""","""","""",1,4/25/2021 18:17,98.42.46.186,Mozilla/5.0 (Macintosh; Intel Mac OS X 10.15; rv:88.0) Gecko/20100101 Firefox/88.0,Macintosh,Firefox,88,OS X,10.15
142,1,null,"""",image-keyboard-response,275,507596,0.0-275.0,"""",jspsych/scrambledNeutralFaces/scrambledBF10NES.JPG,"""",256,forwardMask,Test,null,250,"""",n,"""","""","""","""","""","""",1,4/25/2021 18:17,98.42.46.186,Mozilla/5.0 (Macintosh; Intel Mac OS X 10.15; rv:88.0) Gecko/20100101 Firefox/88.0,Macintosh,Firefox,88,OS X,10.15
142,1,null,"""",image-keyboard-response,276,507621,0.0-276.0,"""",jspsych/neutralFaces/BF10NES.JPG,"""",256,Cue,Test,null,16,"""","""","""","""","""","""","""","""",1,4/25/2021 18:17,98.42.46.186,Mozilla/5.0 (Macintosh; Intel Mac OS X 10.15; rv:88.0) Gecko/20100101 Firefox/88.0,Macintosh,Firefox,88,OS X,10.15
142,1,null,"""",image-keyboard-response,277,507730,0.0-277.0,"""",jspsych/neutralFaces/BF17NES.JPG,"""",256,backwardMask,Test,null,100,"""","""","""","""","""","""","""","""",1,4/25/2021 18:17,98.42.46.186,Mozilla/5.0 (Macintosh; Intel Mac OS X 10.15; rv:88.0) Gecko/20100101 Firefox/88.0,Macintosh,Firefox,88,OS X,10.15
142,1,null,"""",html-keyboard-response,278,508733,0.0-278.0,"""","<div style=""font-size:60px;"">+</div>","""",256,fixationBtwnNeutralMaskAndPrompt,Test,null,1000,"""","""","""","""","""","""","""","""",1,4/25/2021 18:17,98.42.46.186,Mozilla/5.0 (Macintosh; Intel Mac OS X 10.15; rv:88.0) Gecko/20100101 Firefox/88.0,Macintosh,Firefox,88,OS X,10.15
142,1,3039,"""",html-button-response,279,511775,0.0-279.0,"""","<img src='jspsych/CFDfaces/CFD-AF-214-139-N.jpg' height=""250px"">,</br><b>Stephanie</b>",1,256,IntactOrRearranged,Test,"""","""","""","""",CFD-WM-003-002-N.jpg,Timothy,0,"""","""",1,1,4/25/2021 18:17,98.42.46.186,Mozilla/5.0 (Macintosh; Intel Mac OS X 10.15; rv:88.0) Gecko/20100101 Firefox/88.0,Macintosh,Firefox,88,OS X,10.15
142,1,2604,"""",html-slider-response,280,514385,0.0-280.0,"""","<img src='jspsych/CFDfaces/CFD-AF-214-139-N.jpg' height=""250px"">,</br><b>Stephanie</b>","""",256,ConfidenceQuery,Test,"""","""","""","""",CFD-WM-003-002-N.jpg,Timothy,0,0,82,"""",1,4/25/2021 18:17,98.42.46.186,Mozilla/5.0 (Macintosh; Intel Mac OS X 10.15; rv:88.0) Gecko/20100101 Firefox/88.0,Macintosh,Firefox,88,OS X,10.15
142,1,null,"""",html-keyboard-response,281,515395,0.0-281.0,"""","<div style=""font-size:60px;"">+</div>","""",256,ITI,Test,null,1000,"""","""","""","""","""","""","""","""",1,4/25/2021 18:17,98.42.46.186,Mozilla/5.0 (Macintosh; Intel Mac OS X 10.15; rv:88.0) Gecko/20100101 Firefox/88.0,Macintosh,Firefox,88,OS X,10.15
142,1,null,"""",image-keyboard-response,282,515650,0.0-282.0,"""",jspsych/scrambledNeutralFaces/scrambledAF12NES.JPG,"""",256,forwardMask,Test,null,250,"""",n,"""","""","""","""","""","""",1,4/25/2021 18:17,98.42.46.186,Mozilla/5.0 (Macintosh; Intel Mac OS X 10.15; rv:88.0) Gecko/20100101 Firefox/88.0,Macintosh,Firefox,88,OS X,10.15
142,1,null,"""",image-keyboard-response,283,515675,0.0-283.0,"""",jspsych/neutralFaces/AF12NES.JPG,"""",256,Cue,Test,null,16,"""","""","""","""","""","""","""","""",1,4/25/2021 18:17,98.42.46.186,Mozilla/5.0 (Macintosh; Intel Mac OS X 10.15; rv:88.0) Gecko/20100101 Firefox/88.0,Macintosh,Firefox,88,OS X,10.15
142,1,null,"""",image-keyboard-response,284,515786,0.0-284.0,"""",jspsych/neutralFaces/AF02NES.JPG,"""",256,backwardMask,Test,null,100,"""","""","""","""","""","""","""","""",1,4/25/2021 18:17,98.42.46.186,Mozilla/5.0 (Macintosh; Intel Mac OS X 10.15; rv:88.0) Gecko/20100101 Firefox/88.0,Macintosh,Firefox,88,OS X,10.15
142,1,null,"""",html-keyboard-response,285,516791,0.0-285.0,"""","<div style=""font-size:60px;"">+</div>","""",256,fixationBtwnNeutralMaskAndPrompt,Test,null,1000,"""","""","""","""","""","""","""","""",1,4/25/2021 18:17,98.42.46.186,Mozilla/5.0 (Macintosh; Intel Mac OS X 10.15; rv:88.0) Gecko/20100101 Firefox/88.0,Macintosh,Firefox,88,OS X,10.15
