run_id,condition,rt,responses,trial_type,trial_index,time_elapsed,internal_node_id,question_order,stimulus,button_pressed,iTrial,Phase,ExperimentPhase,key_press,StimulusDurationSetting,CharacterResponse,correctResponse,Face,Name,rearranged,didSubjectEnterRearranged,slider_start,response,Block,recorded_at,ip,user_agent,device,browser,browser_version,platform,platform_version
1,1,27367,"{""Q0"":""A3GVUYY3TWRPZT""}",survey-text,0,27394,0.0-0.0,"""","""","""","""","""","""","""","""","""","""","""","""","""","""","""","""","""",4/18/2021 15:39,24.88.15.124,Mozilla/5.0 (Windows NT 10.0; Win64; x64; rv:87.0) Gecko/20100101 Firefox/87.0,,Firefox,87,Windows,10
1,1,3548,"{""Q0"":""41""}",survey-text,1,30993,0.0-1.0,"""","""","""","""","""","""","""","""","""","""","""","""","""","""","""","""","""",4/18/2021 15:39,24.88.15.124,Mozilla/5.0 (Windows NT 10.0; Win64; x64; rv:87.0) Gecko/20100101 Firefox/87.0,,Firefox,87,Windows,10
1,1,6199,"{""Q0"":""female"",""Q1"":""Not Hispanic/Latino"",""Q2"":""White or Caucasian""}",survey-multi-choice,2,37216,0.0-2.0,"[0,1,2]","""","""","""","""","""","""","""","""","""","""","""","""","""","""","""","""",4/18/2021 15:39,24.88.15.124,Mozilla/5.0 (Windows NT 10.0; Win64; x64; rv:87.0) Gecko/20100101 Firefox/87.0,,Firefox,87,Windows,10
1,1,23492,"""",image-button-response,3,61174,0.0-3.0,"""",directionsMemoryAssociation1.JPG,0,1,IntroDirections1,break,"""","""","""","""","""","""","""","""","""","""","""",4/18/2021 15:39,24.88.15.124,Mozilla/5.0 (Windows NT 10.0; Win64; x64; rv:87.0) Gecko/20100101 Firefox/87.0,,Firefox,87,Windows,10
1,1,23618,"""",image-button-response,4,84828,0.0-4.0,"""",directionsMemoryAssociation2.JPG,0,1,IntroDirections2,break,"""","""","""","""","""","""","""","""","""","""","""",4/18/2021 15:39,24.88.15.124,Mozilla/5.0 (Windows NT 10.0; Win64; x64; rv:87.0) Gecko/20100101 Firefox/87.0,,Firefox,87,Windows,10
1,1,null,"""",html-keyboard-response,5,89892,0.0-5.0,"""","<img src='jspsych/CFDfaces/CFD-LM-219-295-N.jpg' height=""250px"">,</br><b>Marcus</b>","""",1,IntactFace,Practice,null,5000,"""","""","""","""","""","""","""","""","""",4/18/2021 15:39,24.88.15.124,Mozilla/5.0 (Windows NT 10.0; Win64; x64; rv:87.0) Gecko/20100101 Firefox/87.0,,Firefox,87,Windows,10
1,1,null,"""",html-keyboard-response,6,90417,0.0-6.0,"""","<div style=""font-size:60px;"">+</div>","""",1,ITI,Practice,null,1000,"""","""","""","""","""","""","""","""","""",4/18/2021 15:39,24.88.15.124,Mozilla/5.0 (Windows NT 10.0; Win64; x64; rv:87.0) Gecko/20100101 Firefox/87.0,,Firefox,87,Windows,10
1,1,1245,"""",html-keyboard-response,7,95463,0.0-7.0,"""","<img src='jspsych/CFDfaces/CFD-LM-223-175-N.jpg' height=""250px"">,</br><b>Carlos</b>","""",2,IntactFace,Practice,70,5000,f,"""","""","""","""","""","""","""","""",4/18/2021 15:39,24.88.15.124,Mozilla/5.0 (Windows NT 10.0; Win64; x64; rv:87.0) Gecko/20100101 Firefox/87.0,,Firefox,87,Windows,10
1,1,null,"""",html-keyboard-response,8,95998,0.0-8.0,"""","<div style=""font-size:60px;"">+</div>","""",2,ITI,Practice,null,1000,"""","""","""","""","""","""","""","""","""",4/18/2021 15:39,24.88.15.124,Mozilla/5.0 (Windows NT 10.0; Win64; x64; rv:87.0) Gecko/20100101 Firefox/87.0,,Firefox,87,Windows,10
1,1,3330,"""",html-keyboard-response,9,101008,0.0-9.0,"""","<img src='jspsych/CFDfaces/CFD-BM-211-174-N.jpg' height=""250px"">,</br><b>Patrick</b>","""",3,IntactFace,Practice,78,5000,n,"""","""","""","""","""","""","""","""",4/18/2021 15:39,24.88.15.124,Mozilla/5.0 (Windows NT 10.0; Win64; x64; rv:87.0) Gecko/20100101 Firefox/87.0,,Firefox,87,Windows,10
1,1,null,"""",html-keyboard-response,10,101538,0.0-10.0,"""","<div style=""font-size:60px;"">+</div>","""",3,ITI,Practice,null,1000,"""","""","""","""","""","""","""","""","""",4/18/2021 15:39,24.88.15.124,Mozilla/5.0 (Windows NT 10.0; Win64; x64; rv:87.0) Gecko/20100101 Firefox/87.0,,Firefox,87,Windows,10
1,1,2124,"""",html-keyboard-response,11,106553,0.0-11.0,"""","<img src='jspsych/CFDfaces/CFD-AF-214-139-N.jpg' height=""250px"">,</br><b>Tara</b>","""",4,IntactFace,Practice,78,5000,n,"""","""","""","""","""","""","""","""",4/18/2021 15:39,24.88.15.124,Mozilla/5.0 (Windows NT 10.0; Win64; x64; rv:87.0) Gecko/20100101 Firefox/87.0,,Firefox,87,Windows,10
1,1,null,"""",html-keyboard-response,12,107063,0.0-12.0,"""","<div style=""font-size:60px;"">+</div>","""",4,ITI,Practice,null,1000,"""","""","""","""","""","""","""","""","""",4/18/2021 15:39,24.88.15.124,Mozilla/5.0 (Windows NT 10.0; Win64; x64; rv:87.0) Gecko/20100101 Firefox/87.0,,Firefox,87,Windows,10
1,1,2860,"""",html-keyboard-response,13,112098,0.0-13.0,"""","<img src='jspsych/CFDfaces/CFD-BF-226-119-N.jpg' height=""250px"">,</br><b>Shannon</b>","""",5,IntactFace,Practice,70,5000,f,"""","""","""","""","""","""","""","""",4/18/2021 15:39,24.88.15.124,Mozilla/5.0 (Windows NT 10.0; Win64; x64; rv:87.0) Gecko/20100101 Firefox/87.0,,Firefox,87,Windows,10
1,1,null,"""",html-keyboard-response,14,112643,0.0-14.0,"""","<div style=""font-size:60px;"">+</div>","""",5,ITI,Practice,null,1000,"""","""","""","""","""","""","""","""","""",4/18/2021 15:39,24.88.15.124,Mozilla/5.0 (Windows NT 10.0; Win64; x64; rv:87.0) Gecko/20100101 Firefox/87.0,,Firefox,87,Windows,10
1,1,1904,"""",html-keyboard-response,15,117660,0.0-15.0,"""","<img src='jspsych/CFDfaces/CFD-BF-001-025-N.jpg' height=""250px"">,</br><b>Katelyn</b>","""",6,IntactFace,Practice,78,5000,n,"""","""","""","""","""","""","""","""",4/18/2021 15:39,24.88.15.124,Mozilla/5.0 (Windows NT 10.0; Win64; x64; rv:87.0) Gecko/20100101 Firefox/87.0,,Firefox,87,Windows,10
1,1,null,"""",html-keyboard-response,16,118188,0.0-16.0,"""","<div style=""font-size:60px;"">+</div>","""",6,ITI,Practice,null,1000,"""","""","""","""","""","""","""","""","""",4/18/2021 15:39,24.88.15.124,Mozilla/5.0 (Windows NT 10.0; Win64; x64; rv:87.0) Gecko/20100101 Firefox/87.0,,Firefox,87,Windows,10
1,1,2612,"""",html-keyboard-response,17,123207,0.0-17.0,"""","<img src='jspsych/CFDfaces/CFD-WF-223-133-N.jpg' height=""250px"">,</br><b>Cassandra</b>","""",7,IntactFace,Practice,70,5000,f,"""","""","""","""","""","""","""","""",4/18/2021 15:39,24.88.15.124,Mozilla/5.0 (Windows NT 10.0; Win64; x64; rv:87.0) Gecko/20100101 Firefox/87.0,,Firefox,87,Windows,10
1,1,null,"""",html-keyboard-response,18,123743,0.0-18.0,"""","<div style=""font-size:60px;"">+</div>","""",7,ITI,Practice,null,1000,"""","""","""","""","""","""","""","""","""",4/18/2021 15:39,24.88.15.124,Mozilla/5.0 (Windows NT 10.0; Win64; x64; rv:87.0) Gecko/20100101 Firefox/87.0,,Firefox,87,Windows,10
1,1,2332,"""",html-keyboard-response,19,128757,0.0-19.0,"""","<img src='jspsych/CFDfaces/CFD-BM-208-065-N.jpg' height=""250px"">,</br><b>Samuel</b>","""",8,IntactFace,Practice,78,5000,n,"""","""","""","""","""","""","""","""",4/18/2021 15:39,24.88.15.124,Mozilla/5.0 (Windows NT 10.0; Win64; x64; rv:87.0) Gecko/20100101 Firefox/87.0,,Firefox,87,Windows,10
1,1,null,"""",html-keyboard-response,20,129280,0.0-20.0,"""","<div style=""font-size:60px;"">+</div>","""",8,ITI,Practice,null,1000,"""","""","""","""","""","""","""","""","""",4/18/2021 15:39,24.88.15.124,Mozilla/5.0 (Windows NT 10.0; Win64; x64; rv:87.0) Gecko/20100101 Firefox/87.0,,Firefox,87,Windows,10
1,1,29993,"""",image-button-response,21,159317,0.0-21.0,"""",directionsForTest.JPG,0,1,directionsForTest,break,"""","""","""","""","""","""","""","""","""","""","""",4/18/2021 15:39,24.88.15.124,Mozilla/5.0 (Windows NT 10.0; Win64; x64; rv:87.0) Gecko/20100101 Firefox/87.0,,Firefox,87,Windows,10
1,1,11254,"""",image-button-response,22,170623,0.0-22.0,"""",directionsForTest2.JPG,0,1,directionsForTest2,break,"""","""","""","""","""","""","""","""","""","""","""",4/18/2021 15:39,24.88.15.124,Mozilla/5.0 (Windows NT 10.0; Win64; x64; rv:87.0) Gecko/20100101 Firefox/87.0,,Firefox,87,Windows,10
1,1,null,"""",html-keyboard-response,23,171643,0.0-23.0,"""","<div style=""font-size:60px;"">+</div>","""",1,ITI,Practice,null,1000,"""","""","""","""","""","""","""","""","""",4/18/2021 15:39,24.88.15.124,Mozilla/5.0 (Windows NT 10.0; Win64; x64; rv:87.0) Gecko/20100101 Firefox/87.0,,Firefox,87,Windows,10
1,1,null,"""",image-keyboard-response,24,171959,0.0-24.0,"""",jspsych/scrambledDisgustFaces/scrambledAF34DIS.JPG,"""",1,forwardMask,Practice,null,250,"""",d,"""","""","""","""","""","""","""",4/18/2021 15:39,24.88.15.124,Mozilla/5.0 (Windows NT 10.0; Win64; x64; rv:87.0) Gecko/20100101 Firefox/87.0,,Firefox,87,Windows,10
1,1,null,"""",image-keyboard-response,25,172001,0.0-25.0,"""",jspsych/disgustFaces/AF34DIS.JPG,"""",1,Cue,Practice,null,16,"""","""","""","""","""","""","""","""","""",4/18/2021 15:39,24.88.15.124,Mozilla/5.0 (Windows NT 10.0; Win64; x64; rv:87.0) Gecko/20100101 Firefox/87.0,,Firefox,87,Windows,10
1,1,null,"""",image-keyboard-response,26,172120,0.0-26.0,"""",jspsych/neutralFaces/AF31NES.JPG,"""",1,backwardMask,Practice,null,100,"""","""","""","""","""","""","""","""","""",4/18/2021 15:39,24.88.15.124,Mozilla/5.0 (Windows NT 10.0; Win64; x64; rv:87.0) Gecko/20100101 Firefox/87.0,,Firefox,87,Windows,10
1,1,null,"""",html-keyboard-response,27,173129,0.0-27.0,"""","<div style=""font-size:60px;"">+</div>","""",1,fixationBtwnNeutralMaskAndPrompt,Practice,null,1000,"""","""","""","""","""","""","""","""","""",4/18/2021 15:39,24.88.15.124,Mozilla/5.0 (Windows NT 10.0; Win64; x64; rv:87.0) Gecko/20100101 Firefox/87.0,,Firefox,87,Windows,10
1,1,4201,"""",html-button-response,28,177334,0.0-28.0,"""","<img src='jspsych/CFDfaces/CFD-BM-211-174-N.jpg'height=""250px""></br><b>Patrick</b>",0,1,IntactOrRearranged,Practice,"""","""","""","""",CFD-BM-211-174-N.jpg,Patrick,0,0,"""","""","""",4/18/2021 15:39,24.88.15.124,Mozilla/5.0 (Windows NT 10.0; Win64; x64; rv:87.0) Gecko/20100101 Firefox/87.0,,Firefox,87,Windows,10
1,1,null,"""",html-slider-response,29,182389,0.0-29.0,"""","<img src='jspsych/CFDfaces/CFD-BM-211-174-N.jpg'height=""250px""></br><b>Patrick</b>","""",1,ConfidenceQuery,Practice,"""","""","""","""",CFD-AM-228-214-N.jpg,Dustin,0,"""",0,null,"""",4/18/2021 15:39,24.88.15.124,Mozilla/5.0 (Windows NT 10.0; Win64; x64; rv:87.0) Gecko/20100101 Firefox/87.0,,Firefox,87,Windows,10
1,1,2565,"""",html-button-response,30,184984,0.0-30.0,"""",You are Correct. You called an Intact Pair Intact,0,1,feedback,Practice,"""","""","""","""","""","""","""","""","""","""","""",4/18/2021 15:39,24.88.15.124,Mozilla/5.0 (Windows NT 10.0; Win64; x64; rv:87.0) Gecko/20100101 Firefox/87.0,,Firefox,87,Windows,10
1,1,null,"""",html-keyboard-response,31,186000,0.0-31.0,"""","<div style=""font-size:60px;"">+</div>","""",2,ITI,Practice,null,1000,"""","""","""","""","""","""","""","""","""",4/18/2021 15:39,24.88.15.124,Mozilla/5.0 (Windows NT 10.0; Win64; x64; rv:87.0) Gecko/20100101 Firefox/87.0,,Firefox,87,Windows,10
1,1,null,"""",image-keyboard-response,32,186261,0.0-32.0,"""",jspsych/scrambledNeutralFaces/scrambledBF15NES.JPG,"""",2,forwardMask,Practice,null,250,"""",n,"""","""","""","""","""","""","""",4/18/2021 15:39,24.88.15.124,Mozilla/5.0 (Windows NT 10.0; Win64; x64; rv:87.0) Gecko/20100101 Firefox/87.0,,Firefox,87,Windows,10
1,1,null,"""",image-keyboard-response,33,186301,0.0-33.0,"""",jspsych/neutralFaces/BF15NES.JPG,"""",2,Cue,Practice,null,16,"""","""","""","""","""","""","""","""","""",4/18/2021 15:39,24.88.15.124,Mozilla/5.0 (Windows NT 10.0; Win64; x64; rv:87.0) Gecko/20100101 Firefox/87.0,,Firefox,87,Windows,10
1,1,null,"""",image-keyboard-response,34,186418,0.0-34.0,"""",jspsych/neutralFaces/AF34NES.JPG,"""",2,backwardMask,Practice,null,100,"""","""","""","""","""","""","""","""","""",4/18/2021 15:39,24.88.15.124,Mozilla/5.0 (Windows NT 10.0; Win64; x64; rv:87.0) Gecko/20100101 Firefox/87.0,,Firefox,87,Windows,10
1,1,null,"""",html-keyboard-response,35,187429,0.0-35.0,"""","<div style=""font-size:60px;"">+</div>","""",2,fixationBtwnNeutralMaskAndPrompt,Practice,null,1000,"""","""","""","""","""","""","""","""","""",4/18/2021 15:39,24.88.15.124,Mozilla/5.0 (Windows NT 10.0; Win64; x64; rv:87.0) Gecko/20100101 Firefox/87.0,,Firefox,87,Windows,10
1,1,2592,"""",html-button-response,36,190045,0.0-36.0,"""","<img src='jspsych/CFDfaces/CFD-BF-226-119-N.jpg'height=""250px""></br><b>Shannon</b>",0,2,IntactOrRearranged,Practice,"""","""","""","""",CFD-BF-226-119-N.jpg,Shannon,0,0,"""","""","""",4/18/2021 15:39,24.88.15.124,Mozilla/5.0 (Windows NT 10.0; Win64; x64; rv:87.0) Gecko/20100101 Firefox/87.0,,Firefox,87,Windows,10
1,1,3118,"""",html-slider-response,37,193191,0.0-37.0,"""","<img src='jspsych/CFDfaces/CFD-BF-226-119-N.jpg'height=""250px""></br><b>Shannon</b>","""",2,ConfidenceQuery,Practice,"""","""","""","""",CFD-AM-228-214-N.jpg,Dustin,0,"""",0,100,"""",4/18/2021 15:39,24.88.15.124,Mozilla/5.0 (Windows NT 10.0; Win64; x64; rv:87.0) Gecko/20100101 Firefox/87.0,,Firefox,87,Windows,10
1,1,2096,"""",html-button-response,38,195294,0.0-38.0,"""",You are Correct. You called an Intact Pair Intact,0,2,feedback,Practice,"""","""","""","""","""","""","""","""","""","""","""",4/18/2021 15:39,24.88.15.124,Mozilla/5.0 (Windows NT 10.0; Win64; x64; rv:87.0) Gecko/20100101 Firefox/87.0,,Firefox,87,Windows,10
1,1,null,"""",html-keyboard-response,39,196321,0.0-39.0,"""","<div style=""font-size:60px;"">+</div>","""",3,ITI,Practice,null,1000,"""","""","""","""","""","""","""","""","""",4/18/2021 15:39,24.88.15.124,Mozilla/5.0 (Windows NT 10.0; Win64; x64; rv:87.0) Gecko/20100101 Firefox/87.0,,Firefox,87,Windows,10
1,1,null,"""",image-keyboard-response,40,196647,0.0-40.0,"""",jspsych/scrambledNeutralFaces/scrambledAM23NES.JPG,"""",3,forwardMask,Practice,null,250,"""",n,"""","""","""","""","""","""","""",4/18/2021 15:39,24.88.15.124,Mozilla/5.0 (Windows NT 10.0; Win64; x64; rv:87.0) Gecko/20100101 Firefox/87.0,,Firefox,87,Windows,10
1,1,null,"""",image-keyboard-response,41,196714,0.0-41.0,"""",jspsych/neutralFaces/AM23NES.JPG,"""",3,Cue,Practice,null,16,"""","""","""","""","""","""","""","""","""",4/18/2021 15:39,24.88.15.124,Mozilla/5.0 (Windows NT 10.0; Win64; x64; rv:87.0) Gecko/20100101 Firefox/87.0,,Firefox,87,Windows,10
1,1,null,"""",image-keyboard-response,42,196852,0.0-42.0,"""",jspsych/neutralFaces/AM09NES.JPG,"""",3,backwardMask,Practice,null,100,"""","""","""","""","""","""","""","""","""",4/18/2021 15:39,24.88.15.124,Mozilla/5.0 (Windows NT 10.0; Win64; x64; rv:87.0) Gecko/20100101 Firefox/87.0,,Firefox,87,Windows,10
1,1,null,"""",html-keyboard-response,43,197868,0.0-43.0,"""","<div style=""font-size:60px;"">+</div>","""",3,fixationBtwnNeutralMaskAndPrompt,Practice,null,1000,"""","""","""","""","""","""","""","""","""",4/18/2021 15:39,24.88.15.124,Mozilla/5.0 (Windows NT 10.0; Win64; x64; rv:87.0) Gecko/20100101 Firefox/87.0,,Firefox,87,Windows,10
1,1,2189,"""",html-button-response,44,200061,0.0-44.0,"""","<img src='jspsych/CFDfaces/CFD-LM-219-295-N.jpg'height=""250px""></br><b>Carlos</b>",1,3,IntactOrRearranged,Practice,"""","""","""","""",CFD-LM-219-295-N.jpg,Carlos,1,1,"""","""","""",4/18/2021 15:39,24.88.15.124,Mozilla/5.0 (Windows NT 10.0; Win64; x64; rv:87.0) Gecko/20100101 Firefox/87.0,,Firefox,87,Windows,10
1,1,3849,"""",html-slider-response,45,203923,0.0-45.0,"""","<img src='jspsych/CFDfaces/CFD-LM-219-295-N.jpg'height=""250px""></br><b>Carlos</b>","""",3,ConfidenceQuery,Practice,"""","""","""","""",CFD-AM-228-214-N.jpg,Dustin,1,"""",0,88,"""",4/18/2021 15:39,24.88.15.124,Mozilla/5.0 (Windows NT 10.0; Win64; x64; rv:87.0) Gecko/20100101 Firefox/87.0,,Firefox,87,Windows,10
1,1,1776,"""",html-button-response,46,205718,0.0-46.0,"""",You are Correct. You Called A Rearranged Pair Rearranged,0,3,feedback,Practice,"""","""","""","""","""","""","""","""","""","""","""",4/18/2021 15:39,24.88.15.124,Mozilla/5.0 (Windows NT 10.0; Win64; x64; rv:87.0) Gecko/20100101 Firefox/87.0,,Firefox,87,Windows,10
1,1,null,"""",html-keyboard-response,47,206729,0.0-47.0,"""","<div style=""font-size:60px;"">+</div>","""",4,ITI,Practice,null,1000,"""","""","""","""","""","""","""","""","""",4/18/2021 15:39,24.88.15.124,Mozilla/5.0 (Windows NT 10.0; Win64; x64; rv:87.0) Gecko/20100101 Firefox/87.0,,Firefox,87,Windows,10
1,1,null,"""",image-keyboard-response,48,206996,0.0-48.0,"""",jspsych/scrambledDisgustFaces/scrambledAF25DIS.JPG,"""",4,forwardMask,Practice,null,250,"""",d,"""","""","""","""","""","""","""",4/18/2021 15:39,24.88.15.124,Mozilla/5.0 (Windows NT 10.0; Win64; x64; rv:87.0) Gecko/20100101 Firefox/87.0,,Firefox,87,Windows,10
1,1,null,"""",image-keyboard-response,49,207035,0.0-49.0,"""",jspsych/disgustFaces/AF25DIS.JPG,"""",4,Cue,Practice,null,16,"""","""","""","""","""","""","""","""","""",4/18/2021 15:39,24.88.15.124,Mozilla/5.0 (Windows NT 10.0; Win64; x64; rv:87.0) Gecko/20100101 Firefox/87.0,,Firefox,87,Windows,10
1,1,null,"""",image-keyboard-response,50,207174,0.0-50.0,"""",jspsych/neutralFaces/BF27NES.JPG,"""",4,backwardMask,Practice,null,100,"""","""","""","""","""","""","""","""","""",4/18/2021 15:39,24.88.15.124,Mozilla/5.0 (Windows NT 10.0; Win64; x64; rv:87.0) Gecko/20100101 Firefox/87.0,,Firefox,87,Windows,10
1,1,null,"""",html-keyboard-response,51,208182,0.0-51.0,"""","<div style=""font-size:60px;"">+</div>","""",4,fixationBtwnNeutralMaskAndPrompt,Practice,null,1000,"""","""","""","""","""","""","""","""","""",4/18/2021 15:39,24.88.15.124,Mozilla/5.0 (Windows NT 10.0; Win64; x64; rv:87.0) Gecko/20100101 Firefox/87.0,,Firefox,87,Windows,10
1,1,1788,"""",html-button-response,52,209974,0.0-52.0,"""","<img src='jspsych/CFDfaces/CFD-BF-001-025-N.jpg'height=""250px""></br><b>Cassandra</b>",1,4,IntactOrRearranged,Practice,"""","""","""","""",CFD-BF-001-025-N.jpg,Cassandra,1,1,"""","""","""",4/18/2021 15:39,24.88.15.124,Mozilla/5.0 (Windows NT 10.0; Win64; x64; rv:87.0) Gecko/20100101 Firefox/87.0,,Firefox,87,Windows,10
1,1,2951,"""",html-slider-response,53,212945,0.0-53.0,"""","<img src='jspsych/CFDfaces/CFD-BF-001-025-N.jpg'height=""250px""></br><b>Cassandra</b>","""",4,ConfidenceQuery,Practice,"""","""","""","""",CFD-AM-228-214-N.jpg,Dustin,1,"""",0,100,"""",4/18/2021 15:39,24.88.15.124,Mozilla/5.0 (Windows NT 10.0; Win64; x64; rv:87.0) Gecko/20100101 Firefox/87.0,,Firefox,87,Windows,10
1,1,1515,"""",html-button-response,54,214469,0.0-54.0,"""",You are Correct. You Called A Rearranged Pair Rearranged,0,4,feedback,Practice,"""","""","""","""","""","""","""","""","""","""","""",4/18/2021 15:39,24.88.15.124,Mozilla/5.0 (Windows NT 10.0; Win64; x64; rv:87.0) Gecko/20100101 Firefox/87.0,,Firefox,87,Windows,10
1,1,null,"""",html-keyboard-response,55,215492,0.0-55.0,"""","<div style=""font-size:60px;"">+</div>","""",5,ITI,Practice,null,1000,"""","""","""","""","""","""","""","""","""",4/18/2021 15:39,24.88.15.124,Mozilla/5.0 (Windows NT 10.0; Win64; x64; rv:87.0) Gecko/20100101 Firefox/87.0,,Firefox,87,Windows,10
1,1,null,"""",image-keyboard-response,56,215805,0.0-56.0,"""",jspsych/scrambledDisgustFaces/scrambledAM17DIS.JPG,"""",5,forwardMask,Practice,null,250,"""",d,"""","""","""","""","""","""","""",4/18/2021 15:39,24.88.15.124,Mozilla/5.0 (Windows NT 10.0; Win64; x64; rv:87.0) Gecko/20100101 Firefox/87.0,,Firefox,87,Windows,10
1,1,null,"""",image-keyboard-response,57,215839,0.0-57.0,"""",jspsych/disgustFaces/AM17DIS.JPG,"""",5,Cue,Practice,null,16,"""","""","""","""","""","""","""","""","""",4/18/2021 15:39,24.88.15.124,Mozilla/5.0 (Windows NT 10.0; Win64; x64; rv:87.0) Gecko/20100101 Firefox/87.0,,Firefox,87,Windows,10
1,1,null,"""",image-keyboard-response,58,215961,0.0-58.0,"""",jspsych/neutralFaces/BM06NES.JPG,"""",5,backwardMask,Practice,null,100,"""","""","""","""","""","""","""","""","""",4/18/2021 15:39,24.88.15.124,Mozilla/5.0 (Windows NT 10.0; Win64; x64; rv:87.0) Gecko/20100101 Firefox/87.0,,Firefox,87,Windows,10
1,1,null,"""",html-keyboard-response,59,216981,0.0-59.0,"""","<div style=""font-size:60px;"">+</div>","""",5,fixationBtwnNeutralMaskAndPrompt,Practice,null,1000,"""","""","""","""","""","""","""","""","""",4/18/2021 15:39,24.88.15.124,Mozilla/5.0 (Windows NT 10.0; Win64; x64; rv:87.0) Gecko/20100101 Firefox/87.0,,Firefox,87,Windows,10
1,1,2060,"""",html-button-response,60,219046,0.0-60.0,"""","<img src='jspsych/CFDfaces/CFD-LM-223-175-N.jpg'height=""250px""></br><b>Marcus</b>",1,5,IntactOrRearranged,Practice,"""","""","""","""",CFD-LM-223-175-N.jpg,Marcus,1,1,"""","""","""",4/18/2021 15:39,24.88.15.124,Mozilla/5.0 (Windows NT 10.0; Win64; x64; rv:87.0) Gecko/20100101 Firefox/87.0,,Firefox,87,Windows,10
1,1,3231,"""",html-slider-response,61,222290,0.0-61.0,"""","<img src='jspsych/CFDfaces/CFD-LM-223-175-N.jpg'height=""250px""></br><b>Marcus</b>","""",5,ConfidenceQuery,Practice,"""","""","""","""",CFD-AM-228-214-N.jpg,Dustin,1,"""",0,100,"""",4/18/2021 15:39,24.88.15.124,Mozilla/5.0 (Windows NT 10.0; Win64; x64; rv:87.0) Gecko/20100101 Firefox/87.0,,Firefox,87,Windows,10
1,1,1665,"""",html-button-response,62,224012,0.0-62.0,"""",You are Correct. You Called A Rearranged Pair Rearranged,0,5,feedback,Practice,"""","""","""","""","""","""","""","""","""","""","""",4/18/2021 15:39,24.88.15.124,Mozilla/5.0 (Windows NT 10.0; Win64; x64; rv:87.0) Gecko/20100101 Firefox/87.0,,Firefox,87,Windows,10
1,1,null,"""",html-keyboard-response,63,225045,0.0-63.0,"""","<div style=""font-size:60px;"">+</div>","""",6,ITI,Practice,null,1000,"""","""","""","""","""","""","""","""","""",4/18/2021 15:39,24.88.15.124,Mozilla/5.0 (Windows NT 10.0; Win64; x64; rv:87.0) Gecko/20100101 Firefox/87.0,,Firefox,87,Windows,10
1,1,null,"""",image-keyboard-response,64,225326,0.0-64.0,"""",jspsych/scrambledNeutralFaces/scrambledBM06NES.JPG,"""",6,forwardMask,Practice,null,250,"""",n,"""","""","""","""","""","""","""",4/18/2021 15:39,24.88.15.124,Mozilla/5.0 (Windows NT 10.0; Win64; x64; rv:87.0) Gecko/20100101 Firefox/87.0,,Firefox,87,Windows,10
1,1,null,"""",image-keyboard-response,65,225360,0.0-65.0,"""",jspsych/neutralFaces/BM06NES.JPG,"""",6,Cue,Practice,null,16,"""","""","""","""","""","""","""","""","""",4/18/2021 15:39,24.88.15.124,Mozilla/5.0 (Windows NT 10.0; Win64; x64; rv:87.0) Gecko/20100101 Firefox/87.0,,Firefox,87,Windows,10
1,1,null,"""",image-keyboard-response,66,225516,0.0-66.0,"""",jspsych/neutralFaces/AM18NES.JPG,"""",6,backwardMask,Practice,null,100,"""","""","""","""","""","""","""","""","""",4/18/2021 15:39,24.88.15.124,Mozilla/5.0 (Windows NT 10.0; Win64; x64; rv:87.0) Gecko/20100101 Firefox/87.0,,Firefox,87,Windows,10
1,1,null,"""",html-keyboard-response,67,226520,0.0-67.0,"""","<div style=""font-size:60px;"">+</div>","""",6,fixationBtwnNeutralMaskAndPrompt,Practice,null,1000,"""","""","""","""","""","""","""","""","""",4/18/2021 15:39,24.88.15.124,Mozilla/5.0 (Windows NT 10.0; Win64; x64; rv:87.0) Gecko/20100101 Firefox/87.0,,Firefox,87,Windows,10
1,1,2202,"""",html-button-response,68,228727,0.0-68.0,"""","<img src='jspsych/CFDfaces/CFD-BM-208-065-N.jpg'height=""250px""></br><b>Samuel</b>",0,6,IntactOrRearranged,Practice,"""","""","""","""",CFD-BM-208-065-N.jpg,Samuel,0,0,"""","""","""",4/18/2021 15:39,24.88.15.124,Mozilla/5.0 (Windows NT 10.0; Win64; x64; rv:87.0) Gecko/20100101 Firefox/87.0,,Firefox,87,Windows,10
1,1,3425,"""",html-slider-response,69,232189,0.0-69.0,"""","<img src='jspsych/CFDfaces/CFD-BM-208-065-N.jpg'height=""250px""></br><b>Samuel</b>","""",6,ConfidenceQuery,Practice,"""","""","""","""",CFD-AM-228-214-N.jpg,Dustin,0,"""",0,89,"""",4/18/2021 15:39,24.88.15.124,Mozilla/5.0 (Windows NT 10.0; Win64; x64; rv:87.0) Gecko/20100101 Firefox/87.0,,Firefox,87,Windows,10
1,1,1345,"""",html-button-response,70,233542,0.0-70.0,"""",You are Correct. You called an Intact Pair Intact,0,6,feedback,Practice,"""","""","""","""","""","""","""","""","""","""","""",4/18/2021 15:39,24.88.15.124,Mozilla/5.0 (Windows NT 10.0; Win64; x64; rv:87.0) Gecko/20100101 Firefox/87.0,,Firefox,87,Windows,10
1,1,null,"""",html-keyboard-response,71,234573,0.0-71.0,"""","<div style=""font-size:60px;"">+</div>","""",7,ITI,Practice,null,1000,"""","""","""","""","""","""","""","""","""",4/18/2021 15:39,24.88.15.124,Mozilla/5.0 (Windows NT 10.0; Win64; x64; rv:87.0) Gecko/20100101 Firefox/87.0,,Firefox,87,Windows,10
1,1,null,"""",image-keyboard-response,72,234886,0.0-72.0,"""",jspsych/scrambledDisgustFaces/scrambledAF22DIS.JPG,"""",7,forwardMask,Practice,null,250,"""",d,"""","""","""","""","""","""","""",4/18/2021 15:39,24.88.15.124,Mozilla/5.0 (Windows NT 10.0; Win64; x64; rv:87.0) Gecko/20100101 Firefox/87.0,,Firefox,87,Windows,10
1,1,null,"""",image-keyboard-response,73,234945,0.0-73.0,"""",jspsych/disgustFaces/AF22DIS.JPG,"""",7,Cue,Practice,null,16,"""","""","""","""","""","""","""","""","""",4/18/2021 15:39,24.88.15.124,Mozilla/5.0 (Windows NT 10.0; Win64; x64; rv:87.0) Gecko/20100101 Firefox/87.0,,Firefox,87,Windows,10
1,1,null,"""",image-keyboard-response,74,235125,0.0-74.0,"""",jspsych/neutralFaces/BF31NES.JPG,"""",7,backwardMask,Practice,null,100,"""","""","""","""","""","""","""","""","""",4/18/2021 15:39,24.88.15.124,Mozilla/5.0 (Windows NT 10.0; Win64; x64; rv:87.0) Gecko/20100101 Firefox/87.0,,Firefox,87,Windows,10
1,1,null,"""",html-keyboard-response,75,236206,0.0-75.0,"""","<div style=""font-size:60px;"">+</div>","""",7,fixationBtwnNeutralMaskAndPrompt,Practice,null,1000,"""","""","""","""","""","""","""","""","""",4/18/2021 15:39,24.88.15.124,Mozilla/5.0 (Windows NT 10.0; Win64; x64; rv:87.0) Gecko/20100101 Firefox/87.0,,Firefox,87,Windows,10
1,1,4182,"""",html-button-response,76,240406,0.0-76.0,"""","<img src='jspsych/CFDfaces/CFD-AF-214-139-N.jpg'height=""250px""></br><b>Tara</b>",1,7,IntactOrRearranged,Practice,"""","""","""","""",CFD-AF-214-139-N.jpg,Tara,0,1,"""","""","""",4/18/2021 15:39,24.88.15.124,Mozilla/5.0 (Windows NT 10.0; Win64; x64; rv:87.0) Gecko/20100101 Firefox/87.0,,Firefox,87,Windows,10
1,1,2644,"""",html-slider-response,77,243085,0.0-77.0,"""","<img src='jspsych/CFDfaces/CFD-AF-214-139-N.jpg'height=""250px""></br><b>Tara</b>","""",7,ConfidenceQuery,Practice,"""","""","""","""",CFD-AM-228-214-N.jpg,Dustin,0,"""",0,57,"""",4/18/2021 15:39,24.88.15.124,Mozilla/5.0 (Windows NT 10.0; Win64; x64; rv:87.0) Gecko/20100101 Firefox/87.0,,Firefox,87,Windows,10
1,1,1756,"""",html-button-response,78,244846,0.0-78.0,"""",You are Incorrect. You Called an Intact Pair Rearranged,0,7,feedback,Practice,"""","""","""","""","""","""","""","""","""","""","""",4/18/2021 15:39,24.88.15.124,Mozilla/5.0 (Windows NT 10.0; Win64; x64; rv:87.0) Gecko/20100101 Firefox/87.0,,Firefox,87,Windows,10
1,1,null,"""",html-keyboard-response,79,245867,0.0-79.0,"""","<div style=""font-size:60px;"">+</div>","""",8,ITI,Practice,null,1000,"""","""","""","""","""","""","""","""","""",4/18/2021 15:39,24.88.15.124,Mozilla/5.0 (Windows NT 10.0; Win64; x64; rv:87.0) Gecko/20100101 Firefox/87.0,,Firefox,87,Windows,10
1,1,null,"""",image-keyboard-response,80,246206,0.0-80.0,"""",jspsych/scrambledDisgustFaces/scrambledBM02DIS.JPG,"""",8,forwardMask,Practice,null,250,"""",d,"""","""","""","""","""","""","""",4/18/2021 15:39,24.88.15.124,Mozilla/5.0 (Windows NT 10.0; Win64; x64; rv:87.0) Gecko/20100101 Firefox/87.0,,Firefox,87,Windows,10
1,1,null,"""",image-keyboard-response,81,246249,0.0-81.0,"""",jspsych/disgustFaces/BM03DIS.JPG,"""",8,Cue,Practice,null,16,"""","""","""","""","""","""","""","""","""",4/18/2021 15:39,24.88.15.124,Mozilla/5.0 (Windows NT 10.0; Win64; x64; rv:87.0) Gecko/20100101 Firefox/87.0,,Firefox,87,Windows,10
1,1,null,"""",image-keyboard-response,82,246370,0.0-82.0,"""",jspsych/neutralFaces/BM24NES.JPG,"""",8,backwardMask,Practice,null,100,"""","""","""","""","""","""","""","""","""",4/18/2021 15:39,24.88.15.124,Mozilla/5.0 (Windows NT 10.0; Win64; x64; rv:87.0) Gecko/20100101 Firefox/87.0,,Firefox,87,Windows,10
1,1,null,"""",html-keyboard-response,83,247410,0.0-83.0,"""","<div style=""font-size:60px;"">+</div>","""",8,fixationBtwnNeutralMaskAndPrompt,Practice,null,1000,"""","""","""","""","""","""","""","""","""",4/18/2021 15:39,24.88.15.124,Mozilla/5.0 (Windows NT 10.0; Win64; x64; rv:87.0) Gecko/20100101 Firefox/87.0,,Firefox,87,Windows,10
1,1,3879,"""",html-button-response,84,251294,0.0-84.0,"""","<img src='jspsych/CFDfaces/CFD-WF-223-133-N.jpg'height=""250px""></br><b>Katelyn</b>",1,8,IntactOrRearranged,Practice,"""","""","""","""",CFD-WF-223-133-N.jpg,Katelyn,1,1,"""","""","""",4/18/2021 15:39,24.88.15.124,Mozilla/5.0 (Windows NT 10.0; Win64; x64; rv:87.0) Gecko/20100101 Firefox/87.0,,Firefox,87,Windows,10
1,1,2757,"""",html-slider-response,85,254078,0.0-85.0,"""","<img src='jspsych/CFDfaces/CFD-WF-223-133-N.jpg'height=""250px""></br><b>Katelyn</b>","""",8,ConfidenceQuery,Practice,"""","""","""","""",CFD-AM-228-214-N.jpg,Dustin,1,"""",0,90,"""",4/18/2021 15:39,24.88.15.124,Mozilla/5.0 (Windows NT 10.0; Win64; x64; rv:87.0) Gecko/20100101 Firefox/87.0,,Firefox,87,Windows,10
1,1,1423,"""",html-button-response,86,255512,0.0-86.0,"""",You are Correct. You Called A Rearranged Pair Rearranged,0,8,feedback,Practice,"""","""","""","""","""","""","""","""","""","""","""",4/18/2021 15:39,24.88.15.124,Mozilla/5.0 (Windows NT 10.0; Win64; x64; rv:87.0) Gecko/20100101 Firefox/87.0,,Firefox,87,Windows,10
1,1,14226,"""",image-button-response,87,269769,0.0-87.0,"""",directionsMemoryAssociation3.JPG,0,128,DirectionsBeforeActualTEst,Break,"""","""","""","""","""","""","""","""","""","""","""",4/18/2021 15:39,24.88.15.124,Mozilla/5.0 (Windows NT 10.0; Win64; x64; rv:87.0) Gecko/20100101 Firefox/87.0,,Firefox,87,Windows,10
1,1,2233,"""",image-button-response,88,272024,0.0-88.0,"""",directionsForTest2.JPG,0,1,directionsForTest2,break,"""","""","""","""","""","""","""","""","""","""","""",4/18/2021 15:39,24.88.15.124,Mozilla/5.0 (Windows NT 10.0; Win64; x64; rv:87.0) Gecko/20100101 Firefox/87.0,,Firefox,87,Windows,10
1,1,15496,"""",html-button-response,89,287527,0.0-89.0,"""","<p>You will be asked to memorize and then recall four sets of face-name pairs. </p> <p> Each set will have 32 pairs. </p> <p>After the fourth set, there will be a brief follow-up experiment (<40 min alltogether)</p>",0,"""","""","""","""","""","""","""","""","""","""","""","""","""","""",4/18/2021 15:39,24.88.15.124,Mozilla/5.0 (Windows NT 10.0; Win64; x64; rv:87.0) Gecko/20100101 Firefox/87.0,,Firefox,87,Windows,10
1,1,1962,"""",html-keyboard-response,90,292563,0.0-90.0,"""","<img src='jspsych/CFDfaces/CFD-LM-239-075-N.jpg' height=""250px""></br><b>Peter</b>","""",256,IntactFace,Memorization,78,5000,n,"""",CFD-WM-237-052-N.jpg,Travis,0,"""","""","""",1,4/18/2021 15:39,24.88.15.124,Mozilla/5.0 (Windows NT 10.0; Win64; x64; rv:87.0) Gecko/20100101 Firefox/87.0,,Firefox,87,Windows,10
1,1,null,"""",html-keyboard-response,91,293067,0.0-91.0,"""","<div style=""font-size:60px;"">+</div>","""",256,fixation,Memorization,null,500,"""","""","""","""","""","""","""","""",1,4/18/2021 15:39,24.88.15.124,Mozilla/5.0 (Windows NT 10.0; Win64; x64; rv:87.0) Gecko/20100101 Firefox/87.0,,Firefox,87,Windows,10
1,1,2438,"""",html-keyboard-response,92,298093,0.0-92.0,"""","<img src='jspsych/CFDfaces/CFD-LF-208-127-N.jpg' height=""250px""></br><b>Ashley</b>","""",256,IntactFace,Memorization,78,5000,n,"""",CFD-LF-239-148-N.jpg,Erin,0,"""","""","""",1,4/18/2021 15:39,24.88.15.124,Mozilla/5.0 (Windows NT 10.0; Win64; x64; rv:87.0) Gecko/20100101 Firefox/87.0,,Firefox,87,Windows,10
1,1,null,"""",html-keyboard-response,93,298612,0.0-93.0,"""","<div style=""font-size:60px;"">+</div>","""",256,fixation,Memorization,null,500,"""","""","""","""","""","""","""","""",1,4/18/2021 15:39,24.88.15.124,Mozilla/5.0 (Windows NT 10.0; Win64; x64; rv:87.0) Gecko/20100101 Firefox/87.0,,Firefox,87,Windows,10
1,1,2124,"""",html-keyboard-response,94,303633,0.0-94.0,"""","<img src='jspsych/CFDfaces/CFD-AF-240-206-N.jpg' height=""250px""></br><b>Samantha</b>","""",256,IntactFace,Memorization,78,5000,n,"""",CFD-BF-209-172-N.jpg,Laura,0,"""","""","""",1,4/18/2021 15:39,24.88.15.124,Mozilla/5.0 (Windows NT 10.0; Win64; x64; rv:87.0) Gecko/20100101 Firefox/87.0,,Firefox,87,Windows,10
1,1,null,"""",html-keyboard-response,95,304153,0.0-95.0,"""","<div style=""font-size:60px;"">+</div>","""",256,fixation,Memorization,null,500,"""","""","""","""","""","""","""","""",1,4/18/2021 15:39,24.88.15.124,Mozilla/5.0 (Windows NT 10.0; Win64; x64; rv:87.0) Gecko/20100101 Firefox/87.0,,Firefox,87,Windows,10
1,1,2139,"""",html-keyboard-response,96,309215,0.0-96.0,"""","<img src='jspsych/CFDfaces/CFD-AF-243-170-N.jpg' height=""250px""></br><b>Michelle</b>","""",256,IntactFace,Memorization,70,5000,f,"""",CFD-LF-200-058-N.jpg,Angela,0,"""","""","""",1,4/18/2021 15:39,24.88.15.124,Mozilla/5.0 (Windows NT 10.0; Win64; x64; rv:87.0) Gecko/20100101 Firefox/87.0,,Firefox,87,Windows,10
1,1,null,"""",html-keyboard-response,97,309725,0.0-97.0,"""","<div style=""font-size:60px;"">+</div>","""",256,fixation,Memorization,null,500,"""","""","""","""","""","""","""","""",1,4/18/2021 15:39,24.88.15.124,Mozilla/5.0 (Windows NT 10.0; Win64; x64; rv:87.0) Gecko/20100101 Firefox/87.0,,Firefox,87,Windows,10
1,1,1932,"""",html-keyboard-response,98,314766,0.0-98.0,"""","<img src='jspsych/CFDfaces/CFD-LM-217-162-N.jpg' height=""250px""></br><b>Jason</b>","""",256,IntactFace,Memorization,78,5000,n,"""",CFD-BM-032-024-N.jpg,Sean,0,"""","""","""",1,4/18/2021 15:39,24.88.15.124,Mozilla/5.0 (Windows NT 10.0; Win64; x64; rv:87.0) Gecko/20100101 Firefox/87.0,,Firefox,87,Windows,10
1,1,null,"""",html-keyboard-response,99,315275,0.0-99.0,"""","<div style=""font-size:60px;"">+</div>","""",256,fixation,Memorization,null,500,"""","""","""","""","""","""","""","""",1,4/18/2021 15:39,24.88.15.124,Mozilla/5.0 (Windows NT 10.0; Win64; x64; rv:87.0) Gecko/20100101 Firefox/87.0,,Firefox,87,Windows,10
1,1,1812,"""",html-keyboard-response,100,320305,0.0-100.0,"""","<img src='jspsych/CFDfaces/CFD-WF-006-002-N.jpg' height=""250px""></br><b>Elizabeth</b>","""",256,IntactFace,Memorization,70,5000,f,"""",CFD-AM-229-224-N.jpg,Cameron,0,"""","""","""",1,4/18/2021 15:39,24.88.15.124,Mozilla/5.0 (Windows NT 10.0; Win64; x64; rv:87.0) Gecko/20100101 Firefox/87.0,,Firefox,87,Windows,10
1,1,null,"""",html-keyboard-response,101,320817,0.0-101.0,"""","<div style=""font-size:60px;"">+</div>","""",256,fixation,Memorization,null,500,"""","""","""","""","""","""","""","""",1,4/18/2021 15:39,24.88.15.124,Mozilla/5.0 (Windows NT 10.0; Win64; x64; rv:87.0) Gecko/20100101 Firefox/87.0,,Firefox,87,Windows,10
1,1,1754,"""",html-keyboard-response,102,325844,0.0-102.0,"""","<img src='jspsych/CFDfaces/CFD-WM-222-057-N.jpg' height=""250px""></br><b>Nicholas</b>","""",256,IntactFace,Memorization,70,5000,f,"""",CFD-LF-236-221-N.jpg,Jordan,0,"""","""","""",1,4/18/2021 15:39,24.88.15.124,Mozilla/5.0 (Windows NT 10.0; Win64; x64; rv:87.0) Gecko/20100101 Firefox/87.0,,Firefox,87,Windows,10
1,1,null,"""",html-keyboard-response,103,326367,0.0-103.0,"""","<div style=""font-size:60px;"">+</div>","""",256,fixation,Memorization,null,500,"""","""","""","""","""","""","""","""",1,4/18/2021 15:39,24.88.15.124,Mozilla/5.0 (Windows NT 10.0; Win64; x64; rv:87.0) Gecko/20100101 Firefox/87.0,,Firefox,87,Windows,10
1,1,1697,"""",html-keyboard-response,104,331395,0.0-104.0,"""","<img src='jspsych/CFDfaces/CFD-WF-023-003-N.jpg' height=""250px""></br><b>Kimberly</b>","""",256,IntactFace,Memorization,70,5000,f,"""",CFD-AM-248-104-N.jpg,Steven,0,"""","""","""",1,4/18/2021 15:39,24.88.15.124,Mozilla/5.0 (Windows NT 10.0; Win64; x64; rv:87.0) Gecko/20100101 Firefox/87.0,,Firefox,87,Windows,10
1,1,null,"""",html-keyboard-response,105,331915,0.0-105.0,"""","<div style=""font-size:60px;"">+</div>","""",256,fixation,Memorization,null,500,"""","""","""","""","""","""","""","""",1,4/18/2021 15:39,24.88.15.124,Mozilla/5.0 (Windows NT 10.0; Win64; x64; rv:87.0) Gecko/20100101 Firefox/87.0,,Firefox,87,Windows,10
1,1,1626,"""",html-keyboard-response,106,336938,0.0-106.0,"""","<img src='jspsych/CFDfaces/CFD-LF-218-072-N.jpg' height=""250px""></br><b>Victoria</b>","""",256,IntactFace,Memorization,78,5000,n,"""",CFD-AF-241-141-N.jpg,Sara,0,"""","""","""",1,4/18/2021 15:39,24.88.15.124,Mozilla/5.0 (Windows NT 10.0; Win64; x64; rv:87.0) Gecko/20100101 Firefox/87.0,,Firefox,87,Windows,10
1,1,null,"""",html-keyboard-response,107,337444,0.0-107.0,"""","<div style=""font-size:60px;"">+</div>","""",256,fixation,Memorization,null,500,"""","""","""","""","""","""","""","""",1,4/18/2021 15:39,24.88.15.124,Mozilla/5.0 (Windows NT 10.0; Win64; x64; rv:87.0) Gecko/20100101 Firefox/87.0,,Firefox,87,Windows,10
1,1,1673,"""",html-keyboard-response,108,342482,0.0-108.0,"""","<img src='jspsych/CFDfaces/CFD-LF-230-203-N.jpg' height=""250px""></br><b>Andrea</b>","""",256,IntactFace,Memorization,78,5000,n,"""",CFD-AM-238-269-N.jpg,Mark,0,"""","""","""",1,4/18/2021 15:39,24.88.15.124,Mozilla/5.0 (Windows NT 10.0; Win64; x64; rv:87.0) Gecko/20100101 Firefox/87.0,,Firefox,87,Windows,10
1,1,null,"""",html-keyboard-response,109,343007,0.0-109.0,"""","<div style=""font-size:60px;"">+</div>","""",256,fixation,Memorization,null,500,"""","""","""","""","""","""","""","""",1,4/18/2021 15:39,24.88.15.124,Mozilla/5.0 (Windows NT 10.0; Win64; x64; rv:87.0) Gecko/20100101 Firefox/87.0,,Firefox,87,Windows,10
1,1,1516,"""",html-keyboard-response,110,348039,0.0-110.0,"""","<img src='jspsych/CFDfaces/CFD-WM-017-002-N.jpg' height=""250px""></br><b>Brian</b>","""",256,IntactFace,Memorization,70,5000,f,"""",CFD-BF-004-014-N.jpg,Heather,0,"""","""","""",1,4/18/2021 15:39,24.88.15.124,Mozilla/5.0 (Windows NT 10.0; Win64; x64; rv:87.0) Gecko/20100101 Firefox/87.0,,Firefox,87,Windows,10
1,1,null,"""",html-keyboard-response,111,348550,0.0-111.0,"""","<div style=""font-size:60px;"">+</div>","""",256,fixation,Memorization,null,500,"""","""","""","""","""","""","""","""",1,4/18/2021 15:39,24.88.15.124,Mozilla/5.0 (Windows NT 10.0; Win64; x64; rv:87.0) Gecko/20100101 Firefox/87.0,,Firefox,87,Windows,10
1,1,2519,"""",html-keyboard-response,112,353555,0.0-112.0,"""","<img src='jspsych/CFDfaces/CFD-BM-010-003-N.jpg' height=""250px""></br><b>Brandon</b>","""",256,IntactFace,Memorization,70,5000,f,"""",CFD-AF-235-170-N.jpg,Lindsey,0,"""","""","""",1,4/18/2021 15:39,24.88.15.124,Mozilla/5.0 (Windows NT 10.0; Win64; x64; rv:87.0) Gecko/20100101 Firefox/87.0,,Firefox,87,Windows,10
1,1,null,"""",html-keyboard-response,113,354104,0.0-113.0,"""","<div style=""font-size:60px;"">+</div>","""",256,fixation,Memorization,null,500,"""","""","""","""","""","""","""","""",1,4/18/2021 15:39,24.88.15.124,Mozilla/5.0 (Windows NT 10.0; Win64; x64; rv:87.0) Gecko/20100101 Firefox/87.0,,Firefox,87,Windows,10
1,1,2395,"""",html-keyboard-response,114,359118,0.0-114.0,"""","<img src='jspsych/CFDfaces/CFD-WM-215-041-N.jpg' height=""250px""></br><b>Eric</b>","""",256,IntactFace,Memorization,70,5000,f,"""",CFD-BF-222-240-N.jpg,Lauren,0,"""","""","""",1,4/18/2021 15:39,24.88.15.124,Mozilla/5.0 (Windows NT 10.0; Win64; x64; rv:87.0) Gecko/20100101 Firefox/87.0,,Firefox,87,Windows,10
1,1,null,"""",html-keyboard-response,115,359669,0.0-115.0,"""","<div style=""font-size:60px;"">+</div>","""",256,fixation,Memorization,null,500,"""","""","""","""","""","""","""","""",1,4/18/2021 15:39,24.88.15.124,Mozilla/5.0 (Windows NT 10.0; Win64; x64; rv:87.0) Gecko/20100101 Firefox/87.0,,Firefox,87,Windows,10
1,1,1658,"""",html-keyboard-response,116,364691,0.0-116.0,"""","<img src='jspsych/CFDfaces/CFD-WM-015-002-N.jpg' height=""250px""></br><b>Juan</b>","""",256,IntactFace,Memorization,78,5000,n,"""",CFD-AM-207-108-N.jpg,Kenneth,0,"""","""","""",1,4/18/2021 15:39,24.88.15.124,Mozilla/5.0 (Windows NT 10.0; Win64; x64; rv:87.0) Gecko/20100101 Firefox/87.0,,Firefox,87,Windows,10
1,1,null,"""",html-keyboard-response,117,365233,0.0-117.0,"""","<div style=""font-size:60px;"">+</div>","""",256,fixation,Memorization,null,500,"""","""","""","""","""","""","""","""",1,4/18/2021 15:39,24.88.15.124,Mozilla/5.0 (Windows NT 10.0; Win64; x64; rv:87.0) Gecko/20100101 Firefox/87.0,,Firefox,87,Windows,10
1,1,1532,"""",html-keyboard-response,118,370250,0.0-118.0,"""","<img src='jspsych/CFDfaces/CFD-BM-026-002-N.jpg' height=""250px""></br><b>Ian</b>","""",256,IntactFace,Memorization,78,5000,n,"""",CFD-AF-230-193-N.jpg,Rebecca,0,"""","""","""",1,4/18/2021 15:39,24.88.15.124,Mozilla/5.0 (Windows NT 10.0; Win64; x64; rv:87.0) Gecko/20100101 Firefox/87.0,,Firefox,87,Windows,10
1,1,null,"""",html-keyboard-response,119,370795,0.0-119.0,"""","<div style=""font-size:60px;"">+</div>","""",256,fixation,Memorization,null,500,"""","""","""","""","""","""","""","""",1,4/18/2021 15:39,24.88.15.124,Mozilla/5.0 (Windows NT 10.0; Win64; x64; rv:87.0) Gecko/20100101 Firefox/87.0,,Firefox,87,Windows,10
1,1,1358,"""",html-keyboard-response,120,375813,0.0-120.0,"""","<img src='jspsych/CFDfaces/CFD-WM-216-061-N.jpg' height=""250px""></br><b>James</b>","""",256,IntactFace,Memorization,70,5000,f,"""",CFD-WM-032-001-N.jpg,Justin,0,"""","""","""",1,4/18/2021 15:39,24.88.15.124,Mozilla/5.0 (Windows NT 10.0; Win64; x64; rv:87.0) Gecko/20100101 Firefox/87.0,,Firefox,87,Windows,10
1,1,null,"""",html-keyboard-response,121,376351,0.0-121.0,"""","<div style=""font-size:60px;"">+</div>","""",256,fixation,Memorization,null,500,"""","""","""","""","""","""","""","""",1,4/18/2021 15:39,24.88.15.124,Mozilla/5.0 (Windows NT 10.0; Win64; x64; rv:87.0) Gecko/20100101 Firefox/87.0,,Firefox,87,Windows,10
1,1,1582,"""",html-keyboard-response,122,381378,0.0-122.0,"""","<img src='jspsych/CFDfaces/CFD-AF-209-006-N.jpg' height=""250px""></br><b>Meghan</b>","""",256,IntactFace,Memorization,78,5000,n,"""",CFD-WM-207-048-N.jpg,Jesse,0,"""","""","""",1,4/18/2021 15:39,24.88.15.124,Mozilla/5.0 (Windows NT 10.0; Win64; x64; rv:87.0) Gecko/20100101 Firefox/87.0,,Firefox,87,Windows,10
1,1,null,"""",html-keyboard-response,123,381915,0.0-123.0,"""","<div style=""font-size:60px;"">+</div>","""",256,fixation,Memorization,null,500,"""","""","""","""","""","""","""","""",1,4/18/2021 15:39,24.88.15.124,Mozilla/5.0 (Windows NT 10.0; Win64; x64; rv:87.0) Gecko/20100101 Firefox/87.0,,Firefox,87,Windows,10
1,1,2232,"""",html-keyboard-response,124,386939,0.0-124.0,"""","<img src='jspsych/CFDfaces/CFD-AF-200-228-N.jpg' height=""250px""></br><b>Julie</b>","""",256,IntactFace,Memorization,78,5000,n,"""",CFD-BF-201-080-N.jpg,Taylor,0,"""","""","""",1,4/18/2021 15:39,24.88.15.124,Mozilla/5.0 (Windows NT 10.0; Win64; x64; rv:87.0) Gecko/20100101 Firefox/87.0,,Firefox,87,Windows,10
1,1,null,"""",html-keyboard-response,125,387475,0.0-125.0,"""","<div style=""font-size:60px;"">+</div>","""",256,fixation,Memorization,null,500,"""","""","""","""","""","""","""","""",1,4/18/2021 15:39,24.88.15.124,Mozilla/5.0 (Windows NT 10.0; Win64; x64; rv:87.0) Gecko/20100101 Firefox/87.0,,Firefox,87,Windows,10
1,1,1920,"""",html-keyboard-response,126,392499,0.0-126.0,"""","<img src='jspsych/CFDfaces/CFD-LM-221-216-N.jpg' height=""250px""></br><b>Daniel</b>","""",256,IntactFace,Memorization,70,5000,f,"""",CFD-BM-018-001-N.jpg,Ryan,0,"""","""","""",1,4/18/2021 15:39,24.88.15.124,Mozilla/5.0 (Windows NT 10.0; Win64; x64; rv:87.0) Gecko/20100101 Firefox/87.0,,Firefox,87,Windows,10
1,1,null,"""",html-keyboard-response,127,393051,0.0-127.0,"""","<div style=""font-size:60px;"">+</div>","""",256,fixation,Memorization,null,500,"""","""","""","""","""","""","""","""",1,4/18/2021 15:39,24.88.15.124,Mozilla/5.0 (Windows NT 10.0; Win64; x64; rv:87.0) Gecko/20100101 Firefox/87.0,,Firefox,87,Windows,10
1,1,2346,"""",html-keyboard-response,128,398091,0.0-128.0,"""","<img src='jspsych/CFDfaces/CFD-WM-041-021-N.jpg' height=""250px""></br><b>Christian</b>","""",256,IntactFace,Memorization,70,5000,f,"""",CFD-LF-231-260-N.jpg,Jenna,0,"""","""","""",1,4/18/2021 15:39,24.88.15.124,Mozilla/5.0 (Windows NT 10.0; Win64; x64; rv:87.0) Gecko/20100101 Firefox/87.0,,Firefox,87,Windows,10
1,1,null,"""",html-keyboard-response,129,398619,0.0-129.0,"""","<div style=""font-size:60px;"">+</div>","""",256,fixation,Memorization,null,500,"""","""","""","""","""","""","""","""",1,4/18/2021 15:39,24.88.15.124,Mozilla/5.0 (Windows NT 10.0; Win64; x64; rv:87.0) Gecko/20100101 Firefox/87.0,,Firefox,87,Windows,10
1,1,1814,"""",html-keyboard-response,130,403650,0.0-130.0,"""","<img src='jspsych/CFDfaces/CFD-WF-217-085-N.jpg' height=""250px""></br><b>Vanessa</b>","""",256,IntactFace,Memorization,78,5000,n,"""",CFD-LM-233-171-N.jpg,Jacob,0,"""","""","""",1,4/18/2021 15:39,24.88.15.124,Mozilla/5.0 (Windows NT 10.0; Win64; x64; rv:87.0) Gecko/20100101 Firefox/87.0,,Firefox,87,Windows,10
1,1,null,"""",html-keyboard-response,131,404168,0.0-131.0,"""","<div style=""font-size:60px;"">+</div>","""",256,fixation,Memorization,null,500,"""","""","""","""","""","""","""","""",1,4/18/2021 15:39,24.88.15.124,Mozilla/5.0 (Windows NT 10.0; Win64; x64; rv:87.0) Gecko/20100101 Firefox/87.0,,Firefox,87,Windows,10
1,1,1756,"""",html-keyboard-response,132,409198,0.0-132.0,"""","<img src='jspsych/CFDfaces/CFD-WM-009-002-N.jpg' height=""250px""></br><b>Robert</b>","""",256,IntactFace,Memorization,70,5000,f,"""",CFD-LM-246-087-N.jpg,Jeremy,0,"""","""","""",1,4/18/2021 15:39,24.88.15.124,Mozilla/5.0 (Windows NT 10.0; Win64; x64; rv:87.0) Gecko/20100101 Firefox/87.0,,Firefox,87,Windows,10
1,1,null,"""",html-keyboard-response,133,409708,0.0-133.0,"""","<div style=""font-size:60px;"">+</div>","""",256,fixation,Memorization,null,500,"""","""","""","""","""","""","""","""",1,4/18/2021 15:39,24.88.15.124,Mozilla/5.0 (Windows NT 10.0; Win64; x64; rv:87.0) Gecko/20100101 Firefox/87.0,,Firefox,87,Windows,10
1,1,2292,"""",html-keyboard-response,134,414744,0.0-134.0,"""","<img src='jspsych/CFDfaces/CFD-BM-207-024-N.jpg' height=""250px""></br><b>Jeffrey</b>","""",256,IntactFace,Memorization,70,5000,f,"""",CFD-WF-218-087-N.jpg,Melissa,0,"""","""","""",1,4/18/2021 15:39,24.88.15.124,Mozilla/5.0 (Windows NT 10.0; Win64; x64; rv:87.0) Gecko/20100101 Firefox/87.0,,Firefox,87,Windows,10
1,1,null,"""",html-keyboard-response,135,415251,0.0-135.0,"""","<div style=""font-size:60px;"">+</div>","""",256,fixation,Memorization,null,500,"""","""","""","""","""","""","""","""",1,4/18/2021 15:39,24.88.15.124,Mozilla/5.0 (Windows NT 10.0; Win64; x64; rv:87.0) Gecko/20100101 Firefox/87.0,,Firefox,87,Windows,10
1,1,1956,"""",html-keyboard-response,136,420286,0.0-136.0,"""","<img src='jspsych/CFDfaces/CFD-BF-221-223-N.jpg' height=""250px""></br><b>Amanda</b>","""",256,IntactFace,Memorization,78,5000,n,"""",CFD-AF-215-70-N.jpg,Tiffany,0,"""","""","""",1,4/18/2021 15:39,24.88.15.124,Mozilla/5.0 (Windows NT 10.0; Win64; x64; rv:87.0) Gecko/20100101 Firefox/87.0,,Firefox,87,Windows,10
1,1,null,"""",html-keyboard-response,137,420806,0.0-137.0,"""","<div style=""font-size:60px;"">+</div>","""",256,fixation,Memorization,null,500,"""","""","""","""","""","""","""","""",1,4/18/2021 15:39,24.88.15.124,Mozilla/5.0 (Windows NT 10.0; Win64; x64; rv:87.0) Gecko/20100101 Firefox/87.0,,Firefox,87,Windows,10
1,1,1977,"""",html-keyboard-response,138,425844,0.0-138.0,"""","<img src='jspsych/CFDfaces/CFD-LF-205-100-N.jpg' height=""250px""></br><b>Stephanie</b>","""",256,IntactFace,Memorization,78,5000,n,"""",CFD-LF-232-199-N.jpg,Amy,0,"""","""","""",1,4/18/2021 15:39,24.88.15.124,Mozilla/5.0 (Windows NT 10.0; Win64; x64; rv:87.0) Gecko/20100101 Firefox/87.0,,Firefox,87,Windows,10
1,1,null,"""",html-keyboard-response,139,426370,0.0-139.0,"""","<div style=""font-size:60px;"">+</div>","""",256,fixation,Memorization,null,500,"""","""","""","""","""","""","""","""",1,4/18/2021 15:39,24.88.15.124,Mozilla/5.0 (Windows NT 10.0; Win64; x64; rv:87.0) Gecko/20100101 Firefox/87.0,,Firefox,87,Windows,10
1,1,1972,"""",html-keyboard-response,140,431441,0.0-140.0,"""","<img src='jspsych/CFDfaces/CFD-WF-200-099-N.jpg' height=""250px""></br><b>Christina</b>","""",256,IntactFace,Memorization,70,5000,f,"""",CFD-AF-237-223-N.jpg,Whitney,0,"""","""","""",1,4/18/2021 15:39,24.88.15.124,Mozilla/5.0 (Windows NT 10.0; Win64; x64; rv:87.0) Gecko/20100101 Firefox/87.0,,Firefox,87,Windows,10
1,1,null,"""",html-keyboard-response,141,431957,0.0-141.0,"""","<div style=""font-size:60px;"">+</div>","""",256,fixation,Memorization,null,500,"""","""","""","""","""","""","""","""",1,4/18/2021 15:39,24.88.15.124,Mozilla/5.0 (Windows NT 10.0; Win64; x64; rv:87.0) Gecko/20100101 Firefox/87.0,,Firefox,87,Windows,10
1,1,1818,"""",html-keyboard-response,142,437005,0.0-142.0,"""","<img src='jspsych/CFDfaces/CFD-LF-244-096-N.jpg' height=""250px""></br><b>Emily</b>","""",256,IntactFace,Memorization,78,5000,n,"""",CFD-WM-011-002-N.jpg,Austin,0,"""","""","""",1,4/18/2021 15:39,24.88.15.124,Mozilla/5.0 (Windows NT 10.0; Win64; x64; rv:87.0) Gecko/20100101 Firefox/87.0,,Firefox,87,Windows,10
1,1,null,"""",html-keyboard-response,143,437531,0.0-143.0,"""","<div style=""font-size:60px;"">+</div>","""",256,fixation,Memorization,null,500,"""","""","""","""","""","""","""","""",1,4/18/2021 15:39,24.88.15.124,Mozilla/5.0 (Windows NT 10.0; Win64; x64; rv:87.0) Gecko/20100101 Firefox/87.0,,Firefox,87,Windows,10
1,1,1779,"""",html-keyboard-response,144,442570,0.0-144.0,"""","<img src='jspsych/CFDfaces/CFD-AM-237-154-N.jpg' height=""250px""></br><b>Gregory</b>","""",256,IntactFace,Memorization,70,5000,f,"""",CFD-WM-232-070-N.jpg,Luis,0,"""","""","""",1,4/18/2021 15:39,24.88.15.124,Mozilla/5.0 (Windows NT 10.0; Win64; x64; rv:87.0) Gecko/20100101 Firefox/87.0,,Firefox,87,Windows,10
1,1,null,"""",html-keyboard-response,145,443087,0.0-145.0,"""","<div style=""font-size:60px;"">+</div>","""",256,fixation,Memorization,null,500,"""","""","""","""","""","""","""","""",1,4/18/2021 15:39,24.88.15.124,Mozilla/5.0 (Windows NT 10.0; Win64; x64; rv:87.0) Gecko/20100101 Firefox/87.0,,Firefox,87,Windows,10
1,1,1971,"""",html-keyboard-response,146,448129,0.0-146.0,"""","<img src='jspsych/CFDfaces/CFD-LM-234-176-N.jpg' height=""250px""></br><b>Richard</b>","""",256,IntactFace,Memorization,70,5000,f,"""",CFD-AF-201-060-N.jpg,Jasmine,0,"""","""","""",1,4/18/2021 15:39,24.88.15.124,Mozilla/5.0 (Windows NT 10.0; Win64; x64; rv:87.0) Gecko/20100101 Firefox/87.0,,Firefox,87,Windows,10
1,1,null,"""",html-keyboard-response,147,448652,0.0-147.0,"""","<div style=""font-size:60px;"">+</div>","""",256,fixation,Memorization,null,500,"""","""","""","""","""","""","""","""",1,4/18/2021 15:39,24.88.15.124,Mozilla/5.0 (Windows NT 10.0; Win64; x64; rv:87.0) Gecko/20100101 Firefox/87.0,,Firefox,87,Windows,10
1,1,1641,"""",html-keyboard-response,148,453699,0.0-148.0,"""","<img src='jspsych/CFDfaces/CFD-LM-201-057-N.jpg' height=""250px""></br><b>Joshua</b>","""",256,IntactFace,Memorization,70,5000,f,"""",CFD-AM-243-212-N.jpg,Timothy,0,"""","""","""",1,4/18/2021 15:39,24.88.15.124,Mozilla/5.0 (Windows NT 10.0; Win64; x64; rv:87.0) Gecko/20100101 Firefox/87.0,,Firefox,87,Windows,10
1,1,null,"""",html-keyboard-response,149,454202,0.0-149.0,"""","<div style=""font-size:60px;"">+</div>","""",256,fixation,Memorization,null,500,"""","""","""","""","""","""","""","""",1,4/18/2021 15:39,24.88.15.124,Mozilla/5.0 (Windows NT 10.0; Win64; x64; rv:87.0) Gecko/20100101 Firefox/87.0,,Firefox,87,Windows,10
1,1,2131,"""",html-keyboard-response,150,459213,0.0-150.0,"""","<img src='jspsych/CFDfaces/CFD-BF-025-002-N.jpg' height=""250px""></br><b>Kayla</b>","""",256,IntactFace,Memorization,70,5000,f,"""",CFD-BM-039-029-N.jpg,Vincent,0,"""","""","""",1,4/18/2021 15:39,24.88.15.124,Mozilla/5.0 (Windows NT 10.0; Win64; x64; rv:87.0) Gecko/20100101 Firefox/87.0,,Firefox,87,Windows,10
1,1,null,"""",html-keyboard-response,151,459812,0.0-151.0,"""","<div style=""font-size:60px;"">+</div>","""",256,fixation,Memorization,null,500,"""","""","""","""","""","""","""","""",1,4/18/2021 15:39,24.88.15.124,Mozilla/5.0 (Windows NT 10.0; Win64; x64; rv:87.0) Gecko/20100101 Firefox/87.0,,Firefox,87,Windows,10
1,1,1268,"""",html-keyboard-response,152,464863,0.0-152.0,"""","<img src='jspsych/CFDfaces/CFD-WF-003-003-N.jpg' height=""250px""></br><b>Brittany</b>","""",256,IntactFace,Memorization,70,5000,f,"""",CFD-AM-228-214-N.jpg,Dustin,0,"""","""","""",1,4/18/2021 15:39,24.88.15.124,Mozilla/5.0 (Windows NT 10.0; Win64; x64; rv:87.0) Gecko/20100101 Firefox/87.0,,Firefox,87,Windows,10
1,1,null,"""",html-keyboard-response,153,465415,0.0-153.0,"""","<div style=""font-size:60px;"">+</div>","""",256,fixation,Memorization,null,500,"""","""","""","""","""","""","""","""",1,4/18/2021 15:39,24.88.15.124,Mozilla/5.0 (Windows NT 10.0; Win64; x64; rv:87.0) Gecko/20100101 Firefox/87.0,,Firefox,87,Windows,10
1,1,2707,"""",html-keyboard-response,154,468126,0.0-154.0,"""",Press Any Key to Begin Memory Test,"""",1,welcomeScreen,Break,78,"""","""","""","""","""","""","""","""","""",1,4/18/2021 15:39,24.88.15.124,Mozilla/5.0 (Windows NT 10.0; Win64; x64; rv:87.0) Gecko/20100101 Firefox/87.0,,Firefox,87,Windows,10
1,1,null,"""",html-keyboard-response,155,469138,0.0-155.0,"""","<div style=""font-size:60px;"">+</div>","""",256,ITI,Test,null,1000,"""","""","""","""","""","""","""","""",1,4/18/2021 15:39,24.88.15.124,Mozilla/5.0 (Windows NT 10.0; Win64; x64; rv:87.0) Gecko/20100101 Firefox/87.0,,Firefox,87,Windows,10
1,1,null,"""",image-keyboard-response,156,469413,0.0-156.0,"""",jspsych/scrambledDisgustFaces/scrambledAF34DIS.JPG,"""",256,forwardMask,Test,null,250,"""",d,"""","""","""","""","""","""",1,4/18/2021 15:39,24.88.15.124,Mozilla/5.0 (Windows NT 10.0; Win64; x64; rv:87.0) Gecko/20100101 Firefox/87.0,,Firefox,87,Windows,10
1,1,null,"""",image-keyboard-response,157,469450,0.0-157.0,"""",jspsych/disgustFaces/AF34DIS.JPG,"""",256,Cue,Test,null,16,"""","""","""","""","""","""","""","""",1,4/18/2021 15:39,24.88.15.124,Mozilla/5.0 (Windows NT 10.0; Win64; x64; rv:87.0) Gecko/20100101 Firefox/87.0,,Firefox,87,Windows,10
1,1,null,"""",image-keyboard-response,158,469650,0.0-158.0,"""",jspsych/neutralFaces/AF31NES.JPG,"""",256,backwardMask,Test,null,100,"""","""","""","""","""","""","""","""",1,4/18/2021 15:39,24.88.15.124,Mozilla/5.0 (Windows NT 10.0; Win64; x64; rv:87.0) Gecko/20100101 Firefox/87.0,,Firefox,87,Windows,10
1,1,null,"""",html-keyboard-response,159,470658,0.0-159.0,"""","<div style=""font-size:60px;"">+</div>","""",256,fixationBtwnNeutralMaskAndPrompt,Test,null,1000,"""","""","""","""","""","""","""","""",1,4/18/2021 15:39,24.88.15.124,Mozilla/5.0 (Windows NT 10.0; Win64; x64; rv:87.0) Gecko/20100101 Firefox/87.0,,Firefox,87,Windows,10
1,1,4155,"""",html-button-response,160,474830,0.0-160.0,"""","<img src='jspsych/CFDfaces/CFD-LM-217-162-N.jpg' height=""250px"">,</br><b>Jason</b>",1,256,IntactOrRearranged,Test,"""","""","""","""",CFD-WM-032-001-N.jpg,Justin,0,1,"""","""",1,4/18/2021 15:39,24.88.15.124,Mozilla/5.0 (Windows NT 10.0; Win64; x64; rv:87.0) Gecko/20100101 Firefox/87.0,,Firefox,87,Windows,10
1,1,2958,"""",html-slider-response,161,477801,0.0-161.0,"""","<img src='jspsych/CFDfaces/CFD-LM-217-162-N.jpg' height=""250px"">,</br><b>Jason</b>","""",256,ConfidenceQuery,Test,"""","""","""","""",CFD-WM-032-001-N.jpg,Justin,0,"""",0,51,1,4/18/2021 15:39,24.88.15.124,Mozilla/5.0 (Windows NT 10.0; Win64; x64; rv:87.0) Gecko/20100101 Firefox/87.0,,Firefox,87,Windows,10
1,1,null,"""",html-keyboard-response,162,478838,0.0-162.0,"""","<div style=""font-size:60px;"">+</div>","""",256,ITI,Test,null,1000,"""","""","""","""","""","""","""","""",1,4/18/2021 15:39,24.88.15.124,Mozilla/5.0 (Windows NT 10.0; Win64; x64; rv:87.0) Gecko/20100101 Firefox/87.0,,Firefox,87,Windows,10
1,1,null,"""",image-keyboard-response,163,479098,0.0-163.0,"""",jspsych/scrambledNeutralFaces/scrambledBF15NES.JPG,"""",256,forwardMask,Test,null,250,"""",n,"""","""","""","""","""","""",1,4/18/2021 15:39,24.88.15.124,Mozilla/5.0 (Windows NT 10.0; Win64; x64; rv:87.0) Gecko/20100101 Firefox/87.0,,Firefox,87,Windows,10
1,1,null,"""",image-keyboard-response,164,479132,0.0-164.0,"""",jspsych/neutralFaces/BF15NES.JPG,"""",256,Cue,Test,null,16,"""","""","""","""","""","""","""","""",1,4/18/2021 15:39,24.88.15.124,Mozilla/5.0 (Windows NT 10.0; Win64; x64; rv:87.0) Gecko/20100101 Firefox/87.0,,Firefox,87,Windows,10
1,1,null,"""",image-keyboard-response,165,479247,0.0-165.0,"""",jspsych/neutralFaces/AF34NES.JPG,"""",256,backwardMask,Test,null,100,"""","""","""","""","""","""","""","""",1,4/18/2021 15:39,24.88.15.124,Mozilla/5.0 (Windows NT 10.0; Win64; x64; rv:87.0) Gecko/20100101 Firefox/87.0,,Firefox,87,Windows,10
1,1,null,"""",html-keyboard-response,166,480268,0.0-166.0,"""","<div style=""font-size:60px;"">+</div>","""",256,fixationBtwnNeutralMaskAndPrompt,Test,null,1000,"""","""","""","""","""","""","""","""",1,4/18/2021 15:39,24.88.15.124,Mozilla/5.0 (Windows NT 10.0; Win64; x64; rv:87.0) Gecko/20100101 Firefox/87.0,,Firefox,87,Windows,10
1,1,3218,"""",html-button-response,167,483492,0.0-167.0,"""","<img src='jspsych/CFDfaces/CFD-AM-237-154-N.jpg' height=""250px"">,</br><b>Daniel</b>",0,256,IntactOrRearranged,Test,"""","""","""","""",CFD-AM-248-104-N.jpg,Steven,1,0,"""","""",1,4/18/2021 15:39,24.88.15.124,Mozilla/5.0 (Windows NT 10.0; Win64; x64; rv:87.0) Gecko/20100101 Firefox/87.0,,Firefox,87,Windows,10
1,1,null,"""",html-slider-response,168,488533,0.0-168.0,"""","<img src='jspsych/CFDfaces/CFD-AM-237-154-N.jpg' height=""250px"">,</br><b>Daniel</b>","""",256,ConfidenceQuery,Test,"""","""","""","""",CFD-AM-248-104-N.jpg,Steven,1,"""",0,null,1,4/18/2021 15:39,24.88.15.124,Mozilla/5.0 (Windows NT 10.0; Win64; x64; rv:87.0) Gecko/20100101 Firefox/87.0,,Firefox,87,Windows,10
1,1,null,"""",html-keyboard-response,169,489562,0.0-169.0,"""","<div style=""font-size:60px;"">+</div>","""",256,ITI,Test,null,1000,"""","""","""","""","""","""","""","""",1,4/18/2021 15:39,24.88.15.124,Mozilla/5.0 (Windows NT 10.0; Win64; x64; rv:87.0) Gecko/20100101 Firefox/87.0,,Firefox,87,Windows,10
1,1,null,"""",image-keyboard-response,170,489865,0.0-170.0,"""",jspsych/scrambledNeutralFaces/scrambledAM23NES.JPG,"""",256,forwardMask,Test,null,250,"""",n,"""","""","""","""","""","""",1,4/18/2021 15:39,24.88.15.124,Mozilla/5.0 (Windows NT 10.0; Win64; x64; rv:87.0) Gecko/20100101 Firefox/87.0,,Firefox,87,Windows,10
1,1,null,"""",image-keyboard-response,171,489910,0.0-171.0,"""",jspsych/neutralFaces/AM23NES.JPG,"""",256,Cue,Test,null,16,"""","""","""","""","""","""","""","""",1,4/18/2021 15:39,24.88.15.124,Mozilla/5.0 (Windows NT 10.0; Win64; x64; rv:87.0) Gecko/20100101 Firefox/87.0,,Firefox,87,Windows,10
1,1,null,"""",image-keyboard-response,172,490028,0.0-172.0,"""",jspsych/neutralFaces/AM09NES.JPG,"""",256,backwardMask,Test,null,100,"""","""","""","""","""","""","""","""",1,4/18/2021 15:39,24.88.15.124,Mozilla/5.0 (Windows NT 10.0; Win64; x64; rv:87.0) Gecko/20100101 Firefox/87.0,,Firefox,87,Windows,10
1,1,null,"""",html-keyboard-response,173,491054,0.0-173.0,"""","<div style=""font-size:60px;"">+</div>","""",256,fixationBtwnNeutralMaskAndPrompt,Test,null,1000,"""","""","""","""","""","""","""","""",1,4/18/2021 15:39,24.88.15.124,Mozilla/5.0 (Windows NT 10.0; Win64; x64; rv:87.0) Gecko/20100101 Firefox/87.0,,Firefox,87,Windows,10
1,1,2809,"""",html-button-response,174,493869,0.0-174.0,"""","<img src='jspsych/CFDfaces/CFD-WF-200-099-N.jpg' height=""250px"">,</br><b>Victoria</b>",0,256,IntactOrRearranged,Test,"""","""","""","""",CFD-AF-237-223-N.jpg,Whitney,1,0,"""","""",1,4/18/2021 15:39,24.88.15.124,Mozilla/5.0 (Windows NT 10.0; Win64; x64; rv:87.0) Gecko/20100101 Firefox/87.0,,Firefox,87,Windows,10
1,1,4311,"""",html-slider-response,175,498195,0.0-175.0,"""","<img src='jspsych/CFDfaces/CFD-WF-200-099-N.jpg' height=""250px"">,</br><b>Victoria</b>","""",256,ConfidenceQuery,Test,"""","""","""","""",CFD-AF-237-223-N.jpg,Whitney,1,"""",0,20,1,4/18/2021 15:39,24.88.15.124,Mozilla/5.0 (Windows NT 10.0; Win64; x64; rv:87.0) Gecko/20100101 Firefox/87.0,,Firefox,87,Windows,10
1,1,null,"""",html-keyboard-response,176,499239,0.0-176.0,"""","<div style=""font-size:60px;"">+</div>","""",256,ITI,Test,null,1000,"""","""","""","""","""","""","""","""",1,4/18/2021 15:39,24.88.15.124,Mozilla/5.0 (Windows NT 10.0; Win64; x64; rv:87.0) Gecko/20100101 Firefox/87.0,,Firefox,87,Windows,10
1,1,null,"""",image-keyboard-response,177,499500,0.0-177.0,"""",jspsych/scrambledDisgustFaces/scrambledAF25DIS.JPG,"""",256,forwardMask,Test,null,250,"""",d,"""","""","""","""","""","""",1,4/18/2021 15:39,24.88.15.124,Mozilla/5.0 (Windows NT 10.0; Win64; x64; rv:87.0) Gecko/20100101 Firefox/87.0,,Firefox,87,Windows,10
1,1,null,"""",image-keyboard-response,178,499530,0.0-178.0,"""",jspsych/disgustFaces/AF25DIS.JPG,"""",256,Cue,Test,null,16,"""","""","""","""","""","""","""","""",1,4/18/2021 15:39,24.88.15.124,Mozilla/5.0 (Windows NT 10.0; Win64; x64; rv:87.0) Gecko/20100101 Firefox/87.0,,Firefox,87,Windows,10
1,1,null,"""",image-keyboard-response,179,499645,0.0-179.0,"""",jspsych/neutralFaces/BF27NES.JPG,"""",256,backwardMask,Test,null,100,"""","""","""","""","""","""","""","""",1,4/18/2021 15:39,24.88.15.124,Mozilla/5.0 (Windows NT 10.0; Win64; x64; rv:87.0) Gecko/20100101 Firefox/87.0,,Firefox,87,Windows,10
1,1,null,"""",html-keyboard-response,180,500658,0.0-180.0,"""","<div style=""font-size:60px;"">+</div>","""",256,fixationBtwnNeutralMaskAndPrompt,Test,null,1000,"""","""","""","""","""","""","""","""",1,4/18/2021 15:39,24.88.15.124,Mozilla/5.0 (Windows NT 10.0; Win64; x64; rv:87.0) Gecko/20100101 Firefox/87.0,,Firefox,87,Windows,10
1,1,1463,"""",html-button-response,181,502126,0.0-181.0,"""","<img src='jspsych/CFDfaces/CFD-WF-003-003-N.jpg' height=""250px"">,</br><b>Brittany</b>",0,256,IntactOrRearranged,Test,"""","""","""","""",CFD-WF-218-087-N.jpg,Melissa,0,0,"""","""",1,4/18/2021 15:39,24.88.15.124,Mozilla/5.0 (Windows NT 10.0; Win64; x64; rv:87.0) Gecko/20100101 Firefox/87.0,,Firefox,87,Windows,10
1,1,2378,"""",html-slider-response,182,504514,0.0-182.0,"""","<img src='jspsych/CFDfaces/CFD-WF-003-003-N.jpg' height=""250px"">,</br><b>Brittany</b>","""",256,ConfidenceQuery,Test,"""","""","""","""",CFD-WF-218-087-N.jpg,Melissa,0,"""",0,100,1,4/18/2021 15:39,24.88.15.124,Mozilla/5.0 (Windows NT 10.0; Win64; x64; rv:87.0) Gecko/20100101 Firefox/87.0,,Firefox,87,Windows,10
1,1,null,"""",html-keyboard-response,183,505569,0.0-183.0,"""","<div style=""font-size:60px;"">+</div>","""",256,ITI,Test,null,1000,"""","""","""","""","""","""","""","""",1,4/18/2021 15:39,24.88.15.124,Mozilla/5.0 (Windows NT 10.0; Win64; x64; rv:87.0) Gecko/20100101 Firefox/87.0,,Firefox,87,Windows,10
1,1,null,"""",image-keyboard-response,184,505830,0.0-184.0,"""",jspsych/scrambledDisgustFaces/scrambledAM17DIS.JPG,"""",256,forwardMask,Test,null,250,"""",d,"""","""","""","""","""","""",1,4/18/2021 15:39,24.88.15.124,Mozilla/5.0 (Windows NT 10.0; Win64; x64; rv:87.0) Gecko/20100101 Firefox/87.0,,Firefox,87,Windows,10
1,1,null,"""",image-keyboard-response,185,505867,0.0-185.0,"""",jspsych/disgustFaces/AM17DIS.JPG,"""",256,Cue,Test,null,16,"""","""","""","""","""","""","""","""",1,4/18/2021 15:39,24.88.15.124,Mozilla/5.0 (Windows NT 10.0; Win64; x64; rv:87.0) Gecko/20100101 Firefox/87.0,,Firefox,87,Windows,10
1,1,null,"""",image-keyboard-response,186,505989,0.0-186.0,"""",jspsych/neutralFaces/BM06NES.JPG,"""",256,backwardMask,Test,null,100,"""","""","""","""","""","""","""","""",1,4/18/2021 15:39,24.88.15.124,Mozilla/5.0 (Windows NT 10.0; Win64; x64; rv:87.0) Gecko/20100101 Firefox/87.0,,Firefox,87,Windows,10
1,1,null,"""",html-keyboard-response,187,507011,0.0-187.0,"""","<div style=""font-size:60px;"">+</div>","""",256,fixationBtwnNeutralMaskAndPrompt,Test,null,1000,"""","""","""","""","""","""","""","""",1,4/18/2021 15:39,24.88.15.124,Mozilla/5.0 (Windows NT 10.0; Win64; x64; rv:87.0) Gecko/20100101 Firefox/87.0,,Firefox,87,Windows,10
1,1,2646,"""",html-button-response,188,509663,0.0-188.0,"""","<img src='jspsych/CFDfaces/CFD-WF-217-085-N.jpg' height=""250px"">,</br><b>Vanessa</b>",0,256,IntactOrRearranged,Test,"""","""","""","""",CFD-WM-237-052-N.jpg,Travis,0,0,"""","""",1,4/18/2021 15:39,24.88.15.124,Mozilla/5.0 (Windows NT 10.0; Win64; x64; rv:87.0) Gecko/20100101 Firefox/87.0,,Firefox,87,Windows,10
1,1,3321,"""",html-slider-response,189,512995,0.0-189.0,"""","<img src='jspsych/CFDfaces/CFD-WF-217-085-N.jpg' height=""250px"">,</br><b>Vanessa</b>","""",256,ConfidenceQuery,Test,"""","""","""","""",CFD-WM-237-052-N.jpg,Travis,0,"""",0,79,1,4/18/2021 15:39,24.88.15.124,Mozilla/5.0 (Windows NT 10.0; Win64; x64; rv:87.0) Gecko/20100101 Firefox/87.0,,Firefox,87,Windows,10
1,1,null,"""",html-keyboard-response,190,514068,0.0-190.0,"""","<div style=""font-size:60px;"">+</div>","""",256,ITI,Test,null,1000,"""","""","""","""","""","""","""","""",1,4/18/2021 15:39,24.88.15.124,Mozilla/5.0 (Windows NT 10.0; Win64; x64; rv:87.0) Gecko/20100101 Firefox/87.0,,Firefox,87,Windows,10
1,1,null,"""",image-keyboard-response,191,514354,0.0-191.0,"""",jspsych/scrambledNeutralFaces/scrambledBM06NES.JPG,"""",256,forwardMask,Test,null,250,"""",n,"""","""","""","""","""","""",1,4/18/2021 15:39,24.88.15.124,Mozilla/5.0 (Windows NT 10.0; Win64; x64; rv:87.0) Gecko/20100101 Firefox/87.0,,Firefox,87,Windows,10
1,1,null,"""",image-keyboard-response,192,514405,0.0-192.0,"""",jspsych/neutralFaces/BM06NES.JPG,"""",256,Cue,Test,null,16,"""","""","""","""","""","""","""","""",1,4/18/2021 15:39,24.88.15.124,Mozilla/5.0 (Windows NT 10.0; Win64; x64; rv:87.0) Gecko/20100101 Firefox/87.0,,Firefox,87,Windows,10
1,1,null,"""",image-keyboard-response,193,514529,0.0-193.0,"""",jspsych/neutralFaces/AM18NES.JPG,"""",256,backwardMask,Test,null,100,"""","""","""","""","""","""","""","""",1,4/18/2021 15:39,24.88.15.124,Mozilla/5.0 (Windows NT 10.0; Win64; x64; rv:87.0) Gecko/20100101 Firefox/87.0,,Firefox,87,Windows,10
1,1,null,"""",html-keyboard-response,194,515545,0.0-194.0,"""","<div style=""font-size:60px;"">+</div>","""",256,fixationBtwnNeutralMaskAndPrompt,Test,null,1000,"""","""","""","""","""","""","""","""",1,4/18/2021 15:39,24.88.15.124,Mozilla/5.0 (Windows NT 10.0; Win64; x64; rv:87.0) Gecko/20100101 Firefox/87.0,,Firefox,87,Windows,10
1,1,3026,"""",html-button-response,195,518576,0.0-195.0,"""","<img src='jspsych/CFDfaces/CFD-BM-026-002-N.jpg' height=""250px"">,</br><b>Ian</b>",0,256,IntactOrRearranged,Test,"""","""","""","""",CFD-AF-235-170-N.jpg,Lindsey,0,0,"""","""",1,4/18/2021 15:39,24.88.15.124,Mozilla/5.0 (Windows NT 10.0; Win64; x64; rv:87.0) Gecko/20100101 Firefox/87.0,,Firefox,87,Windows,10
1,1,3029,"""",html-slider-response,196,521620,0.0-196.0,"""","<img src='jspsych/CFDfaces/CFD-BM-026-002-N.jpg' height=""250px"">,</br><b>Ian</b>","""",256,ConfidenceQuery,Test,"""","""","""","""",CFD-AF-235-170-N.jpg,Lindsey,0,"""",0,50,1,4/18/2021 15:39,24.88.15.124,Mozilla/5.0 (Windows NT 10.0; Win64; x64; rv:87.0) Gecko/20100101 Firefox/87.0,,Firefox,87,Windows,10
1,1,null,"""",html-keyboard-response,197,522678,0.0-197.0,"""","<div style=""font-size:60px;"">+</div>","""",256,ITI,Test,null,1000,"""","""","""","""","""","""","""","""",1,4/18/2021 15:39,24.88.15.124,Mozilla/5.0 (Windows NT 10.0; Win64; x64; rv:87.0) Gecko/20100101 Firefox/87.0,,Firefox,87,Windows,10
1,1,null,"""",image-keyboard-response,198,522950,0.0-198.0,"""",jspsych/scrambledDisgustFaces/scrambledAF22DIS.JPG,"""",256,forwardMask,Test,null,250,"""",d,"""","""","""","""","""","""",1,4/18/2021 15:39,24.88.15.124,Mozilla/5.0 (Windows NT 10.0; Win64; x64; rv:87.0) Gecko/20100101 Firefox/87.0,,Firefox,87,Windows,10
1,1,null,"""",image-keyboard-response,199,522990,0.0-199.0,"""",jspsych/disgustFaces/AF22DIS.JPG,"""",256,Cue,Test,null,16,"""","""","""","""","""","""","""","""",1,4/18/2021 15:39,24.88.15.124,Mozilla/5.0 (Windows NT 10.0; Win64; x64; rv:87.0) Gecko/20100101 Firefox/87.0,,Firefox,87,Windows,10
1,1,null,"""",image-keyboard-response,200,523104,0.0-200.0,"""",jspsych/neutralFaces/BF31NES.JPG,"""",256,backwardMask,Test,null,100,"""","""","""","""","""","""","""","""",1,4/18/2021 15:39,24.88.15.124,Mozilla/5.0 (Windows NT 10.0; Win64; x64; rv:87.0) Gecko/20100101 Firefox/87.0,,Firefox,87,Windows,10
1,1,null,"""",html-keyboard-response,201,524129,0.0-201.0,"""","<div style=""font-size:60px;"">+</div>","""",256,fixationBtwnNeutralMaskAndPrompt,Test,null,1000,"""","""","""","""","""","""","""","""",1,4/18/2021 15:39,24.88.15.124,Mozilla/5.0 (Windows NT 10.0; Win64; x64; rv:87.0) Gecko/20100101 Firefox/87.0,,Firefox,87,Windows,10
1,1,3154,"""",html-button-response,202,527286,0.0-202.0,"""","<img src='jspsych/CFDfaces/CFD-LF-208-127-N.jpg' height=""250px"">,</br><b>Elizabeth</b>",1,256,IntactOrRearranged,Test,"""","""","""","""",CFD-BF-201-080-N.jpg,Taylor,1,1,"""","""",1,4/18/2021 15:39,24.88.15.124,Mozilla/5.0 (Windows NT 10.0; Win64; x64; rv:87.0) Gecko/20100101 Firefox/87.0,,Firefox,87,Windows,10
1,1,2860,"""",html-slider-response,203,530185,0.0-203.0,"""","<img src='jspsych/CFDfaces/CFD-LF-208-127-N.jpg' height=""250px"">,</br><b>Elizabeth</b>","""",256,ConfidenceQuery,Test,"""","""","""","""",CFD-BF-201-080-N.jpg,Taylor,1,"""",0,91,1,4/18/2021 15:39,24.88.15.124,Mozilla/5.0 (Windows NT 10.0; Win64; x64; rv:87.0) Gecko/20100101 Firefox/87.0,,Firefox,87,Windows,10
1,1,null,"""",html-keyboard-response,204,531202,0.0-204.0,"""","<div style=""font-size:60px;"">+</div>","""",256,ITI,Test,null,1000,"""","""","""","""","""","""","""","""",1,4/18/2021 15:39,24.88.15.124,Mozilla/5.0 (Windows NT 10.0; Win64; x64; rv:87.0) Gecko/20100101 Firefox/87.0,,Firefox,87,Windows,10
1,1,null,"""",image-keyboard-response,205,531482,0.0-205.0,"""",jspsych/scrambledDisgustFaces/scrambledBM02DIS.JPG,"""",256,forwardMask,Test,null,250,"""",d,"""","""","""","""","""","""",1,4/18/2021 15:39,24.88.15.124,Mozilla/5.0 (Windows NT 10.0; Win64; x64; rv:87.0) Gecko/20100101 Firefox/87.0,,Firefox,87,Windows,10
1,1,null,"""",image-keyboard-response,206,531530,0.0-206.0,"""",jspsych/disgustFaces/BM03DIS.JPG,"""",256,Cue,Test,null,16,"""","""","""","""","""","""","""","""",1,4/18/2021 15:39,24.88.15.124,Mozilla/5.0 (Windows NT 10.0; Win64; x64; rv:87.0) Gecko/20100101 Firefox/87.0,,Firefox,87,Windows,10
1,1,null,"""",image-keyboard-response,207,531645,0.0-207.0,"""",jspsych/neutralFaces/BM24NES.JPG,"""",256,backwardMask,Test,null,100,"""","""","""","""","""","""","""","""",1,4/18/2021 15:39,24.88.15.124,Mozilla/5.0 (Windows NT 10.0; Win64; x64; rv:87.0) Gecko/20100101 Firefox/87.0,,Firefox,87,Windows,10
1,1,null,"""",html-keyboard-response,208,532650,0.0-208.0,"""","<div style=""font-size:60px;"">+</div>","""",256,fixationBtwnNeutralMaskAndPrompt,Test,null,1000,"""","""","""","""","""","""","""","""",1,4/18/2021 15:39,24.88.15.124,Mozilla/5.0 (Windows NT 10.0; Win64; x64; rv:87.0) Gecko/20100101 Firefox/87.0,,Firefox,87,Windows,10
1,1,4462,"""",html-button-response,209,537115,0.0-209.0,"""","<img src='jspsych/CFDfaces/CFD-WF-023-003-N.jpg' height=""250px"">,</br><b>Emily</b>",1,256,IntactOrRearranged,Test,"""","""","""","""",CFD-WM-011-002-N.jpg,Mark,1,1,"""","""",1,4/18/2021 15:39,24.88.15.124,Mozilla/5.0 (Windows NT 10.0; Win64; x64; rv:87.0) Gecko/20100101 Firefox/87.0,,Firefox,87,Windows,10
1,1,2703,"""",html-slider-response,210,539853,0.0-210.0,"""","<img src='jspsych/CFDfaces/CFD-WF-023-003-N.jpg' height=""250px"">,</br><b>Emily</b>","""",256,ConfidenceQuery,Test,"""","""","""","""",CFD-WM-011-002-N.jpg,Mark,1,"""",0,90,1,4/18/2021 15:39,24.88.15.124,Mozilla/5.0 (Windows NT 10.0; Win64; x64; rv:87.0) Gecko/20100101 Firefox/87.0,,Firefox,87,Windows,10
1,1,null,"""",html-keyboard-response,211,540871,0.0-211.0,"""","<div style=""font-size:60px;"">+</div>","""",256,ITI,Test,null,1000,"""","""","""","""","""","""","""","""",1,4/18/2021 15:39,24.88.15.124,Mozilla/5.0 (Windows NT 10.0; Win64; x64; rv:87.0) Gecko/20100101 Firefox/87.0,,Firefox,87,Windows,10
1,1,null,"""",image-keyboard-response,212,541140,0.0-212.0,"""",jspsych/scrambledDisgustFaces/scrambledBF02DIS.JPG,"""",256,forwardMask,Test,null,250,"""",d,"""","""","""","""","""","""",1,4/18/2021 15:39,24.88.15.124,Mozilla/5.0 (Windows NT 10.0; Win64; x64; rv:87.0) Gecko/20100101 Firefox/87.0,,Firefox,87,Windows,10
1,1,null,"""",image-keyboard-response,213,541180,0.0-213.0,"""",jspsych/disgustFaces/BF02DIS.JPG,"""",256,Cue,Test,null,16,"""","""","""","""","""","""","""","""",1,4/18/2021 15:39,24.88.15.124,Mozilla/5.0 (Windows NT 10.0; Win64; x64; rv:87.0) Gecko/20100101 Firefox/87.0,,Firefox,87,Windows,10
1,1,null,"""",image-keyboard-response,214,541294,0.0-214.0,"""",jspsych/neutralFaces/BF28NES.JPG,"""",256,backwardMask,Test,null,100,"""","""","""","""","""","""","""","""",1,4/18/2021 15:39,24.88.15.124,Mozilla/5.0 (Windows NT 10.0; Win64; x64; rv:87.0) Gecko/20100101 Firefox/87.0,,Firefox,87,Windows,10
1,1,null,"""",html-keyboard-response,215,542303,0.0-215.0,"""","<div style=""font-size:60px;"">+</div>","""",256,fixationBtwnNeutralMaskAndPrompt,Test,null,1000,"""","""","""","""","""","""","""","""",1,4/18/2021 15:39,24.88.15.124,Mozilla/5.0 (Windows NT 10.0; Win64; x64; rv:87.0) Gecko/20100101 Firefox/87.0,,Firefox,87,Windows,10
1,1,3508,"""",html-button-response,216,545815,0.0-216.0,"""","<img src='jspsych/CFDfaces/CFD-LF-205-100-N.jpg' height=""250px"">,</br><b>Stephanie</b>",1,256,IntactOrRearranged,Test,"""","""","""","""",CFD-LF-236-221-N.jpg,Jenna,0,1,"""","""",1,4/18/2021 15:39,24.88.15.124,Mozilla/5.0 (Windows NT 10.0; Win64; x64; rv:87.0) Gecko/20100101 Firefox/87.0,,Firefox,87,Windows,10
1,1,2781,"""",html-slider-response,217,548637,0.0-217.0,"""","<img src='jspsych/CFDfaces/CFD-LF-205-100-N.jpg' height=""250px"">,</br><b>Stephanie</b>","""",256,ConfidenceQuery,Test,"""","""","""","""",CFD-LF-236-221-N.jpg,Jenna,0,"""",0,38,1,4/18/2021 15:39,24.88.15.124,Mozilla/5.0 (Windows NT 10.0; Win64; x64; rv:87.0) Gecko/20100101 Firefox/87.0,,Firefox,87,Windows,10
1,1,null,"""",html-keyboard-response,218,549661,0.0-218.0,"""","<div style=""font-size:60px;"">+</div>","""",256,ITI,Test,null,1000,"""","""","""","""","""","""","""","""",1,4/18/2021 15:39,24.88.15.124,Mozilla/5.0 (Windows NT 10.0; Win64; x64; rv:87.0) Gecko/20100101 Firefox/87.0,,Firefox,87,Windows,10
1,1,null,"""",image-keyboard-response,219,549940,0.0-219.0,"""",jspsych/scrambledDisgustFaces/scrambledBF28DIS.JPG,"""",256,forwardMask,Test,null,250,"""",d,"""","""","""","""","""","""",1,4/18/2021 15:39,24.88.15.124,Mozilla/5.0 (Windows NT 10.0; Win64; x64; rv:87.0) Gecko/20100101 Firefox/87.0,,Firefox,87,Windows,10
1,1,null,"""",image-keyboard-response,220,549980,0.0-220.0,"""",jspsych/disgustFaces/BF28DIS.JPG,"""",256,Cue,Test,null,16,"""","""","""","""","""","""","""","""",1,4/18/2021 15:39,24.88.15.124,Mozilla/5.0 (Windows NT 10.0; Win64; x64; rv:87.0) Gecko/20100101 Firefox/87.0,,Firefox,87,Windows,10
1,1,null,"""",image-keyboard-response,221,550100,0.0-221.0,"""",jspsych/neutralFaces/AF26NES.JPG,"""",256,backwardMask,Test,null,100,"""","""","""","""","""","""","""","""",1,4/18/2021 15:39,24.88.15.124,Mozilla/5.0 (Windows NT 10.0; Win64; x64; rv:87.0) Gecko/20100101 Firefox/87.0,,Firefox,87,Windows,10
1,1,null,"""",html-keyboard-response,222,551120,0.0-222.0,"""","<div style=""font-size:60px;"">+</div>","""",256,fixationBtwnNeutralMaskAndPrompt,Test,null,1000,"""","""","""","""","""","""","""","""",1,4/18/2021 15:39,24.88.15.124,Mozilla/5.0 (Windows NT 10.0; Win64; x64; rv:87.0) Gecko/20100101 Firefox/87.0,,Firefox,87,Windows,10
1,1,3530,"""",html-button-response,223,554654,0.0-223.0,"""","<img src='jspsych/CFDfaces/CFD-WM-215-041-N.jpg' height=""250px"">,</br><b>Gregory</b>",1,256,IntactOrRearranged,Test,"""","""","""","""",CFD-LF-231-260-N.jpg,Jasmine,1,1,"""","""",1,4/18/2021 15:39,24.88.15.124,Mozilla/5.0 (Windows NT 10.0; Win64; x64; rv:87.0) Gecko/20100101 Firefox/87.0,,Firefox,87,Windows,10
1,1,2660,"""",html-slider-response,224,557351,0.0-224.0,"""","<img src='jspsych/CFDfaces/CFD-WM-215-041-N.jpg' height=""250px"">,</br><b>Gregory</b>","""",256,ConfidenceQuery,Test,"""","""","""","""",CFD-LF-231-260-N.jpg,Jasmine,1,"""",0,91,1,4/18/2021 15:39,24.88.15.124,Mozilla/5.0 (Windows NT 10.0; Win64; x64; rv:87.0) Gecko/20100101 Firefox/87.0,,Firefox,87,Windows,10
1,1,null,"""",html-keyboard-response,225,558393,0.0-225.0,"""","<div style=""font-size:60px;"">+</div>","""",256,ITI,Test,null,1000,"""","""","""","""","""","""","""","""",1,4/18/2021 15:39,24.88.15.124,Mozilla/5.0 (Windows NT 10.0; Win64; x64; rv:87.0) Gecko/20100101 Firefox/87.0,,Firefox,87,Windows,10
1,1,null,"""",image-keyboard-response,226,558674,0.0-226.0,"""",jspsych/scrambledNeutralFaces/scrambledBF25NES.JPG,"""",256,forwardMask,Test,null,250,"""",n,"""","""","""","""","""","""",1,4/18/2021 15:39,24.88.15.124,Mozilla/5.0 (Windows NT 10.0; Win64; x64; rv:87.0) Gecko/20100101 Firefox/87.0,,Firefox,87,Windows,10
1,1,null,"""",image-keyboard-response,227,558706,0.0-227.0,"""",jspsych/neutralFaces/BF25NES.JPG,"""",256,Cue,Test,null,16,"""","""","""","""","""","""","""","""",1,4/18/2021 15:39,24.88.15.124,Mozilla/5.0 (Windows NT 10.0; Win64; x64; rv:87.0) Gecko/20100101 Firefox/87.0,,Firefox,87,Windows,10
1,1,null,"""",image-keyboard-response,228,558851,0.0-228.0,"""",jspsych/neutralFaces/BF21NES.JPG,"""",256,backwardMask,Test,null,100,"""","""","""","""","""","""","""","""",1,4/18/2021 15:39,24.88.15.124,Mozilla/5.0 (Windows NT 10.0; Win64; x64; rv:87.0) Gecko/20100101 Firefox/87.0,,Firefox,87,Windows,10
1,1,null,"""",html-keyboard-response,229,559864,0.0-229.0,"""","<div style=""font-size:60px;"">+</div>","""",256,fixationBtwnNeutralMaskAndPrompt,Test,null,1000,"""","""","""","""","""","""","""","""",1,4/18/2021 15:39,24.88.15.124,Mozilla/5.0 (Windows NT 10.0; Win64; x64; rv:87.0) Gecko/20100101 Firefox/87.0,,Firefox,87,Windows,10
1,1,2509,"""",html-button-response,230,562376,0.0-230.0,"""","<img src='jspsych/CFDfaces/CFD-LF-218-072-N.jpg' height=""250px"">,</br><b>Ashley</b>",0,256,IntactOrRearranged,Test,"""","""","""","""",CFD-WM-232-070-N.jpg,Luis,1,0,"""","""",1,4/18/2021 15:39,24.88.15.124,Mozilla/5.0 (Windows NT 10.0; Win64; x64; rv:87.0) Gecko/20100101 Firefox/87.0,,Firefox,87,Windows,10
1,1,3232,"""",html-slider-response,231,565647,0.0-231.0,"""","<img src='jspsych/CFDfaces/CFD-LF-218-072-N.jpg' height=""250px"">,</br><b>Ashley</b>","""",256,ConfidenceQuery,Test,"""","""","""","""",CFD-WM-232-070-N.jpg,Luis,1,"""",0,38,1,4/18/2021 15:39,24.88.15.124,Mozilla/5.0 (Windows NT 10.0; Win64; x64; rv:87.0) Gecko/20100101 Firefox/87.0,,Firefox,87,Windows,10
1,1,null,"""",html-keyboard-response,232,566665,0.0-232.0,"""","<div style=""font-size:60px;"">+</div>","""",256,ITI,Test,null,1000,"""","""","""","""","""","""","""","""",1,4/18/2021 15:39,24.88.15.124,Mozilla/5.0 (Windows NT 10.0; Win64; x64; rv:87.0) Gecko/20100101 Firefox/87.0,,Firefox,87,Windows,10
1,1,null,"""",image-keyboard-response,233,566930,0.0-233.0,"""",jspsych/scrambledNeutralFaces/scrambledAM21NES.JPG,"""",256,forwardMask,Test,null,250,"""",n,"""","""","""","""","""","""",1,4/18/2021 15:39,24.88.15.124,Mozilla/5.0 (Windows NT 10.0; Win64; x64; rv:87.0) Gecko/20100101 Firefox/87.0,,Firefox,87,Windows,10
1,1,null,"""",image-keyboard-response,234,566965,0.0-234.0,"""",jspsych/neutralFaces/AM21NES.JPG,"""",256,Cue,Test,null,16,"""","""","""","""","""","""","""","""",1,4/18/2021 15:39,24.88.15.124,Mozilla/5.0 (Windows NT 10.0; Win64; x64; rv:87.0) Gecko/20100101 Firefox/87.0,,Firefox,87,Windows,10
1,1,null,"""",image-keyboard-response,235,567102,0.0-235.0,"""",jspsych/neutralFaces/AM26NES.JPG,"""",256,backwardMask,Test,null,100,"""","""","""","""","""","""","""","""",1,4/18/2021 15:39,24.88.15.124,Mozilla/5.0 (Windows NT 10.0; Win64; x64; rv:87.0) Gecko/20100101 Firefox/87.0,,Firefox,87,Windows,10
1,1,null,"""",html-keyboard-response,236,568116,0.0-236.0,"""","<div style=""font-size:60px;"">+</div>","""",256,fixationBtwnNeutralMaskAndPrompt,Test,null,1000,"""","""","""","""","""","""","""","""",1,4/18/2021 15:39,24.88.15.124,Mozilla/5.0 (Windows NT 10.0; Win64; x64; rv:87.0) Gecko/20100101 Firefox/87.0,,Firefox,87,Windows,10
1,1,2619,"""",html-button-response,237,570756,0.0-237.0,"""","<img src='jspsych/CFDfaces/CFD-WM-216-061-N.jpg' height=""250px"">,</br><b>Jeffrey</b>",1,256,IntactOrRearranged,Test,"""","""","""","""",CFD-BM-032-024-N.jpg,Sean,1,1,"""","""",1,4/18/2021 15:39,24.88.15.124,Mozilla/5.0 (Windows NT 10.0; Win64; x64; rv:87.0) Gecko/20100101 Firefox/87.0,,Firefox,87,Windows,10
1,1,3717,"""",html-slider-response,238,574487,0.0-238.0,"""","<img src='jspsych/CFDfaces/CFD-WM-216-061-N.jpg' height=""250px"">,</br><b>Jeffrey</b>","""",256,ConfidenceQuery,Test,"""","""","""","""",CFD-BM-032-024-N.jpg,Sean,1,"""",0,90,1,4/18/2021 15:39,24.88.15.124,Mozilla/5.0 (Windows NT 10.0; Win64; x64; rv:87.0) Gecko/20100101 Firefox/87.0,,Firefox,87,Windows,10
1,1,null,"""",html-keyboard-response,239,575575,0.0-239.0,"""","<div style=""font-size:60px;"">+</div>","""",256,ITI,Test,null,1000,"""","""","""","""","""","""","""","""",1,4/18/2021 15:39,24.88.15.124,Mozilla/5.0 (Windows NT 10.0; Win64; x64; rv:87.0) Gecko/20100101 Firefox/87.0,,Firefox,87,Windows,10
1,1,null,"""",image-keyboard-response,240,575845,0.0-240.0,"""",jspsych/scrambledNeutralFaces/scrambledBF25NES.JPG,"""",256,forwardMask,Test,null,250,"""",n,"""","""","""","""","""","""",1,4/18/2021 15:39,24.88.15.124,Mozilla/5.0 (Windows NT 10.0; Win64; x64; rv:87.0) Gecko/20100101 Firefox/87.0,,Firefox,87,Windows,10
1,1,null,"""",image-keyboard-response,241,575891,0.0-241.0,"""",jspsych/neutralFaces/BF25NES.JPG,"""",256,Cue,Test,null,16,"""","""","""","""","""","""","""","""",1,4/18/2021 15:39,24.88.15.124,Mozilla/5.0 (Windows NT 10.0; Win64; x64; rv:87.0) Gecko/20100101 Firefox/87.0,,Firefox,87,Windows,10
1,1,null,"""",image-keyboard-response,242,576030,0.0-242.0,"""",jspsych/neutralFaces/AF08NES.JPG,"""",256,backwardMask,Test,null,100,"""","""","""","""","""","""","""","""",1,4/18/2021 15:39,24.88.15.124,Mozilla/5.0 (Windows NT 10.0; Win64; x64; rv:87.0) Gecko/20100101 Firefox/87.0,,Firefox,87,Windows,10
1,1,null,"""",html-keyboard-response,243,577048,0.0-243.0,"""","<div style=""font-size:60px;"">+</div>","""",256,fixationBtwnNeutralMaskAndPrompt,Test,null,1000,"""","""","""","""","""","""","""","""",1,4/18/2021 15:39,24.88.15.124,Mozilla/5.0 (Windows NT 10.0; Win64; x64; rv:87.0) Gecko/20100101 Firefox/87.0,,Firefox,87,Windows,10
1,1,4048,"""",html-button-response,244,581102,0.0-244.0,"""","<img src='jspsych/CFDfaces/CFD-BF-025-002-N.jpg' height=""250px"">,</br><b>Kayla</b>",0,256,IntactOrRearranged,Test,"""","""","""","""",CFD-AM-229-224-N.jpg,Timothy,0,0,"""","""",1,4/18/2021 15:39,24.88.15.124,Mozilla/5.0 (Windows NT 10.0; Win64; x64; rv:87.0) Gecko/20100101 Firefox/87.0,,Firefox,87,Windows,10
1,1,3276,"""",html-slider-response,245,584417,0.0-245.0,"""","<img src='jspsych/CFDfaces/CFD-BF-025-002-N.jpg' height=""250px"">,</br><b>Kayla</b>","""",256,ConfidenceQuery,Test,"""","""","""","""",CFD-AM-229-224-N.jpg,Timothy,0,"""",0,72,1,4/18/2021 15:39,24.88.15.124,Mozilla/5.0 (Windows NT 10.0; Win64; x64; rv:87.0) Gecko/20100101 Firefox/87.0,,Firefox,87,Windows,10
1,1,null,"""",html-keyboard-response,246,585438,0.0-246.0,"""","<div style=""font-size:60px;"">+</div>","""",256,ITI,Test,null,1000,"""","""","""","""","""","""","""","""",1,4/18/2021 15:39,24.88.15.124,Mozilla/5.0 (Windows NT 10.0; Win64; x64; rv:87.0) Gecko/20100101 Firefox/87.0,,Firefox,87,Windows,10
1,1,null,"""",image-keyboard-response,247,585738,0.0-247.0,"""",jspsych/scrambledNeutralFaces/scrambledAF28NES.JPG,"""",256,forwardMask,Test,null,250,"""",n,"""","""","""","""","""","""",1,4/18/2021 15:39,24.88.15.124,Mozilla/5.0 (Windows NT 10.0; Win64; x64; rv:87.0) Gecko/20100101 Firefox/87.0,,Firefox,87,Windows,10
1,1,null,"""",image-keyboard-response,248,585828,0.0-248.0,"""",jspsych/neutralFaces/AF28NES.JPG,"""",256,Cue,Test,null,16,"""","""","""","""","""","""","""","""",1,4/18/2021 15:39,24.88.15.124,Mozilla/5.0 (Windows NT 10.0; Win64; x64; rv:87.0) Gecko/20100101 Firefox/87.0,,Firefox,87,Windows,10
1,1,null,"""",image-keyboard-response,249,585958,0.0-249.0,"""",jspsych/neutralFaces/AF21NES.JPG,"""",256,backwardMask,Test,null,100,"""","""","""","""","""","""","""","""",1,4/18/2021 15:39,24.88.15.124,Mozilla/5.0 (Windows NT 10.0; Win64; x64; rv:87.0) Gecko/20100101 Firefox/87.0,,Firefox,87,Windows,10
1,1,null,"""",html-keyboard-response,250,586968,0.0-250.0,"""","<div style=""font-size:60px;"">+</div>","""",256,fixationBtwnNeutralMaskAndPrompt,Test,null,1000,"""","""","""","""","""","""","""","""",1,4/18/2021 15:39,24.88.15.124,Mozilla/5.0 (Windows NT 10.0; Win64; x64; rv:87.0) Gecko/20100101 Firefox/87.0,,Firefox,87,Windows,10
1,1,4626,"""",html-button-response,251,591620,0.0-251.0,"""","<img src='jspsych/CFDfaces/CFD-LM-234-176-N.jpg' height=""250px"">,</br><b>Christian</b>",1,256,IntactOrRearranged,Test,"""","""","""","""",CFD-BF-004-014-N.jpg,Heather,1,1,"""","""",1,4/18/2021 15:39,24.88.15.124,Mozilla/5.0 (Windows NT 10.0; Win64; x64; rv:87.0) Gecko/20100101 Firefox/87.0,,Firefox,87,Windows,10
1,1,3667,"""",html-slider-response,252,595298,0.0-252.0,"""","<img src='jspsych/CFDfaces/CFD-LM-234-176-N.jpg' height=""250px"">,</br><b>Christian</b>","""",256,ConfidenceQuery,Test,"""","""","""","""",CFD-BF-004-014-N.jpg,Heather,1,"""",0,79,1,4/18/2021 15:39,24.88.15.124,Mozilla/5.0 (Windows NT 10.0; Win64; x64; rv:87.0) Gecko/20100101 Firefox/87.0,,Firefox,87,Windows,10
1,1,null,"""",html-keyboard-response,253,596349,0.0-253.0,"""","<div style=""font-size:60px;"">+</div>","""",256,ITI,Test,null,1000,"""","""","""","""","""","""","""","""",1,4/18/2021 15:39,24.88.15.124,Mozilla/5.0 (Windows NT 10.0; Win64; x64; rv:87.0) Gecko/20100101 Firefox/87.0,,Firefox,87,Windows,10
1,1,null,"""",image-keyboard-response,254,596623,0.0-254.0,"""",jspsych/scrambledNeutralFaces/scrambledBM30NES.JPG,"""",256,forwardMask,Test,null,250,"""",n,"""","""","""","""","""","""",1,4/18/2021 15:39,24.88.15.124,Mozilla/5.0 (Windows NT 10.0; Win64; x64; rv:87.0) Gecko/20100101 Firefox/87.0,,Firefox,87,Windows,10
1,1,null,"""",image-keyboard-response,255,596688,0.0-255.0,"""",jspsych/neutralFaces/BM30NES.JPG,"""",256,Cue,Test,null,16,"""","""","""","""","""","""","""","""",1,4/18/2021 15:39,24.88.15.124,Mozilla/5.0 (Windows NT 10.0; Win64; x64; rv:87.0) Gecko/20100101 Firefox/87.0,,Firefox,87,Windows,10
1,1,null,"""",image-keyboard-response,256,596846,0.0-256.0,"""",jspsych/neutralFaces/BM06NES.JPG,"""",256,backwardMask,Test,null,100,"""","""","""","""","""","""","""","""",1,4/18/2021 15:39,24.88.15.124,Mozilla/5.0 (Windows NT 10.0; Win64; x64; rv:87.0) Gecko/20100101 Firefox/87.0,,Firefox,87,Windows,10
1,1,null,"""",html-keyboard-response,257,597866,0.0-257.0,"""","<div style=""font-size:60px;"">+</div>","""",256,fixationBtwnNeutralMaskAndPrompt,Test,null,1000,"""","""","""","""","""","""","""","""",1,4/18/2021 15:39,24.88.15.124,Mozilla/5.0 (Windows NT 10.0; Win64; x64; rv:87.0) Gecko/20100101 Firefox/87.0,,Firefox,87,Windows,10
1,1,3229,"""",html-button-response,258,601099,0.0-258.0,"""","<img src='jspsych/CFDfaces/CFD-LM-239-075-N.jpg' height=""250px"">,</br><b>Peter</b>",0,256,IntactOrRearranged,Test,"""","""","""","""",CFD-AM-243-212-N.jpg,Austin,0,0,"""","""",1,4/18/2021 15:39,24.88.15.124,Mozilla/5.0 (Windows NT 10.0; Win64; x64; rv:87.0) Gecko/20100101 Firefox/87.0,,Firefox,87,Windows,10
1,1,2677,"""",html-slider-response,259,603787,0.0-259.0,"""","<img src='jspsych/CFDfaces/CFD-LM-239-075-N.jpg' height=""250px"">,</br><b>Peter</b>","""",256,ConfidenceQuery,Test,"""","""","""","""",CFD-AM-243-212-N.jpg,Austin,0,"""",0,59,1,4/18/2021 15:39,24.88.15.124,Mozilla/5.0 (Windows NT 10.0; Win64; x64; rv:87.0) Gecko/20100101 Firefox/87.0,,Firefox,87,Windows,10
1,1,null,"""",html-keyboard-response,260,604858,0.0-260.0,"""","<div style=""font-size:60px;"">+</div>","""",256,ITI,Test,null,1000,"""","""","""","""","""","""","""","""",1,4/18/2021 15:39,24.88.15.124,Mozilla/5.0 (Windows NT 10.0; Win64; x64; rv:87.0) Gecko/20100101 Firefox/87.0,,Firefox,87,Windows,10
1,1,null,"""",image-keyboard-response,261,605156,0.0-261.0,"""",jspsych/scrambledNeutralFaces/scrambledAM03NES.JPG,"""",256,forwardMask,Test,null,250,"""",n,"""","""","""","""","""","""",1,4/18/2021 15:39,24.88.15.124,Mozilla/5.0 (Windows NT 10.0; Win64; x64; rv:87.0) Gecko/20100101 Firefox/87.0,,Firefox,87,Windows,10
1,1,null,"""",image-keyboard-response,262,605199,0.0-262.0,"""",jspsych/neutralFaces/AM03NES.JPG,"""",256,Cue,Test,null,16,"""","""","""","""","""","""","""","""",1,4/18/2021 15:39,24.88.15.124,Mozilla/5.0 (Windows NT 10.0; Win64; x64; rv:87.0) Gecko/20100101 Firefox/87.0,,Firefox,87,Windows,10
1,1,null,"""",image-keyboard-response,263,605313,0.0-263.0,"""",jspsych/neutralFaces/BM11NES.JPG,"""",256,backwardMask,Test,null,100,"""","""","""","""","""","""","""","""",1,4/18/2021 15:39,24.88.15.124,Mozilla/5.0 (Windows NT 10.0; Win64; x64; rv:87.0) Gecko/20100101 Firefox/87.0,,Firefox,87,Windows,10
1,1,null,"""",html-keyboard-response,264,606356,0.0-264.0,"""","<div style=""font-size:60px;"">+</div>","""",256,fixationBtwnNeutralMaskAndPrompt,Test,null,1000,"""","""","""","""","""","""","""","""",1,4/18/2021 15:39,24.88.15.124,Mozilla/5.0 (Windows NT 10.0; Win64; x64; rv:87.0) Gecko/20100101 Firefox/87.0,,Firefox,87,Windows,10
1,1,2440,"""",html-button-response,265,608799,0.0-265.0,"""","<img src='jspsych/CFDfaces/CFD-WM-222-057-N.jpg' height=""250px"">,</br><b>Nicholas</b>",0,256,IntactOrRearranged,Test,"""","""","""","""",CFD-LM-233-171-N.jpg,Jacob,0,0,"""","""",1,4/18/2021 15:39,24.88.15.124,Mozilla/5.0 (Windows NT 10.0; Win64; x64; rv:87.0) Gecko/20100101 Firefox/87.0,,Firefox,87,Windows,10
1,1,2588,"""",html-slider-response,266,611399,0.0-266.0,"""","<img src='jspsych/CFDfaces/CFD-WM-222-057-N.jpg' height=""250px"">,</br><b>Nicholas</b>","""",256,ConfidenceQuery,Test,"""","""","""","""",CFD-LM-233-171-N.jpg,Jacob,0,"""",0,97,1,4/18/2021 15:39,24.88.15.124,Mozilla/5.0 (Windows NT 10.0; Win64; x64; rv:87.0) Gecko/20100101 Firefox/87.0,,Firefox,87,Windows,10
1,1,null,"""",html-keyboard-response,267,612436,0.0-267.0,"""","<div style=""font-size:60px;"">+</div>","""",256,ITI,Test,null,1000,"""","""","""","""","""","""","""","""",1,4/18/2021 15:39,24.88.15.124,Mozilla/5.0 (Windows NT 10.0; Win64; x64; rv:87.0) Gecko/20100101 Firefox/87.0,,Firefox,87,Windows,10
1,1,null,"""",image-keyboard-response,268,612705,0.0-268.0,"""",jspsych/scrambledDisgustFaces/scrambledBM02DIS.JPG,"""",256,forwardMask,Test,null,250,"""",d,"""","""","""","""","""","""",1,4/18/2021 15:39,24.88.15.124,Mozilla/5.0 (Windows NT 10.0; Win64; x64; rv:87.0) Gecko/20100101 Firefox/87.0,,Firefox,87,Windows,10
1,1,null,"""",image-keyboard-response,269,612743,0.0-269.0,"""",jspsych/disgustFaces/BM03DIS.JPG,"""",256,Cue,Test,null,16,"""","""","""","""","""","""","""","""",1,4/18/2021 15:39,24.88.15.124,Mozilla/5.0 (Windows NT 10.0; Win64; x64; rv:87.0) Gecko/20100101 Firefox/87.0,,Firefox,87,Windows,10
1,1,null,"""",image-keyboard-response,270,612867,0.0-270.0,"""",jspsych/neutralFaces/AM28NES.JPG,"""",256,backwardMask,Test,null,100,"""","""","""","""","""","""","""","""",1,4/18/2021 15:39,24.88.15.124,Mozilla/5.0 (Windows NT 10.0; Win64; x64; rv:87.0) Gecko/20100101 Firefox/87.0,,Firefox,87,Windows,10
1,1,null,"""",html-keyboard-response,271,613873,0.0-271.0,"""","<div style=""font-size:60px;"">+</div>","""",256,fixationBtwnNeutralMaskAndPrompt,Test,null,1000,"""","""","""","""","""","""","""","""",1,4/18/2021 15:39,24.88.15.124,Mozilla/5.0 (Windows NT 10.0; Win64; x64; rv:87.0) Gecko/20100101 Firefox/87.0,,Firefox,87,Windows,10
1,1,2450,"""",html-button-response,272,616331,0.0-272.0,"""","<img src='jspsych/CFDfaces/CFD-AF-240-206-N.jpg' height=""250px"">,</br><b>Samantha</b>",0,256,IntactOrRearranged,Test,"""","""","""","""",CFD-BF-209-172-N.jpg,Sara,0,0,"""","""",1,4/18/2021 15:39,24.88.15.124,Mozilla/5.0 (Windows NT 10.0; Win64; x64; rv:87.0) Gecko/20100101 Firefox/87.0,,Firefox,87,Windows,10
1,1,2817,"""",html-slider-response,273,619158,0.0-273.0,"""","<img src='jspsych/CFDfaces/CFD-AF-240-206-N.jpg' height=""250px"">,</br><b>Samantha</b>","""",256,ConfidenceQuery,Test,"""","""","""","""",CFD-BF-209-172-N.jpg,Sara,0,"""",0,70,1,4/18/2021 15:39,24.88.15.124,Mozilla/5.0 (Windows NT 10.0; Win64; x64; rv:87.0) Gecko/20100101 Firefox/87.0,,Firefox,87,Windows,10
1,1,null,"""",html-keyboard-response,274,620213,0.0-274.0,"""","<div style=""font-size:60px;"">+</div>","""",256,ITI,Test,null,1000,"""","""","""","""","""","""","""","""",1,4/18/2021 15:39,24.88.15.124,Mozilla/5.0 (Windows NT 10.0; Win64; x64; rv:87.0) Gecko/20100101 Firefox/87.0,,Firefox,87,Windows,10
1,1,null,"""",image-keyboard-response,275,620482,0.0-275.0,"""",jspsych/scrambledDisgustFaces/scrambledAM25DIS.JPG,"""",256,forwardMask,Test,null,250,"""",d,"""","""","""","""","""","""",1,4/18/2021 15:39,24.88.15.124,Mozilla/5.0 (Windows NT 10.0; Win64; x64; rv:87.0) Gecko/20100101 Firefox/87.0,,Firefox,87,Windows,10
1,1,null,"""",image-keyboard-response,276,620519,0.0-276.0,"""",jspsych/disgustFaces/AM25DIS.JPG,"""",256,Cue,Test,null,16,"""","""","""","""","""","""","""","""",1,4/18/2021 15:39,24.88.15.124,Mozilla/5.0 (Windows NT 10.0; Win64; x64; rv:87.0) Gecko/20100101 Firefox/87.0,,Firefox,87,Windows,10
1,1,null,"""",image-keyboard-response,277,620652,0.0-277.0,"""",jspsych/neutralFaces/AM10NES.JPG,"""",256,backwardMask,Test,null,100,"""","""","""","""","""","""","""","""",1,4/18/2021 15:39,24.88.15.124,Mozilla/5.0 (Windows NT 10.0; Win64; x64; rv:87.0) Gecko/20100101 Firefox/87.0,,Firefox,87,Windows,10
1,1,null,"""",html-keyboard-response,278,621663,0.0-278.0,"""","<div style=""font-size:60px;"">+</div>","""",256,fixationBtwnNeutralMaskAndPrompt,Test,null,1000,"""","""","""","""","""","""","""","""",1,4/18/2021 15:39,24.88.15.124,Mozilla/5.0 (Windows NT 10.0; Win64; x64; rv:87.0) Gecko/20100101 Firefox/87.0,,Firefox,87,Windows,10
1,1,2981,"""",html-button-response,279,624651,0.0-279.0,"""","<img src='jspsych/CFDfaces/CFD-AF-243-170-N.jpg' height=""250px"">,</br><b>Michelle</b>",0,256,IntactOrRearranged,Test,"""","""","""","""",CFD-LF-239-148-N.jpg,Laura,0,0,"""","""",1,4/18/2021 15:39,24.88.15.124,Mozilla/5.0 (Windows NT 10.0; Win64; x64; rv:87.0) Gecko/20100101 Firefox/87.0,,Firefox,87,Windows,10
1,1,2279,"""",html-slider-response,280,626941,0.0-280.0,"""","<img src='jspsych/CFDfaces/CFD-AF-243-170-N.jpg' height=""250px"">,</br><b>Michelle</b>","""",256,ConfidenceQuery,Test,"""","""","""","""",CFD-LF-239-148-N.jpg,Laura,0,"""",0,60,1,4/18/2021 15:39,24.88.15.124,Mozilla/5.0 (Windows NT 10.0; Win64; x64; rv:87.0) Gecko/20100101 Firefox/87.0,,Firefox,87,Windows,10
1,1,null,"""",html-keyboard-response,281,627988,0.0-281.0,"""","<div style=""font-size:60px;"">+</div>","""",256,ITI,Test,null,1000,"""","""","""","""","""","""","""","""",1,4/18/2021 15:39,24.88.15.124,Mozilla/5.0 (Windows NT 10.0; Win64; x64; rv:87.0) Gecko/20100101 Firefox/87.0,,Firefox,87,Windows,10
1,1,null,"""",image-keyboard-response,282,628263,0.0-282.0,"""",jspsych/scrambledNeutralFaces/scrambledBM22NES.JPG,"""",256,forwardMask,Test,null,250,"""",n,"""","""","""","""","""","""",1,4/18/2021 15:39,24.88.15.124,Mozilla/5.0 (Windows NT 10.0; Win64; x64; rv:87.0) Gecko/20100101 Firefox/87.0,,Firefox,87,Windows,10
1,1,null,"""",image-keyboard-response,283,628303,0.0-283.0,"""",jspsych/neutralFaces/BM22NES.JPG,"""",256,Cue,Test,null,16,"""","""","""","""","""","""","""","""",1,4/18/2021 15:39,24.88.15.124,Mozilla/5.0 (Windows NT 10.0; Win64; x64; rv:87.0) Gecko/20100101 Firefox/87.0,,Firefox,87,Windows,10
1,1,null,"""",image-keyboard-response,284,628474,0.0-284.0,"""",jspsych/neutralFaces/BM34NES.JPG,"""",256,backwardMask,Test,null,100,"""","""","""","""","""","""","""","""",1,4/18/2021 15:39,24.88.15.124,Mozilla/5.0 (Windows NT 10.0; Win64; x64; rv:87.0) Gecko/20100101 Firefox/87.0,,Firefox,87,Windows,10
1,1,null,"""",html-keyboard-response,285,629494,0.0-285.0,"""","<div style=""font-size:60px;"">+</div>","""",256,fixationBtwnNeutralMaskAndPrompt,Test,null,1000,"""","""","""","""","""","""","""","""",1,4/18/2021 15:39,24.88.15.124,Mozilla/5.0 (Windows NT 10.0; Win64; x64; rv:87.0) Gecko/20100101 Firefox/87.0,,Firefox,87,Windows,10
1,1,1907,"""",html-button-response,286,631410,0.0-286.0,"""","<img src='jspsych/CFDfaces/CFD-AF-200-228-N.jpg' height=""250px"">,</br><b>Julie</b>",0,256,IntactOrRearranged,Test,"""","""","""","""",CFD-BM-039-029-N.jpg,Vincent,0,0,"""","""",1,4/18/2021 15:39,24.88.15.124,Mozilla/5.0 (Windows NT 10.0; Win64; x64; rv:87.0) Gecko/20100101 Firefox/87.0,,Firefox,87,Windows,10
1,1,3539,"""",html-slider-response,287,634962,0.0-287.0,"""","<img src='jspsych/CFDfaces/CFD-AF-200-228-N.jpg' height=""250px"">,</br><b>Julie</b>","""",256,ConfidenceQuery,Test,"""","""","""","""",CFD-BM-039-029-N.jpg,Vincent,0,"""",0,100,1,4/18/2021 15:39,24.88.15.124,Mozilla/5.0 (Windows NT 10.0; Win64; x64; rv:87.0) Gecko/20100101 Firefox/87.0,,Firefox,87,Windows,10
1,1,null,"""",html-keyboard-response,288,635998,0.0-288.0,"""","<div style=""font-size:60px;"">+</div>","""",256,ITI,Test,null,1000,"""","""","""","""","""","""","""","""",1,4/18/2021 15:39,24.88.15.124,Mozilla/5.0 (Windows NT 10.0; Win64; x64; rv:87.0) Gecko/20100101 Firefox/87.0,,Firefox,87,Windows,10
1,1,null,"""",image-keyboard-response,289,636295,0.0-289.0,"""",jspsych/scrambledDisgustFaces/scrambledAM24DIS.JPG,"""",256,forwardMask,Test,null,250,"""",d,"""","""","""","""","""","""",1,4/18/2021 15:39,24.88.15.124,Mozilla/5.0 (Windows NT 10.0; Win64; x64; rv:87.0) Gecko/20100101 Firefox/87.0,,Firefox,87,Windows,10
1,1,null,"""",image-keyboard-response,290,636340,0.0-290.0,"""",jspsych/disgustFaces/AM24DIS.JPG,"""",256,Cue,Test,null,16,"""","""","""","""","""","""","""","""",1,4/18/2021 15:39,24.88.15.124,Mozilla/5.0 (Windows NT 10.0; Win64; x64; rv:87.0) Gecko/20100101 Firefox/87.0,,Firefox,87,Windows,10
1,1,null,"""",image-keyboard-response,291,636452,0.0-291.0,"""",jspsych/neutralFaces/AM03NES.JPG,"""",256,backwardMask,Test,null,100,"""","""","""","""","""","""","""","""",1,4/18/2021 15:39,24.88.15.124,Mozilla/5.0 (Windows NT 10.0; Win64; x64; rv:87.0) Gecko/20100101 Firefox/87.0,,Firefox,87,Windows,10
1,1,null,"""",html-keyboard-response,292,637464,0.0-292.0,"""","<div style=""font-size:60px;"">+</div>","""",256,fixationBtwnNeutralMaskAndPrompt,Test,null,1000,"""","""","""","""","""","""","""","""",1,4/18/2021 15:39,24.88.15.124,Mozilla/5.0 (Windows NT 10.0; Win64; x64; rv:87.0) Gecko/20100101 Firefox/87.0,,Firefox,87,Windows,10
1,1,4141,"""",html-button-response,293,641617,0.0-293.0,"""","<img src='jspsych/CFDfaces/CFD-WM-041-021-N.jpg' height=""250px"">,</br><b>Joshua</b>",0,256,IntactOrRearranged,Test,"""","""","""","""",CFD-AM-207-108-N.jpg,Jeremy,1,0,"""","""",1,4/18/2021 15:39,24.88.15.124,Mozilla/5.0 (Windows NT 10.0; Win64; x64; rv:87.0) Gecko/20100101 Firefox/87.0,,Firefox,87,Windows,10
1,1,2821,"""",html-slider-response,294,644542,0.0-294.0,"""","<img src='jspsych/CFDfaces/CFD-WM-041-021-N.jpg' height=""250px"">,</br><b>Joshua</b>","""",256,ConfidenceQuery,Test,"""","""","""","""",CFD-AM-207-108-N.jpg,Jeremy,1,"""",0,38,1,4/18/2021 15:39,24.88.15.124,Mozilla/5.0 (Windows NT 10.0; Win64; x64; rv:87.0) Gecko/20100101 Firefox/87.0,,Firefox,87,Windows,10
1,1,null,"""",html-keyboard-response,295,645570,0.0-295.0,"""","<div style=""font-size:60px;"">+</div>","""",256,ITI,Test,null,1000,"""","""","""","""","""","""","""","""",1,4/18/2021 15:39,24.88.15.124,Mozilla/5.0 (Windows NT 10.0; Win64; x64; rv:87.0) Gecko/20100101 Firefox/87.0,,Firefox,87,Windows,10
1,1,null,"""",image-keyboard-response,296,645838,0.0-296.0,"""",jspsych/scrambledDisgustFaces/scrambledBM26DIS.JPG,"""",256,forwardMask,Test,null,250,"""",d,"""","""","""","""","""","""",1,4/18/2021 15:39,24.88.15.124,Mozilla/5.0 (Windows NT 10.0; Win64; x64; rv:87.0) Gecko/20100101 Firefox/87.0,,Firefox,87,Windows,10
1,1,null,"""",image-keyboard-response,297,645890,0.0-297.0,"""",jspsych/disgustFaces/BM27DIS.JPG,"""",256,Cue,Test,null,16,"""","""","""","""","""","""","""","""",1,4/18/2021 15:39,24.88.15.124,Mozilla/5.0 (Windows NT 10.0; Win64; x64; rv:87.0) Gecko/20100101 Firefox/87.0,,Firefox,87,Windows,10
1,1,null,"""",image-keyboard-response,298,646014,0.0-298.0,"""",jspsych/neutralFaces/AM13NES.JPG,"""",256,backwardMask,Test,null,100,"""","""","""","""","""","""","""","""",1,4/18/2021 15:39,24.88.15.124,Mozilla/5.0 (Windows NT 10.0; Win64; x64; rv:87.0) Gecko/20100101 Firefox/87.0,,Firefox,87,Windows,10
