run_id,condition,rt,responses,trial_type,trial_index,time_elapsed,internal_node_id,question_order,stimulus,button_pressed,iTrial,Phase,ExperimentPhase,key_press,StimulusDurationSetting,CharacterResponse,correctResponse,Face,Name,rearranged,didSubjectEnterRearranged,slider_start,response,Block,recorded_at,ip,user_agent,device,browser,browser_version,platform,platform_version
43,1,14323,"{""Q0"":""AAQATZZDPD9DW""}",survey-text,0,14327,0.0-0.0,"""","""","""","""","""","""","""","""","""","""","""","""","""","""","""","""","""",4/20/2021 0:37,71.219.223.215,Mozilla/5.0 (Macintosh; Intel Mac OS X 10.16; rv:83.0) Gecko/20100101 Firefox/83.0,Macintosh,Firefox,83,OS X,10.16
43,1,2676,"{""Q0"":""31""}",survey-text,1,17011,0.0-1.0,"""","""","""","""","""","""","""","""","""","""","""","""","""","""","""","""","""",4/20/2021 0:37,71.219.223.215,Mozilla/5.0 (Macintosh; Intel Mac OS X 10.16; rv:83.0) Gecko/20100101 Firefox/83.0,Macintosh,Firefox,83,OS X,10.16
43,1,4598,"{""Q0"":""female"",""Q1"":""Not Hispanic/Latino"",""Q2"":""White or Caucasian""}",survey-multi-choice,2,21612,0.0-2.0,"[0,1,2]","""","""","""","""","""","""","""","""","""","""","""","""","""","""","""","""",4/20/2021 0:37,71.219.223.215,Mozilla/5.0 (Macintosh; Intel Mac OS X 10.16; rv:83.0) Gecko/20100101 Firefox/83.0,Macintosh,Firefox,83,OS X,10.16
43,1,15917,"""",image-button-response,3,37544,0.0-3.0,"""",directionsMemoryAssociation1.JPG,0,1,IntroDirections1,break,"""","""","""","""","""","""","""","""","""","""","""",4/20/2021 0:37,71.219.223.215,Mozilla/5.0 (Macintosh; Intel Mac OS X 10.16; rv:83.0) Gecko/20100101 Firefox/83.0,Macintosh,Firefox,83,OS X,10.16
43,1,44436,"""",image-button-response,4,81992,0.0-4.0,"""",directionsMemoryAssociation2.JPG,0,1,IntroDirections2,break,"""","""","""","""","""","""","""","""","""","""","""",4/20/2021 0:37,71.219.223.215,Mozilla/5.0 (Macintosh; Intel Mac OS X 10.16; rv:83.0) Gecko/20100101 Firefox/83.0,Macintosh,Firefox,83,OS X,10.16
43,1,null,"""",html-keyboard-response,5,87003,0.0-5.0,"""","<img src='jspsych/CFDfaces/CFD-AF-222-134-N.jpg' height=""250px"">,</br><b>Cassandra</b>","""",1,IntactFace,Practice,null,5000,"""","""","""","""","""","""","""","""","""",4/20/2021 0:37,71.219.223.215,Mozilla/5.0 (Macintosh; Intel Mac OS X 10.16; rv:83.0) Gecko/20100101 Firefox/83.0,Macintosh,Firefox,83,OS X,10.16
43,1,null,"""",html-keyboard-response,6,87506,0.0-6.0,"""","<div style=""font-size:60px;"">+</div>","""",1,ITI,Practice,null,1000,"""","""","""","""","""","""","""","""","""",4/20/2021 0:37,71.219.223.215,Mozilla/5.0 (Macintosh; Intel Mac OS X 10.16; rv:83.0) Gecko/20100101 Firefox/83.0,Macintosh,Firefox,83,OS X,10.16
43,1,3285,"""",html-keyboard-response,7,92513,0.0-7.0,"""","<img src='jspsych/CFDfaces/CFD-WM-015-002-N.jpg' height=""250px"">,</br><b>Carlos</b>","""",2,IntactFace,Practice,70,5000,f,"""","""","""","""","""","""","""","""",4/20/2021 0:37,71.219.223.215,Mozilla/5.0 (Macintosh; Intel Mac OS X 10.16; rv:83.0) Gecko/20100101 Firefox/83.0,Macintosh,Firefox,83,OS X,10.16
43,1,null,"""",html-keyboard-response,8,93021,0.0-8.0,"""","<div style=""font-size:60px;"">+</div>","""",2,ITI,Practice,null,1000,"""","""","""","""","""","""","""","""","""",4/20/2021 0:37,71.219.223.215,Mozilla/5.0 (Macintosh; Intel Mac OS X 10.16; rv:83.0) Gecko/20100101 Firefox/83.0,Macintosh,Firefox,83,OS X,10.16
43,1,1997,"""",html-keyboard-response,9,98028,0.0-9.0,"""","<img src='jspsych/CFDfaces/CFD-AF-220-107-N.jpg' height=""250px"">,</br><b>Shannon</b>","""",3,IntactFace,Practice,70,5000,f,"""","""","""","""","""","""","""","""",4/20/2021 0:37,71.219.223.215,Mozilla/5.0 (Macintosh; Intel Mac OS X 10.16; rv:83.0) Gecko/20100101 Firefox/83.0,Macintosh,Firefox,83,OS X,10.16
43,1,null,"""",html-keyboard-response,10,98536,0.0-10.0,"""","<div style=""font-size:60px;"">+</div>","""",3,ITI,Practice,null,1000,"""","""","""","""","""","""","""","""","""",4/20/2021 0:37,71.219.223.215,Mozilla/5.0 (Macintosh; Intel Mac OS X 10.16; rv:83.0) Gecko/20100101 Firefox/83.0,Macintosh,Firefox,83,OS X,10.16
43,1,2943,"""",html-keyboard-response,11,103543,0.0-11.0,"""","<img src='jspsych/CFDfaces/CFD-LM-248-089-N.jpg' height=""250px"">,</br><b>Samuel</b>","""",4,IntactFace,Practice,70,5000,f,"""","""","""","""","""","""","""","""",4/20/2021 0:37,71.219.223.215,Mozilla/5.0 (Macintosh; Intel Mac OS X 10.16; rv:83.0) Gecko/20100101 Firefox/83.0,Macintosh,Firefox,83,OS X,10.16
43,1,null,"""",html-keyboard-response,12,104048,0.0-12.0,"""","<div style=""font-size:60px;"">+</div>","""",4,ITI,Practice,null,1000,"""","""","""","""","""","""","""","""","""",4/20/2021 0:37,71.219.223.215,Mozilla/5.0 (Macintosh; Intel Mac OS X 10.16; rv:83.0) Gecko/20100101 Firefox/83.0,Macintosh,Firefox,83,OS X,10.16
43,1,2567,"""",html-keyboard-response,13,109055,0.0-13.0,"""","<img src='jspsych/CFDfaces/CFD-BF-008-001-N.jpg' height=""250px"">,</br><b>Katelyn</b>","""",5,IntactFace,Practice,78,5000,n,"""","""","""","""","""","""","""","""",4/20/2021 0:37,71.219.223.215,Mozilla/5.0 (Macintosh; Intel Mac OS X 10.16; rv:83.0) Gecko/20100101 Firefox/83.0,Macintosh,Firefox,83,OS X,10.16
43,1,null,"""",html-keyboard-response,14,109563,0.0-14.0,"""","<div style=""font-size:60px;"">+</div>","""",5,ITI,Practice,null,1000,"""","""","""","""","""","""","""","""","""",4/20/2021 0:37,71.219.223.215,Mozilla/5.0 (Macintosh; Intel Mac OS X 10.16; rv:83.0) Gecko/20100101 Firefox/83.0,Macintosh,Firefox,83,OS X,10.16
43,1,2415,"""",html-keyboard-response,15,114567,0.0-15.0,"""","<img src='jspsych/CFDfaces/CFD-AM-213-056-N.jpg' height=""250px"">,</br><b>Marcus</b>","""",6,IntactFace,Practice,70,5000,f,"""","""","""","""","""","""","""","""",4/20/2021 0:37,71.219.223.215,Mozilla/5.0 (Macintosh; Intel Mac OS X 10.16; rv:83.0) Gecko/20100101 Firefox/83.0,Macintosh,Firefox,83,OS X,10.16
43,1,null,"""",html-keyboard-response,16,115069,0.0-16.0,"""","<div style=""font-size:60px;"">+</div>","""",6,ITI,Practice,null,1000,"""","""","""","""","""","""","""","""","""",4/20/2021 0:37,71.219.223.215,Mozilla/5.0 (Macintosh; Intel Mac OS X 10.16; rv:83.0) Gecko/20100101 Firefox/83.0,Macintosh,Firefox,83,OS X,10.16
43,1,2774,"""",html-keyboard-response,17,120072,0.0-17.0,"""","<img src='jspsych/CFDfaces/CFD-LM-221-216-N.jpg' height=""250px"">,</br><b>Patrick</b>","""",7,IntactFace,Practice,78,5000,n,"""","""","""","""","""","""","""","""",4/20/2021 0:37,71.219.223.215,Mozilla/5.0 (Macintosh; Intel Mac OS X 10.16; rv:83.0) Gecko/20100101 Firefox/83.0,Macintosh,Firefox,83,OS X,10.16
43,1,null,"""",html-keyboard-response,18,120579,0.0-18.0,"""","<div style=""font-size:60px;"">+</div>","""",7,ITI,Practice,null,1000,"""","""","""","""","""","""","""","""","""",4/20/2021 0:37,71.219.223.215,Mozilla/5.0 (Macintosh; Intel Mac OS X 10.16; rv:83.0) Gecko/20100101 Firefox/83.0,Macintosh,Firefox,83,OS X,10.16
43,1,2017,"""",html-keyboard-response,19,125586,0.0-19.0,"""","<img src='jspsych/CFDfaces/CFD-AF-235-170-N.jpg' height=""250px"">,</br><b>Tara</b>","""",8,IntactFace,Practice,70,5000,f,"""","""","""","""","""","""","""","""",4/20/2021 0:37,71.219.223.215,Mozilla/5.0 (Macintosh; Intel Mac OS X 10.16; rv:83.0) Gecko/20100101 Firefox/83.0,Macintosh,Firefox,83,OS X,10.16
43,1,null,"""",html-keyboard-response,20,126088,0.0-20.0,"""","<div style=""font-size:60px;"">+</div>","""",8,ITI,Practice,null,1000,"""","""","""","""","""","""","""","""","""",4/20/2021 0:37,71.219.223.215,Mozilla/5.0 (Macintosh; Intel Mac OS X 10.16; rv:83.0) Gecko/20100101 Firefox/83.0,Macintosh,Firefox,83,OS X,10.16
43,1,19221,"""",image-button-response,21,145322,0.0-21.0,"""",directionsForTest.JPG,0,1,directionsForTest,break,"""","""","""","""","""","""","""","""","""","""","""",4/20/2021 0:37,71.219.223.215,Mozilla/5.0 (Macintosh; Intel Mac OS X 10.16; rv:83.0) Gecko/20100101 Firefox/83.0,Macintosh,Firefox,83,OS X,10.16
43,1,5540,"""",image-button-response,22,150873,0.0-22.0,"""",directionsForTest2.JPG,0,1,directionsForTest2,break,"""","""","""","""","""","""","""","""","""","""","""",4/20/2021 0:37,71.219.223.215,Mozilla/5.0 (Macintosh; Intel Mac OS X 10.16; rv:83.0) Gecko/20100101 Firefox/83.0,Macintosh,Firefox,83,OS X,10.16
43,1,null,"""",html-keyboard-response,23,151877,0.0-23.0,"""","<div style=""font-size:60px;"">+</div>","""",1,ITI,Practice,null,1000,"""","""","""","""","""","""","""","""","""",4/20/2021 0:37,71.219.223.215,Mozilla/5.0 (Macintosh; Intel Mac OS X 10.16; rv:83.0) Gecko/20100101 Firefox/83.0,Macintosh,Firefox,83,OS X,10.16
43,1,null,"""",image-keyboard-response,24,152133,0.0-24.0,"""",jspsych/scrambledDisgustFaces/scrambledBM32DIS.JPG,"""",1,forwardMask,Practice,null,250,"""",d,"""","""","""","""","""","""","""",4/20/2021 0:37,71.219.223.215,Mozilla/5.0 (Macintosh; Intel Mac OS X 10.16; rv:83.0) Gecko/20100101 Firefox/83.0,Macintosh,Firefox,83,OS X,10.16
43,1,null,"""",image-keyboard-response,25,152155,0.0-25.0,"""",jspsych/disgustFaces/BM33DIS.JPG,"""",1,Cue,Practice,null,16,"""","""","""","""","""","""","""","""","""",4/20/2021 0:37,71.219.223.215,Mozilla/5.0 (Macintosh; Intel Mac OS X 10.16; rv:83.0) Gecko/20100101 Firefox/83.0,Macintosh,Firefox,83,OS X,10.16
43,1,null,"""",image-keyboard-response,26,152261,0.0-26.0,"""",jspsych/neutralFaces/BM28NES.JPG,"""",1,backwardMask,Practice,null,100,"""","""","""","""","""","""","""","""","""",4/20/2021 0:37,71.219.223.215,Mozilla/5.0 (Macintosh; Intel Mac OS X 10.16; rv:83.0) Gecko/20100101 Firefox/83.0,Macintosh,Firefox,83,OS X,10.16
43,1,null,"""",html-keyboard-response,27,153267,0.0-27.0,"""","<div style=""font-size:60px;"">+</div>","""",1,fixationBtwnNeutralMaskAndPrompt,Practice,null,1000,"""","""","""","""","""","""","""","""","""",4/20/2021 0:37,71.219.223.215,Mozilla/5.0 (Macintosh; Intel Mac OS X 10.16; rv:83.0) Gecko/20100101 Firefox/83.0,Macintosh,Firefox,83,OS X,10.16
43,1,3089,"""",html-button-response,28,156357,0.0-28.0,"""","<img src='jspsych/CFDfaces/CFD-AF-220-107-N.jpg'height=""250px""></br><b>Shannon</b>",0,1,IntactOrRearranged,Practice,"""","""","""","""",CFD-AF-220-107-N.jpg,Shannon,0,0,"""","""","""",4/20/2021 0:37,71.219.223.215,Mozilla/5.0 (Macintosh; Intel Mac OS X 10.16; rv:83.0) Gecko/20100101 Firefox/83.0,Macintosh,Firefox,83,OS X,10.16
43,1,null,"""",html-slider-response,29,161371,0.0-29.0,"""","<img src='jspsych/CFDfaces/CFD-AF-220-107-N.jpg'height=""250px""></br><b>Shannon</b>","""",1,ConfidenceQuery,Practice,"""","""","""","""",CFD-AM-212-050-N.jpg,Sean,0,"""",0,null,"""",4/20/2021 0:37,71.219.223.215,Mozilla/5.0 (Macintosh; Intel Mac OS X 10.16; rv:83.0) Gecko/20100101 Firefox/83.0,Macintosh,Firefox,83,OS X,10.16
43,1,1860,"""",html-button-response,30,163235,0.0-30.0,"""",You are Correct. You called an Intact Pair Intact,0,1,feedback,Practice,"""","""","""","""","""","""","""","""","""","""","""",4/20/2021 0:37,71.219.223.215,Mozilla/5.0 (Macintosh; Intel Mac OS X 10.16; rv:83.0) Gecko/20100101 Firefox/83.0,Macintosh,Firefox,83,OS X,10.16
43,1,null,"""",html-keyboard-response,31,164243,0.0-31.0,"""","<div style=""font-size:60px;"">+</div>","""",2,ITI,Practice,null,1000,"""","""","""","""","""","""","""","""","""",4/20/2021 0:37,71.219.223.215,Mozilla/5.0 (Macintosh; Intel Mac OS X 10.16; rv:83.0) Gecko/20100101 Firefox/83.0,Macintosh,Firefox,83,OS X,10.16
43,1,null,"""",image-keyboard-response,32,164497,0.0-32.0,"""",jspsych/scrambledDisgustFaces/scrambledAF29DIS.JPG,"""",2,forwardMask,Practice,null,250,"""",d,"""","""","""","""","""","""","""",4/20/2021 0:37,71.219.223.215,Mozilla/5.0 (Macintosh; Intel Mac OS X 10.16; rv:83.0) Gecko/20100101 Firefox/83.0,Macintosh,Firefox,83,OS X,10.16
43,1,null,"""",image-keyboard-response,33,164519,0.0-33.0,"""",jspsych/disgustFaces/AF29DIS.JPG,"""",2,Cue,Practice,null,16,"""","""","""","""","""","""","""","""","""",4/20/2021 0:37,71.219.223.215,Mozilla/5.0 (Macintosh; Intel Mac OS X 10.16; rv:83.0) Gecko/20100101 Firefox/83.0,Macintosh,Firefox,83,OS X,10.16
43,1,null,"""",image-keyboard-response,34,164629,0.0-34.0,"""",jspsych/neutralFaces/BF32NES.JPG,"""",2,backwardMask,Practice,null,100,"""","""","""","""","""","""","""","""","""",4/20/2021 0:37,71.219.223.215,Mozilla/5.0 (Macintosh; Intel Mac OS X 10.16; rv:83.0) Gecko/20100101 Firefox/83.0,Macintosh,Firefox,83,OS X,10.16
43,1,null,"""",html-keyboard-response,35,165632,0.0-35.0,"""","<div style=""font-size:60px;"">+</div>","""",2,fixationBtwnNeutralMaskAndPrompt,Practice,null,1000,"""","""","""","""","""","""","""","""","""",4/20/2021 0:37,71.219.223.215,Mozilla/5.0 (Macintosh; Intel Mac OS X 10.16; rv:83.0) Gecko/20100101 Firefox/83.0,Macintosh,Firefox,83,OS X,10.16
43,1,1954,"""",html-button-response,36,167589,0.0-36.0,"""","<img src='jspsych/CFDfaces/CFD-WM-015-002-N.jpg'height=""250px""></br><b>Marcus</b>",1,2,IntactOrRearranged,Practice,"""","""","""","""",CFD-WM-015-002-N.jpg,Marcus,1,1,"""","""","""",4/20/2021 0:37,71.219.223.215,Mozilla/5.0 (Macintosh; Intel Mac OS X 10.16; rv:83.0) Gecko/20100101 Firefox/83.0,Macintosh,Firefox,83,OS X,10.16
43,1,4444,"""",html-slider-response,37,172039,0.0-37.0,"""","<img src='jspsych/CFDfaces/CFD-WM-015-002-N.jpg'height=""250px""></br><b>Marcus</b>","""",2,ConfidenceQuery,Practice,"""","""","""","""",CFD-AM-212-050-N.jpg,Sean,1,"""",0,89,"""",4/20/2021 0:37,71.219.223.215,Mozilla/5.0 (Macintosh; Intel Mac OS X 10.16; rv:83.0) Gecko/20100101 Firefox/83.0,Macintosh,Firefox,83,OS X,10.16
43,1,1294,"""",html-button-response,38,173337,0.0-38.0,"""",You are Correct. You Called A Rearranged Pair Rearranged,0,2,feedback,Practice,"""","""","""","""","""","""","""","""","""","""","""",4/20/2021 0:37,71.219.223.215,Mozilla/5.0 (Macintosh; Intel Mac OS X 10.16; rv:83.0) Gecko/20100101 Firefox/83.0,Macintosh,Firefox,83,OS X,10.16
43,1,null,"""",html-keyboard-response,39,174342,0.0-39.0,"""","<div style=""font-size:60px;"">+</div>","""",3,ITI,Practice,null,1000,"""","""","""","""","""","""","""","""","""",4/20/2021 0:37,71.219.223.215,Mozilla/5.0 (Macintosh; Intel Mac OS X 10.16; rv:83.0) Gecko/20100101 Firefox/83.0,Macintosh,Firefox,83,OS X,10.16
43,1,null,"""",image-keyboard-response,40,174598,0.0-40.0,"""",jspsych/scrambledNeutralFaces/scrambledBM16NES.JPG,"""",3,forwardMask,Practice,null,250,"""",n,"""","""","""","""","""","""","""",4/20/2021 0:37,71.219.223.215,Mozilla/5.0 (Macintosh; Intel Mac OS X 10.16; rv:83.0) Gecko/20100101 Firefox/83.0,Macintosh,Firefox,83,OS X,10.16
43,1,null,"""",image-keyboard-response,41,174621,0.0-41.0,"""",jspsych/neutralFaces/BM16NES.JPG,"""",3,Cue,Practice,null,16,"""","""","""","""","""","""","""","""","""",4/20/2021 0:37,71.219.223.215,Mozilla/5.0 (Macintosh; Intel Mac OS X 10.16; rv:83.0) Gecko/20100101 Firefox/83.0,Macintosh,Firefox,83,OS X,10.16
43,1,null,"""",image-keyboard-response,42,174730,0.0-42.0,"""",jspsych/neutralFaces/AM14NES.JPG,"""",3,backwardMask,Practice,null,100,"""","""","""","""","""","""","""","""","""",4/20/2021 0:37,71.219.223.215,Mozilla/5.0 (Macintosh; Intel Mac OS X 10.16; rv:83.0) Gecko/20100101 Firefox/83.0,Macintosh,Firefox,83,OS X,10.16
43,1,null,"""",html-keyboard-response,43,175733,0.0-43.0,"""","<div style=""font-size:60px;"">+</div>","""",3,fixationBtwnNeutralMaskAndPrompt,Practice,null,1000,"""","""","""","""","""","""","""","""","""",4/20/2021 0:37,71.219.223.215,Mozilla/5.0 (Macintosh; Intel Mac OS X 10.16; rv:83.0) Gecko/20100101 Firefox/83.0,Macintosh,Firefox,83,OS X,10.16
43,1,2332,"""",html-button-response,44,178067,0.0-44.0,"""","<img src='jspsych/CFDfaces/CFD-AF-235-170-N.jpg'height=""250px""></br><b>Tara</b>",1,3,IntactOrRearranged,Practice,"""","""","""","""",CFD-AF-235-170-N.jpg,Tara,0,1,"""","""","""",4/20/2021 0:37,71.219.223.215,Mozilla/5.0 (Macintosh; Intel Mac OS X 10.16; rv:83.0) Gecko/20100101 Firefox/83.0,Macintosh,Firefox,83,OS X,10.16
43,1,2160,"""",html-slider-response,45,180232,0.0-45.0,"""","<img src='jspsych/CFDfaces/CFD-AF-235-170-N.jpg'height=""250px""></br><b>Tara</b>","""",3,ConfidenceQuery,Practice,"""","""","""","""",CFD-AM-212-050-N.jpg,Sean,0,"""",0,42,"""",4/20/2021 0:37,71.219.223.215,Mozilla/5.0 (Macintosh; Intel Mac OS X 10.16; rv:83.0) Gecko/20100101 Firefox/83.0,Macintosh,Firefox,83,OS X,10.16
43,1,1238,"""",html-button-response,46,181473,0.0-46.0,"""",You are Incorrect. You Called an Intact Pair Rearranged,0,3,feedback,Practice,"""","""","""","""","""","""","""","""","""","""","""",4/20/2021 0:37,71.219.223.215,Mozilla/5.0 (Macintosh; Intel Mac OS X 10.16; rv:83.0) Gecko/20100101 Firefox/83.0,Macintosh,Firefox,83,OS X,10.16
43,1,null,"""",html-keyboard-response,47,182478,0.0-47.0,"""","<div style=""font-size:60px;"">+</div>","""",4,ITI,Practice,null,1000,"""","""","""","""","""","""","""","""","""",4/20/2021 0:37,71.219.223.215,Mozilla/5.0 (Macintosh; Intel Mac OS X 10.16; rv:83.0) Gecko/20100101 Firefox/83.0,Macintosh,Firefox,83,OS X,10.16
43,1,null,"""",image-keyboard-response,48,182736,0.0-48.0,"""",jspsych/scrambledDisgustFaces/scrambledAM17DIS.JPG,"""",4,forwardMask,Practice,null,250,"""",d,"""","""","""","""","""","""","""",4/20/2021 0:37,71.219.223.215,Mozilla/5.0 (Macintosh; Intel Mac OS X 10.16; rv:83.0) Gecko/20100101 Firefox/83.0,Macintosh,Firefox,83,OS X,10.16
43,1,null,"""",image-keyboard-response,49,182762,0.0-49.0,"""",jspsych/disgustFaces/AM17DIS.JPG,"""",4,Cue,Practice,null,16,"""","""","""","""","""","""","""","""","""",4/20/2021 0:37,71.219.223.215,Mozilla/5.0 (Macintosh; Intel Mac OS X 10.16; rv:83.0) Gecko/20100101 Firefox/83.0,Macintosh,Firefox,83,OS X,10.16
43,1,null,"""",image-keyboard-response,50,182868,0.0-50.0,"""",jspsych/neutralFaces/AM17NES.JPG,"""",4,backwardMask,Practice,null,100,"""","""","""","""","""","""","""","""","""",4/20/2021 0:37,71.219.223.215,Mozilla/5.0 (Macintosh; Intel Mac OS X 10.16; rv:83.0) Gecko/20100101 Firefox/83.0,Macintosh,Firefox,83,OS X,10.16
43,1,null,"""",html-keyboard-response,51,183872,0.0-51.0,"""","<div style=""font-size:60px;"">+</div>","""",4,fixationBtwnNeutralMaskAndPrompt,Practice,null,1000,"""","""","""","""","""","""","""","""","""",4/20/2021 0:37,71.219.223.215,Mozilla/5.0 (Macintosh; Intel Mac OS X 10.16; rv:83.0) Gecko/20100101 Firefox/83.0,Macintosh,Firefox,83,OS X,10.16
43,1,2303,"""",html-button-response,52,186181,0.0-52.0,"""","<img src='jspsych/CFDfaces/CFD-BF-008-001-N.jpg'height=""250px""></br><b>Cassandra</b>",1,4,IntactOrRearranged,Practice,"""","""","""","""",CFD-BF-008-001-N.jpg,Cassandra,1,1,"""","""","""",4/20/2021 0:37,71.219.223.215,Mozilla/5.0 (Macintosh; Intel Mac OS X 10.16; rv:83.0) Gecko/20100101 Firefox/83.0,Macintosh,Firefox,83,OS X,10.16
43,1,4268,"""",html-slider-response,53,190452,0.0-53.0,"""","<img src='jspsych/CFDfaces/CFD-BF-008-001-N.jpg'height=""250px""></br><b>Cassandra</b>","""",4,ConfidenceQuery,Practice,"""","""","""","""",CFD-AM-212-050-N.jpg,Sean,1,"""",0,59,"""",4/20/2021 0:37,71.219.223.215,Mozilla/5.0 (Macintosh; Intel Mac OS X 10.16; rv:83.0) Gecko/20100101 Firefox/83.0,Macintosh,Firefox,83,OS X,10.16
43,1,1832,"""",html-button-response,54,192291,0.0-54.0,"""",You are Correct. You Called A Rearranged Pair Rearranged,0,4,feedback,Practice,"""","""","""","""","""","""","""","""","""","""","""",4/20/2021 0:37,71.219.223.215,Mozilla/5.0 (Macintosh; Intel Mac OS X 10.16; rv:83.0) Gecko/20100101 Firefox/83.0,Macintosh,Firefox,83,OS X,10.16
43,1,null,"""",html-keyboard-response,55,193297,0.0-55.0,"""","<div style=""font-size:60px;"">+</div>","""",5,ITI,Practice,null,1000,"""","""","""","""","""","""","""","""","""",4/20/2021 0:37,71.219.223.215,Mozilla/5.0 (Macintosh; Intel Mac OS X 10.16; rv:83.0) Gecko/20100101 Firefox/83.0,Macintosh,Firefox,83,OS X,10.16
43,1,null,"""",image-keyboard-response,56,193554,0.0-56.0,"""",jspsych/scrambledDisgustFaces/scrambledBM28DIS.JPG,"""",5,forwardMask,Practice,null,250,"""",d,"""","""","""","""","""","""","""",4/20/2021 0:37,71.219.223.215,Mozilla/5.0 (Macintosh; Intel Mac OS X 10.16; rv:83.0) Gecko/20100101 Firefox/83.0,Macintosh,Firefox,83,OS X,10.16
43,1,null,"""",image-keyboard-response,57,193579,0.0-57.0,"""",jspsych/disgustFaces/BM29DIS.JPG,"""",5,Cue,Practice,null,16,"""","""","""","""","""","""","""","""","""",4/20/2021 0:37,71.219.223.215,Mozilla/5.0 (Macintosh; Intel Mac OS X 10.16; rv:83.0) Gecko/20100101 Firefox/83.0,Macintosh,Firefox,83,OS X,10.16
43,1,null,"""",image-keyboard-response,58,193682,0.0-58.0,"""",jspsych/neutralFaces/BM16NES.JPG,"""",5,backwardMask,Practice,null,100,"""","""","""","""","""","""","""","""","""",4/20/2021 0:37,71.219.223.215,Mozilla/5.0 (Macintosh; Intel Mac OS X 10.16; rv:83.0) Gecko/20100101 Firefox/83.0,Macintosh,Firefox,83,OS X,10.16
43,1,null,"""",html-keyboard-response,59,194684,0.0-59.0,"""","<div style=""font-size:60px;"">+</div>","""",5,fixationBtwnNeutralMaskAndPrompt,Practice,null,1000,"""","""","""","""","""","""","""","""","""",4/20/2021 0:37,71.219.223.215,Mozilla/5.0 (Macintosh; Intel Mac OS X 10.16; rv:83.0) Gecko/20100101 Firefox/83.0,Macintosh,Firefox,83,OS X,10.16
43,1,1537,"""",html-button-response,60,196223,0.0-60.0,"""","<img src='jspsych/CFDfaces/CFD-AM-213-056-N.jpg'height=""250px""></br><b>Carlos</b>",0,5,IntactOrRearranged,Practice,"""","""","""","""",CFD-AM-213-056-N.jpg,Carlos,1,0,"""","""","""",4/20/2021 0:37,71.219.223.215,Mozilla/5.0 (Macintosh; Intel Mac OS X 10.16; rv:83.0) Gecko/20100101 Firefox/83.0,Macintosh,Firefox,83,OS X,10.16
43,1,3019,"""",html-slider-response,61,199246,0.0-61.0,"""","<img src='jspsych/CFDfaces/CFD-AM-213-056-N.jpg'height=""250px""></br><b>Carlos</b>","""",5,ConfidenceQuery,Practice,"""","""","""","""",CFD-AM-212-050-N.jpg,Sean,1,"""",0,90,"""",4/20/2021 0:37,71.219.223.215,Mozilla/5.0 (Macintosh; Intel Mac OS X 10.16; rv:83.0) Gecko/20100101 Firefox/83.0,Macintosh,Firefox,83,OS X,10.16
43,1,1445,"""",html-button-response,62,200693,0.0-62.0,"""",You are Incorrect. You called a Rearranged Pair Intact,0,5,feedback,Practice,"""","""","""","""","""","""","""","""","""","""","""",4/20/2021 0:37,71.219.223.215,Mozilla/5.0 (Macintosh; Intel Mac OS X 10.16; rv:83.0) Gecko/20100101 Firefox/83.0,Macintosh,Firefox,83,OS X,10.16
43,1,null,"""",html-keyboard-response,63,201700,0.0-63.0,"""","<div style=""font-size:60px;"">+</div>","""",6,ITI,Practice,null,1000,"""","""","""","""","""","""","""","""","""",4/20/2021 0:37,71.219.223.215,Mozilla/5.0 (Macintosh; Intel Mac OS X 10.16; rv:83.0) Gecko/20100101 Firefox/83.0,Macintosh,Firefox,83,OS X,10.16
43,1,null,"""",image-keyboard-response,64,201960,0.0-64.0,"""",jspsych/scrambledDisgustFaces/scrambledAF20DIS.JPG,"""",6,forwardMask,Practice,null,250,"""",d,"""","""","""","""","""","""","""",4/20/2021 0:37,71.219.223.215,Mozilla/5.0 (Macintosh; Intel Mac OS X 10.16; rv:83.0) Gecko/20100101 Firefox/83.0,Macintosh,Firefox,83,OS X,10.16
43,1,null,"""",image-keyboard-response,65,201985,0.0-65.0,"""",jspsych/disgustFaces/AF20DIS.JPG,"""",6,Cue,Practice,null,16,"""","""","""","""","""","""","""","""","""",4/20/2021 0:37,71.219.223.215,Mozilla/5.0 (Macintosh; Intel Mac OS X 10.16; rv:83.0) Gecko/20100101 Firefox/83.0,Macintosh,Firefox,83,OS X,10.16
43,1,null,"""",image-keyboard-response,66,202091,0.0-66.0,"""",jspsych/neutralFaces/AF30NES.JPG,"""",6,backwardMask,Practice,null,100,"""","""","""","""","""","""","""","""","""",4/20/2021 0:37,71.219.223.215,Mozilla/5.0 (Macintosh; Intel Mac OS X 10.16; rv:83.0) Gecko/20100101 Firefox/83.0,Macintosh,Firefox,83,OS X,10.16
43,1,null,"""",html-keyboard-response,67,203097,0.0-67.0,"""","<div style=""font-size:60px;"">+</div>","""",6,fixationBtwnNeutralMaskAndPrompt,Practice,null,1000,"""","""","""","""","""","""","""","""","""",4/20/2021 0:37,71.219.223.215,Mozilla/5.0 (Macintosh; Intel Mac OS X 10.16; rv:83.0) Gecko/20100101 Firefox/83.0,Macintosh,Firefox,83,OS X,10.16
43,1,2394,"""",html-button-response,68,205498,0.0-68.0,"""","<img src='jspsych/CFDfaces/CFD-AF-222-134-N.jpg'height=""250px""></br><b>Katelyn</b>",0,6,IntactOrRearranged,Practice,"""","""","""","""",CFD-AF-222-134-N.jpg,Katelyn,1,0,"""","""","""",4/20/2021 0:37,71.219.223.215,Mozilla/5.0 (Macintosh; Intel Mac OS X 10.16; rv:83.0) Gecko/20100101 Firefox/83.0,Macintosh,Firefox,83,OS X,10.16
43,1,2171,"""",html-slider-response,69,207674,0.0-69.0,"""","<img src='jspsych/CFDfaces/CFD-AF-222-134-N.jpg'height=""250px""></br><b>Katelyn</b>","""",6,ConfidenceQuery,Practice,"""","""","""","""",CFD-AM-212-050-N.jpg,Sean,1,"""",0,50,"""",4/20/2021 0:37,71.219.223.215,Mozilla/5.0 (Macintosh; Intel Mac OS X 10.16; rv:83.0) Gecko/20100101 Firefox/83.0,Macintosh,Firefox,83,OS X,10.16
43,1,1305,"""",html-button-response,70,208980,0.0-70.0,"""",You are Incorrect. You called a Rearranged Pair Intact,0,6,feedback,Practice,"""","""","""","""","""","""","""","""","""","""","""",4/20/2021 0:37,71.219.223.215,Mozilla/5.0 (Macintosh; Intel Mac OS X 10.16; rv:83.0) Gecko/20100101 Firefox/83.0,Macintosh,Firefox,83,OS X,10.16
43,1,null,"""",html-keyboard-response,71,209986,0.0-71.0,"""","<div style=""font-size:60px;"">+</div>","""",7,ITI,Practice,null,1000,"""","""","""","""","""","""","""","""","""",4/20/2021 0:37,71.219.223.215,Mozilla/5.0 (Macintosh; Intel Mac OS X 10.16; rv:83.0) Gecko/20100101 Firefox/83.0,Macintosh,Firefox,83,OS X,10.16
43,1,null,"""",image-keyboard-response,72,210248,0.0-72.0,"""",jspsych/scrambledNeutralFaces/scrambledBF05NES.JPG,"""",7,forwardMask,Practice,null,250,"""",n,"""","""","""","""","""","""","""",4/20/2021 0:37,71.219.223.215,Mozilla/5.0 (Macintosh; Intel Mac OS X 10.16; rv:83.0) Gecko/20100101 Firefox/83.0,Macintosh,Firefox,83,OS X,10.16
43,1,null,"""",image-keyboard-response,73,210274,0.0-73.0,"""",jspsych/neutralFaces/BF05NES.JPG,"""",7,Cue,Practice,null,16,"""","""","""","""","""","""","""","""","""",4/20/2021 0:37,71.219.223.215,Mozilla/5.0 (Macintosh; Intel Mac OS X 10.16; rv:83.0) Gecko/20100101 Firefox/83.0,Macintosh,Firefox,83,OS X,10.16
43,1,null,"""",image-keyboard-response,74,210378,0.0-74.0,"""",jspsych/neutralFaces/AF11NES.JPG,"""",7,backwardMask,Practice,null,100,"""","""","""","""","""","""","""","""","""",4/20/2021 0:37,71.219.223.215,Mozilla/5.0 (Macintosh; Intel Mac OS X 10.16; rv:83.0) Gecko/20100101 Firefox/83.0,Macintosh,Firefox,83,OS X,10.16
43,1,null,"""",html-keyboard-response,75,211385,0.0-75.0,"""","<div style=""font-size:60px;"">+</div>","""",7,fixationBtwnNeutralMaskAndPrompt,Practice,null,1000,"""","""","""","""","""","""","""","""","""",4/20/2021 0:37,71.219.223.215,Mozilla/5.0 (Macintosh; Intel Mac OS X 10.16; rv:83.0) Gecko/20100101 Firefox/83.0,Macintosh,Firefox,83,OS X,10.16
43,1,2094,"""",html-button-response,76,213481,0.0-76.0,"""","<img src='jspsych/CFDfaces/CFD-LM-221-216-N.jpg'height=""250px""></br><b>Patrick</b>",0,7,IntactOrRearranged,Practice,"""","""","""","""",CFD-LM-221-216-N.jpg,Patrick,0,0,"""","""","""",4/20/2021 0:37,71.219.223.215,Mozilla/5.0 (Macintosh; Intel Mac OS X 10.16; rv:83.0) Gecko/20100101 Firefox/83.0,Macintosh,Firefox,83,OS X,10.16
43,1,2621,"""",html-slider-response,77,216105,0.0-77.0,"""","<img src='jspsych/CFDfaces/CFD-LM-221-216-N.jpg'height=""250px""></br><b>Patrick</b>","""",7,ConfidenceQuery,Practice,"""","""","""","""",CFD-AM-212-050-N.jpg,Sean,0,"""",0,43,"""",4/20/2021 0:37,71.219.223.215,Mozilla/5.0 (Macintosh; Intel Mac OS X 10.16; rv:83.0) Gecko/20100101 Firefox/83.0,Macintosh,Firefox,83,OS X,10.16
43,1,1072,"""",html-button-response,78,217182,0.0-78.0,"""",You are Correct. You called an Intact Pair Intact,0,7,feedback,Practice,"""","""","""","""","""","""","""","""","""","""","""",4/20/2021 0:37,71.219.223.215,Mozilla/5.0 (Macintosh; Intel Mac OS X 10.16; rv:83.0) Gecko/20100101 Firefox/83.0,Macintosh,Firefox,83,OS X,10.16
43,1,null,"""",html-keyboard-response,79,218189,0.0-79.0,"""","<div style=""font-size:60px;"">+</div>","""",8,ITI,Practice,null,1000,"""","""","""","""","""","""","""","""","""",4/20/2021 0:37,71.219.223.215,Mozilla/5.0 (Macintosh; Intel Mac OS X 10.16; rv:83.0) Gecko/20100101 Firefox/83.0,Macintosh,Firefox,83,OS X,10.16
43,1,null,"""",image-keyboard-response,80,218447,0.0-80.0,"""",jspsych/scrambledDisgustFaces/scrambledAM30DIS.JPG,"""",8,forwardMask,Practice,null,250,"""",d,"""","""","""","""","""","""","""",4/20/2021 0:37,71.219.223.215,Mozilla/5.0 (Macintosh; Intel Mac OS X 10.16; rv:83.0) Gecko/20100101 Firefox/83.0,Macintosh,Firefox,83,OS X,10.16
43,1,null,"""",image-keyboard-response,81,218471,0.0-81.0,"""",jspsych/disgustFaces/AM30DIS.JPG,"""",8,Cue,Practice,null,16,"""","""","""","""","""","""","""","""","""",4/20/2021 0:37,71.219.223.215,Mozilla/5.0 (Macintosh; Intel Mac OS X 10.16; rv:83.0) Gecko/20100101 Firefox/83.0,Macintosh,Firefox,83,OS X,10.16
43,1,null,"""",image-keyboard-response,82,218581,0.0-82.0,"""",jspsych/neutralFaces/BM06NES.JPG,"""",8,backwardMask,Practice,null,100,"""","""","""","""","""","""","""","""","""",4/20/2021 0:37,71.219.223.215,Mozilla/5.0 (Macintosh; Intel Mac OS X 10.16; rv:83.0) Gecko/20100101 Firefox/83.0,Macintosh,Firefox,83,OS X,10.16
43,1,null,"""",html-keyboard-response,83,219585,0.0-83.0,"""","<div style=""font-size:60px;"">+</div>","""",8,fixationBtwnNeutralMaskAndPrompt,Practice,null,1000,"""","""","""","""","""","""","""","""","""",4/20/2021 0:37,71.219.223.215,Mozilla/5.0 (Macintosh; Intel Mac OS X 10.16; rv:83.0) Gecko/20100101 Firefox/83.0,Macintosh,Firefox,83,OS X,10.16
43,1,2004,"""",html-button-response,84,221592,0.0-84.0,"""","<img src='jspsych/CFDfaces/CFD-LM-248-089-N.jpg'height=""250px""></br><b>Samuel</b>",0,8,IntactOrRearranged,Practice,"""","""","""","""",CFD-LM-248-089-N.jpg,Samuel,0,0,"""","""","""",4/20/2021 0:37,71.219.223.215,Mozilla/5.0 (Macintosh; Intel Mac OS X 10.16; rv:83.0) Gecko/20100101 Firefox/83.0,Macintosh,Firefox,83,OS X,10.16
43,1,2492,"""",html-slider-response,85,224088,0.0-85.0,"""","<img src='jspsych/CFDfaces/CFD-LM-248-089-N.jpg'height=""250px""></br><b>Samuel</b>","""",8,ConfidenceQuery,Practice,"""","""","""","""",CFD-AM-212-050-N.jpg,Sean,0,"""",0,71,"""",4/20/2021 0:37,71.219.223.215,Mozilla/5.0 (Macintosh; Intel Mac OS X 10.16; rv:83.0) Gecko/20100101 Firefox/83.0,Macintosh,Firefox,83,OS X,10.16
43,1,1006,"""",html-button-response,86,225099,0.0-86.0,"""",You are Correct. You called an Intact Pair Intact,0,8,feedback,Practice,"""","""","""","""","""","""","""","""","""","""","""",4/20/2021 0:37,71.219.223.215,Mozilla/5.0 (Macintosh; Intel Mac OS X 10.16; rv:83.0) Gecko/20100101 Firefox/83.0,Macintosh,Firefox,83,OS X,10.16
43,1,4163,"""",image-button-response,87,229273,0.0-87.0,"""",directionsMemoryAssociation3.JPG,0,128,DirectionsBeforeActualTEst,Break,"""","""","""","""","""","""","""","""","""","""","""",4/20/2021 0:37,71.219.223.215,Mozilla/5.0 (Macintosh; Intel Mac OS X 10.16; rv:83.0) Gecko/20100101 Firefox/83.0,Macintosh,Firefox,83,OS X,10.16
43,1,5166,"""",image-button-response,88,234446,0.0-88.0,"""",directionsForTest2.JPG,0,1,directionsForTest2,break,"""","""","""","""","""","""","""","""","""","""","""",4/20/2021 0:37,71.219.223.215,Mozilla/5.0 (Macintosh; Intel Mac OS X 10.16; rv:83.0) Gecko/20100101 Firefox/83.0,Macintosh,Firefox,83,OS X,10.16
43,1,11178,"""",html-button-response,89,245630,0.0-89.0,"""","<p>You will be asked to memorize and then recall four sets of face-name pairs. </p> <p> Each set will have 32 pairs. </p> <p>After the fourth set, there will be a brief follow-up experiment (<40 min alltogether)</p>",0,"""","""","""","""","""","""","""","""","""","""","""","""","""","""",4/20/2021 0:37,71.219.223.215,Mozilla/5.0 (Macintosh; Intel Mac OS X 10.16; rv:83.0) Gecko/20100101 Firefox/83.0,Macintosh,Firefox,83,OS X,10.16
43,1,3028,"""",html-keyboard-response,90,250638,0.0-90.0,"""","<img src='jspsych/CFDfaces/CFD-WM-017-002-N.jpg' height=""250px""></br><b>Richard</b>","""",256,IntactFace,Memorization,70,5000,f,"""",CFD-AF-237-223-N.jpg,Lindsey,0,"""","""","""",1,4/20/2021 0:37,71.219.223.215,Mozilla/5.0 (Macintosh; Intel Mac OS X 10.16; rv:83.0) Gecko/20100101 Firefox/83.0,Macintosh,Firefox,83,OS X,10.16
43,1,null,"""",html-keyboard-response,91,251149,0.0-91.0,"""","<div style=""font-size:60px;"">+</div>","""",256,fixation,Memorization,null,500,"""","""","""","""","""","""","""","""",1,4/20/2021 0:37,71.219.223.215,Mozilla/5.0 (Macintosh; Intel Mac OS X 10.16; rv:83.0) Gecko/20100101 Firefox/83.0,Macintosh,Firefox,83,OS X,10.16
43,1,1913,"""",html-keyboard-response,92,256153,0.0-92.0,"""","<img src='jspsych/CFDfaces/CFD-AM-248-104-N.jpg' height=""250px""></br><b>Ian</b>","""",256,IntactFace,Memorization,78,5000,n,"""",CFD-WF-024-003-N.jpg,Sara,0,"""","""","""",1,4/20/2021 0:37,71.219.223.215,Mozilla/5.0 (Macintosh; Intel Mac OS X 10.16; rv:83.0) Gecko/20100101 Firefox/83.0,Macintosh,Firefox,83,OS X,10.16
43,1,null,"""",html-keyboard-response,93,256658,0.0-93.0,"""","<div style=""font-size:60px;"">+</div>","""",256,fixation,Memorization,null,500,"""","""","""","""","""","""","""","""",1,4/20/2021 0:37,71.219.223.215,Mozilla/5.0 (Macintosh; Intel Mac OS X 10.16; rv:83.0) Gecko/20100101 Firefox/83.0,Macintosh,Firefox,83,OS X,10.16
43,1,1662,"""",html-keyboard-response,94,261660,0.0-94.0,"""","<img src='jspsych/CFDfaces/CFD-LM-246-087-N.jpg' height=""250px""></br><b>Brandon</b>","""",256,IntactFace,Memorization,70,5000,f,"""",CFD-WF-217-085-N.jpg,Tiffany,0,"""","""","""",1,4/20/2021 0:37,71.219.223.215,Mozilla/5.0 (Macintosh; Intel Mac OS X 10.16; rv:83.0) Gecko/20100101 Firefox/83.0,Macintosh,Firefox,83,OS X,10.16
43,1,null,"""",html-keyboard-response,95,262171,0.0-95.0,"""","<div style=""font-size:60px;"">+</div>","""",256,fixation,Memorization,null,500,"""","""","""","""","""","""","""","""",1,4/20/2021 0:37,71.219.223.215,Mozilla/5.0 (Macintosh; Intel Mac OS X 10.16; rv:83.0) Gecko/20100101 Firefox/83.0,Macintosh,Firefox,83,OS X,10.16
43,1,2368,"""",html-keyboard-response,96,267175,0.0-96.0,"""","<img src='jspsych/CFDfaces/CFD-WF-038-021-N.jpg' height=""250px""></br><b>Vanessa</b>","""",256,IntactFace,Memorization,78,5000,n,"""",CFD-WF-029-002-N.jpg,Jordan,0,"""","""","""",1,4/20/2021 0:37,71.219.223.215,Mozilla/5.0 (Macintosh; Intel Mac OS X 10.16; rv:83.0) Gecko/20100101 Firefox/83.0,Macintosh,Firefox,83,OS X,10.16
43,1,null,"""",html-keyboard-response,97,267682,0.0-97.0,"""","<div style=""font-size:60px;"">+</div>","""",256,fixation,Memorization,null,500,"""","""","""","""","""","""","""","""",1,4/20/2021 0:37,71.219.223.215,Mozilla/5.0 (Macintosh; Intel Mac OS X 10.16; rv:83.0) Gecko/20100101 Firefox/83.0,Macintosh,Firefox,83,OS X,10.16
43,1,1747,"""",html-keyboard-response,98,272684,0.0-98.0,"""","<img src='jspsych/CFDfaces/CFD-WF-200-099-N.jpg' height=""250px""></br><b>Stephanie</b>","""",256,IntactFace,Memorization,70,5000,f,"""",CFD-AM-246-184-N.jpg,Jeremy,0,"""","""","""",1,4/20/2021 0:37,71.219.223.215,Mozilla/5.0 (Macintosh; Intel Mac OS X 10.16; rv:83.0) Gecko/20100101 Firefox/83.0,Macintosh,Firefox,83,OS X,10.16
43,1,null,"""",html-keyboard-response,99,273190,0.0-99.0,"""","<div style=""font-size:60px;"">+</div>","""",256,fixation,Memorization,null,500,"""","""","""","""","""","""","""","""",1,4/20/2021 0:37,71.219.223.215,Mozilla/5.0 (Macintosh; Intel Mac OS X 10.16; rv:83.0) Gecko/20100101 Firefox/83.0,Macintosh,Firefox,83,OS X,10.16
43,1,1357,"""",html-keyboard-response,100,278194,0.0-100.0,"""","<img src='jspsych/CFDfaces/CFD-WF-017-003-N.jpg' height=""250px""></br><b>Andrea</b>","""",256,IntactFace,Memorization,70,5000,f,"""",CFD-BF-025-002-N.jpg,Amy,0,"""","""","""",1,4/20/2021 0:37,71.219.223.215,Mozilla/5.0 (Macintosh; Intel Mac OS X 10.16; rv:83.0) Gecko/20100101 Firefox/83.0,Macintosh,Firefox,83,OS X,10.16
43,1,null,"""",html-keyboard-response,101,278700,0.0-101.0,"""","<div style=""font-size:60px;"">+</div>","""",256,fixation,Memorization,null,500,"""","""","""","""","""","""","""","""",1,4/20/2021 0:37,71.219.223.215,Mozilla/5.0 (Macintosh; Intel Mac OS X 10.16; rv:83.0) Gecko/20100101 Firefox/83.0,Macintosh,Firefox,83,OS X,10.16
43,1,1140,"""",html-keyboard-response,102,283705,0.0-102.0,"""","<img src='jspsych/CFDfaces/CFD-LF-208-127-N.jpg' height=""250px""></br><b>Ashley</b>","""",256,IntactFace,Memorization,70,5000,f,"""",CFD-LF-204-133-N.jpg,Heather,0,"""","""","""",1,4/20/2021 0:37,71.219.223.215,Mozilla/5.0 (Macintosh; Intel Mac OS X 10.16; rv:83.0) Gecko/20100101 Firefox/83.0,Macintosh,Firefox,83,OS X,10.16
43,1,null,"""",html-keyboard-response,103,284211,0.0-103.0,"""","<div style=""font-size:60px;"">+</div>","""",256,fixation,Memorization,null,500,"""","""","""","""","""","""","""","""",1,4/20/2021 0:37,71.219.223.215,Mozilla/5.0 (Macintosh; Intel Mac OS X 10.16; rv:83.0) Gecko/20100101 Firefox/83.0,Macintosh,Firefox,83,OS X,10.16
43,1,1999,"""",html-keyboard-response,104,289219,0.0-104.0,"""","<img src='jspsych/CFDfaces/CFD-BM-032-024-N.jpg' height=""250px""></br><b>Robert</b>","""",256,IntactFace,Memorization,78,5000,n,"""",CFD-LM-209-111-N.jpg,Mark,0,"""","""","""",1,4/20/2021 0:37,71.219.223.215,Mozilla/5.0 (Macintosh; Intel Mac OS X 10.16; rv:83.0) Gecko/20100101 Firefox/83.0,Macintosh,Firefox,83,OS X,10.16
43,1,null,"""",html-keyboard-response,105,289723,0.0-105.0,"""","<div style=""font-size:60px;"">+</div>","""",256,fixation,Memorization,null,500,"""","""","""","""","""","""","""","""",1,4/20/2021 0:37,71.219.223.215,Mozilla/5.0 (Macintosh; Intel Mac OS X 10.16; rv:83.0) Gecko/20100101 Firefox/83.0,Macintosh,Firefox,83,OS X,10.16
43,1,1914,"""",html-keyboard-response,106,294734,0.0-106.0,"""","<img src='jspsych/CFDfaces/CFD-AM-237-154-N.jpg' height=""250px""></br><b>Nicholas</b>","""",256,IntactFace,Memorization,70,5000,f,"""",CFD-BF-212-315-N.jpg,Lauren,0,"""","""","""",1,4/20/2021 0:37,71.219.223.215,Mozilla/5.0 (Macintosh; Intel Mac OS X 10.16; rv:83.0) Gecko/20100101 Firefox/83.0,Macintosh,Firefox,83,OS X,10.16
43,1,null,"""",html-keyboard-response,107,295238,0.0-107.0,"""","<div style=""font-size:60px;"">+</div>","""",256,fixation,Memorization,null,500,"""","""","""","""","""","""","""","""",1,4/20/2021 0:37,71.219.223.215,Mozilla/5.0 (Macintosh; Intel Mac OS X 10.16; rv:83.0) Gecko/20100101 Firefox/83.0,Macintosh,Firefox,83,OS X,10.16
43,1,1668,"""",html-keyboard-response,108,300242,0.0-108.0,"""","<img src='jspsych/CFDfaces/CFD-BM-041-035-N.jpg' height=""250px""></br><b>Jeffrey</b>","""",256,IntactFace,Memorization,70,5000,f,"""",CFD-BM-002-013-N.jpg,Vincent,0,"""","""","""",1,4/20/2021 0:37,71.219.223.215,Mozilla/5.0 (Macintosh; Intel Mac OS X 10.16; rv:83.0) Gecko/20100101 Firefox/83.0,Macintosh,Firefox,83,OS X,10.16
43,1,null,"""",html-keyboard-response,109,300751,0.0-109.0,"""","<div style=""font-size:60px;"">+</div>","""",256,fixation,Memorization,null,500,"""","""","""","""","""","""","""","""",1,4/20/2021 0:37,71.219.223.215,Mozilla/5.0 (Macintosh; Intel Mac OS X 10.16; rv:83.0) Gecko/20100101 Firefox/83.0,Macintosh,Firefox,83,OS X,10.16
43,1,1369,"""",html-keyboard-response,110,305757,0.0-110.0,"""","<img src='jspsych/CFDfaces/CFD-BM-207-024-N.jpg' height=""250px""></br><b>Eric</b>","""",256,IntactFace,Memorization,70,5000,f,"""",CFD-LF-206-078-N.jpg,Angela,0,"""","""","""",1,4/20/2021 0:37,71.219.223.215,Mozilla/5.0 (Macintosh; Intel Mac OS X 10.16; rv:83.0) Gecko/20100101 Firefox/83.0,Macintosh,Firefox,83,OS X,10.16
43,1,null,"""",html-keyboard-response,111,306259,0.0-111.0,"""","<div style=""font-size:60px;"">+</div>","""",256,fixation,Memorization,null,500,"""","""","""","""","""","""","""","""",1,4/20/2021 0:37,71.219.223.215,Mozilla/5.0 (Macintosh; Intel Mac OS X 10.16; rv:83.0) Gecko/20100101 Firefox/83.0,Macintosh,Firefox,83,OS X,10.16
43,1,1557,"""",html-keyboard-response,112,311263,0.0-112.0,"""","<img src='jspsych/CFDfaces/CFD-BM-022-022-N.jpg' height=""250px""></br><b>Brian</b>","""",256,IntactFace,Memorization,70,5000,f,"""",CFD-LM-200-045-N.jpg,Ryan,0,"""","""","""",1,4/20/2021 0:37,71.219.223.215,Mozilla/5.0 (Macintosh; Intel Mac OS X 10.16; rv:83.0) Gecko/20100101 Firefox/83.0,Macintosh,Firefox,83,OS X,10.16
43,1,null,"""",html-keyboard-response,113,311771,0.0-113.0,"""","<div style=""font-size:60px;"">+</div>","""",256,fixation,Memorization,null,500,"""","""","""","""","""","""","""","""",1,4/20/2021 0:37,71.219.223.215,Mozilla/5.0 (Macintosh; Intel Mac OS X 10.16; rv:83.0) Gecko/20100101 Firefox/83.0,Macintosh,Firefox,83,OS X,10.16
43,1,1631,"""",html-keyboard-response,114,316775,0.0-114.0,"""","<img src='jspsych/CFDfaces/CFD-AF-215-70-N.jpg' height=""250px""></br><b>Kayla</b>","""",256,IntactFace,Memorization,70,5000,f,"""",CFD-BF-226-119-N.jpg,Erin,0,"""","""","""",1,4/20/2021 0:37,71.219.223.215,Mozilla/5.0 (Macintosh; Intel Mac OS X 10.16; rv:83.0) Gecko/20100101 Firefox/83.0,Macintosh,Firefox,83,OS X,10.16
43,1,null,"""",html-keyboard-response,115,317281,0.0-115.0,"""","<div style=""font-size:60px;"">+</div>","""",256,fixation,Memorization,null,500,"""","""","""","""","""","""","""","""",1,4/20/2021 0:37,71.219.223.215,Mozilla/5.0 (Macintosh; Intel Mac OS X 10.16; rv:83.0) Gecko/20100101 Firefox/83.0,Macintosh,Firefox,83,OS X,10.16
43,1,2306,"""",html-keyboard-response,116,322288,0.0-116.0,"""","<img src='jspsych/CFDfaces/CFD-AF-240-206-N.jpg' height=""250px""></br><b>Kimberly</b>","""",256,IntactFace,Memorization,70,5000,f,"""",CFD-WF-207-014-N.jpg,Rebecca,0,"""","""","""",1,4/20/2021 0:37,71.219.223.215,Mozilla/5.0 (Macintosh; Intel Mac OS X 10.16; rv:83.0) Gecko/20100101 Firefox/83.0,Macintosh,Firefox,83,OS X,10.16
43,1,null,"""",html-keyboard-response,117,322790,0.0-117.0,"""","<div style=""font-size:60px;"">+</div>","""",256,fixation,Memorization,null,500,"""","""","""","""","""","""","""","""",1,4/20/2021 0:37,71.219.223.215,Mozilla/5.0 (Macintosh; Intel Mac OS X 10.16; rv:83.0) Gecko/20100101 Firefox/83.0,Macintosh,Firefox,83,OS X,10.16
43,1,2353,"""",html-keyboard-response,118,327793,0.0-118.0,"""","<img src='jspsych/CFDfaces/CFD-LF-202-065-N.jpg' height=""250px""></br><b>Julie</b>","""",256,IntactFace,Memorization,78,5000,n,"""",CFD-WM-032-001-N.jpg,Jesse,0,"""","""","""",1,4/20/2021 0:37,71.219.223.215,Mozilla/5.0 (Macintosh; Intel Mac OS X 10.16; rv:83.0) Gecko/20100101 Firefox/83.0,Macintosh,Firefox,83,OS X,10.16
43,1,null,"""",html-keyboard-response,119,328304,0.0-119.0,"""","<div style=""font-size:60px;"">+</div>","""",256,fixation,Memorization,null,500,"""","""","""","""","""","""","""","""",1,4/20/2021 0:37,71.219.223.215,Mozilla/5.0 (Macintosh; Intel Mac OS X 10.16; rv:83.0) Gecko/20100101 Firefox/83.0,Macintosh,Firefox,83,OS X,10.16
43,1,1746,"""",html-keyboard-response,120,333309,0.0-120.0,"""","<img src='jspsych/CFDfaces/CFD-WM-034-030-N.jpg' height=""250px""></br><b>Peter</b>","""",256,IntactFace,Memorization,70,5000,f,"""",CFD-AF-241-141-N.jpg,Taylor,0,"""","""","""",1,4/20/2021 0:37,71.219.223.215,Mozilla/5.0 (Macintosh; Intel Mac OS X 10.16; rv:83.0) Gecko/20100101 Firefox/83.0,Macintosh,Firefox,83,OS X,10.16
43,1,null,"""",html-keyboard-response,121,333816,0.0-121.0,"""","<div style=""font-size:60px;"">+</div>","""",256,fixation,Memorization,null,500,"""","""","""","""","""","""","""","""",1,4/20/2021 0:37,71.219.223.215,Mozilla/5.0 (Macintosh; Intel Mac OS X 10.16; rv:83.0) Gecko/20100101 Firefox/83.0,Macintosh,Firefox,83,OS X,10.16
43,1,1403,"""",html-keyboard-response,122,338823,0.0-122.0,"""","<img src='jspsych/CFDfaces/CFD-WF-006-002-N.jpg' height=""250px""></br><b>Meghan</b>","""",256,IntactFace,Memorization,70,5000,f,"""",CFD-LF-205-100-N.jpg,Melissa,0,"""","""","""",1,4/20/2021 0:37,71.219.223.215,Mozilla/5.0 (Macintosh; Intel Mac OS X 10.16; rv:83.0) Gecko/20100101 Firefox/83.0,Macintosh,Firefox,83,OS X,10.16
43,1,null,"""",html-keyboard-response,123,339334,0.0-123.0,"""","<div style=""font-size:60px;"">+</div>","""",256,fixation,Memorization,null,500,"""","""","""","""","""","""","""","""",1,4/20/2021 0:37,71.219.223.215,Mozilla/5.0 (Macintosh; Intel Mac OS X 10.16; rv:83.0) Gecko/20100101 Firefox/83.0,Macintosh,Firefox,83,OS X,10.16
43,1,1486,"""",html-keyboard-response,124,344338,0.0-124.0,"""","<img src='jspsych/CFDfaces/CFD-LM-224-162-N.jpg' height=""250px""></br><b>Christian</b>","""",256,IntactFace,Memorization,70,5000,f,"""",CFD-WM-237-052-N.jpg,Jacob,0,"""","""","""",1,4/20/2021 0:37,71.219.223.215,Mozilla/5.0 (Macintosh; Intel Mac OS X 10.16; rv:83.0) Gecko/20100101 Firefox/83.0,Macintosh,Firefox,83,OS X,10.16
43,1,null,"""",html-keyboard-response,125,344842,0.0-125.0,"""","<div style=""font-size:60px;"">+</div>","""",256,fixation,Memorization,null,500,"""","""","""","""","""","""","""","""",1,4/20/2021 0:37,71.219.223.215,Mozilla/5.0 (Macintosh; Intel Mac OS X 10.16; rv:83.0) Gecko/20100101 Firefox/83.0,Macintosh,Firefox,83,OS X,10.16
43,1,2626,"""",html-keyboard-response,126,349853,0.0-126.0,"""","<img src='jspsych/CFDfaces/CFD-LM-252-076-N.jpg' height=""250px""></br><b>James</b>","""",256,IntactFace,Memorization,78,5000,n,"""",CFD-WF-018-017-N.jpg,Laura,0,"""","""","""",1,4/20/2021 0:37,71.219.223.215,Mozilla/5.0 (Macintosh; Intel Mac OS X 10.16; rv:83.0) Gecko/20100101 Firefox/83.0,Macintosh,Firefox,83,OS X,10.16
43,1,null,"""",html-keyboard-response,127,350359,0.0-127.0,"""","<div style=""font-size:60px;"">+</div>","""",256,fixation,Memorization,null,500,"""","""","""","""","""","""","""","""",1,4/20/2021 0:37,71.219.223.215,Mozilla/5.0 (Macintosh; Intel Mac OS X 10.16; rv:83.0) Gecko/20100101 Firefox/83.0,Macintosh,Firefox,83,OS X,10.16
43,1,1317,"""",html-keyboard-response,128,355366,0.0-128.0,"""","<img src='jspsych/CFDfaces/CFD-AM-234-355-N.jpg' height=""250px""></br><b>Daniel</b>","""",256,IntactFace,Memorization,70,5000,f,"""",CFD-BM-211-174-N.jpg,Luis,0,"""","""","""",1,4/20/2021 0:37,71.219.223.215,Mozilla/5.0 (Macintosh; Intel Mac OS X 10.16; rv:83.0) Gecko/20100101 Firefox/83.0,Macintosh,Firefox,83,OS X,10.16
43,1,null,"""",html-keyboard-response,129,355876,0.0-129.0,"""","<div style=""font-size:60px;"">+</div>","""",256,fixation,Memorization,null,500,"""","""","""","""","""","""","""","""",1,4/20/2021 0:37,71.219.223.215,Mozilla/5.0 (Macintosh; Intel Mac OS X 10.16; rv:83.0) Gecko/20100101 Firefox/83.0,Macintosh,Firefox,83,OS X,10.16
43,1,1615,"""",html-keyboard-response,130,360884,0.0-130.0,"""","<img src='jspsych/CFDfaces/CFD-BF-010-001-N.jpg' height=""250px""></br><b>Victoria</b>","""",256,IntactFace,Memorization,70,5000,f,"""",CFD-BM-203-001-N.jpg,Kenneth,0,"""","""","""",1,4/20/2021 0:37,71.219.223.215,Mozilla/5.0 (Macintosh; Intel Mac OS X 10.16; rv:83.0) Gecko/20100101 Firefox/83.0,Macintosh,Firefox,83,OS X,10.16
43,1,null,"""",html-keyboard-response,131,361388,0.0-131.0,"""","<div style=""font-size:60px;"">+</div>","""",256,fixation,Memorization,null,500,"""","""","""","""","""","""","""","""",1,4/20/2021 0:37,71.219.223.215,Mozilla/5.0 (Macintosh; Intel Mac OS X 10.16; rv:83.0) Gecko/20100101 Firefox/83.0,Macintosh,Firefox,83,OS X,10.16
43,1,1357,"""",html-keyboard-response,132,366390,0.0-132.0,"""","<img src='jspsych/CFDfaces/CFD-BF-221-223-N.jpg' height=""250px""></br><b>Samantha</b>","""",256,IntactFace,Memorization,70,5000,f,"""",CFD-AM-205-153-N.jpg,Austin,0,"""","""","""",1,4/20/2021 0:37,71.219.223.215,Mozilla/5.0 (Macintosh; Intel Mac OS X 10.16; rv:83.0) Gecko/20100101 Firefox/83.0,Macintosh,Firefox,83,OS X,10.16
43,1,null,"""",html-keyboard-response,133,366897,0.0-133.0,"""","<div style=""font-size:60px;"">+</div>","""",256,fixation,Memorization,null,500,"""","""","""","""","""","""","""","""",1,4/20/2021 0:37,71.219.223.215,Mozilla/5.0 (Macintosh; Intel Mac OS X 10.16; rv:83.0) Gecko/20100101 Firefox/83.0,Macintosh,Firefox,83,OS X,10.16
43,1,1674,"""",html-keyboard-response,134,371901,0.0-134.0,"""","<img src='jspsych/CFDfaces/CFD-LF-210-220-N.jpg' height=""250px""></br><b>Amanda</b>","""",256,IntactFace,Memorization,70,5000,f,"""",CFD-WF-215-145-N.jpg,Jenna,0,"""","""","""",1,4/20/2021 0:37,71.219.223.215,Mozilla/5.0 (Macintosh; Intel Mac OS X 10.16; rv:83.0) Gecko/20100101 Firefox/83.0,Macintosh,Firefox,83,OS X,10.16
43,1,null,"""",html-keyboard-response,135,372408,0.0-135.0,"""","<div style=""font-size:60px;"">+</div>","""",256,fixation,Memorization,null,500,"""","""","""","""","""","""","""","""",1,4/20/2021 0:37,71.219.223.215,Mozilla/5.0 (Macintosh; Intel Mac OS X 10.16; rv:83.0) Gecko/20100101 Firefox/83.0,Macintosh,Firefox,83,OS X,10.16
43,1,1502,"""",html-keyboard-response,136,377412,0.0-136.0,"""","<img src='jspsych/CFDfaces/CFD-LF-201-035-N.jpg' height=""250px""></br><b>Brittany</b>","""",256,IntactFace,Memorization,78,5000,n,"""",CFD-WM-215-041-N.jpg,Steven,0,"""","""","""",1,4/20/2021 0:37,71.219.223.215,Mozilla/5.0 (Macintosh; Intel Mac OS X 10.16; rv:83.0) Gecko/20100101 Firefox/83.0,Macintosh,Firefox,83,OS X,10.16
43,1,null,"""",html-keyboard-response,137,377922,0.0-137.0,"""","<div style=""font-size:60px;"">+</div>","""",256,fixation,Memorization,null,500,"""","""","""","""","""","""","""","""",1,4/20/2021 0:37,71.219.223.215,Mozilla/5.0 (Macintosh; Intel Mac OS X 10.16; rv:83.0) Gecko/20100101 Firefox/83.0,Macintosh,Firefox,83,OS X,10.16
43,1,2051,"""",html-keyboard-response,138,382926,0.0-138.0,"""","<img src='jspsych/CFDfaces/CFD-BM-017-021-N.jpg' height=""250px""></br><b>Jason</b>","""",256,IntactFace,Memorization,70,5000,f,"""",CFD-AM-243-212-N.jpg,Timothy,0,"""","""","""",1,4/20/2021 0:37,71.219.223.215,Mozilla/5.0 (Macintosh; Intel Mac OS X 10.16; rv:83.0) Gecko/20100101 Firefox/83.0,Macintosh,Firefox,83,OS X,10.16
43,1,null,"""",html-keyboard-response,139,383430,0.0-139.0,"""","<div style=""font-size:60px;"">+</div>","""",256,fixation,Memorization,null,500,"""","""","""","""","""","""","""","""",1,4/20/2021 0:37,71.219.223.215,Mozilla/5.0 (Macintosh; Intel Mac OS X 10.16; rv:83.0) Gecko/20100101 Firefox/83.0,Macintosh,Firefox,83,OS X,10.16
43,1,1238,"""",html-keyboard-response,140,388434,0.0-140.0,"""","<img src='jspsych/CFDfaces/CFD-LM-219-295-N.jpg' height=""250px""></br><b>Juan</b>","""",256,IntactFace,Memorization,70,5000,f,"""",CFD-LF-215-157-N.jpg,Jasmine,0,"""","""","""",1,4/20/2021 0:37,71.219.223.215,Mozilla/5.0 (Macintosh; Intel Mac OS X 10.16; rv:83.0) Gecko/20100101 Firefox/83.0,Macintosh,Firefox,83,OS X,10.16
43,1,null,"""",html-keyboard-response,141,388944,0.0-141.0,"""","<div style=""font-size:60px;"">+</div>","""",256,fixation,Memorization,null,500,"""","""","""","""","""","""","""","""",1,4/20/2021 0:37,71.219.223.215,Mozilla/5.0 (Macintosh; Intel Mac OS X 10.16; rv:83.0) Gecko/20100101 Firefox/83.0,Macintosh,Firefox,83,OS X,10.16
43,1,2460,"""",html-keyboard-response,142,393951,0.0-142.0,"""","<img src='jspsych/CFDfaces/CFD-BF-201-080-N.jpg' height=""250px""></br><b>Emily</b>","""",256,IntactFace,Memorization,78,5000,n,"""",CFD-WM-212-097-N.jpg,Justin,0,"""","""","""",1,4/20/2021 0:37,71.219.223.215,Mozilla/5.0 (Macintosh; Intel Mac OS X 10.16; rv:83.0) Gecko/20100101 Firefox/83.0,Macintosh,Firefox,83,OS X,10.16
43,1,null,"""",html-keyboard-response,143,394458,0.0-143.0,"""","<div style=""font-size:60px;"">+</div>","""",256,fixation,Memorization,null,500,"""","""","""","""","""","""","""","""",1,4/20/2021 0:37,71.219.223.215,Mozilla/5.0 (Macintosh; Intel Mac OS X 10.16; rv:83.0) Gecko/20100101 Firefox/83.0,Macintosh,Firefox,83,OS X,10.16
43,1,1558,"""",html-keyboard-response,144,399464,0.0-144.0,"""","<img src='jspsych/CFDfaces/CFD-WM-006-002-N.jpg' height=""250px""></br><b>Joshua</b>","""",256,IntactFace,Memorization,78,5000,n,"""",CFD-BF-001-025-N.jpg,Whitney,0,"""","""","""",1,4/20/2021 0:37,71.219.223.215,Mozilla/5.0 (Macintosh; Intel Mac OS X 10.16; rv:83.0) Gecko/20100101 Firefox/83.0,Macintosh,Firefox,83,OS X,10.16
43,1,null,"""",html-keyboard-response,145,399971,0.0-145.0,"""","<div style=""font-size:60px;"">+</div>","""",256,fixation,Memorization,null,500,"""","""","""","""","""","""","""","""",1,4/20/2021 0:37,71.219.223.215,Mozilla/5.0 (Macintosh; Intel Mac OS X 10.16; rv:83.0) Gecko/20100101 Firefox/83.0,Macintosh,Firefox,83,OS X,10.16
43,1,1698,"""",html-keyboard-response,146,404973,0.0-146.0,"""","<img src='jspsych/CFDfaces/CFD-WM-022-001-N.jpg' height=""250px""></br><b>Gregory</b>","""",256,IntactFace,Memorization,70,5000,f,"""",CFD-BM-210-148-N.jpg,Dustin,0,"""","""","""",1,4/20/2021 0:37,71.219.223.215,Mozilla/5.0 (Macintosh; Intel Mac OS X 10.16; rv:83.0) Gecko/20100101 Firefox/83.0,Macintosh,Firefox,83,OS X,10.16
43,1,null,"""",html-keyboard-response,147,405478,0.0-147.0,"""","<div style=""font-size:60px;"">+</div>","""",256,fixation,Memorization,null,500,"""","""","""","""","""","""","""","""",1,4/20/2021 0:37,71.219.223.215,Mozilla/5.0 (Macintosh; Intel Mac OS X 10.16; rv:83.0) Gecko/20100101 Firefox/83.0,Macintosh,Firefox,83,OS X,10.16
43,1,2080,"""",html-keyboard-response,148,410490,0.0-148.0,"""","<img src='jspsych/CFDfaces/CFD-WF-023-003-N.jpg' height=""250px""></br><b>Michelle</b>","""",256,IntactFace,Memorization,70,5000,f,"""",CFD-AM-211-052-N.jpg,Travis,0,"""","""","""",1,4/20/2021 0:37,71.219.223.215,Mozilla/5.0 (Macintosh; Intel Mac OS X 10.16; rv:83.0) Gecko/20100101 Firefox/83.0,Macintosh,Firefox,83,OS X,10.16
43,1,null,"""",html-keyboard-response,149,410993,0.0-149.0,"""","<div style=""font-size:60px;"">+</div>","""",256,fixation,Memorization,null,500,"""","""","""","""","""","""","""","""",1,4/20/2021 0:37,71.219.223.215,Mozilla/5.0 (Macintosh; Intel Mac OS X 10.16; rv:83.0) Gecko/20100101 Firefox/83.0,Macintosh,Firefox,83,OS X,10.16
43,1,1516,"""",html-keyboard-response,150,415997,0.0-150.0,"""","<img src='jspsych/CFDfaces/CFD-AF-239-171-N.jpg' height=""250px""></br><b>Elizabeth</b>","""",256,IntactFace,Memorization,70,5000,f,"""",CFD-AM-212-050-N.jpg,Sean,0,"""","""","""",1,4/20/2021 0:37,71.219.223.215,Mozilla/5.0 (Macintosh; Intel Mac OS X 10.16; rv:83.0) Gecko/20100101 Firefox/83.0,Macintosh,Firefox,83,OS X,10.16
43,1,null,"""",html-keyboard-response,151,416507,0.0-151.0,"""","<div style=""font-size:60px;"">+</div>","""",256,fixation,Memorization,null,500,"""","""","""","""","""","""","""","""",1,4/20/2021 0:37,71.219.223.215,Mozilla/5.0 (Macintosh; Intel Mac OS X 10.16; rv:83.0) Gecko/20100101 Firefox/83.0,Macintosh,Firefox,83,OS X,10.16
43,1,2140,"""",html-keyboard-response,152,421513,0.0-152.0,"""","<img src='jspsych/CFDfaces/CFD-WF-019-005-N.jpg' height=""250px""></br><b>Christina</b>","""",256,IntactFace,Memorization,78,5000,n,"""",CFD-AM-231-136-N.jpg,Cameron,0,"""","""","""",1,4/20/2021 0:37,71.219.223.215,Mozilla/5.0 (Macintosh; Intel Mac OS X 10.16; rv:83.0) Gecko/20100101 Firefox/83.0,Macintosh,Firefox,83,OS X,10.16
43,1,null,"""",html-keyboard-response,153,422019,0.0-153.0,"""","<div style=""font-size:60px;"">+</div>","""",256,fixation,Memorization,null,500,"""","""","""","""","""","""","""","""",1,4/20/2021 0:37,71.219.223.215,Mozilla/5.0 (Macintosh; Intel Mac OS X 10.16; rv:83.0) Gecko/20100101 Firefox/83.0,Macintosh,Firefox,83,OS X,10.16
43,1,1309,"""",html-keyboard-response,154,423331,0.0-154.0,"""",Press Any Key to Begin Memory Test,"""",1,welcomeScreen,Break,78,"""","""","""","""","""","""","""","""","""",1,4/20/2021 0:37,71.219.223.215,Mozilla/5.0 (Macintosh; Intel Mac OS X 10.16; rv:83.0) Gecko/20100101 Firefox/83.0,Macintosh,Firefox,83,OS X,10.16
43,1,null,"""",html-keyboard-response,155,424338,0.0-155.0,"""","<div style=""font-size:60px;"">+</div>","""",256,ITI,Test,null,1000,"""","""","""","""","""","""","""","""",1,4/20/2021 0:37,71.219.223.215,Mozilla/5.0 (Macintosh; Intel Mac OS X 10.16; rv:83.0) Gecko/20100101 Firefox/83.0,Macintosh,Firefox,83,OS X,10.16
43,1,null,"""",image-keyboard-response,156,424598,0.0-156.0,"""",jspsych/scrambledDisgustFaces/scrambledBM32DIS.JPG,"""",256,forwardMask,Test,null,250,"""",d,"""","""","""","""","""","""",1,4/20/2021 0:37,71.219.223.215,Mozilla/5.0 (Macintosh; Intel Mac OS X 10.16; rv:83.0) Gecko/20100101 Firefox/83.0,Macintosh,Firefox,83,OS X,10.16
43,1,null,"""",image-keyboard-response,157,424624,0.0-157.0,"""",jspsych/disgustFaces/BM33DIS.JPG,"""",256,Cue,Test,null,16,"""","""","""","""","""","""","""","""",1,4/20/2021 0:37,71.219.223.215,Mozilla/5.0 (Macintosh; Intel Mac OS X 10.16; rv:83.0) Gecko/20100101 Firefox/83.0,Macintosh,Firefox,83,OS X,10.16
43,1,null,"""",image-keyboard-response,158,424728,0.0-158.0,"""",jspsych/neutralFaces/BM28NES.JPG,"""",256,backwardMask,Test,null,100,"""","""","""","""","""","""","""","""",1,4/20/2021 0:37,71.219.223.215,Mozilla/5.0 (Macintosh; Intel Mac OS X 10.16; rv:83.0) Gecko/20100101 Firefox/83.0,Macintosh,Firefox,83,OS X,10.16
43,1,null,"""",html-keyboard-response,159,425730,0.0-159.0,"""","<div style=""font-size:60px;"">+</div>","""",256,fixationBtwnNeutralMaskAndPrompt,Test,null,1000,"""","""","""","""","""","""","""","""",1,4/20/2021 0:37,71.219.223.215,Mozilla/5.0 (Macintosh; Intel Mac OS X 10.16; rv:83.0) Gecko/20100101 Firefox/83.0,Macintosh,Firefox,83,OS X,10.16
43,1,2661,"""",html-button-response,160,428394,0.0-160.0,"""","<img src='jspsych/CFDfaces/CFD-LF-210-220-N.jpg' height=""250px"">,</br><b>Christina</b>",1,256,IntactOrRearranged,Test,"""","""","""","""",CFD-LM-200-045-N.jpg,Cameron,1,1,"""","""",1,4/20/2021 0:37,71.219.223.215,Mozilla/5.0 (Macintosh; Intel Mac OS X 10.16; rv:83.0) Gecko/20100101 Firefox/83.0,Macintosh,Firefox,83,OS X,10.16
43,1,1987,"""",html-slider-response,161,430386,0.0-161.0,"""","<img src='jspsych/CFDfaces/CFD-LF-210-220-N.jpg' height=""250px"">,</br><b>Christina</b>","""",256,ConfidenceQuery,Test,"""","""","""","""",CFD-LM-200-045-N.jpg,Cameron,1,"""",0,46,1,4/20/2021 0:37,71.219.223.215,Mozilla/5.0 (Macintosh; Intel Mac OS X 10.16; rv:83.0) Gecko/20100101 Firefox/83.0,Macintosh,Firefox,83,OS X,10.16
43,1,null,"""",html-keyboard-response,162,431392,0.0-162.0,"""","<div style=""font-size:60px;"">+</div>","""",256,ITI,Test,null,1000,"""","""","""","""","""","""","""","""",1,4/20/2021 0:37,71.219.223.215,Mozilla/5.0 (Macintosh; Intel Mac OS X 10.16; rv:83.0) Gecko/20100101 Firefox/83.0,Macintosh,Firefox,83,OS X,10.16
43,1,null,"""",image-keyboard-response,163,431649,0.0-163.0,"""",jspsych/scrambledDisgustFaces/scrambledAF29DIS.JPG,"""",256,forwardMask,Test,null,250,"""",d,"""","""","""","""","""","""",1,4/20/2021 0:37,71.219.223.215,Mozilla/5.0 (Macintosh; Intel Mac OS X 10.16; rv:83.0) Gecko/20100101 Firefox/83.0,Macintosh,Firefox,83,OS X,10.16
43,1,null,"""",image-keyboard-response,164,431669,0.0-164.0,"""",jspsych/disgustFaces/AF29DIS.JPG,"""",256,Cue,Test,null,16,"""","""","""","""","""","""","""","""",1,4/20/2021 0:37,71.219.223.215,Mozilla/5.0 (Macintosh; Intel Mac OS X 10.16; rv:83.0) Gecko/20100101 Firefox/83.0,Macintosh,Firefox,83,OS X,10.16
43,1,null,"""",image-keyboard-response,165,431776,0.0-165.0,"""",jspsych/neutralFaces/BF32NES.JPG,"""",256,backwardMask,Test,null,100,"""","""","""","""","""","""","""","""",1,4/20/2021 0:37,71.219.223.215,Mozilla/5.0 (Macintosh; Intel Mac OS X 10.16; rv:83.0) Gecko/20100101 Firefox/83.0,Macintosh,Firefox,83,OS X,10.16
43,1,null,"""",html-keyboard-response,166,432781,0.0-166.0,"""","<div style=""font-size:60px;"">+</div>","""",256,fixationBtwnNeutralMaskAndPrompt,Test,null,1000,"""","""","""","""","""","""","""","""",1,4/20/2021 0:37,71.219.223.215,Mozilla/5.0 (Macintosh; Intel Mac OS X 10.16; rv:83.0) Gecko/20100101 Firefox/83.0,Macintosh,Firefox,83,OS X,10.16
43,1,3680,"""",html-button-response,167,436463,0.0-167.0,"""","<img src='jspsych/CFDfaces/CFD-WF-023-003-N.jpg' height=""250px"">,</br><b>Michelle</b>",0,256,IntactOrRearranged,Test,"""","""","""","""",CFD-LM-209-111-N.jpg,Jesse,0,0,"""","""",1,4/20/2021 0:37,71.219.223.215,Mozilla/5.0 (Macintosh; Intel Mac OS X 10.16; rv:83.0) Gecko/20100101 Firefox/83.0,Macintosh,Firefox,83,OS X,10.16
43,1,2533,"""",html-slider-response,168,439005,0.0-168.0,"""","<img src='jspsych/CFDfaces/CFD-WF-023-003-N.jpg' height=""250px"">,</br><b>Michelle</b>","""",256,ConfidenceQuery,Test,"""","""","""","""",CFD-LM-209-111-N.jpg,Jesse,0,"""",0,59,1,4/20/2021 0:37,71.219.223.215,Mozilla/5.0 (Macintosh; Intel Mac OS X 10.16; rv:83.0) Gecko/20100101 Firefox/83.0,Macintosh,Firefox,83,OS X,10.16
43,1,null,"""",html-keyboard-response,169,440012,0.0-169.0,"""","<div style=""font-size:60px;"">+</div>","""",256,ITI,Test,null,1000,"""","""","""","""","""","""","""","""",1,4/20/2021 0:37,71.219.223.215,Mozilla/5.0 (Macintosh; Intel Mac OS X 10.16; rv:83.0) Gecko/20100101 Firefox/83.0,Macintosh,Firefox,83,OS X,10.16
43,1,null,"""",image-keyboard-response,170,440267,0.0-170.0,"""",jspsych/scrambledNeutralFaces/scrambledBM16NES.JPG,"""",256,forwardMask,Test,null,250,"""",n,"""","""","""","""","""","""",1,4/20/2021 0:37,71.219.223.215,Mozilla/5.0 (Macintosh; Intel Mac OS X 10.16; rv:83.0) Gecko/20100101 Firefox/83.0,Macintosh,Firefox,83,OS X,10.16
43,1,null,"""",image-keyboard-response,171,440291,0.0-171.0,"""",jspsych/neutralFaces/BM16NES.JPG,"""",256,Cue,Test,null,16,"""","""","""","""","""","""","""","""",1,4/20/2021 0:37,71.219.223.215,Mozilla/5.0 (Macintosh; Intel Mac OS X 10.16; rv:83.0) Gecko/20100101 Firefox/83.0,Macintosh,Firefox,83,OS X,10.16
43,1,null,"""",image-keyboard-response,172,440402,0.0-172.0,"""",jspsych/neutralFaces/AM14NES.JPG,"""",256,backwardMask,Test,null,100,"""","""","""","""","""","""","""","""",1,4/20/2021 0:37,71.219.223.215,Mozilla/5.0 (Macintosh; Intel Mac OS X 10.16; rv:83.0) Gecko/20100101 Firefox/83.0,Macintosh,Firefox,83,OS X,10.16
43,1,null,"""",html-keyboard-response,173,441405,0.0-173.0,"""","<div style=""font-size:60px;"">+</div>","""",256,fixationBtwnNeutralMaskAndPrompt,Test,null,1000,"""","""","""","""","""","""","""","""",1,4/20/2021 0:37,71.219.223.215,Mozilla/5.0 (Macintosh; Intel Mac OS X 10.16; rv:83.0) Gecko/20100101 Firefox/83.0,Macintosh,Firefox,83,OS X,10.16
43,1,2236,"""",html-button-response,174,443642,0.0-174.0,"""","<img src='jspsych/CFDfaces/CFD-AM-237-154-N.jpg' height=""250px"">,</br><b>Nicholas</b>",0,256,IntactOrRearranged,Test,"""","""","""","""",CFD-WM-032-001-N.jpg,Kenneth,0,0,"""","""",1,4/20/2021 0:37,71.219.223.215,Mozilla/5.0 (Macintosh; Intel Mac OS X 10.16; rv:83.0) Gecko/20100101 Firefox/83.0,Macintosh,Firefox,83,OS X,10.16
43,1,2025,"""",html-slider-response,175,445676,0.0-175.0,"""","<img src='jspsych/CFDfaces/CFD-AM-237-154-N.jpg' height=""250px"">,</br><b>Nicholas</b>","""",256,ConfidenceQuery,Test,"""","""","""","""",CFD-WM-032-001-N.jpg,Kenneth,0,"""",0,80,1,4/20/2021 0:37,71.219.223.215,Mozilla/5.0 (Macintosh; Intel Mac OS X 10.16; rv:83.0) Gecko/20100101 Firefox/83.0,Macintosh,Firefox,83,OS X,10.16
43,1,null,"""",html-keyboard-response,176,446684,0.0-176.0,"""","<div style=""font-size:60px;"">+</div>","""",256,ITI,Test,null,1000,"""","""","""","""","""","""","""","""",1,4/20/2021 0:37,71.219.223.215,Mozilla/5.0 (Macintosh; Intel Mac OS X 10.16; rv:83.0) Gecko/20100101 Firefox/83.0,Macintosh,Firefox,83,OS X,10.16
43,1,null,"""",image-keyboard-response,177,446941,0.0-177.0,"""",jspsych/scrambledDisgustFaces/scrambledAM17DIS.JPG,"""",256,forwardMask,Test,null,250,"""",d,"""","""","""","""","""","""",1,4/20/2021 0:37,71.219.223.215,Mozilla/5.0 (Macintosh; Intel Mac OS X 10.16; rv:83.0) Gecko/20100101 Firefox/83.0,Macintosh,Firefox,83,OS X,10.16
43,1,null,"""",image-keyboard-response,178,446963,0.0-178.0,"""",jspsych/disgustFaces/AM17DIS.JPG,"""",256,Cue,Test,null,16,"""","""","""","""","""","""","""","""",1,4/20/2021 0:37,71.219.223.215,Mozilla/5.0 (Macintosh; Intel Mac OS X 10.16; rv:83.0) Gecko/20100101 Firefox/83.0,Macintosh,Firefox,83,OS X,10.16
43,1,null,"""",image-keyboard-response,179,447073,0.0-179.0,"""",jspsych/neutralFaces/AM17NES.JPG,"""",256,backwardMask,Test,null,100,"""","""","""","""","""","""","""","""",1,4/20/2021 0:37,71.219.223.215,Mozilla/5.0 (Macintosh; Intel Mac OS X 10.16; rv:83.0) Gecko/20100101 Firefox/83.0,Macintosh,Firefox,83,OS X,10.16
43,1,null,"""",html-keyboard-response,180,448079,0.0-180.0,"""","<div style=""font-size:60px;"">+</div>","""",256,fixationBtwnNeutralMaskAndPrompt,Test,null,1000,"""","""","""","""","""","""","""","""",1,4/20/2021 0:37,71.219.223.215,Mozilla/5.0 (Macintosh; Intel Mac OS X 10.16; rv:83.0) Gecko/20100101 Firefox/83.0,Macintosh,Firefox,83,OS X,10.16
43,1,2466,"""",html-button-response,181,450547,0.0-181.0,"""","<img src='jspsych/CFDfaces/CFD-BM-017-021-N.jpg' height=""250px"">,</br><b>Jason</b>",1,256,IntactOrRearranged,Test,"""","""","""","""",CFD-LF-204-133-N.jpg,Heather,0,1,"""","""",1,4/20/2021 0:37,71.219.223.215,Mozilla/5.0 (Macintosh; Intel Mac OS X 10.16; rv:83.0) Gecko/20100101 Firefox/83.0,Macintosh,Firefox,83,OS X,10.16
43,1,2401,"""",html-slider-response,182,452957,0.0-182.0,"""","<img src='jspsych/CFDfaces/CFD-BM-017-021-N.jpg' height=""250px"">,</br><b>Jason</b>","""",256,ConfidenceQuery,Test,"""","""","""","""",CFD-LF-204-133-N.jpg,Heather,0,"""",0,30,1,4/20/2021 0:37,71.219.223.215,Mozilla/5.0 (Macintosh; Intel Mac OS X 10.16; rv:83.0) Gecko/20100101 Firefox/83.0,Macintosh,Firefox,83,OS X,10.16
43,1,null,"""",html-keyboard-response,183,453963,0.0-183.0,"""","<div style=""font-size:60px;"">+</div>","""",256,ITI,Test,null,1000,"""","""","""","""","""","""","""","""",1,4/20/2021 0:37,71.219.223.215,Mozilla/5.0 (Macintosh; Intel Mac OS X 10.16; rv:83.0) Gecko/20100101 Firefox/83.0,Macintosh,Firefox,83,OS X,10.16
43,1,null,"""",image-keyboard-response,184,454218,0.0-184.0,"""",jspsych/scrambledDisgustFaces/scrambledBM28DIS.JPG,"""",256,forwardMask,Test,null,250,"""",d,"""","""","""","""","""","""",1,4/20/2021 0:37,71.219.223.215,Mozilla/5.0 (Macintosh; Intel Mac OS X 10.16; rv:83.0) Gecko/20100101 Firefox/83.0,Macintosh,Firefox,83,OS X,10.16
43,1,null,"""",image-keyboard-response,185,454243,0.0-185.0,"""",jspsych/disgustFaces/BM29DIS.JPG,"""",256,Cue,Test,null,16,"""","""","""","""","""","""","""","""",1,4/20/2021 0:37,71.219.223.215,Mozilla/5.0 (Macintosh; Intel Mac OS X 10.16; rv:83.0) Gecko/20100101 Firefox/83.0,Macintosh,Firefox,83,OS X,10.16
43,1,null,"""",image-keyboard-response,186,454348,0.0-186.0,"""",jspsych/neutralFaces/BM16NES.JPG,"""",256,backwardMask,Test,null,100,"""","""","""","""","""","""","""","""",1,4/20/2021 0:37,71.219.223.215,Mozilla/5.0 (Macintosh; Intel Mac OS X 10.16; rv:83.0) Gecko/20100101 Firefox/83.0,Macintosh,Firefox,83,OS X,10.16
43,1,null,"""",html-keyboard-response,187,455350,0.0-187.0,"""","<div style=""font-size:60px;"">+</div>","""",256,fixationBtwnNeutralMaskAndPrompt,Test,null,1000,"""","""","""","""","""","""","""","""",1,4/20/2021 0:37,71.219.223.215,Mozilla/5.0 (Macintosh; Intel Mac OS X 10.16; rv:83.0) Gecko/20100101 Firefox/83.0,Macintosh,Firefox,83,OS X,10.16
43,1,2121,"""",html-button-response,188,457474,0.0-188.0,"""","<img src='jspsych/CFDfaces/CFD-BM-041-035-N.jpg' height=""250px"">,</br><b>Richard</b>",1,256,IntactOrRearranged,Test,"""","""","""","""",CFD-WM-237-052-N.jpg,Jacob,1,1,"""","""",1,4/20/2021 0:37,71.219.223.215,Mozilla/5.0 (Macintosh; Intel Mac OS X 10.16; rv:83.0) Gecko/20100101 Firefox/83.0,Macintosh,Firefox,83,OS X,10.16
43,1,2292,"""",html-slider-response,189,459776,0.0-189.0,"""","<img src='jspsych/CFDfaces/CFD-BM-041-035-N.jpg' height=""250px"">,</br><b>Richard</b>","""",256,ConfidenceQuery,Test,"""","""","""","""",CFD-WM-237-052-N.jpg,Jacob,1,"""",0,52,1,4/20/2021 0:37,71.219.223.215,Mozilla/5.0 (Macintosh; Intel Mac OS X 10.16; rv:83.0) Gecko/20100101 Firefox/83.0,Macintosh,Firefox,83,OS X,10.16
43,1,null,"""",html-keyboard-response,190,460779,0.0-190.0,"""","<div style=""font-size:60px;"">+</div>","""",256,ITI,Test,null,1000,"""","""","""","""","""","""","""","""",1,4/20/2021 0:37,71.219.223.215,Mozilla/5.0 (Macintosh; Intel Mac OS X 10.16; rv:83.0) Gecko/20100101 Firefox/83.0,Macintosh,Firefox,83,OS X,10.16
43,1,null,"""",image-keyboard-response,191,461034,0.0-191.0,"""",jspsych/scrambledDisgustFaces/scrambledAF20DIS.JPG,"""",256,forwardMask,Test,null,250,"""",d,"""","""","""","""","""","""",1,4/20/2021 0:37,71.219.223.215,Mozilla/5.0 (Macintosh; Intel Mac OS X 10.16; rv:83.0) Gecko/20100101 Firefox/83.0,Macintosh,Firefox,83,OS X,10.16
43,1,null,"""",image-keyboard-response,192,461057,0.0-192.0,"""",jspsych/disgustFaces/AF20DIS.JPG,"""",256,Cue,Test,null,16,"""","""","""","""","""","""","""","""",1,4/20/2021 0:37,71.219.223.215,Mozilla/5.0 (Macintosh; Intel Mac OS X 10.16; rv:83.0) Gecko/20100101 Firefox/83.0,Macintosh,Firefox,83,OS X,10.16
43,1,null,"""",image-keyboard-response,193,461166,0.0-193.0,"""",jspsych/neutralFaces/AF30NES.JPG,"""",256,backwardMask,Test,null,100,"""","""","""","""","""","""","""","""",1,4/20/2021 0:37,71.219.223.215,Mozilla/5.0 (Macintosh; Intel Mac OS X 10.16; rv:83.0) Gecko/20100101 Firefox/83.0,Macintosh,Firefox,83,OS X,10.16
43,1,null,"""",html-keyboard-response,194,462172,0.0-194.0,"""","<div style=""font-size:60px;"">+</div>","""",256,fixationBtwnNeutralMaskAndPrompt,Test,null,1000,"""","""","""","""","""","""","""","""",1,4/20/2021 0:37,71.219.223.215,Mozilla/5.0 (Macintosh; Intel Mac OS X 10.16; rv:83.0) Gecko/20100101 Firefox/83.0,Macintosh,Firefox,83,OS X,10.16
43,1,2437,"""",html-button-response,195,464611,0.0-195.0,"""","<img src='jspsych/CFDfaces/CFD-LM-224-162-N.jpg' height=""250px"">,</br><b>Joshua</b>",1,256,IntactOrRearranged,Test,"""","""","""","""",CFD-AF-241-141-N.jpg,Taylor,1,1,"""","""",1,4/20/2021 0:37,71.219.223.215,Mozilla/5.0 (Macintosh; Intel Mac OS X 10.16; rv:83.0) Gecko/20100101 Firefox/83.0,Macintosh,Firefox,83,OS X,10.16
43,1,3073,"""",html-slider-response,196,467694,0.0-196.0,"""","<img src='jspsych/CFDfaces/CFD-LM-224-162-N.jpg' height=""250px"">,</br><b>Joshua</b>","""",256,ConfidenceQuery,Test,"""","""","""","""",CFD-AF-241-141-N.jpg,Taylor,1,"""",0,100,1,4/20/2021 0:37,71.219.223.215,Mozilla/5.0 (Macintosh; Intel Mac OS X 10.16; rv:83.0) Gecko/20100101 Firefox/83.0,Macintosh,Firefox,83,OS X,10.16
43,1,null,"""",html-keyboard-response,197,468696,0.0-197.0,"""","<div style=""font-size:60px;"">+</div>","""",256,ITI,Test,null,1000,"""","""","""","""","""","""","""","""",1,4/20/2021 0:37,71.219.223.215,Mozilla/5.0 (Macintosh; Intel Mac OS X 10.16; rv:83.0) Gecko/20100101 Firefox/83.0,Macintosh,Firefox,83,OS X,10.16
43,1,null,"""",image-keyboard-response,198,468951,0.0-198.0,"""",jspsych/scrambledNeutralFaces/scrambledBF05NES.JPG,"""",256,forwardMask,Test,null,250,"""",n,"""","""","""","""","""","""",1,4/20/2021 0:37,71.219.223.215,Mozilla/5.0 (Macintosh; Intel Mac OS X 10.16; rv:83.0) Gecko/20100101 Firefox/83.0,Macintosh,Firefox,83,OS X,10.16
43,1,null,"""",image-keyboard-response,199,468975,0.0-199.0,"""",jspsych/neutralFaces/BF05NES.JPG,"""",256,Cue,Test,null,16,"""","""","""","""","""","""","""","""",1,4/20/2021 0:37,71.219.223.215,Mozilla/5.0 (Macintosh; Intel Mac OS X 10.16; rv:83.0) Gecko/20100101 Firefox/83.0,Macintosh,Firefox,83,OS X,10.16
43,1,null,"""",image-keyboard-response,200,469081,0.0-200.0,"""",jspsych/neutralFaces/AF11NES.JPG,"""",256,backwardMask,Test,null,100,"""","""","""","""","""","""","""","""",1,4/20/2021 0:37,71.219.223.215,Mozilla/5.0 (Macintosh; Intel Mac OS X 10.16; rv:83.0) Gecko/20100101 Firefox/83.0,Macintosh,Firefox,83,OS X,10.16
43,1,null,"""",html-keyboard-response,201,470084,0.0-201.0,"""","<div style=""font-size:60px;"">+</div>","""",256,fixationBtwnNeutralMaskAndPrompt,Test,null,1000,"""","""","""","""","""","""","""","""",1,4/20/2021 0:37,71.219.223.215,Mozilla/5.0 (Macintosh; Intel Mac OS X 10.16; rv:83.0) Gecko/20100101 Firefox/83.0,Macintosh,Firefox,83,OS X,10.16
43,1,2783,"""",html-button-response,202,472868,0.0-202.0,"""","<img src='jspsych/CFDfaces/CFD-AM-248-104-N.jpg' height=""250px"">,</br><b>Ian</b>",0,256,IntactOrRearranged,Test,"""","""","""","""",CFD-WF-018-017-N.jpg,Sara,0,0,"""","""",1,4/20/2021 0:37,71.219.223.215,Mozilla/5.0 (Macintosh; Intel Mac OS X 10.16; rv:83.0) Gecko/20100101 Firefox/83.0,Macintosh,Firefox,83,OS X,10.16
43,1,1882,"""",html-slider-response,203,474759,0.0-203.0,"""","<img src='jspsych/CFDfaces/CFD-AM-248-104-N.jpg' height=""250px"">,</br><b>Ian</b>","""",256,ConfidenceQuery,Test,"""","""","""","""",CFD-WF-018-017-N.jpg,Sara,0,"""",0,22,1,4/20/2021 0:37,71.219.223.215,Mozilla/5.0 (Macintosh; Intel Mac OS X 10.16; rv:83.0) Gecko/20100101 Firefox/83.0,Macintosh,Firefox,83,OS X,10.16
43,1,null,"""",html-keyboard-response,204,475766,0.0-204.0,"""","<div style=""font-size:60px;"">+</div>","""",256,ITI,Test,null,1000,"""","""","""","""","""","""","""","""",1,4/20/2021 0:37,71.219.223.215,Mozilla/5.0 (Macintosh; Intel Mac OS X 10.16; rv:83.0) Gecko/20100101 Firefox/83.0,Macintosh,Firefox,83,OS X,10.16
43,1,null,"""",image-keyboard-response,205,476023,0.0-205.0,"""",jspsych/scrambledDisgustFaces/scrambledAM30DIS.JPG,"""",256,forwardMask,Test,null,250,"""",d,"""","""","""","""","""","""",1,4/20/2021 0:37,71.219.223.215,Mozilla/5.0 (Macintosh; Intel Mac OS X 10.16; rv:83.0) Gecko/20100101 Firefox/83.0,Macintosh,Firefox,83,OS X,10.16
43,1,null,"""",image-keyboard-response,206,476045,0.0-206.0,"""",jspsych/disgustFaces/AM30DIS.JPG,"""",256,Cue,Test,null,16,"""","""","""","""","""","""","""","""",1,4/20/2021 0:37,71.219.223.215,Mozilla/5.0 (Macintosh; Intel Mac OS X 10.16; rv:83.0) Gecko/20100101 Firefox/83.0,Macintosh,Firefox,83,OS X,10.16
43,1,null,"""",image-keyboard-response,207,476150,0.0-207.0,"""",jspsych/neutralFaces/BM06NES.JPG,"""",256,backwardMask,Test,null,100,"""","""","""","""","""","""","""","""",1,4/20/2021 0:37,71.219.223.215,Mozilla/5.0 (Macintosh; Intel Mac OS X 10.16; rv:83.0) Gecko/20100101 Firefox/83.0,Macintosh,Firefox,83,OS X,10.16
43,1,null,"""",html-keyboard-response,208,477153,0.0-208.0,"""","<div style=""font-size:60px;"">+</div>","""",256,fixationBtwnNeutralMaskAndPrompt,Test,null,1000,"""","""","""","""","""","""","""","""",1,4/20/2021 0:37,71.219.223.215,Mozilla/5.0 (Macintosh; Intel Mac OS X 10.16; rv:83.0) Gecko/20100101 Firefox/83.0,Macintosh,Firefox,83,OS X,10.16
43,1,3141,"""",html-button-response,209,480296,0.0-209.0,"""","<img src='jspsych/CFDfaces/CFD-WF-200-099-N.jpg' height=""250px"">,</br><b>Stephanie</b>",0,256,IntactOrRearranged,Test,"""","""","""","""",CFD-AF-237-223-N.jpg,Lindsey,0,0,"""","""",1,4/20/2021 0:37,71.219.223.215,Mozilla/5.0 (Macintosh; Intel Mac OS X 10.16; rv:83.0) Gecko/20100101 Firefox/83.0,Macintosh,Firefox,83,OS X,10.16
43,1,2462,"""",html-slider-response,210,482770,0.0-210.0,"""","<img src='jspsych/CFDfaces/CFD-WF-200-099-N.jpg' height=""250px"">,</br><b>Stephanie</b>","""",256,ConfidenceQuery,Test,"""","""","""","""",CFD-AF-237-223-N.jpg,Lindsey,0,"""",0,65,1,4/20/2021 0:37,71.219.223.215,Mozilla/5.0 (Macintosh; Intel Mac OS X 10.16; rv:83.0) Gecko/20100101 Firefox/83.0,Macintosh,Firefox,83,OS X,10.16
43,1,null,"""",html-keyboard-response,211,483773,0.0-211.0,"""","<div style=""font-size:60px;"">+</div>","""",256,ITI,Test,null,1000,"""","""","""","""","""","""","""","""",1,4/20/2021 0:37,71.219.223.215,Mozilla/5.0 (Macintosh; Intel Mac OS X 10.16; rv:83.0) Gecko/20100101 Firefox/83.0,Macintosh,Firefox,83,OS X,10.16
43,1,null,"""",image-keyboard-response,212,484028,0.0-212.0,"""",jspsych/scrambledNeutralFaces/scrambledBF18NES.JPG,"""",256,forwardMask,Test,null,250,"""",n,"""","""","""","""","""","""",1,4/20/2021 0:37,71.219.223.215,Mozilla/5.0 (Macintosh; Intel Mac OS X 10.16; rv:83.0) Gecko/20100101 Firefox/83.0,Macintosh,Firefox,83,OS X,10.16
43,1,null,"""",image-keyboard-response,213,484050,0.0-213.0,"""",jspsych/neutralFaces/BF18NES.JPG,"""",256,Cue,Test,null,16,"""","""","""","""","""","""","""","""",1,4/20/2021 0:37,71.219.223.215,Mozilla/5.0 (Macintosh; Intel Mac OS X 10.16; rv:83.0) Gecko/20100101 Firefox/83.0,Macintosh,Firefox,83,OS X,10.16
43,1,null,"""",image-keyboard-response,214,484159,0.0-214.0,"""",jspsych/neutralFaces/AF23NES.JPG,"""",256,backwardMask,Test,null,100,"""","""","""","""","""","""","""","""",1,4/20/2021 0:37,71.219.223.215,Mozilla/5.0 (Macintosh; Intel Mac OS X 10.16; rv:83.0) Gecko/20100101 Firefox/83.0,Macintosh,Firefox,83,OS X,10.16
43,1,null,"""",html-keyboard-response,215,485167,0.0-215.0,"""","<div style=""font-size:60px;"">+</div>","""",256,fixationBtwnNeutralMaskAndPrompt,Test,null,1000,"""","""","""","""","""","""","""","""",1,4/20/2021 0:37,71.219.223.215,Mozilla/5.0 (Macintosh; Intel Mac OS X 10.16; rv:83.0) Gecko/20100101 Firefox/83.0,Macintosh,Firefox,83,OS X,10.16
43,1,1824,"""",html-button-response,216,486993,0.0-216.0,"""","<img src='jspsych/CFDfaces/CFD-WM-034-030-N.jpg' height=""250px"">,</br><b>Peter</b>",0,256,IntactOrRearranged,Test,"""","""","""","""",CFD-LF-206-078-N.jpg,Erin,0,0,"""","""",1,4/20/2021 0:37,71.219.223.215,Mozilla/5.0 (Macintosh; Intel Mac OS X 10.16; rv:83.0) Gecko/20100101 Firefox/83.0,Macintosh,Firefox,83,OS X,10.16
43,1,2393,"""",html-slider-response,217,489398,0.0-217.0,"""","<img src='jspsych/CFDfaces/CFD-WM-034-030-N.jpg' height=""250px"">,</br><b>Peter</b>","""",256,ConfidenceQuery,Test,"""","""","""","""",CFD-LF-206-078-N.jpg,Erin,0,"""",0,41,1,4/20/2021 0:37,71.219.223.215,Mozilla/5.0 (Macintosh; Intel Mac OS X 10.16; rv:83.0) Gecko/20100101 Firefox/83.0,Macintosh,Firefox,83,OS X,10.16
43,1,null,"""",html-keyboard-response,218,490401,0.0-218.0,"""","<div style=""font-size:60px;"">+</div>","""",256,ITI,Test,null,1000,"""","""","""","""","""","""","""","""",1,4/20/2021 0:37,71.219.223.215,Mozilla/5.0 (Macintosh; Intel Mac OS X 10.16; rv:83.0) Gecko/20100101 Firefox/83.0,Macintosh,Firefox,83,OS X,10.16
43,1,null,"""",image-keyboard-response,219,490659,0.0-219.0,"""",jspsych/scrambledNeutralFaces/scrambledBF12NES.JPG,"""",256,forwardMask,Test,null,250,"""",n,"""","""","""","""","""","""",1,4/20/2021 0:37,71.219.223.215,Mozilla/5.0 (Macintosh; Intel Mac OS X 10.16; rv:83.0) Gecko/20100101 Firefox/83.0,Macintosh,Firefox,83,OS X,10.16
43,1,null,"""",image-keyboard-response,220,490680,0.0-220.0,"""",jspsych/neutralFaces/BF12NES.JPG,"""",256,Cue,Test,null,16,"""","""","""","""","""","""","""","""",1,4/20/2021 0:37,71.219.223.215,Mozilla/5.0 (Macintosh; Intel Mac OS X 10.16; rv:83.0) Gecko/20100101 Firefox/83.0,Macintosh,Firefox,83,OS X,10.16
43,1,null,"""",image-keyboard-response,221,490790,0.0-221.0,"""",jspsych/neutralFaces/BF21NES.JPG,"""",256,backwardMask,Test,null,100,"""","""","""","""","""","""","""","""",1,4/20/2021 0:37,71.219.223.215,Mozilla/5.0 (Macintosh; Intel Mac OS X 10.16; rv:83.0) Gecko/20100101 Firefox/83.0,Macintosh,Firefox,83,OS X,10.16
43,1,null,"""",html-keyboard-response,222,491793,0.0-222.0,"""","<div style=""font-size:60px;"">+</div>","""",256,fixationBtwnNeutralMaskAndPrompt,Test,null,1000,"""","""","""","""","""","""","""","""",1,4/20/2021 0:37,71.219.223.215,Mozilla/5.0 (Macintosh; Intel Mac OS X 10.16; rv:83.0) Gecko/20100101 Firefox/83.0,Macintosh,Firefox,83,OS X,10.16
43,1,1868,"""",html-button-response,223,493663,0.0-223.0,"""","<img src='jspsych/CFDfaces/CFD-WF-006-002-N.jpg' height=""250px"">,</br><b>Meghan</b>",0,256,IntactOrRearranged,Test,"""","""","""","""",CFD-BM-203-001-N.jpg,Jeremy,0,0,"""","""",1,4/20/2021 0:37,71.219.223.215,Mozilla/5.0 (Macintosh; Intel Mac OS X 10.16; rv:83.0) Gecko/20100101 Firefox/83.0,Macintosh,Firefox,83,OS X,10.16
43,1,2414,"""",html-slider-response,224,496089,0.0-224.0,"""","<img src='jspsych/CFDfaces/CFD-WF-006-002-N.jpg' height=""250px"">,</br><b>Meghan</b>","""",256,ConfidenceQuery,Test,"""","""","""","""",CFD-BM-203-001-N.jpg,Jeremy,0,"""",0,79,1,4/20/2021 0:37,71.219.223.215,Mozilla/5.0 (Macintosh; Intel Mac OS X 10.16; rv:83.0) Gecko/20100101 Firefox/83.0,Macintosh,Firefox,83,OS X,10.16
43,1,null,"""",html-keyboard-response,225,497095,0.0-225.0,"""","<div style=""font-size:60px;"">+</div>","""",256,ITI,Test,null,1000,"""","""","""","""","""","""","""","""",1,4/20/2021 0:37,71.219.223.215,Mozilla/5.0 (Macintosh; Intel Mac OS X 10.16; rv:83.0) Gecko/20100101 Firefox/83.0,Macintosh,Firefox,83,OS X,10.16
43,1,null,"""",image-keyboard-response,226,497350,0.0-226.0,"""",jspsych/scrambledDisgustFaces/scrambledAF23DIS.JPG,"""",256,forwardMask,Test,null,250,"""",d,"""","""","""","""","""","""",1,4/20/2021 0:37,71.219.223.215,Mozilla/5.0 (Macintosh; Intel Mac OS X 10.16; rv:83.0) Gecko/20100101 Firefox/83.0,Macintosh,Firefox,83,OS X,10.16
43,1,null,"""",image-keyboard-response,227,497375,0.0-227.0,"""",jspsych/disgustFaces/AF23DIS.JPG,"""",256,Cue,Test,null,16,"""","""","""","""","""","""","""","""",1,4/20/2021 0:37,71.219.223.215,Mozilla/5.0 (Macintosh; Intel Mac OS X 10.16; rv:83.0) Gecko/20100101 Firefox/83.0,Macintosh,Firefox,83,OS X,10.16
43,1,null,"""",image-keyboard-response,228,497483,0.0-228.0,"""",jspsych/neutralFaces/AF05NES.JPG,"""",256,backwardMask,Test,null,100,"""","""","""","""","""","""","""","""",1,4/20/2021 0:37,71.219.223.215,Mozilla/5.0 (Macintosh; Intel Mac OS X 10.16; rv:83.0) Gecko/20100101 Firefox/83.0,Macintosh,Firefox,83,OS X,10.16
43,1,null,"""",html-keyboard-response,229,498485,0.0-229.0,"""","<div style=""font-size:60px;"">+</div>","""",256,fixationBtwnNeutralMaskAndPrompt,Test,null,1000,"""","""","""","""","""","""","""","""",1,4/20/2021 0:37,71.219.223.215,Mozilla/5.0 (Macintosh; Intel Mac OS X 10.16; rv:83.0) Gecko/20100101 Firefox/83.0,Macintosh,Firefox,83,OS X,10.16
43,1,1495,"""",html-button-response,230,499983,0.0-230.0,"""","<img src='jspsych/CFDfaces/CFD-LF-202-065-N.jpg' height=""250px"">,</br><b>Julie</b>",1,256,IntactOrRearranged,Test,"""","""","""","""",CFD-AM-205-153-N.jpg,Mark,0,1,"""","""",1,4/20/2021 0:37,71.219.223.215,Mozilla/5.0 (Macintosh; Intel Mac OS X 10.16; rv:83.0) Gecko/20100101 Firefox/83.0,Macintosh,Firefox,83,OS X,10.16
43,1,2612,"""",html-slider-response,231,502604,0.0-231.0,"""","<img src='jspsych/CFDfaces/CFD-LF-202-065-N.jpg' height=""250px"">,</br><b>Julie</b>","""",256,ConfidenceQuery,Test,"""","""","""","""",CFD-AM-205-153-N.jpg,Mark,0,"""",0,55,1,4/20/2021 0:37,71.219.223.215,Mozilla/5.0 (Macintosh; Intel Mac OS X 10.16; rv:83.0) Gecko/20100101 Firefox/83.0,Macintosh,Firefox,83,OS X,10.16
43,1,null,"""",html-keyboard-response,232,503607,0.0-232.0,"""","<div style=""font-size:60px;"">+</div>","""",256,ITI,Test,null,1000,"""","""","""","""","""","""","""","""",1,4/20/2021 0:37,71.219.223.215,Mozilla/5.0 (Macintosh; Intel Mac OS X 10.16; rv:83.0) Gecko/20100101 Firefox/83.0,Macintosh,Firefox,83,OS X,10.16
43,1,null,"""",image-keyboard-response,233,503864,0.0-233.0,"""",jspsych/scrambledNeutralFaces/scrambledBM22NES.JPG,"""",256,forwardMask,Test,null,250,"""",n,"""","""","""","""","""","""",1,4/20/2021 0:37,71.219.223.215,Mozilla/5.0 (Macintosh; Intel Mac OS X 10.16; rv:83.0) Gecko/20100101 Firefox/83.0,Macintosh,Firefox,83,OS X,10.16
43,1,null,"""",image-keyboard-response,234,503890,0.0-234.0,"""",jspsych/neutralFaces/BM22NES.JPG,"""",256,Cue,Test,null,16,"""","""","""","""","""","""","""","""",1,4/20/2021 0:37,71.219.223.215,Mozilla/5.0 (Macintosh; Intel Mac OS X 10.16; rv:83.0) Gecko/20100101 Firefox/83.0,Macintosh,Firefox,83,OS X,10.16
43,1,null,"""",image-keyboard-response,235,503998,0.0-235.0,"""",jspsych/neutralFaces/AM07NES.JPG,"""",256,backwardMask,Test,null,100,"""","""","""","""","""","""","""","""",1,4/20/2021 0:37,71.219.223.215,Mozilla/5.0 (Macintosh; Intel Mac OS X 10.16; rv:83.0) Gecko/20100101 Firefox/83.0,Macintosh,Firefox,83,OS X,10.16
43,1,null,"""",html-keyboard-response,236,505002,0.0-236.0,"""","<div style=""font-size:60px;"">+</div>","""",256,fixationBtwnNeutralMaskAndPrompt,Test,null,1000,"""","""","""","""","""","""","""","""",1,4/20/2021 0:37,71.219.223.215,Mozilla/5.0 (Macintosh; Intel Mac OS X 10.16; rv:83.0) Gecko/20100101 Firefox/83.0,Macintosh,Firefox,83,OS X,10.16
43,1,3288,"""",html-button-response,237,508293,0.0-237.0,"""","<img src='jspsych/CFDfaces/CFD-BF-201-080-N.jpg' height=""250px"">,</br><b>Andrea</b>",1,256,IntactOrRearranged,Test,"""","""","""","""",CFD-BM-002-013-N.jpg,Vincent,1,1,"""","""",1,4/20/2021 0:37,71.219.223.215,Mozilla/5.0 (Macintosh; Intel Mac OS X 10.16; rv:83.0) Gecko/20100101 Firefox/83.0,Macintosh,Firefox,83,OS X,10.16
43,1,1971,"""",html-slider-response,238,510275,0.0-238.0,"""","<img src='jspsych/CFDfaces/CFD-BF-201-080-N.jpg' height=""250px"">,</br><b>Andrea</b>","""",256,ConfidenceQuery,Test,"""","""","""","""",CFD-BM-002-013-N.jpg,Vincent,1,"""",0,49,1,4/20/2021 0:37,71.219.223.215,Mozilla/5.0 (Macintosh; Intel Mac OS X 10.16; rv:83.0) Gecko/20100101 Firefox/83.0,Macintosh,Firefox,83,OS X,10.16
43,1,null,"""",html-keyboard-response,239,511276,0.0-239.0,"""","<div style=""font-size:60px;"">+</div>","""",256,ITI,Test,null,1000,"""","""","""","""","""","""","""","""",1,4/20/2021 0:37,71.219.223.215,Mozilla/5.0 (Macintosh; Intel Mac OS X 10.16; rv:83.0) Gecko/20100101 Firefox/83.0,Macintosh,Firefox,83,OS X,10.16
43,1,null,"""",image-keyboard-response,240,511535,0.0-240.0,"""",jspsych/scrambledDisgustFaces/scrambledAF30DIS.JPG,"""",256,forwardMask,Test,null,250,"""",d,"""","""","""","""","""","""",1,4/20/2021 0:37,71.219.223.215,Mozilla/5.0 (Macintosh; Intel Mac OS X 10.16; rv:83.0) Gecko/20100101 Firefox/83.0,Macintosh,Firefox,83,OS X,10.16
43,1,null,"""",image-keyboard-response,241,511560,0.0-241.0,"""",jspsych/disgustFaces/AF30DIS.JPG,"""",256,Cue,Test,null,16,"""","""","""","""","""","""","""","""",1,4/20/2021 0:37,71.219.223.215,Mozilla/5.0 (Macintosh; Intel Mac OS X 10.16; rv:83.0) Gecko/20100101 Firefox/83.0,Macintosh,Firefox,83,OS X,10.16
43,1,null,"""",image-keyboard-response,242,511672,0.0-242.0,"""",jspsych/neutralFaces/AF02NES.JPG,"""",256,backwardMask,Test,null,100,"""","""","""","""","""","""","""","""",1,4/20/2021 0:37,71.219.223.215,Mozilla/5.0 (Macintosh; Intel Mac OS X 10.16; rv:83.0) Gecko/20100101 Firefox/83.0,Macintosh,Firefox,83,OS X,10.16
43,1,null,"""",html-keyboard-response,243,512676,0.0-243.0,"""","<div style=""font-size:60px;"">+</div>","""",256,fixationBtwnNeutralMaskAndPrompt,Test,null,1000,"""","""","""","""","""","""","""","""",1,4/20/2021 0:37,71.219.223.215,Mozilla/5.0 (Macintosh; Intel Mac OS X 10.16; rv:83.0) Gecko/20100101 Firefox/83.0,Macintosh,Firefox,83,OS X,10.16
43,1,1366,"""",html-button-response,244,514044,0.0-244.0,"""","<img src='jspsych/CFDfaces/CFD-BF-221-223-N.jpg' height=""250px"">,</br><b>Samantha</b>",0,256,IntactOrRearranged,Test,"""","""","""","""",CFD-BF-226-119-N.jpg,Laura,0,0,"""","""",1,4/20/2021 0:37,71.219.223.215,Mozilla/5.0 (Macintosh; Intel Mac OS X 10.16; rv:83.0) Gecko/20100101 Firefox/83.0,Macintosh,Firefox,83,OS X,10.16
43,1,2572,"""",html-slider-response,245,516618,0.0-245.0,"""","<img src='jspsych/CFDfaces/CFD-BF-221-223-N.jpg' height=""250px"">,</br><b>Samantha</b>","""",256,ConfidenceQuery,Test,"""","""","""","""",CFD-BF-226-119-N.jpg,Laura,0,"""",0,66,1,4/20/2021 0:37,71.219.223.215,Mozilla/5.0 (Macintosh; Intel Mac OS X 10.16; rv:83.0) Gecko/20100101 Firefox/83.0,Macintosh,Firefox,83,OS X,10.16
43,1,null,"""",html-keyboard-response,246,517632,0.0-246.0,"""","<div style=""font-size:60px;"">+</div>","""",256,ITI,Test,null,1000,"""","""","""","""","""","""","""","""",1,4/20/2021 0:37,71.219.223.215,Mozilla/5.0 (Macintosh; Intel Mac OS X 10.16; rv:83.0) Gecko/20100101 Firefox/83.0,Macintosh,Firefox,83,OS X,10.16
43,1,null,"""",image-keyboard-response,247,517887,0.0-247.0,"""",jspsych/scrambledNeutralFaces/scrambledBM05NES.JPG,"""",256,forwardMask,Test,null,250,"""",n,"""","""","""","""","""","""",1,4/20/2021 0:37,71.219.223.215,Mozilla/5.0 (Macintosh; Intel Mac OS X 10.16; rv:83.0) Gecko/20100101 Firefox/83.0,Macintosh,Firefox,83,OS X,10.16
43,1,null,"""",image-keyboard-response,248,517910,0.0-248.0,"""",jspsych/neutralFaces/BM05NES.JPG,"""",256,Cue,Test,null,16,"""","""","""","""","""","""","""","""",1,4/20/2021 0:37,71.219.223.215,Mozilla/5.0 (Macintosh; Intel Mac OS X 10.16; rv:83.0) Gecko/20100101 Firefox/83.0,Macintosh,Firefox,83,OS X,10.16
43,1,null,"""",image-keyboard-response,249,518017,0.0-249.0,"""",jspsych/neutralFaces/BM22NES.JPG,"""",256,backwardMask,Test,null,100,"""","""","""","""","""","""","""","""",1,4/20/2021 0:37,71.219.223.215,Mozilla/5.0 (Macintosh; Intel Mac OS X 10.16; rv:83.0) Gecko/20100101 Firefox/83.0,Macintosh,Firefox,83,OS X,10.16
43,1,null,"""",html-keyboard-response,250,519020,0.0-250.0,"""","<div style=""font-size:60px;"">+</div>","""",256,fixationBtwnNeutralMaskAndPrompt,Test,null,1000,"""","""","""","""","""","""","""","""",1,4/20/2021 0:37,71.219.223.215,Mozilla/5.0 (Macintosh; Intel Mac OS X 10.16; rv:83.0) Gecko/20100101 Firefox/83.0,Macintosh,Firefox,83,OS X,10.16
43,1,1348,"""",html-button-response,251,520370,0.0-251.0,"""","<img src='jspsych/CFDfaces/CFD-AM-234-355-N.jpg' height=""250px"">,</br><b>James</b>",0,256,IntactOrRearranged,Test,"""","""","""","""",CFD-AM-231-136-N.jpg,Timothy,1,0,"""","""",1,4/20/2021 0:37,71.219.223.215,Mozilla/5.0 (Macintosh; Intel Mac OS X 10.16; rv:83.0) Gecko/20100101 Firefox/83.0,Macintosh,Firefox,83,OS X,10.16
43,1,1724,"""",html-slider-response,252,522097,0.0-252.0,"""","<img src='jspsych/CFDfaces/CFD-AM-234-355-N.jpg' height=""250px"">,</br><b>James</b>","""",256,ConfidenceQuery,Test,"""","""","""","""",CFD-AM-231-136-N.jpg,Timothy,1,"""",0,31,1,4/20/2021 0:37,71.219.223.215,Mozilla/5.0 (Macintosh; Intel Mac OS X 10.16; rv:83.0) Gecko/20100101 Firefox/83.0,Macintosh,Firefox,83,OS X,10.16
43,1,null,"""",html-keyboard-response,253,523102,0.0-253.0,"""","<div style=""font-size:60px;"">+</div>","""",256,ITI,Test,null,1000,"""","""","""","""","""","""","""","""",1,4/20/2021 0:37,71.219.223.215,Mozilla/5.0 (Macintosh; Intel Mac OS X 10.16; rv:83.0) Gecko/20100101 Firefox/83.0,Macintosh,Firefox,83,OS X,10.16
43,1,null,"""",image-keyboard-response,254,523358,0.0-254.0,"""",jspsych/scrambledNeutralFaces/scrambledBF07NES.JPG,"""",256,forwardMask,Test,null,250,"""",n,"""","""","""","""","""","""",1,4/20/2021 0:37,71.219.223.215,Mozilla/5.0 (Macintosh; Intel Mac OS X 10.16; rv:83.0) Gecko/20100101 Firefox/83.0,Macintosh,Firefox,83,OS X,10.16
43,1,null,"""",image-keyboard-response,255,523390,0.0-255.0,"""",jspsych/neutralFaces/BF07NES.JPG,"""",256,Cue,Test,null,16,"""","""","""","""","""","""","""","""",1,4/20/2021 0:37,71.219.223.215,Mozilla/5.0 (Macintosh; Intel Mac OS X 10.16; rv:83.0) Gecko/20100101 Firefox/83.0,Macintosh,Firefox,83,OS X,10.16
43,1,null,"""",image-keyboard-response,256,523497,0.0-256.0,"""",jspsych/neutralFaces/BF34NES.JPG,"""",256,backwardMask,Test,null,100,"""","""","""","""","""","""","""","""",1,4/20/2021 0:37,71.219.223.215,Mozilla/5.0 (Macintosh; Intel Mac OS X 10.16; rv:83.0) Gecko/20100101 Firefox/83.0,Macintosh,Firefox,83,OS X,10.16
43,1,null,"""",html-keyboard-response,257,524499,0.0-257.0,"""","<div style=""font-size:60px;"">+</div>","""",256,fixationBtwnNeutralMaskAndPrompt,Test,null,1000,"""","""","""","""","""","""","""","""",1,4/20/2021 0:37,71.219.223.215,Mozilla/5.0 (Macintosh; Intel Mac OS X 10.16; rv:83.0) Gecko/20100101 Firefox/83.0,Macintosh,Firefox,83,OS X,10.16
43,1,1339,"""",html-button-response,258,525841,0.0-258.0,"""","<img src='jspsych/CFDfaces/CFD-LM-219-295-N.jpg' height=""250px"">,</br><b>Juan</b>",0,256,IntactOrRearranged,Test,"""","""","""","""",CFD-AM-246-184-N.jpg,Ryan,0,0,"""","""",1,4/20/2021 0:37,71.219.223.215,Mozilla/5.0 (Macintosh; Intel Mac OS X 10.16; rv:83.0) Gecko/20100101 Firefox/83.0,Macintosh,Firefox,83,OS X,10.16
43,1,2060,"""",html-slider-response,259,527905,0.0-259.0,"""","<img src='jspsych/CFDfaces/CFD-LM-219-295-N.jpg' height=""250px"">,</br><b>Juan</b>","""",256,ConfidenceQuery,Test,"""","""","""","""",CFD-AM-246-184-N.jpg,Ryan,0,"""",0,82,1,4/20/2021 0:37,71.219.223.215,Mozilla/5.0 (Macintosh; Intel Mac OS X 10.16; rv:83.0) Gecko/20100101 Firefox/83.0,Macintosh,Firefox,83,OS X,10.16
43,1,null,"""",html-keyboard-response,260,528910,0.0-260.0,"""","<div style=""font-size:60px;"">+</div>","""",256,ITI,Test,null,1000,"""","""","""","""","""","""","""","""",1,4/20/2021 0:37,71.219.223.215,Mozilla/5.0 (Macintosh; Intel Mac OS X 10.16; rv:83.0) Gecko/20100101 Firefox/83.0,Macintosh,Firefox,83,OS X,10.16
43,1,null,"""",image-keyboard-response,261,529166,0.0-261.0,"""",jspsych/scrambledDisgustFaces/scrambledBM10DIS.JPG,"""",256,forwardMask,Test,null,250,"""",d,"""","""","""","""","""","""",1,4/20/2021 0:37,71.219.223.215,Mozilla/5.0 (Macintosh; Intel Mac OS X 10.16; rv:83.0) Gecko/20100101 Firefox/83.0,Macintosh,Firefox,83,OS X,10.16
43,1,null,"""",image-keyboard-response,262,529190,0.0-262.0,"""",jspsych/disgustFaces/BM11DIS.JPG,"""",256,Cue,Test,null,16,"""","""","""","""","""","""","""","""",1,4/20/2021 0:37,71.219.223.215,Mozilla/5.0 (Macintosh; Intel Mac OS X 10.16; rv:83.0) Gecko/20100101 Firefox/83.0,Macintosh,Firefox,83,OS X,10.16
43,1,null,"""",image-keyboard-response,263,529298,0.0-263.0,"""",jspsych/neutralFaces/AM11NES.JPG,"""",256,backwardMask,Test,null,100,"""","""","""","""","""","""","""","""",1,4/20/2021 0:37,71.219.223.215,Mozilla/5.0 (Macintosh; Intel Mac OS X 10.16; rv:83.0) Gecko/20100101 Firefox/83.0,Macintosh,Firefox,83,OS X,10.16
43,1,null,"""",html-keyboard-response,264,530301,0.0-264.0,"""","<div style=""font-size:60px;"">+</div>","""",256,fixationBtwnNeutralMaskAndPrompt,Test,null,1000,"""","""","""","""","""","""","""","""",1,4/20/2021 0:37,71.219.223.215,Mozilla/5.0 (Macintosh; Intel Mac OS X 10.16; rv:83.0) Gecko/20100101 Firefox/83.0,Macintosh,Firefox,83,OS X,10.16
43,1,1630,"""",html-button-response,265,531941,0.0-265.0,"""","<img src='jspsych/CFDfaces/CFD-AF-240-206-N.jpg' height=""250px"">,</br><b>Emily</b>",1,256,IntactOrRearranged,Test,"""","""","""","""",CFD-WM-212-097-N.jpg,Justin,1,1,"""","""",1,4/20/2021 0:37,71.219.223.215,Mozilla/5.0 (Macintosh; Intel Mac OS X 10.16; rv:83.0) Gecko/20100101 Firefox/83.0,Macintosh,Firefox,83,OS X,10.16
43,1,2126,"""",html-slider-response,266,534071,0.0-266.0,"""","<img src='jspsych/CFDfaces/CFD-AF-240-206-N.jpg' height=""250px"">,</br><b>Emily</b>","""",256,ConfidenceQuery,Test,"""","""","""","""",CFD-WM-212-097-N.jpg,Justin,1,"""",0,84,1,4/20/2021 0:37,71.219.223.215,Mozilla/5.0 (Macintosh; Intel Mac OS X 10.16; rv:83.0) Gecko/20100101 Firefox/83.0,Macintosh,Firefox,83,OS X,10.16
43,1,null,"""",html-keyboard-response,267,535078,0.0-267.0,"""","<div style=""font-size:60px;"">+</div>","""",256,ITI,Test,null,1000,"""","""","""","""","""","""","""","""",1,4/20/2021 0:37,71.219.223.215,Mozilla/5.0 (Macintosh; Intel Mac OS X 10.16; rv:83.0) Gecko/20100101 Firefox/83.0,Macintosh,Firefox,83,OS X,10.16
43,1,null,"""",image-keyboard-response,268,535332,0.0-268.0,"""",jspsych/scrambledNeutralFaces/scrambledAM13NES.JPG,"""",256,forwardMask,Test,null,250,"""",n,"""","""","""","""","""","""",1,4/20/2021 0:37,71.219.223.215,Mozilla/5.0 (Macintosh; Intel Mac OS X 10.16; rv:83.0) Gecko/20100101 Firefox/83.0,Macintosh,Firefox,83,OS X,10.16
43,1,null,"""",image-keyboard-response,269,535355,0.0-269.0,"""",jspsych/neutralFaces/AM13NES.JPG,"""",256,Cue,Test,null,16,"""","""","""","""","""","""","""","""",1,4/20/2021 0:37,71.219.223.215,Mozilla/5.0 (Macintosh; Intel Mac OS X 10.16; rv:83.0) Gecko/20100101 Firefox/83.0,Macintosh,Firefox,83,OS X,10.16
43,1,null,"""",image-keyboard-response,270,535461,0.0-270.0,"""",jspsych/neutralFaces/BM25NES.JPG,"""",256,backwardMask,Test,null,100,"""","""","""","""","""","""","""","""",1,4/20/2021 0:37,71.219.223.215,Mozilla/5.0 (Macintosh; Intel Mac OS X 10.16; rv:83.0) Gecko/20100101 Firefox/83.0,Macintosh,Firefox,83,OS X,10.16
43,1,null,"""",html-keyboard-response,271,536466,0.0-271.0,"""","<div style=""font-size:60px;"">+</div>","""",256,fixationBtwnNeutralMaskAndPrompt,Test,null,1000,"""","""","""","""","""","""","""","""",1,4/20/2021 0:37,71.219.223.215,Mozilla/5.0 (Macintosh; Intel Mac OS X 10.16; rv:83.0) Gecko/20100101 Firefox/83.0,Macintosh,Firefox,83,OS X,10.16
43,1,1483,"""",html-button-response,272,537951,0.0-272.0,"""","<img src='jspsych/CFDfaces/CFD-WM-006-002-N.jpg' height=""250px"">,</br><b>Eric</b>",0,256,IntactOrRearranged,Test,"""","""","""","""",CFD-BF-025-002-N.jpg,Amy,1,0,"""","""",1,4/20/2021 0:37,71.219.223.215,Mozilla/5.0 (Macintosh; Intel Mac OS X 10.16; rv:83.0) Gecko/20100101 Firefox/83.0,Macintosh,Firefox,83,OS X,10.16
43,1,2542,"""",html-slider-response,273,540505,0.0-273.0,"""","<img src='jspsych/CFDfaces/CFD-WM-006-002-N.jpg' height=""250px"">,</br><b>Eric</b>","""",256,ConfidenceQuery,Test,"""","""","""","""",CFD-BF-025-002-N.jpg,Amy,1,"""",0,42,1,4/20/2021 0:37,71.219.223.215,Mozilla/5.0 (Macintosh; Intel Mac OS X 10.16; rv:83.0) Gecko/20100101 Firefox/83.0,Macintosh,Firefox,83,OS X,10.16
43,1,null,"""",html-keyboard-response,274,541510,0.0-274.0,"""","<div style=""font-size:60px;"">+</div>","""",256,ITI,Test,null,1000,"""","""","""","""","""","""","""","""",1,4/20/2021 0:37,71.219.223.215,Mozilla/5.0 (Macintosh; Intel Mac OS X 10.16; rv:83.0) Gecko/20100101 Firefox/83.0,Macintosh,Firefox,83,OS X,10.16
43,1,null,"""",image-keyboard-response,275,541765,0.0-275.0,"""",jspsych/scrambledNeutralFaces/scrambledAM02NES.JPG,"""",256,forwardMask,Test,null,250,"""",n,"""","""","""","""","""","""",1,4/20/2021 0:37,71.219.223.215,Mozilla/5.0 (Macintosh; Intel Mac OS X 10.16; rv:83.0) Gecko/20100101 Firefox/83.0,Macintosh,Firefox,83,OS X,10.16
43,1,null,"""",image-keyboard-response,276,541787,0.0-276.0,"""",jspsych/neutralFaces/AM02NES.JPG,"""",256,Cue,Test,null,16,"""","""","""","""","""","""","""","""",1,4/20/2021 0:37,71.219.223.215,Mozilla/5.0 (Macintosh; Intel Mac OS X 10.16; rv:83.0) Gecko/20100101 Firefox/83.0,Macintosh,Firefox,83,OS X,10.16
43,1,null,"""",image-keyboard-response,277,541896,0.0-277.0,"""",jspsych/neutralFaces/AM31NES.JPG,"""",256,backwardMask,Test,null,100,"""","""","""","""","""","""","""","""",1,4/20/2021 0:37,71.219.223.215,Mozilla/5.0 (Macintosh; Intel Mac OS X 10.16; rv:83.0) Gecko/20100101 Firefox/83.0,Macintosh,Firefox,83,OS X,10.16
43,1,null,"""",html-keyboard-response,278,542898,0.0-278.0,"""","<div style=""font-size:60px;"">+</div>","""",256,fixationBtwnNeutralMaskAndPrompt,Test,null,1000,"""","""","""","""","""","""","""","""",1,4/20/2021 0:37,71.219.223.215,Mozilla/5.0 (Macintosh; Intel Mac OS X 10.16; rv:83.0) Gecko/20100101 Firefox/83.0,Macintosh,Firefox,83,OS X,10.16
43,1,1379,"""",html-button-response,279,544279,0.0-279.0,"""","<img src='jspsych/CFDfaces/CFD-BF-010-001-N.jpg' height=""250px"">,</br><b>Ashley</b>",0,256,IntactOrRearranged,Test,"""","""","""","""",CFD-AM-243-212-N.jpg,Austin,1,0,"""","""",1,4/20/2021 0:37,71.219.223.215,Mozilla/5.0 (Macintosh; Intel Mac OS X 10.16; rv:83.0) Gecko/20100101 Firefox/83.0,Macintosh,Firefox,83,OS X,10.16
43,1,2332,"""",html-slider-response,280,546615,0.0-280.0,"""","<img src='jspsych/CFDfaces/CFD-BF-010-001-N.jpg' height=""250px"">,</br><b>Ashley</b>","""",256,ConfidenceQuery,Test,"""","""","""","""",CFD-AM-243-212-N.jpg,Austin,1,"""",0,20,1,4/20/2021 0:37,71.219.223.215,Mozilla/5.0 (Macintosh; Intel Mac OS X 10.16; rv:83.0) Gecko/20100101 Firefox/83.0,Macintosh,Firefox,83,OS X,10.16
43,1,null,"""",html-keyboard-response,281,547628,0.0-281.0,"""","<div style=""font-size:60px;"">+</div>","""",256,ITI,Test,null,1000,"""","""","""","""","""","""","""","""",1,4/20/2021 0:37,71.219.223.215,Mozilla/5.0 (Macintosh; Intel Mac OS X 10.16; rv:83.0) Gecko/20100101 Firefox/83.0,Macintosh,Firefox,83,OS X,10.16
43,1,null,"""",image-keyboard-response,282,547883,0.0-282.0,"""",jspsych/scrambledNeutralFaces/scrambledBM06NES.JPG,"""",256,forwardMask,Test,null,250,"""",n,"""","""","""","""","""","""",1,4/20/2021 0:37,71.219.223.215,Mozilla/5.0 (Macintosh; Intel Mac OS X 10.16; rv:83.0) Gecko/20100101 Firefox/83.0,Macintosh,Firefox,83,OS X,10.16
43,1,null,"""",image-keyboard-response,283,547907,0.0-283.0,"""",jspsych/neutralFaces/BM06NES.JPG,"""",256,Cue,Test,null,16,"""","""","""","""","""","""","""","""",1,4/20/2021 0:37,71.219.223.215,Mozilla/5.0 (Macintosh; Intel Mac OS X 10.16; rv:83.0) Gecko/20100101 Firefox/83.0,Macintosh,Firefox,83,OS X,10.16
43,1,null,"""",image-keyboard-response,284,548019,0.0-284.0,"""",jspsych/neutralFaces/BM13NES.JPG,"""",256,backwardMask,Test,null,100,"""","""","""","""","""","""","""","""",1,4/20/2021 0:37,71.219.223.215,Mozilla/5.0 (Macintosh; Intel Mac OS X 10.16; rv:83.0) Gecko/20100101 Firefox/83.0,Macintosh,Firefox,83,OS X,10.16
43,1,null,"""",html-keyboard-response,285,549021,0.0-285.0,"""","<div style=""font-size:60px;"">+</div>","""",256,fixationBtwnNeutralMaskAndPrompt,Test,null,1000,"""","""","""","""","""","""","""","""",1,4/20/2021 0:37,71.219.223.215,Mozilla/5.0 (Macintosh; Intel Mac OS X 10.16; rv:83.0) Gecko/20100101 Firefox/83.0,Macintosh,Firefox,83,OS X,10.16
