run_id,condition,rt,responses,trial_type,trial_index,time_elapsed,internal_node_id,question_order,stimulus,button_pressed,iTrial,Phase,ExperimentPhase,key_press,StimulusDurationSetting,CharacterResponse,correctResponse,Face,Name,rearranged,didSubjectEnterRearranged,slider_start,response,Block,recorded_at,ip,user_agent,device,browser,browser_version,platform,platform_version
84,1,7155,"{""Q0"":""A2RFNGYQR2HZ3K""}",survey-text,0,7158,0.0-0.0,"""","""","""","""","""","""","""","""","""","""","""","""","""","""","""","""","""",4/21/2021 11:06,72.135.229.130,Mozilla/5.0 (Windows NT 10.0; Win64; x64; rv:87.0) Gecko/20100101 Firefox/87.0,,Firefox,87,Windows,10
84,1,3671,"{""Q0"":""27""}",survey-text,1,10835,0.0-1.0,"""","""","""","""","""","""","""","""","""","""","""","""","""","""","""","""","""",4/21/2021 11:06,72.135.229.130,Mozilla/5.0 (Windows NT 10.0; Win64; x64; rv:87.0) Gecko/20100101 Firefox/87.0,,Firefox,87,Windows,10
84,1,5164,"{""Q0"":""male"",""Q1"":""Not Hispanic/Latino"",""Q2"":""White or Caucasian""}",survey-multi-choice,2,16003,0.0-2.0,"[0,1,2]","""","""","""","""","""","""","""","""","""","""","""","""","""","""","""","""",4/21/2021 11:06,72.135.229.130,Mozilla/5.0 (Windows NT 10.0; Win64; x64; rv:87.0) Gecko/20100101 Firefox/87.0,,Firefox,87,Windows,10
84,1,8978,"""",image-button-response,3,25010,0.0-3.0,"""",directionsMemoryAssociation1.JPG,0,1,IntroDirections1,break,"""","""","""","""","""","""","""","""","""","""","""",4/21/2021 11:06,72.135.229.130,Mozilla/5.0 (Windows NT 10.0; Win64; x64; rv:87.0) Gecko/20100101 Firefox/87.0,,Firefox,87,Windows,10
84,1,10440,"""",image-button-response,4,35458,0.0-4.0,"""",directionsMemoryAssociation2.JPG,0,1,IntroDirections2,break,"""","""","""","""","""","""","""","""","""","""","""",4/21/2021 11:06,72.135.229.130,Mozilla/5.0 (Windows NT 10.0; Win64; x64; rv:87.0) Gecko/20100101 Firefox/87.0,,Firefox,87,Windows,10
84,1,null,"""",html-keyboard-response,5,40463,0.0-5.0,"""","<img src='jspsych/CFDfaces/CFD-AM-234-355-N.jpg' height=""250px"">,</br><b>Samuel</b>","""",1,IntactFace,Practice,null,5000,"""","""","""","""","""","""","""","""","""",4/21/2021 11:06,72.135.229.130,Mozilla/5.0 (Windows NT 10.0; Win64; x64; rv:87.0) Gecko/20100101 Firefox/87.0,,Firefox,87,Windows,10
84,1,null,"""",html-keyboard-response,6,40982,0.0-6.0,"""","<div style=""font-size:60px;"">+</div>","""",1,ITI,Practice,null,1000,"""","""","""","""","""","""","""","""","""",4/21/2021 11:06,72.135.229.130,Mozilla/5.0 (Windows NT 10.0; Win64; x64; rv:87.0) Gecko/20100101 Firefox/87.0,,Firefox,87,Windows,10
84,1,4191,"""",html-keyboard-response,7,46005,0.0-7.0,"""","<img src='jspsych/CFDfaces/CFD-WF-006-002-N.jpg' height=""250px"">,</br><b>Katelyn</b>","""",2,IntactFace,Practice,70,5000,f,"""","""","""","""","""","""","""","""",4/21/2021 11:06,72.135.229.130,Mozilla/5.0 (Windows NT 10.0; Win64; x64; rv:87.0) Gecko/20100101 Firefox/87.0,,Firefox,87,Windows,10
84,1,null,"""",html-keyboard-response,8,46518,0.0-8.0,"""","<div style=""font-size:60px;"">+</div>","""",2,ITI,Practice,null,1000,"""","""","""","""","""","""","""","""","""",4/21/2021 11:06,72.135.229.130,Mozilla/5.0 (Windows NT 10.0; Win64; x64; rv:87.0) Gecko/20100101 Firefox/87.0,,Firefox,87,Windows,10
84,1,4770,"""",html-keyboard-response,9,51534,0.0-9.0,"""","<img src='jspsych/CFDfaces/CFD-LF-205-100-N.jpg' height=""250px"">,</br><b>Tara</b>","""",3,IntactFace,Practice,70,5000,f,"""","""","""","""","""","""","""","""",4/21/2021 11:06,72.135.229.130,Mozilla/5.0 (Windows NT 10.0; Win64; x64; rv:87.0) Gecko/20100101 Firefox/87.0,,Firefox,87,Windows,10
84,1,null,"""",html-keyboard-response,10,52054,0.0-10.0,"""","<div style=""font-size:60px;"">+</div>","""",3,ITI,Practice,null,1000,"""","""","""","""","""","""","""","""","""",4/21/2021 11:06,72.135.229.130,Mozilla/5.0 (Windows NT 10.0; Win64; x64; rv:87.0) Gecko/20100101 Firefox/87.0,,Firefox,87,Windows,10
84,1,4285,"""",html-keyboard-response,11,57073,0.0-11.0,"""","<img src='jspsych/CFDfaces/CFD-LM-223-175-N.jpg' height=""250px"">,</br><b>Marcus</b>","""",4,IntactFace,Practice,78,5000,n,"""","""","""","""","""","""","""","""",4/21/2021 11:06,72.135.229.130,Mozilla/5.0 (Windows NT 10.0; Win64; x64; rv:87.0) Gecko/20100101 Firefox/87.0,,Firefox,87,Windows,10
84,1,null,"""",html-keyboard-response,12,57594,0.0-12.0,"""","<div style=""font-size:60px;"">+</div>","""",4,ITI,Practice,null,1000,"""","""","""","""","""","""","""","""","""",4/21/2021 11:06,72.135.229.130,Mozilla/5.0 (Windows NT 10.0; Win64; x64; rv:87.0) Gecko/20100101 Firefox/87.0,,Firefox,87,Windows,10
84,1,1642,"""",html-keyboard-response,13,62613,0.0-13.0,"""","<img src='jspsych/CFDfaces/CFD-BM-011-016-N.jpg' height=""250px"">,</br><b>Patrick</b>","""",5,IntactFace,Practice,70,5000,f,"""","""","""","""","""","""","""","""",4/21/2021 11:06,72.135.229.130,Mozilla/5.0 (Windows NT 10.0; Win64; x64; rv:87.0) Gecko/20100101 Firefox/87.0,,Firefox,87,Windows,10
84,1,null,"""",html-keyboard-response,14,63120,0.0-14.0,"""","<div style=""font-size:60px;"">+</div>","""",5,ITI,Practice,null,1000,"""","""","""","""","""","""","""","""","""",4/21/2021 11:06,72.135.229.130,Mozilla/5.0 (Windows NT 10.0; Win64; x64; rv:87.0) Gecko/20100101 Firefox/87.0,,Firefox,87,Windows,10
84,1,3629,"""",html-keyboard-response,15,68133,0.0-15.0,"""","<img src='jspsych/CFDfaces/CFD-LF-239-148-N.jpg' height=""250px"">,</br><b>Cassandra</b>","""",6,IntactFace,Practice,70,5000,f,"""","""","""","""","""","""","""","""",4/21/2021 11:06,72.135.229.130,Mozilla/5.0 (Windows NT 10.0; Win64; x64; rv:87.0) Gecko/20100101 Firefox/87.0,,Firefox,87,Windows,10
84,1,null,"""",html-keyboard-response,16,68652,0.0-16.0,"""","<div style=""font-size:60px;"">+</div>","""",6,ITI,Practice,null,1000,"""","""","""","""","""","""","""","""","""",4/21/2021 11:06,72.135.229.130,Mozilla/5.0 (Windows NT 10.0; Win64; x64; rv:87.0) Gecko/20100101 Firefox/87.0,,Firefox,87,Windows,10
84,1,3542,"""",html-keyboard-response,17,73673,0.0-17.0,"""","<img src='jspsych/CFDfaces/CFD-LM-225-130-N.jpg' height=""250px"">,</br><b>Carlos</b>","""",7,IntactFace,Practice,70,5000,f,"""","""","""","""","""","""","""","""",4/21/2021 11:06,72.135.229.130,Mozilla/5.0 (Windows NT 10.0; Win64; x64; rv:87.0) Gecko/20100101 Firefox/87.0,,Firefox,87,Windows,10
84,1,null,"""",html-keyboard-response,18,74192,0.0-18.0,"""","<div style=""font-size:60px;"">+</div>","""",7,ITI,Practice,null,1000,"""","""","""","""","""","""","""","""","""",4/21/2021 11:06,72.135.229.130,Mozilla/5.0 (Windows NT 10.0; Win64; x64; rv:87.0) Gecko/20100101 Firefox/87.0,,Firefox,87,Windows,10
84,1,3669,"""",html-keyboard-response,19,79212,0.0-19.0,"""","<img src='jspsych/CFDfaces/CFD-WF-016-015-N.jpg' height=""250px"">,</br><b>Shannon</b>","""",8,IntactFace,Practice,70,5000,f,"""","""","""","""","""","""","""","""",4/21/2021 11:06,72.135.229.130,Mozilla/5.0 (Windows NT 10.0; Win64; x64; rv:87.0) Gecko/20100101 Firefox/87.0,,Firefox,87,Windows,10
84,1,null,"""",html-keyboard-response,20,79733,0.0-20.0,"""","<div style=""font-size:60px;"">+</div>","""",8,ITI,Practice,null,1000,"""","""","""","""","""","""","""","""","""",4/21/2021 11:06,72.135.229.130,Mozilla/5.0 (Windows NT 10.0; Win64; x64; rv:87.0) Gecko/20100101 Firefox/87.0,,Firefox,87,Windows,10
84,1,11377,"""",image-button-response,21,91121,0.0-21.0,"""",directionsForTest.JPG,0,1,directionsForTest,break,"""","""","""","""","""","""","""","""","""","""","""",4/21/2021 11:06,72.135.229.130,Mozilla/5.0 (Windows NT 10.0; Win64; x64; rv:87.0) Gecko/20100101 Firefox/87.0,,Firefox,87,Windows,10
84,1,9690,"""",image-button-response,22,100817,0.0-22.0,"""",directionsForTest2.JPG,0,1,directionsForTest2,break,"""","""","""","""","""","""","""","""","""","""","""",4/21/2021 11:06,72.135.229.130,Mozilla/5.0 (Windows NT 10.0; Win64; x64; rv:87.0) Gecko/20100101 Firefox/87.0,,Firefox,87,Windows,10
84,1,null,"""",html-keyboard-response,23,101832,0.0-23.0,"""","<div style=""font-size:60px;"">+</div>","""",1,ITI,Practice,null,1000,"""","""","""","""","""","""","""","""","""",4/21/2021 11:06,72.135.229.130,Mozilla/5.0 (Windows NT 10.0; Win64; x64; rv:87.0) Gecko/20100101 Firefox/87.0,,Firefox,87,Windows,10
84,1,null,"""",image-keyboard-response,24,102093,0.0-24.0,"""",jspsych/scrambledDisgustFaces/scrambledAM24DIS.JPG,"""",1,forwardMask,Practice,null,250,"""",d,"""","""","""","""","""","""","""",4/21/2021 11:06,72.135.229.130,Mozilla/5.0 (Windows NT 10.0; Win64; x64; rv:87.0) Gecko/20100101 Firefox/87.0,,Firefox,87,Windows,10
84,1,null,"""",image-keyboard-response,25,102133,0.0-25.0,"""",jspsych/disgustFaces/AM24DIS.JPG,"""",1,Cue,Practice,null,16,"""","""","""","""","""","""","""","""","""",4/21/2021 11:06,72.135.229.130,Mozilla/5.0 (Windows NT 10.0; Win64; x64; rv:87.0) Gecko/20100101 Firefox/87.0,,Firefox,87,Windows,10
84,1,null,"""",image-keyboard-response,26,102252,0.0-26.0,"""",jspsych/neutralFaces/BM31NES.JPG,"""",1,backwardMask,Practice,null,100,"""","""","""","""","""","""","""","""","""",4/21/2021 11:06,72.135.229.130,Mozilla/5.0 (Windows NT 10.0; Win64; x64; rv:87.0) Gecko/20100101 Firefox/87.0,,Firefox,87,Windows,10
84,1,null,"""",html-keyboard-response,27,103272,0.0-27.0,"""","<div style=""font-size:60px;"">+</div>","""",1,fixationBtwnNeutralMaskAndPrompt,Practice,null,1000,"""","""","""","""","""","""","""","""","""",4/21/2021 11:06,72.135.229.130,Mozilla/5.0 (Windows NT 10.0; Win64; x64; rv:87.0) Gecko/20100101 Firefox/87.0,,Firefox,87,Windows,10
84,1,2254,"""",html-button-response,28,105529,0.0-28.0,"""","<img src='jspsych/CFDfaces/CFD-LM-225-130-N.jpg'height=""250px""></br><b>Marcus</b>",1,1,IntactOrRearranged,Practice,"""","""","""","""",CFD-LM-225-130-N.jpg,Marcus,1,1,"""","""","""",4/21/2021 11:06,72.135.229.130,Mozilla/5.0 (Windows NT 10.0; Win64; x64; rv:87.0) Gecko/20100101 Firefox/87.0,,Firefox,87,Windows,10
84,1,null,"""",html-slider-response,29,110545,0.0-29.0,"""","<img src='jspsych/CFDfaces/CFD-LM-225-130-N.jpg'height=""250px""></br><b>Marcus</b>","""",1,ConfidenceQuery,Practice,"""","""","""","""",CFD-LF-204-133-N.jpg,Sara,1,"""",0,null,"""",4/21/2021 11:06,72.135.229.130,Mozilla/5.0 (Windows NT 10.0; Win64; x64; rv:87.0) Gecko/20100101 Firefox/87.0,,Firefox,87,Windows,10
84,1,2483,"""",html-button-response,30,113034,0.0-30.0,"""",You are Correct. You Called A Rearranged Pair Rearranged,0,1,feedback,Practice,"""","""","""","""","""","""","""","""","""","""","""",4/21/2021 11:06,72.135.229.130,Mozilla/5.0 (Windows NT 10.0; Win64; x64; rv:87.0) Gecko/20100101 Firefox/87.0,,Firefox,87,Windows,10
84,1,null,"""",html-keyboard-response,31,114044,0.0-31.0,"""","<div style=""font-size:60px;"">+</div>","""",2,ITI,Practice,null,1000,"""","""","""","""","""","""","""","""","""",4/21/2021 11:06,72.135.229.130,Mozilla/5.0 (Windows NT 10.0; Win64; x64; rv:87.0) Gecko/20100101 Firefox/87.0,,Firefox,87,Windows,10
84,1,null,"""",image-keyboard-response,32,114304,0.0-32.0,"""",jspsych/scrambledDisgustFaces/scrambledBF32DIS.JPG,"""",2,forwardMask,Practice,null,250,"""",d,"""","""","""","""","""","""","""",4/21/2021 11:06,72.135.229.130,Mozilla/5.0 (Windows NT 10.0; Win64; x64; rv:87.0) Gecko/20100101 Firefox/87.0,,Firefox,87,Windows,10
84,1,null,"""",image-keyboard-response,33,114343,0.0-33.0,"""",jspsych/disgustFaces/BF32DIS.JPG,"""",2,Cue,Practice,null,16,"""","""","""","""","""","""","""","""","""",4/21/2021 11:06,72.135.229.130,Mozilla/5.0 (Windows NT 10.0; Win64; x64; rv:87.0) Gecko/20100101 Firefox/87.0,,Firefox,87,Windows,10
84,1,null,"""",image-keyboard-response,34,114457,0.0-34.0,"""",jspsych/neutralFaces/AF18NES.JPG,"""",2,backwardMask,Practice,null,100,"""","""","""","""","""","""","""","""","""",4/21/2021 11:06,72.135.229.130,Mozilla/5.0 (Windows NT 10.0; Win64; x64; rv:87.0) Gecko/20100101 Firefox/87.0,,Firefox,87,Windows,10
84,1,null,"""",html-keyboard-response,35,115472,0.0-35.0,"""","<div style=""font-size:60px;"">+</div>","""",2,fixationBtwnNeutralMaskAndPrompt,Practice,null,1000,"""","""","""","""","""","""","""","""","""",4/21/2021 11:06,72.135.229.130,Mozilla/5.0 (Windows NT 10.0; Win64; x64; rv:87.0) Gecko/20100101 Firefox/87.0,,Firefox,87,Windows,10
84,1,4015,"""",html-button-response,36,119489,0.0-36.0,"""","<img src='jspsych/CFDfaces/CFD-AM-234-355-N.jpg'height=""250px""></br><b>Samuel</b>",0,2,IntactOrRearranged,Practice,"""","""","""","""",CFD-AM-234-355-N.jpg,Samuel,0,0,"""","""","""",4/21/2021 11:06,72.135.229.130,Mozilla/5.0 (Windows NT 10.0; Win64; x64; rv:87.0) Gecko/20100101 Firefox/87.0,,Firefox,87,Windows,10
84,1,2867,"""",html-slider-response,37,122362,0.0-37.0,"""","<img src='jspsych/CFDfaces/CFD-AM-234-355-N.jpg'height=""250px""></br><b>Samuel</b>","""",2,ConfidenceQuery,Practice,"""","""","""","""",CFD-LF-204-133-N.jpg,Sara,0,"""",0,65,"""",4/21/2021 11:06,72.135.229.130,Mozilla/5.0 (Windows NT 10.0; Win64; x64; rv:87.0) Gecko/20100101 Firefox/87.0,,Firefox,87,Windows,10
84,1,1352,"""",html-button-response,38,123713,0.0-38.0,"""",You are Correct. You called an Intact Pair Intact,0,2,feedback,Practice,"""","""","""","""","""","""","""","""","""","""","""",4/21/2021 11:06,72.135.229.130,Mozilla/5.0 (Windows NT 10.0; Win64; x64; rv:87.0) Gecko/20100101 Firefox/87.0,,Firefox,87,Windows,10
84,1,null,"""",html-keyboard-response,39,124732,0.0-39.0,"""","<div style=""font-size:60px;"">+</div>","""",3,ITI,Practice,null,1000,"""","""","""","""","""","""","""","""","""",4/21/2021 11:06,72.135.229.130,Mozilla/5.0 (Windows NT 10.0; Win64; x64; rv:87.0) Gecko/20100101 Firefox/87.0,,Firefox,87,Windows,10
84,1,null,"""",image-keyboard-response,40,124992,0.0-40.0,"""",jspsych/scrambledDisgustFaces/scrambledAM31DIS.JPG,"""",3,forwardMask,Practice,null,250,"""",d,"""","""","""","""","""","""","""",4/21/2021 11:06,72.135.229.130,Mozilla/5.0 (Windows NT 10.0; Win64; x64; rv:87.0) Gecko/20100101 Firefox/87.0,,Firefox,87,Windows,10
84,1,null,"""",image-keyboard-response,41,125033,0.0-41.0,"""",jspsych/disgustFaces/AM31DIS.JPG,"""",3,Cue,Practice,null,16,"""","""","""","""","""","""","""","""","""",4/21/2021 11:06,72.135.229.130,Mozilla/5.0 (Windows NT 10.0; Win64; x64; rv:87.0) Gecko/20100101 Firefox/87.0,,Firefox,87,Windows,10
84,1,null,"""",image-keyboard-response,42,125140,0.0-42.0,"""",jspsych/neutralFaces/BM09NES.JPG,"""",3,backwardMask,Practice,null,100,"""","""","""","""","""","""","""","""","""",4/21/2021 11:06,72.135.229.130,Mozilla/5.0 (Windows NT 10.0; Win64; x64; rv:87.0) Gecko/20100101 Firefox/87.0,,Firefox,87,Windows,10
84,1,null,"""",html-keyboard-response,43,126152,0.0-43.0,"""","<div style=""font-size:60px;"">+</div>","""",3,fixationBtwnNeutralMaskAndPrompt,Practice,null,1000,"""","""","""","""","""","""","""","""","""",4/21/2021 11:06,72.135.229.130,Mozilla/5.0 (Windows NT 10.0; Win64; x64; rv:87.0) Gecko/20100101 Firefox/87.0,,Firefox,87,Windows,10
84,1,2353,"""",html-button-response,44,128505,0.0-44.0,"""","<img src='jspsych/CFDfaces/CFD-LF-205-100-N.jpg'height=""250px""></br><b>Tara</b>",0,3,IntactOrRearranged,Practice,"""","""","""","""",CFD-LF-205-100-N.jpg,Tara,0,0,"""","""","""",4/21/2021 11:06,72.135.229.130,Mozilla/5.0 (Windows NT 10.0; Win64; x64; rv:87.0) Gecko/20100101 Firefox/87.0,,Firefox,87,Windows,10
84,1,2165,"""",html-slider-response,45,130674,0.0-45.0,"""","<img src='jspsych/CFDfaces/CFD-LF-205-100-N.jpg'height=""250px""></br><b>Tara</b>","""",3,ConfidenceQuery,Practice,"""","""","""","""",CFD-LF-204-133-N.jpg,Sara,0,"""",0,82,"""",4/21/2021 11:06,72.135.229.130,Mozilla/5.0 (Windows NT 10.0; Win64; x64; rv:87.0) Gecko/20100101 Firefox/87.0,,Firefox,87,Windows,10
84,1,1166,"""",html-button-response,46,131841,0.0-46.0,"""",You are Correct. You called an Intact Pair Intact,0,3,feedback,Practice,"""","""","""","""","""","""","""","""","""","""","""",4/21/2021 11:06,72.135.229.130,Mozilla/5.0 (Windows NT 10.0; Win64; x64; rv:87.0) Gecko/20100101 Firefox/87.0,,Firefox,87,Windows,10
84,1,null,"""",html-keyboard-response,47,132852,0.0-47.0,"""","<div style=""font-size:60px;"">+</div>","""",4,ITI,Practice,null,1000,"""","""","""","""","""","""","""","""","""",4/21/2021 11:06,72.135.229.130,Mozilla/5.0 (Windows NT 10.0; Win64; x64; rv:87.0) Gecko/20100101 Firefox/87.0,,Firefox,87,Windows,10
84,1,null,"""",image-keyboard-response,48,133105,0.0-48.0,"""",jspsych/scrambledDisgustFaces/scrambledAF25DIS.JPG,"""",4,forwardMask,Practice,null,250,"""",d,"""","""","""","""","""","""","""",4/21/2021 11:06,72.135.229.130,Mozilla/5.0 (Windows NT 10.0; Win64; x64; rv:87.0) Gecko/20100101 Firefox/87.0,,Firefox,87,Windows,10
84,1,null,"""",image-keyboard-response,49,133126,0.0-49.0,"""",jspsych/disgustFaces/AF25DIS.JPG,"""",4,Cue,Practice,null,16,"""","""","""","""","""","""","""","""","""",4/21/2021 11:06,72.135.229.130,Mozilla/5.0 (Windows NT 10.0; Win64; x64; rv:87.0) Gecko/20100101 Firefox/87.0,,Firefox,87,Windows,10
84,1,null,"""",image-keyboard-response,50,133231,0.0-50.0,"""",jspsych/neutralFaces/AF04NES.JPG,"""",4,backwardMask,Practice,null,100,"""","""","""","""","""","""","""","""","""",4/21/2021 11:06,72.135.229.130,Mozilla/5.0 (Windows NT 10.0; Win64; x64; rv:87.0) Gecko/20100101 Firefox/87.0,,Firefox,87,Windows,10
84,1,null,"""",html-keyboard-response,51,134232,0.0-51.0,"""","<div style=""font-size:60px;"">+</div>","""",4,fixationBtwnNeutralMaskAndPrompt,Practice,null,1000,"""","""","""","""","""","""","""","""","""",4/21/2021 11:06,72.135.229.130,Mozilla/5.0 (Windows NT 10.0; Win64; x64; rv:87.0) Gecko/20100101 Firefox/87.0,,Firefox,87,Windows,10
84,1,1423,"""",html-button-response,52,135658,0.0-52.0,"""","<img src='jspsych/CFDfaces/CFD-WF-016-015-N.jpg'height=""250px""></br><b>Shannon</b>",0,4,IntactOrRearranged,Practice,"""","""","""","""",CFD-WF-016-015-N.jpg,Shannon,0,0,"""","""","""",4/21/2021 11:06,72.135.229.130,Mozilla/5.0 (Windows NT 10.0; Win64; x64; rv:87.0) Gecko/20100101 Firefox/87.0,,Firefox,87,Windows,10
84,1,1750,"""",html-slider-response,53,137410,0.0-53.0,"""","<img src='jspsych/CFDfaces/CFD-WF-016-015-N.jpg'height=""250px""></br><b>Shannon</b>","""",4,ConfidenceQuery,Practice,"""","""","""","""",CFD-LF-204-133-N.jpg,Sara,0,"""",0,100,"""",4/21/2021 11:06,72.135.229.130,Mozilla/5.0 (Windows NT 10.0; Win64; x64; rv:87.0) Gecko/20100101 Firefox/87.0,,Firefox,87,Windows,10
84,1,1228,"""",html-button-response,54,138642,0.0-54.0,"""",You are Correct. You called an Intact Pair Intact,0,4,feedback,Practice,"""","""","""","""","""","""","""","""","""","""","""",4/21/2021 11:06,72.135.229.130,Mozilla/5.0 (Windows NT 10.0; Win64; x64; rv:87.0) Gecko/20100101 Firefox/87.0,,Firefox,87,Windows,10
84,1,null,"""",html-keyboard-response,55,139644,0.0-55.0,"""","<div style=""font-size:60px;"">+</div>","""",5,ITI,Practice,null,1000,"""","""","""","""","""","""","""","""","""",4/21/2021 11:06,72.135.229.130,Mozilla/5.0 (Windows NT 10.0; Win64; x64; rv:87.0) Gecko/20100101 Firefox/87.0,,Firefox,87,Windows,10
84,1,null,"""",image-keyboard-response,56,139902,0.0-56.0,"""",jspsych/scrambledDisgustFaces/scrambledAM29DIS.JPG,"""",5,forwardMask,Practice,null,250,"""",d,"""","""","""","""","""","""","""",4/21/2021 11:06,72.135.229.130,Mozilla/5.0 (Windows NT 10.0; Win64; x64; rv:87.0) Gecko/20100101 Firefox/87.0,,Firefox,87,Windows,10
84,1,null,"""",image-keyboard-response,57,139942,0.0-57.0,"""",jspsych/disgustFaces/AM29DIS.JPG,"""",5,Cue,Practice,null,16,"""","""","""","""","""","""","""","""","""",4/21/2021 11:06,72.135.229.130,Mozilla/5.0 (Windows NT 10.0; Win64; x64; rv:87.0) Gecko/20100101 Firefox/87.0,,Firefox,87,Windows,10
84,1,null,"""",image-keyboard-response,58,140062,0.0-58.0,"""",jspsych/neutralFaces/BM08NES.JPG,"""",5,backwardMask,Practice,null,100,"""","""","""","""","""","""","""","""","""",4/21/2021 11:06,72.135.229.130,Mozilla/5.0 (Windows NT 10.0; Win64; x64; rv:87.0) Gecko/20100101 Firefox/87.0,,Firefox,87,Windows,10
84,1,null,"""",html-keyboard-response,59,141081,0.0-59.0,"""","<div style=""font-size:60px;"">+</div>","""",5,fixationBtwnNeutralMaskAndPrompt,Practice,null,1000,"""","""","""","""","""","""","""","""","""",4/21/2021 11:06,72.135.229.130,Mozilla/5.0 (Windows NT 10.0; Win64; x64; rv:87.0) Gecko/20100101 Firefox/87.0,,Firefox,87,Windows,10
84,1,2086,"""",html-button-response,60,143169,0.0-60.0,"""","<img src='jspsych/CFDfaces/CFD-LF-239-148-N.jpg'height=""250px""></br><b>Katelyn</b>",1,5,IntactOrRearranged,Practice,"""","""","""","""",CFD-LF-239-148-N.jpg,Katelyn,1,1,"""","""","""",4/21/2021 11:06,72.135.229.130,Mozilla/5.0 (Windows NT 10.0; Win64; x64; rv:87.0) Gecko/20100101 Firefox/87.0,,Firefox,87,Windows,10
84,1,1917,"""",html-slider-response,61,145090,0.0-61.0,"""","<img src='jspsych/CFDfaces/CFD-LF-239-148-N.jpg'height=""250px""></br><b>Katelyn</b>","""",5,ConfidenceQuery,Practice,"""","""","""","""",CFD-LF-204-133-N.jpg,Sara,1,"""",0,100,"""",4/21/2021 11:06,72.135.229.130,Mozilla/5.0 (Windows NT 10.0; Win64; x64; rv:87.0) Gecko/20100101 Firefox/87.0,,Firefox,87,Windows,10
84,1,1694,"""",html-button-response,62,146786,0.0-62.0,"""",You are Correct. You Called A Rearranged Pair Rearranged,0,5,feedback,Practice,"""","""","""","""","""","""","""","""","""","""","""",4/21/2021 11:06,72.135.229.130,Mozilla/5.0 (Windows NT 10.0; Win64; x64; rv:87.0) Gecko/20100101 Firefox/87.0,,Firefox,87,Windows,10
84,1,null,"""",html-keyboard-response,63,147791,0.0-63.0,"""","<div style=""font-size:60px;"">+</div>","""",6,ITI,Practice,null,1000,"""","""","""","""","""","""","""","""","""",4/21/2021 11:06,72.135.229.130,Mozilla/5.0 (Windows NT 10.0; Win64; x64; rv:87.0) Gecko/20100101 Firefox/87.0,,Firefox,87,Windows,10
84,1,null,"""",image-keyboard-response,64,148052,0.0-64.0,"""",jspsych/scrambledDisgustFaces/scrambledBF24DIS.JPG,"""",6,forwardMask,Practice,null,250,"""",d,"""","""","""","""","""","""","""",4/21/2021 11:06,72.135.229.130,Mozilla/5.0 (Windows NT 10.0; Win64; x64; rv:87.0) Gecko/20100101 Firefox/87.0,,Firefox,87,Windows,10
84,1,null,"""",image-keyboard-response,65,148093,0.0-65.0,"""",jspsych/disgustFaces/BF24DIS.JPG,"""",6,Cue,Practice,null,16,"""","""","""","""","""","""","""","""","""",4/21/2021 11:06,72.135.229.130,Mozilla/5.0 (Windows NT 10.0; Win64; x64; rv:87.0) Gecko/20100101 Firefox/87.0,,Firefox,87,Windows,10
84,1,null,"""",image-keyboard-response,66,148213,0.0-66.0,"""",jspsych/neutralFaces/BF30NES.JPG,"""",6,backwardMask,Practice,null,100,"""","""","""","""","""","""","""","""","""",4/21/2021 11:06,72.135.229.130,Mozilla/5.0 (Windows NT 10.0; Win64; x64; rv:87.0) Gecko/20100101 Firefox/87.0,,Firefox,87,Windows,10
84,1,null,"""",html-keyboard-response,67,149232,0.0-67.0,"""","<div style=""font-size:60px;"">+</div>","""",6,fixationBtwnNeutralMaskAndPrompt,Practice,null,1000,"""","""","""","""","""","""","""","""","""",4/21/2021 11:06,72.135.229.130,Mozilla/5.0 (Windows NT 10.0; Win64; x64; rv:87.0) Gecko/20100101 Firefox/87.0,,Firefox,87,Windows,10
84,1,1940,"""",html-button-response,68,151178,0.0-68.0,"""","<img src='jspsych/CFDfaces/CFD-WF-006-002-N.jpg'height=""250px""></br><b>Cassandra</b>",1,6,IntactOrRearranged,Practice,"""","""","""","""",CFD-WF-006-002-N.jpg,Cassandra,1,1,"""","""","""",4/21/2021 11:06,72.135.229.130,Mozilla/5.0 (Windows NT 10.0; Win64; x64; rv:87.0) Gecko/20100101 Firefox/87.0,,Firefox,87,Windows,10
84,1,2223,"""",html-slider-response,69,153401,0.0-69.0,"""","<img src='jspsych/CFDfaces/CFD-WF-006-002-N.jpg'height=""250px""></br><b>Cassandra</b>","""",6,ConfidenceQuery,Practice,"""","""","""","""",CFD-LF-204-133-N.jpg,Sara,1,"""",0,96,"""",4/21/2021 11:06,72.135.229.130,Mozilla/5.0 (Windows NT 10.0; Win64; x64; rv:87.0) Gecko/20100101 Firefox/87.0,,Firefox,87,Windows,10
84,1,1126,"""",html-button-response,70,154528,0.0-70.0,"""",You are Correct. You Called A Rearranged Pair Rearranged,0,6,feedback,Practice,"""","""","""","""","""","""","""","""","""","""","""",4/21/2021 11:06,72.135.229.130,Mozilla/5.0 (Windows NT 10.0; Win64; x64; rv:87.0) Gecko/20100101 Firefox/87.0,,Firefox,87,Windows,10
84,1,null,"""",html-keyboard-response,71,155552,0.0-71.0,"""","<div style=""font-size:60px;"">+</div>","""",7,ITI,Practice,null,1000,"""","""","""","""","""","""","""","""","""",4/21/2021 11:06,72.135.229.130,Mozilla/5.0 (Windows NT 10.0; Win64; x64; rv:87.0) Gecko/20100101 Firefox/87.0,,Firefox,87,Windows,10
84,1,null,"""",image-keyboard-response,72,155813,0.0-72.0,"""",jspsych/scrambledDisgustFaces/scrambledBM27DIS.JPG,"""",7,forwardMask,Practice,null,250,"""",d,"""","""","""","""","""","""","""",4/21/2021 11:06,72.135.229.130,Mozilla/5.0 (Windows NT 10.0; Win64; x64; rv:87.0) Gecko/20100101 Firefox/87.0,,Firefox,87,Windows,10
84,1,null,"""",image-keyboard-response,73,155852,0.0-73.0,"""",jspsych/disgustFaces/BM28DIS.JPG,"""",7,Cue,Practice,null,16,"""","""","""","""","""","""","""","""","""",4/21/2021 11:06,72.135.229.130,Mozilla/5.0 (Windows NT 10.0; Win64; x64; rv:87.0) Gecko/20100101 Firefox/87.0,,Firefox,87,Windows,10
84,1,null,"""",image-keyboard-response,74,155972,0.0-74.0,"""",jspsych/neutralFaces/BM21NES.JPG,"""",7,backwardMask,Practice,null,100,"""","""","""","""","""","""","""","""","""",4/21/2021 11:06,72.135.229.130,Mozilla/5.0 (Windows NT 10.0; Win64; x64; rv:87.0) Gecko/20100101 Firefox/87.0,,Firefox,87,Windows,10
84,1,null,"""",html-keyboard-response,75,156993,0.0-75.0,"""","<div style=""font-size:60px;"">+</div>","""",7,fixationBtwnNeutralMaskAndPrompt,Practice,null,1000,"""","""","""","""","""","""","""","""","""",4/21/2021 11:06,72.135.229.130,Mozilla/5.0 (Windows NT 10.0; Win64; x64; rv:87.0) Gecko/20100101 Firefox/87.0,,Firefox,87,Windows,10
84,1,1463,"""",html-button-response,76,158457,0.0-76.0,"""","<img src='jspsych/CFDfaces/CFD-BM-011-016-N.jpg'height=""250px""></br><b>Patrick</b>",0,7,IntactOrRearranged,Practice,"""","""","""","""",CFD-BM-011-016-N.jpg,Patrick,0,0,"""","""","""",4/21/2021 11:06,72.135.229.130,Mozilla/5.0 (Windows NT 10.0; Win64; x64; rv:87.0) Gecko/20100101 Firefox/87.0,,Firefox,87,Windows,10
84,1,1919,"""",html-slider-response,77,160378,0.0-77.0,"""","<img src='jspsych/CFDfaces/CFD-BM-011-016-N.jpg'height=""250px""></br><b>Patrick</b>","""",7,ConfidenceQuery,Practice,"""","""","""","""",CFD-LF-204-133-N.jpg,Sara,0,"""",0,100,"""",4/21/2021 11:06,72.135.229.130,Mozilla/5.0 (Windows NT 10.0; Win64; x64; rv:87.0) Gecko/20100101 Firefox/87.0,,Firefox,87,Windows,10
84,1,1112,"""",html-button-response,78,161489,0.0-78.0,"""",You are Correct. You called an Intact Pair Intact,0,7,feedback,Practice,"""","""","""","""","""","""","""","""","""","""","""",4/21/2021 11:06,72.135.229.130,Mozilla/5.0 (Windows NT 10.0; Win64; x64; rv:87.0) Gecko/20100101 Firefox/87.0,,Firefox,87,Windows,10
84,1,null,"""",html-keyboard-response,79,162492,0.0-79.0,"""","<div style=""font-size:60px;"">+</div>","""",8,ITI,Practice,null,1000,"""","""","""","""","""","""","""","""","""",4/21/2021 11:06,72.135.229.130,Mozilla/5.0 (Windows NT 10.0; Win64; x64; rv:87.0) Gecko/20100101 Firefox/87.0,,Firefox,87,Windows,10
84,1,null,"""",image-keyboard-response,80,162752,0.0-80.0,"""",jspsych/scrambledDisgustFaces/scrambledAF25DIS.JPG,"""",8,forwardMask,Practice,null,250,"""",d,"""","""","""","""","""","""","""",4/21/2021 11:06,72.135.229.130,Mozilla/5.0 (Windows NT 10.0; Win64; x64; rv:87.0) Gecko/20100101 Firefox/87.0,,Firefox,87,Windows,10
84,1,null,"""",image-keyboard-response,81,162773,0.0-81.0,"""",jspsych/disgustFaces/AF25DIS.JPG,"""",8,Cue,Practice,null,16,"""","""","""","""","""","""","""","""","""",4/21/2021 11:06,72.135.229.130,Mozilla/5.0 (Windows NT 10.0; Win64; x64; rv:87.0) Gecko/20100101 Firefox/87.0,,Firefox,87,Windows,10
84,1,null,"""",image-keyboard-response,82,162892,0.0-82.0,"""",jspsych/neutralFaces/BF05NES.JPG,"""",8,backwardMask,Practice,null,100,"""","""","""","""","""","""","""","""","""",4/21/2021 11:06,72.135.229.130,Mozilla/5.0 (Windows NT 10.0; Win64; x64; rv:87.0) Gecko/20100101 Firefox/87.0,,Firefox,87,Windows,10
84,1,null,"""",html-keyboard-response,83,163912,0.0-83.0,"""","<div style=""font-size:60px;"">+</div>","""",8,fixationBtwnNeutralMaskAndPrompt,Practice,null,1000,"""","""","""","""","""","""","""","""","""",4/21/2021 11:06,72.135.229.130,Mozilla/5.0 (Windows NT 10.0; Win64; x64; rv:87.0) Gecko/20100101 Firefox/87.0,,Firefox,87,Windows,10
84,1,2392,"""",html-button-response,84,166305,0.0-84.0,"""","<img src='jspsych/CFDfaces/CFD-LM-223-175-N.jpg'height=""250px""></br><b>Carlos</b>",0,8,IntactOrRearranged,Practice,"""","""","""","""",CFD-LM-223-175-N.jpg,Carlos,1,0,"""","""","""",4/21/2021 11:06,72.135.229.130,Mozilla/5.0 (Windows NT 10.0; Win64; x64; rv:87.0) Gecko/20100101 Firefox/87.0,,Firefox,87,Windows,10
84,1,1389,"""",html-slider-response,85,167698,0.0-85.0,"""","<img src='jspsych/CFDfaces/CFD-LM-223-175-N.jpg'height=""250px""></br><b>Carlos</b>","""",8,ConfidenceQuery,Practice,"""","""","""","""",CFD-LF-204-133-N.jpg,Sara,1,"""",0,46,"""",4/21/2021 11:06,72.135.229.130,Mozilla/5.0 (Windows NT 10.0; Win64; x64; rv:87.0) Gecko/20100101 Firefox/87.0,,Firefox,87,Windows,10
84,1,1309,"""",html-button-response,86,169009,0.0-86.0,"""",You are Incorrect. You called a Rearranged Pair Intact,0,8,feedback,Practice,"""","""","""","""","""","""","""","""","""","""","""",4/21/2021 11:06,72.135.229.130,Mozilla/5.0 (Windows NT 10.0; Win64; x64; rv:87.0) Gecko/20100101 Firefox/87.0,,Firefox,87,Windows,10
84,1,5051,"""",image-button-response,87,174065,0.0-87.0,"""",directionsMemoryAssociation3.JPG,0,128,DirectionsBeforeActualTEst,Break,"""","""","""","""","""","""","""","""","""","""","""",4/21/2021 11:06,72.135.229.130,Mozilla/5.0 (Windows NT 10.0; Win64; x64; rv:87.0) Gecko/20100101 Firefox/87.0,,Firefox,87,Windows,10
84,1,1413,"""",image-button-response,88,175481,0.0-88.0,"""",directionsForTest2.JPG,0,1,directionsForTest2,break,"""","""","""","""","""","""","""","""","""","""","""",4/21/2021 11:06,72.135.229.130,Mozilla/5.0 (Windows NT 10.0; Win64; x64; rv:87.0) Gecko/20100101 Firefox/87.0,,Firefox,87,Windows,10
84,1,5208,"""",html-button-response,89,180690,0.0-89.0,"""","<p>You will be asked to memorize and then recall four sets of face-name pairs. </p> <p> Each set will have 32 pairs. </p> <p>After the fourth set, there will be a brief follow-up experiment (<40 min alltogether)</p>",0,"""","""","""","""","""","""","""","""","""","""","""","""","""","""",4/21/2021 11:06,72.135.229.130,Mozilla/5.0 (Windows NT 10.0; Win64; x64; rv:87.0) Gecko/20100101 Firefox/87.0,,Firefox,87,Windows,10
84,1,2232,"""",html-keyboard-response,90,185703,0.0-90.0,"""","<img src='jspsych/CFDfaces/CFD-WF-024-003-N.jpg' height=""250px""></br><b>Victoria</b>","""",256,IntactFace,Memorization,70,5000,f,"""",CFD-BM-210-148-N.jpg,Jacob,0,"""","""","""",1,4/21/2021 11:06,72.135.229.130,Mozilla/5.0 (Windows NT 10.0; Win64; x64; rv:87.0) Gecko/20100101 Firefox/87.0,,Firefox,87,Windows,10
84,1,null,"""",html-keyboard-response,91,186223,0.0-91.0,"""","<div style=""font-size:60px;"">+</div>","""",256,fixation,Memorization,null,500,"""","""","""","""","""","""","""","""",1,4/21/2021 11:06,72.135.229.130,Mozilla/5.0 (Windows NT 10.0; Win64; x64; rv:87.0) Gecko/20100101 Firefox/87.0,,Firefox,87,Windows,10
84,1,2390,"""",html-keyboard-response,92,191233,0.0-92.0,"""","<img src='jspsych/CFDfaces/CFD-LF-231-260-N.jpg' height=""250px""></br><b>Emily</b>","""",256,IntactFace,Memorization,70,5000,f,"""",CFD-AF-242-158-N.jpg,Jordan,0,"""","""","""",1,4/21/2021 11:06,72.135.229.130,Mozilla/5.0 (Windows NT 10.0; Win64; x64; rv:87.0) Gecko/20100101 Firefox/87.0,,Firefox,87,Windows,10
84,1,null,"""",html-keyboard-response,93,191752,0.0-93.0,"""","<div style=""font-size:60px;"">+</div>","""",256,fixation,Memorization,null,500,"""","""","""","""","""","""","""","""",1,4/21/2021 11:06,72.135.229.130,Mozilla/5.0 (Windows NT 10.0; Win64; x64; rv:87.0) Gecko/20100101 Firefox/87.0,,Firefox,87,Windows,10
84,1,2566,"""",html-keyboard-response,94,196773,0.0-94.0,"""","<img src='jspsych/CFDfaces/CFD-AM-229-224-N.jpg' height=""250px""></br><b>Jason</b>","""",256,IntactFace,Memorization,78,5000,n,"""",CFD-AF-214-139-N.jpg,Erin,0,"""","""","""",1,4/21/2021 11:06,72.135.229.130,Mozilla/5.0 (Windows NT 10.0; Win64; x64; rv:87.0) Gecko/20100101 Firefox/87.0,,Firefox,87,Windows,10
84,1,null,"""",html-keyboard-response,95,197292,0.0-95.0,"""","<div style=""font-size:60px;"">+</div>","""",256,fixation,Memorization,null,500,"""","""","""","""","""","""","""","""",1,4/21/2021 11:06,72.135.229.130,Mozilla/5.0 (Windows NT 10.0; Win64; x64; rv:87.0) Gecko/20100101 Firefox/87.0,,Firefox,87,Windows,10
84,1,1407,"""",html-keyboard-response,96,202313,0.0-96.0,"""","<img src='jspsych/CFDfaces/CFD-LF-220-120-N.jpg' height=""250px""></br><b>Samantha</b>","""",256,IntactFace,Memorization,70,5000,f,"""",CFD-BF-008-001-N.jpg,Amy,0,"""","""","""",1,4/21/2021 11:06,72.135.229.130,Mozilla/5.0 (Windows NT 10.0; Win64; x64; rv:87.0) Gecko/20100101 Firefox/87.0,,Firefox,87,Windows,10
84,1,null,"""",html-keyboard-response,97,202833,0.0-97.0,"""","<div style=""font-size:60px;"">+</div>","""",256,fixation,Memorization,null,500,"""","""","""","""","""","""","""","""",1,4/21/2021 11:06,72.135.229.130,Mozilla/5.0 (Windows NT 10.0; Win64; x64; rv:87.0) Gecko/20100101 Firefox/87.0,,Firefox,87,Windows,10
84,1,1466,"""",html-keyboard-response,98,207853,0.0-98.0,"""","<img src='jspsych/CFDfaces/CFD-BF-023-010-N.jpg' height=""250px""></br><b>Kayla</b>","""",256,IntactFace,Memorization,70,5000,f,"""",CFD-AM-211-052-N.jpg,Luis,0,"""","""","""",1,4/21/2021 11:06,72.135.229.130,Mozilla/5.0 (Windows NT 10.0; Win64; x64; rv:87.0) Gecko/20100101 Firefox/87.0,,Firefox,87,Windows,10
84,1,null,"""",html-keyboard-response,99,208370,0.0-99.0,"""","<div style=""font-size:60px;"">+</div>","""",256,fixation,Memorization,null,500,"""","""","""","""","""","""","""","""",1,4/21/2021 11:06,72.135.229.130,Mozilla/5.0 (Windows NT 10.0; Win64; x64; rv:87.0) Gecko/20100101 Firefox/87.0,,Firefox,87,Windows,10
84,1,2293,"""",html-keyboard-response,100,213393,0.0-100.0,"""","<img src='jspsych/CFDfaces/CFD-AM-230-150-N.jpg' height=""250px""></br><b>Gregory</b>","""",256,IntactFace,Memorization,70,5000,f,"""",CFD-AF-243-170-N.jpg,Lauren,0,"""","""","""",1,4/21/2021 11:06,72.135.229.130,Mozilla/5.0 (Windows NT 10.0; Win64; x64; rv:87.0) Gecko/20100101 Firefox/87.0,,Firefox,87,Windows,10
84,1,null,"""",html-keyboard-response,101,213912,0.0-101.0,"""","<div style=""font-size:60px;"">+</div>","""",256,fixation,Memorization,null,500,"""","""","""","""","""","""","""","""",1,4/21/2021 11:06,72.135.229.130,Mozilla/5.0 (Windows NT 10.0; Win64; x64; rv:87.0) Gecko/20100101 Firefox/87.0,,Firefox,87,Windows,10
84,1,1505,"""",html-keyboard-response,102,218932,0.0-102.0,"""","<img src='jspsych/CFDfaces/CFD-WM-017-002-N.jpg' height=""250px""></br><b>Richard</b>","""",256,IntactFace,Memorization,70,5000,f,"""",CFD-AF-239-171-N.jpg,Rebecca,0,"""","""","""",1,4/21/2021 11:06,72.135.229.130,Mozilla/5.0 (Windows NT 10.0; Win64; x64; rv:87.0) Gecko/20100101 Firefox/87.0,,Firefox,87,Windows,10
84,1,null,"""",html-keyboard-response,103,219453,0.0-103.0,"""","<div style=""font-size:60px;"">+</div>","""",256,fixation,Memorization,null,500,"""","""","""","""","""","""","""","""",1,4/21/2021 11:06,72.135.229.130,Mozilla/5.0 (Windows NT 10.0; Win64; x64; rv:87.0) Gecko/20100101 Firefox/87.0,,Firefox,87,Windows,10
84,1,1563,"""",html-keyboard-response,104,224473,0.0-104.0,"""","<img src='jspsych/CFDfaces/CFD-BM-208-065-N.jpg' height=""250px""></br><b>James</b>","""",256,IntactFace,Memorization,70,5000,f,"""",CFD-BM-026-002-N.jpg,Kenneth,0,"""","""","""",1,4/21/2021 11:06,72.135.229.130,Mozilla/5.0 (Windows NT 10.0; Win64; x64; rv:87.0) Gecko/20100101 Firefox/87.0,,Firefox,87,Windows,10
84,1,null,"""",html-keyboard-response,105,224992,0.0-105.0,"""","<div style=""font-size:60px;"">+</div>","""",256,fixation,Memorization,null,500,"""","""","""","""","""","""","""","""",1,4/21/2021 11:06,72.135.229.130,Mozilla/5.0 (Windows NT 10.0; Win64; x64; rv:87.0) Gecko/20100101 Firefox/87.0,,Firefox,87,Windows,10
84,1,2727,"""",html-keyboard-response,106,230002,0.0-106.0,"""","<img src='jspsych/CFDfaces/CFD-BF-201-080-N.jpg' height=""250px""></br><b>Andrea</b>","""",256,IntactFace,Memorization,70,5000,f,"""",CFD-WM-041-021-N.jpg,Dustin,0,"""","""","""",1,4/21/2021 11:06,72.135.229.130,Mozilla/5.0 (Windows NT 10.0; Win64; x64; rv:87.0) Gecko/20100101 Firefox/87.0,,Firefox,87,Windows,10
84,1,null,"""",html-keyboard-response,107,230502,0.0-107.0,"""","<div style=""font-size:60px;"">+</div>","""",256,fixation,Memorization,null,500,"""","""","""","""","""","""","""","""",1,4/21/2021 11:06,72.135.229.130,Mozilla/5.0 (Windows NT 10.0; Win64; x64; rv:87.0) Gecko/20100101 Firefox/87.0,,Firefox,87,Windows,10
84,1,1469,"""",html-keyboard-response,108,235522,0.0-108.0,"""","<img src='jspsych/CFDfaces/CFD-BF-209-172-N.jpg' height=""250px""></br><b>Amanda</b>","""",256,IntactFace,Memorization,78,5000,n,"""",CFD-BM-205-001-N.jpg,Austin,0,"""","""","""",1,4/21/2021 11:06,72.135.229.130,Mozilla/5.0 (Windows NT 10.0; Win64; x64; rv:87.0) Gecko/20100101 Firefox/87.0,,Firefox,87,Windows,10
84,1,null,"""",html-keyboard-response,109,236042,0.0-109.0,"""","<div style=""font-size:60px;"">+</div>","""",256,fixation,Memorization,null,500,"""","""","""","""","""","""","""","""",1,4/21/2021 11:06,72.135.229.130,Mozilla/5.0 (Windows NT 10.0; Win64; x64; rv:87.0) Gecko/20100101 Firefox/87.0,,Firefox,87,Windows,10
84,1,1876,"""",html-keyboard-response,110,241062,0.0-110.0,"""","<img src='jspsych/CFDfaces/CFD-AF-208-003-N.jpg' height=""250px""></br><b>Vanessa</b>","""",256,IntactFace,Memorization,70,5000,f,"""",CFD-BF-212-315-N.jpg,Sara,0,"""","""","""",1,4/21/2021 11:06,72.135.229.130,Mozilla/5.0 (Windows NT 10.0; Win64; x64; rv:87.0) Gecko/20100101 Firefox/87.0,,Firefox,87,Windows,10
84,1,null,"""",html-keyboard-response,111,241583,0.0-111.0,"""","<div style=""font-size:60px;"">+</div>","""",256,fixation,Memorization,null,500,"""","""","""","""","""","""","""","""",1,4/21/2021 11:06,72.135.229.130,Mozilla/5.0 (Windows NT 10.0; Win64; x64; rv:87.0) Gecko/20100101 Firefox/87.0,,Firefox,87,Windows,10
84,1,3812,"""",html-keyboard-response,112,246602,0.0-112.0,"""","<img src='jspsych/CFDfaces/CFD-AM-207-108-N.jpg' height=""250px""></br><b>Robert</b>","""",256,IntactFace,Memorization,70,5000,f,"""",CFD-WM-215-041-N.jpg,Justin,0,"""","""","""",1,4/21/2021 11:06,72.135.229.130,Mozilla/5.0 (Windows NT 10.0; Win64; x64; rv:87.0) Gecko/20100101 Firefox/87.0,,Firefox,87,Windows,10
84,1,null,"""",html-keyboard-response,113,247123,0.0-113.0,"""","<div style=""font-size:60px;"">+</div>","""",256,fixation,Memorization,null,500,"""","""","""","""","""","""","""","""",1,4/21/2021 11:06,72.135.229.130,Mozilla/5.0 (Windows NT 10.0; Win64; x64; rv:87.0) Gecko/20100101 Firefox/87.0,,Firefox,87,Windows,10
84,1,1181,"""",html-keyboard-response,114,252133,0.0-114.0,"""","<img src='jspsych/CFDfaces/CFD-BM-027-001-N.jpg' height=""250px""></br><b>Jeffrey</b>","""",256,IntactFace,Memorization,78,5000,n,"""",CFD-AF-201-060-N.jpg,Lindsey,0,"""","""","""",1,4/21/2021 11:06,72.135.229.130,Mozilla/5.0 (Windows NT 10.0; Win64; x64; rv:87.0) Gecko/20100101 Firefox/87.0,,Firefox,87,Windows,10
84,1,null,"""",html-keyboard-response,115,252653,0.0-115.0,"""","<div style=""font-size:60px;"">+</div>","""",256,fixation,Memorization,null,500,"""","""","""","""","""","""","""","""",1,4/21/2021 11:06,72.135.229.130,Mozilla/5.0 (Windows NT 10.0; Win64; x64; rv:87.0) Gecko/20100101 Firefox/87.0,,Firefox,87,Windows,10
84,1,1772,"""",html-keyboard-response,116,257663,0.0-116.0,"""","<img src='jspsych/CFDfaces/CFD-AM-243-212-N.jpg' height=""250px""></br><b>Eric</b>","""",256,IntactFace,Memorization,70,5000,f,"""",CFD-WF-019-005-N.jpg,Angela,0,"""","""","""",1,4/21/2021 11:06,72.135.229.130,Mozilla/5.0 (Windows NT 10.0; Win64; x64; rv:87.0) Gecko/20100101 Firefox/87.0,,Firefox,87,Windows,10
84,1,null,"""",html-keyboard-response,117,258183,0.0-117.0,"""","<div style=""font-size:60px;"">+</div>","""",256,fixation,Memorization,null,500,"""","""","""","""","""","""","""","""",1,4/21/2021 11:06,72.135.229.130,Mozilla/5.0 (Windows NT 10.0; Win64; x64; rv:87.0) Gecko/20100101 Firefox/87.0,,Firefox,87,Windows,10
84,1,1388,"""",html-keyboard-response,118,263192,0.0-118.0,"""","<img src='jspsych/CFDfaces/CFD-WF-207-014-N.jpg' height=""250px""></br><b>Elizabeth</b>","""",256,IntactFace,Memorization,70,5000,f,"""",CFD-AF-241-141-N.jpg,Tiffany,0,"""","""","""",1,4/21/2021 11:06,72.135.229.130,Mozilla/5.0 (Windows NT 10.0; Win64; x64; rv:87.0) Gecko/20100101 Firefox/87.0,,Firefox,87,Windows,10
84,1,null,"""",html-keyboard-response,119,263713,0.0-119.0,"""","<div style=""font-size:60px;"">+</div>","""",256,fixation,Memorization,null,500,"""","""","""","""","""","""","""","""",1,4/21/2021 11:06,72.135.229.130,Mozilla/5.0 (Windows NT 10.0; Win64; x64; rv:87.0) Gecko/20100101 Firefox/87.0,,Firefox,87,Windows,10
84,1,1919,"""",html-keyboard-response,120,268731,0.0-120.0,"""","<img src='jspsych/CFDfaces/CFD-AM-212-050-N.jpg' height=""250px""></br><b>Christian</b>","""",256,IntactFace,Memorization,70,5000,f,"""",CFD-WM-009-002-N.jpg,Mark,0,"""","""","""",1,4/21/2021 11:06,72.135.229.130,Mozilla/5.0 (Windows NT 10.0; Win64; x64; rv:87.0) Gecko/20100101 Firefox/87.0,,Firefox,87,Windows,10
84,1,null,"""",html-keyboard-response,121,269252,0.0-121.0,"""","<div style=""font-size:60px;"">+</div>","""",256,fixation,Memorization,null,500,"""","""","""","""","""","""","""","""",1,4/21/2021 11:06,72.135.229.130,Mozilla/5.0 (Windows NT 10.0; Win64; x64; rv:87.0) Gecko/20100101 Firefox/87.0,,Firefox,87,Windows,10
84,1,1337,"""",html-keyboard-response,122,274273,0.0-122.0,"""","<img src='jspsych/CFDfaces/CFD-BF-021-013-N.jpg' height=""250px""></br><b>Michelle</b>","""",256,IntactFace,Memorization,70,5000,f,"""",CFD-LM-213-061-N.jpg,Cameron,0,"""","""","""",1,4/21/2021 11:06,72.135.229.130,Mozilla/5.0 (Windows NT 10.0; Win64; x64; rv:87.0) Gecko/20100101 Firefox/87.0,,Firefox,87,Windows,10
84,1,null,"""",html-keyboard-response,123,274792,0.0-123.0,"""","<div style=""font-size:60px;"">+</div>","""",256,fixation,Memorization,null,500,"""","""","""","""","""","""","""","""",1,4/21/2021 11:06,72.135.229.130,Mozilla/5.0 (Windows NT 10.0; Win64; x64; rv:87.0) Gecko/20100101 Firefox/87.0,,Firefox,87,Windows,10
84,1,2447,"""",html-keyboard-response,124,279802,0.0-124.0,"""","<img src='jspsych/CFDfaces/CFD-BF-016-017-N.jpg' height=""250px""></br><b>Stephanie</b>","""",256,IntactFace,Memorization,70,5000,f,"""",CFD-AM-248-104-N.jpg,Ryan,0,"""","""","""",1,4/21/2021 11:06,72.135.229.130,Mozilla/5.0 (Windows NT 10.0; Win64; x64; rv:87.0) Gecko/20100101 Firefox/87.0,,Firefox,87,Windows,10
84,1,null,"""",html-keyboard-response,125,280322,0.0-125.0,"""","<div style=""font-size:60px;"">+</div>","""",256,fixation,Memorization,null,500,"""","""","""","""","""","""","""","""",1,4/21/2021 11:06,72.135.229.130,Mozilla/5.0 (Windows NT 10.0; Win64; x64; rv:87.0) Gecko/20100101 Firefox/87.0,,Firefox,87,Windows,10
84,1,1067,"""",html-keyboard-response,126,285342,0.0-126.0,"""","<img src='jspsych/CFDfaces/CFD-LF-236-221-N.jpg' height=""250px""></br><b>Christina</b>","""",256,IntactFace,Memorization,70,5000,f,"""",CFD-LM-217-162-N.jpg,Travis,0,"""","""","""",1,4/21/2021 11:06,72.135.229.130,Mozilla/5.0 (Windows NT 10.0; Win64; x64; rv:87.0) Gecko/20100101 Firefox/87.0,,Firefox,87,Windows,10
84,1,null,"""",html-keyboard-response,127,285863,0.0-127.0,"""","<div style=""font-size:60px;"">+</div>","""",256,fixation,Memorization,null,500,"""","""","""","""","""","""","""","""",1,4/21/2021 11:06,72.135.229.130,Mozilla/5.0 (Windows NT 10.0; Win64; x64; rv:87.0) Gecko/20100101 Firefox/87.0,,Firefox,87,Windows,10
84,1,1871,"""",html-keyboard-response,128,290883,0.0-128.0,"""","<img src='jspsych/CFDfaces/CFD-AF-230-193-N.jpg' height=""250px""></br><b>Julie</b>","""",256,IntactFace,Memorization,70,5000,f,"""",CFD-WF-038-021-N.jpg,Taylor,0,"""","""","""",1,4/21/2021 11:06,72.135.229.130,Mozilla/5.0 (Windows NT 10.0; Win64; x64; rv:87.0) Gecko/20100101 Firefox/87.0,,Firefox,87,Windows,10
84,1,null,"""",html-keyboard-response,129,291402,0.0-129.0,"""","<div style=""font-size:60px;"">+</div>","""",256,fixation,Memorization,null,500,"""","""","""","""","""","""","""","""",1,4/21/2021 11:06,72.135.229.130,Mozilla/5.0 (Windows NT 10.0; Win64; x64; rv:87.0) Gecko/20100101 Firefox/87.0,,Firefox,87,Windows,10
84,1,2046,"""",html-keyboard-response,130,296422,0.0-130.0,"""","<img src='jspsych/CFDfaces/CFD-AF-226-251-N.jpg' height=""250px""></br><b>Meghan</b>","""",256,IntactFace,Memorization,70,5000,f,"""",CFD-LF-244-096-N.jpg,Jasmine,0,"""","""","""",1,4/21/2021 11:06,72.135.229.130,Mozilla/5.0 (Windows NT 10.0; Win64; x64; rv:87.0) Gecko/20100101 Firefox/87.0,,Firefox,87,Windows,10
84,1,null,"""",html-keyboard-response,131,296943,0.0-131.0,"""","<div style=""font-size:60px;"">+</div>","""",256,fixation,Memorization,null,500,"""","""","""","""","""","""","""","""",1,4/21/2021 11:06,72.135.229.130,Mozilla/5.0 (Windows NT 10.0; Win64; x64; rv:87.0) Gecko/20100101 Firefox/87.0,,Firefox,87,Windows,10
84,1,1104,"""",html-keyboard-response,132,301962,0.0-132.0,"""","<img src='jspsych/CFDfaces/CFD-LF-200-058-N.jpg' height=""250px""></br><b>Brittany</b>","""",256,IntactFace,Memorization,70,5000,f,"""",CFD-LF-204-133-N.jpg,Laura,0,"""","""","""",1,4/21/2021 11:06,72.135.229.130,Mozilla/5.0 (Windows NT 10.0; Win64; x64; rv:87.0) Gecko/20100101 Firefox/87.0,,Firefox,87,Windows,10
84,1,null,"""",html-keyboard-response,133,302475,0.0-133.0,"""","<div style=""font-size:60px;"">+</div>","""",256,fixation,Memorization,null,500,"""","""","""","""","""","""","""","""",1,4/21/2021 11:06,72.135.229.130,Mozilla/5.0 (Windows NT 10.0; Win64; x64; rv:87.0) Gecko/20100101 Firefox/87.0,,Firefox,87,Windows,10
84,1,3227,"""",html-keyboard-response,134,307503,0.0-134.0,"""","<img src='jspsych/CFDfaces/CFD-BM-211-174-N.jpg' height=""250px""></br><b>Peter</b>","""",256,IntactFace,Memorization,70,5000,f,"""",CFD-AF-235-170-N.jpg,Melissa,0,"""","""","""",1,4/21/2021 11:06,72.135.229.130,Mozilla/5.0 (Windows NT 10.0; Win64; x64; rv:87.0) Gecko/20100101 Firefox/87.0,,Firefox,87,Windows,10
84,1,null,"""",html-keyboard-response,135,308022,0.0-135.0,"""","<div style=""font-size:60px;"">+</div>","""",256,fixation,Memorization,null,500,"""","""","""","""","""","""","""","""",1,4/21/2021 11:06,72.135.229.130,Mozilla/5.0 (Windows NT 10.0; Win64; x64; rv:87.0) Gecko/20100101 Firefox/87.0,,Firefox,87,Windows,10
84,1,null,"""",html-keyboard-response,136,313033,0.0-136.0,"""","<img src='jspsych/CFDfaces/CFD-BM-018-001-N.jpg' height=""250px""></br><b>Nicholas</b>","""",256,IntactFace,Memorization,null,5000,"""","""",CFD-WM-032-001-N.jpg,Steven,0,"""","""","""",1,4/21/2021 11:06,72.135.229.130,Mozilla/5.0 (Windows NT 10.0; Win64; x64; rv:87.0) Gecko/20100101 Firefox/87.0,,Firefox,87,Windows,10
84,1,null,"""",html-keyboard-response,137,313552,0.0-137.0,"""","<div style=""font-size:60px;"">+</div>","""",256,fixation,Memorization,null,500,"""","""","""","""","""","""","""","""",1,4/21/2021 11:06,72.135.229.130,Mozilla/5.0 (Windows NT 10.0; Win64; x64; rv:87.0) Gecko/20100101 Firefox/87.0,,Firefox,87,Windows,10
84,1,1368,"""",html-keyboard-response,138,318573,0.0-138.0,"""","<img src='jspsych/CFDfaces/CFD-WF-017-003-N.jpg' height=""250px""></br><b>Ashley</b>","""",256,IntactFace,Memorization,70,5000,f,"""",CFD-BF-222-240-N.jpg,Whitney,0,"""","""","""",1,4/21/2021 11:06,72.135.229.130,Mozilla/5.0 (Windows NT 10.0; Win64; x64; rv:87.0) Gecko/20100101 Firefox/87.0,,Firefox,87,Windows,10
84,1,null,"""",html-keyboard-response,139,319092,0.0-139.0,"""","<div style=""font-size:60px;"">+</div>","""",256,fixation,Memorization,null,500,"""","""","""","""","""","""","""","""",1,4/21/2021 11:06,72.135.229.130,Mozilla/5.0 (Windows NT 10.0; Win64; x64; rv:87.0) Gecko/20100101 Firefox/87.0,,Firefox,87,Windows,10
84,1,3465,"""",html-keyboard-response,140,324102,0.0-140.0,"""","<img src='jspsych/CFDfaces/CFD-AM-221-184-N.jpg' height=""250px""></br><b>Brandon</b>","""",256,IntactFace,Memorization,70,5000,f,"""",CFD-BF-221-223-N.jpg,Heather,0,"""","""","""",1,4/21/2021 11:06,72.135.229.130,Mozilla/5.0 (Windows NT 10.0; Win64; x64; rv:87.0) Gecko/20100101 Firefox/87.0,,Firefox,87,Windows,10
84,1,null,"""",html-keyboard-response,141,324622,0.0-141.0,"""","<div style=""font-size:60px;"">+</div>","""",256,fixation,Memorization,null,500,"""","""","""","""","""","""","""","""",1,4/21/2021 11:06,72.135.229.130,Mozilla/5.0 (Windows NT 10.0; Win64; x64; rv:87.0) Gecko/20100101 Firefox/87.0,,Firefox,87,Windows,10
84,1,1457,"""",html-keyboard-response,142,329642,0.0-142.0,"""","<img src='jspsych/CFDfaces/CFD-WF-215-145-N.jpg' height=""250px""></br><b>Kimberly</b>","""",256,IntactFace,Memorization,70,5000,f,"""",CFD-BM-032-024-N.jpg,Jesse,0,"""","""","""",1,4/21/2021 11:06,72.135.229.130,Mozilla/5.0 (Windows NT 10.0; Win64; x64; rv:87.0) Gecko/20100101 Firefox/87.0,,Firefox,87,Windows,10
84,1,null,"""",html-keyboard-response,143,330162,0.0-143.0,"""","<div style=""font-size:60px;"">+</div>","""",256,fixation,Memorization,null,500,"""","""","""","""","""","""","""","""",1,4/21/2021 11:06,72.135.229.130,Mozilla/5.0 (Windows NT 10.0; Win64; x64; rv:87.0) Gecko/20100101 Firefox/87.0,,Firefox,87,Windows,10
84,1,1862,"""",html-keyboard-response,144,335182,0.0-144.0,"""","<img src='jspsych/CFDfaces/CFD-AM-242-176-N.jpg' height=""250px""></br><b>Brian</b>","""",256,IntactFace,Memorization,78,5000,n,"""",CFD-BM-001-014-N.jpg,Vincent,0,"""","""","""",1,4/21/2021 11:06,72.135.229.130,Mozilla/5.0 (Windows NT 10.0; Win64; x64; rv:87.0) Gecko/20100101 Firefox/87.0,,Firefox,87,Windows,10
84,1,null,"""",html-keyboard-response,145,335702,0.0-145.0,"""","<div style=""font-size:60px;"">+</div>","""",256,fixation,Memorization,null,500,"""","""","""","""","""","""","""","""",1,4/21/2021 11:06,72.135.229.130,Mozilla/5.0 (Windows NT 10.0; Win64; x64; rv:87.0) Gecko/20100101 Firefox/87.0,,Firefox,87,Windows,10
84,1,2752,"""",html-keyboard-response,146,340722,0.0-146.0,"""","<img src='jspsych/CFDfaces/CFD-BM-043-071-N.jpg' height=""250px""></br><b>Ian</b>","""",256,IntactFace,Memorization,70,5000,f,"""",CFD-LM-239-075-N.jpg,Jeremy,0,"""","""","""",1,4/21/2021 11:06,72.135.229.130,Mozilla/5.0 (Windows NT 10.0; Win64; x64; rv:87.0) Gecko/20100101 Firefox/87.0,,Firefox,87,Windows,10
84,1,null,"""",html-keyboard-response,147,341242,0.0-147.0,"""","<div style=""font-size:60px;"">+</div>","""",256,fixation,Memorization,null,500,"""","""","""","""","""","""","""","""",1,4/21/2021 11:06,72.135.229.130,Mozilla/5.0 (Windows NT 10.0; Win64; x64; rv:87.0) Gecko/20100101 Firefox/87.0,,Firefox,87,Windows,10
84,1,2137,"""",html-keyboard-response,148,346262,0.0-148.0,"""","<img src='jspsych/CFDfaces/CFD-AM-228-214-N.jpg' height=""250px""></br><b>Daniel</b>","""",256,IntactFace,Memorization,70,5000,f,"""",CFD-WM-015-002-N.jpg,Timothy,0,"""","""","""",1,4/21/2021 11:06,72.135.229.130,Mozilla/5.0 (Windows NT 10.0; Win64; x64; rv:87.0) Gecko/20100101 Firefox/87.0,,Firefox,87,Windows,10
84,1,null,"""",html-keyboard-response,149,346783,0.0-149.0,"""","<div style=""font-size:60px;"">+</div>","""",256,fixation,Memorization,null,500,"""","""","""","""","""","""","""","""",1,4/21/2021 11:06,72.135.229.130,Mozilla/5.0 (Windows NT 10.0; Win64; x64; rv:87.0) Gecko/20100101 Firefox/87.0,,Firefox,87,Windows,10
84,1,1812,"""",html-keyboard-response,150,351803,0.0-150.0,"""","<img src='jspsych/CFDfaces/CFD-LM-248-089-N.jpg' height=""250px""></br><b>Juan</b>","""",256,IntactFace,Memorization,70,5000,f,"""",CFD-WM-006-002-N.jpg,Sean,0,"""","""","""",1,4/21/2021 11:06,72.135.229.130,Mozilla/5.0 (Windows NT 10.0; Win64; x64; rv:87.0) Gecko/20100101 Firefox/87.0,,Firefox,87,Windows,10
84,1,null,"""",html-keyboard-response,151,352322,0.0-151.0,"""","<div style=""font-size:60px;"">+</div>","""",256,fixation,Memorization,null,500,"""","""","""","""","""","""","""","""",1,4/21/2021 11:06,72.135.229.130,Mozilla/5.0 (Windows NT 10.0; Win64; x64; rv:87.0) Gecko/20100101 Firefox/87.0,,Firefox,87,Windows,10
84,1,1621,"""",html-keyboard-response,152,357343,0.0-152.0,"""","<img src='jspsych/CFDfaces/CFD-AM-246-184-N.jpg' height=""250px""></br><b>Joshua</b>","""",256,IntactFace,Memorization,78,5000,n,"""",CFD-BF-019-001-N.jpg,Jenna,0,"""","""","""",1,4/21/2021 11:06,72.135.229.130,Mozilla/5.0 (Windows NT 10.0; Win64; x64; rv:87.0) Gecko/20100101 Firefox/87.0,,Firefox,87,Windows,10
84,1,null,"""",html-keyboard-response,153,357862,0.0-153.0,"""","<div style=""font-size:60px;"">+</div>","""",256,fixation,Memorization,null,500,"""","""","""","""","""","""","""","""",1,4/21/2021 11:06,72.135.229.130,Mozilla/5.0 (Windows NT 10.0; Win64; x64; rv:87.0) Gecko/20100101 Firefox/87.0,,Firefox,87,Windows,10
84,1,63763,"""",html-keyboard-response,154,421632,0.0-154.0,"""",Press Any Key to Begin Memory Test,"""",1,welcomeScreen,Break,32,"""","""","""","""","""","""","""","""","""",1,4/21/2021 11:06,72.135.229.130,Mozilla/5.0 (Windows NT 10.0; Win64; x64; rv:87.0) Gecko/20100101 Firefox/87.0,,Firefox,87,Windows,10
84,1,null,"""",html-keyboard-response,155,422640,0.0-155.0,"""","<div style=""font-size:60px;"">+</div>","""",256,ITI,Test,null,1000,"""","""","""","""","""","""","""","""",1,4/21/2021 11:06,72.135.229.130,Mozilla/5.0 (Windows NT 10.0; Win64; x64; rv:87.0) Gecko/20100101 Firefox/87.0,,Firefox,87,Windows,10
84,1,null,"""",image-keyboard-response,156,422912,0.0-156.0,"""",jspsych/scrambledDisgustFaces/scrambledAM24DIS.JPG,"""",256,forwardMask,Test,null,250,"""",d,"""","""","""","""","""","""",1,4/21/2021 11:06,72.135.229.130,Mozilla/5.0 (Windows NT 10.0; Win64; x64; rv:87.0) Gecko/20100101 Firefox/87.0,,Firefox,87,Windows,10
84,1,null,"""",image-keyboard-response,157,422952,0.0-157.0,"""",jspsych/disgustFaces/AM24DIS.JPG,"""",256,Cue,Test,null,16,"""","""","""","""","""","""","""","""",1,4/21/2021 11:06,72.135.229.130,Mozilla/5.0 (Windows NT 10.0; Win64; x64; rv:87.0) Gecko/20100101 Firefox/87.0,,Firefox,87,Windows,10
84,1,null,"""",image-keyboard-response,158,423057,0.0-158.0,"""",jspsych/neutralFaces/BM31NES.JPG,"""",256,backwardMask,Test,null,100,"""","""","""","""","""","""","""","""",1,4/21/2021 11:06,72.135.229.130,Mozilla/5.0 (Windows NT 10.0; Win64; x64; rv:87.0) Gecko/20100101 Firefox/87.0,,Firefox,87,Windows,10
84,1,null,"""",html-keyboard-response,159,424060,0.0-159.0,"""","<div style=""font-size:60px;"">+</div>","""",256,fixationBtwnNeutralMaskAndPrompt,Test,null,1000,"""","""","""","""","""","""","""","""",1,4/21/2021 11:06,72.135.229.130,Mozilla/5.0 (Windows NT 10.0; Win64; x64; rv:87.0) Gecko/20100101 Firefox/87.0,,Firefox,87,Windows,10
84,1,2797,"""",html-button-response,160,426858,0.0-160.0,"""","<img src='jspsych/CFDfaces/CFD-BM-208-065-N.jpg' height=""250px"">,</br><b>Jeffrey</b>",1,256,IntactOrRearranged,Test,"""","""","""","""",CFD-BF-212-315-N.jpg,Lauren,1,1,"""","""",1,4/21/2021 11:06,72.135.229.130,Mozilla/5.0 (Windows NT 10.0; Win64; x64; rv:87.0) Gecko/20100101 Firefox/87.0,,Firefox,87,Windows,10
84,1,3423,"""",html-slider-response,161,430281,0.0-161.0,"""","<img src='jspsych/CFDfaces/CFD-BM-208-065-N.jpg' height=""250px"">,</br><b>Jeffrey</b>","""",256,ConfidenceQuery,Test,"""","""","""","""",CFD-BF-212-315-N.jpg,Lauren,1,"""",0,100,1,4/21/2021 11:06,72.135.229.130,Mozilla/5.0 (Windows NT 10.0; Win64; x64; rv:87.0) Gecko/20100101 Firefox/87.0,,Firefox,87,Windows,10
84,1,null,"""",html-keyboard-response,162,431293,0.0-162.0,"""","<div style=""font-size:60px;"">+</div>","""",256,ITI,Test,null,1000,"""","""","""","""","""","""","""","""",1,4/21/2021 11:06,72.135.229.130,Mozilla/5.0 (Windows NT 10.0; Win64; x64; rv:87.0) Gecko/20100101 Firefox/87.0,,Firefox,87,Windows,10
84,1,null,"""",image-keyboard-response,163,431552,0.0-163.0,"""",jspsych/scrambledDisgustFaces/scrambledBF32DIS.JPG,"""",256,forwardMask,Test,null,250,"""",d,"""","""","""","""","""","""",1,4/21/2021 11:06,72.135.229.130,Mozilla/5.0 (Windows NT 10.0; Win64; x64; rv:87.0) Gecko/20100101 Firefox/87.0,,Firefox,87,Windows,10
84,1,null,"""",image-keyboard-response,164,431592,0.0-164.0,"""",jspsych/disgustFaces/BF32DIS.JPG,"""",256,Cue,Test,null,16,"""","""","""","""","""","""","""","""",1,4/21/2021 11:06,72.135.229.130,Mozilla/5.0 (Windows NT 10.0; Win64; x64; rv:87.0) Gecko/20100101 Firefox/87.0,,Firefox,87,Windows,10
84,1,null,"""",image-keyboard-response,165,431708,0.0-165.0,"""",jspsych/neutralFaces/AF18NES.JPG,"""",256,backwardMask,Test,null,100,"""","""","""","""","""","""","""","""",1,4/21/2021 11:06,72.135.229.130,Mozilla/5.0 (Windows NT 10.0; Win64; x64; rv:87.0) Gecko/20100101 Firefox/87.0,,Firefox,87,Windows,10
84,1,null,"""",html-keyboard-response,166,432712,0.0-166.0,"""","<div style=""font-size:60px;"">+</div>","""",256,fixationBtwnNeutralMaskAndPrompt,Test,null,1000,"""","""","""","""","""","""","""","""",1,4/21/2021 11:06,72.135.229.130,Mozilla/5.0 (Windows NT 10.0; Win64; x64; rv:87.0) Gecko/20100101 Firefox/87.0,,Firefox,87,Windows,10
84,1,3423,"""",html-button-response,167,436138,0.0-167.0,"""","<img src='jspsych/CFDfaces/CFD-BF-021-013-N.jpg' height=""250px"">,</br><b>Michelle</b>",0,256,IntactOrRearranged,Test,"""","""","""","""",CFD-WM-009-002-N.jpg,Jesse,0,0,"""","""",1,4/21/2021 11:06,72.135.229.130,Mozilla/5.0 (Windows NT 10.0; Win64; x64; rv:87.0) Gecko/20100101 Firefox/87.0,,Firefox,87,Windows,10
84,1,2146,"""",html-slider-response,168,438289,0.0-168.0,"""","<img src='jspsych/CFDfaces/CFD-BF-021-013-N.jpg' height=""250px"">,</br><b>Michelle</b>","""",256,ConfidenceQuery,Test,"""","""","""","""",CFD-WM-009-002-N.jpg,Jesse,0,"""",0,65,1,4/21/2021 11:06,72.135.229.130,Mozilla/5.0 (Windows NT 10.0; Win64; x64; rv:87.0) Gecko/20100101 Firefox/87.0,,Firefox,87,Windows,10
84,1,null,"""",html-keyboard-response,169,439302,0.0-169.0,"""","<div style=""font-size:60px;"">+</div>","""",256,ITI,Test,null,1000,"""","""","""","""","""","""","""","""",1,4/21/2021 11:06,72.135.229.130,Mozilla/5.0 (Windows NT 10.0; Win64; x64; rv:87.0) Gecko/20100101 Firefox/87.0,,Firefox,87,Windows,10
84,1,null,"""",image-keyboard-response,170,439562,0.0-170.0,"""",jspsych/scrambledDisgustFaces/scrambledAM31DIS.JPG,"""",256,forwardMask,Test,null,250,"""",d,"""","""","""","""","""","""",1,4/21/2021 11:06,72.135.229.130,Mozilla/5.0 (Windows NT 10.0; Win64; x64; rv:87.0) Gecko/20100101 Firefox/87.0,,Firefox,87,Windows,10
84,1,null,"""",image-keyboard-response,171,439602,0.0-171.0,"""",jspsych/disgustFaces/AM31DIS.JPG,"""",256,Cue,Test,null,16,"""","""","""","""","""","""","""","""",1,4/21/2021 11:06,72.135.229.130,Mozilla/5.0 (Windows NT 10.0; Win64; x64; rv:87.0) Gecko/20100101 Firefox/87.0,,Firefox,87,Windows,10
84,1,null,"""",image-keyboard-response,172,439723,0.0-172.0,"""",jspsych/neutralFaces/BM09NES.JPG,"""",256,backwardMask,Test,null,100,"""","""","""","""","""","""","""","""",1,4/21/2021 11:06,72.135.229.130,Mozilla/5.0 (Windows NT 10.0; Win64; x64; rv:87.0) Gecko/20100101 Firefox/87.0,,Firefox,87,Windows,10
84,1,null,"""",html-keyboard-response,173,440742,0.0-173.0,"""","<div style=""font-size:60px;"">+</div>","""",256,fixationBtwnNeutralMaskAndPrompt,Test,null,1000,"""","""","""","""","""","""","""","""",1,4/21/2021 11:06,72.135.229.130,Mozilla/5.0 (Windows NT 10.0; Win64; x64; rv:87.0) Gecko/20100101 Firefox/87.0,,Firefox,87,Windows,10
84,1,1858,"""",html-button-response,174,442601,0.0-174.0,"""","<img src='jspsych/CFDfaces/CFD-WM-017-002-N.jpg' height=""250px"">,</br><b>Christian</b>",1,256,IntactOrRearranged,Test,"""","""","""","""",CFD-AF-214-139-N.jpg,Laura,1,1,"""","""",1,4/21/2021 11:06,72.135.229.130,Mozilla/5.0 (Windows NT 10.0; Win64; x64; rv:87.0) Gecko/20100101 Firefox/87.0,,Firefox,87,Windows,10
84,1,1494,"""",html-slider-response,175,444097,0.0-175.0,"""","<img src='jspsych/CFDfaces/CFD-WM-017-002-N.jpg' height=""250px"">,</br><b>Christian</b>","""",256,ConfidenceQuery,Test,"""","""","""","""",CFD-AF-214-139-N.jpg,Laura,1,"""",0,96,1,4/21/2021 11:06,72.135.229.130,Mozilla/5.0 (Windows NT 10.0; Win64; x64; rv:87.0) Gecko/20100101 Firefox/87.0,,Firefox,87,Windows,10
84,1,null,"""",html-keyboard-response,176,445103,0.0-176.0,"""","<div style=""font-size:60px;"">+</div>","""",256,ITI,Test,null,1000,"""","""","""","""","""","""","""","""",1,4/21/2021 11:06,72.135.229.130,Mozilla/5.0 (Windows NT 10.0; Win64; x64; rv:87.0) Gecko/20100101 Firefox/87.0,,Firefox,87,Windows,10
84,1,null,"""",image-keyboard-response,177,445358,0.0-177.0,"""",jspsych/scrambledDisgustFaces/scrambledAF25DIS.JPG,"""",256,forwardMask,Test,null,250,"""",d,"""","""","""","""","""","""",1,4/21/2021 11:06,72.135.229.130,Mozilla/5.0 (Windows NT 10.0; Win64; x64; rv:87.0) Gecko/20100101 Firefox/87.0,,Firefox,87,Windows,10
84,1,null,"""",image-keyboard-response,178,445383,0.0-178.0,"""",jspsych/disgustFaces/AF25DIS.JPG,"""",256,Cue,Test,null,16,"""","""","""","""","""","""","""","""",1,4/21/2021 11:06,72.135.229.130,Mozilla/5.0 (Windows NT 10.0; Win64; x64; rv:87.0) Gecko/20100101 Firefox/87.0,,Firefox,87,Windows,10
84,1,null,"""",image-keyboard-response,179,445502,0.0-179.0,"""",jspsych/neutralFaces/AF04NES.JPG,"""",256,backwardMask,Test,null,100,"""","""","""","""","""","""","""","""",1,4/21/2021 11:06,72.135.229.130,Mozilla/5.0 (Windows NT 10.0; Win64; x64; rv:87.0) Gecko/20100101 Firefox/87.0,,Firefox,87,Windows,10
84,1,null,"""",html-keyboard-response,180,446522,0.0-180.0,"""","<div style=""font-size:60px;"">+</div>","""",256,fixationBtwnNeutralMaskAndPrompt,Test,null,1000,"""","""","""","""","""","""","""","""",1,4/21/2021 11:06,72.135.229.130,Mozilla/5.0 (Windows NT 10.0; Win64; x64; rv:87.0) Gecko/20100101 Firefox/87.0,,Firefox,87,Windows,10
84,1,2574,"""",html-button-response,181,449097,0.0-181.0,"""","<img src='jspsych/CFDfaces/CFD-BM-018-001-N.jpg' height=""250px"">,</br><b>Nicholas</b>",1,256,IntactOrRearranged,Test,"""","""","""","""",CFD-BF-221-223-N.jpg,Heather,0,1,"""","""",1,4/21/2021 11:06,72.135.229.130,Mozilla/5.0 (Windows NT 10.0; Win64; x64; rv:87.0) Gecko/20100101 Firefox/87.0,,Firefox,87,Windows,10
84,1,1486,"""",html-slider-response,182,450585,0.0-182.0,"""","<img src='jspsych/CFDfaces/CFD-BM-018-001-N.jpg' height=""250px"">,</br><b>Nicholas</b>","""",256,ConfidenceQuery,Test,"""","""","""","""",CFD-BF-221-223-N.jpg,Heather,0,"""",0,61,1,4/21/2021 11:06,72.135.229.130,Mozilla/5.0 (Windows NT 10.0; Win64; x64; rv:87.0) Gecko/20100101 Firefox/87.0,,Firefox,87,Windows,10
84,1,null,"""",html-keyboard-response,183,451602,0.0-183.0,"""","<div style=""font-size:60px;"">+</div>","""",256,ITI,Test,null,1000,"""","""","""","""","""","""","""","""",1,4/21/2021 11:06,72.135.229.130,Mozilla/5.0 (Windows NT 10.0; Win64; x64; rv:87.0) Gecko/20100101 Firefox/87.0,,Firefox,87,Windows,10
84,1,null,"""",image-keyboard-response,184,451863,0.0-184.0,"""",jspsych/scrambledDisgustFaces/scrambledAM29DIS.JPG,"""",256,forwardMask,Test,null,250,"""",d,"""","""","""","""","""","""",1,4/21/2021 11:06,72.135.229.130,Mozilla/5.0 (Windows NT 10.0; Win64; x64; rv:87.0) Gecko/20100101 Firefox/87.0,,Firefox,87,Windows,10
84,1,null,"""",image-keyboard-response,185,451902,0.0-185.0,"""",jspsych/disgustFaces/AM29DIS.JPG,"""",256,Cue,Test,null,16,"""","""","""","""","""","""","""","""",1,4/21/2021 11:06,72.135.229.130,Mozilla/5.0 (Windows NT 10.0; Win64; x64; rv:87.0) Gecko/20100101 Firefox/87.0,,Firefox,87,Windows,10
84,1,null,"""",image-keyboard-response,186,452023,0.0-186.0,"""",jspsych/neutralFaces/BM08NES.JPG,"""",256,backwardMask,Test,null,100,"""","""","""","""","""","""","""","""",1,4/21/2021 11:06,72.135.229.130,Mozilla/5.0 (Windows NT 10.0; Win64; x64; rv:87.0) Gecko/20100101 Firefox/87.0,,Firefox,87,Windows,10
84,1,null,"""",html-keyboard-response,187,453042,0.0-187.0,"""","<div style=""font-size:60px;"">+</div>","""",256,fixationBtwnNeutralMaskAndPrompt,Test,null,1000,"""","""","""","""","""","""","""","""",1,4/21/2021 11:06,72.135.229.130,Mozilla/5.0 (Windows NT 10.0; Win64; x64; rv:87.0) Gecko/20100101 Firefox/87.0,,Firefox,87,Windows,10
84,1,2086,"""",html-button-response,188,455130,0.0-188.0,"""","<img src='jspsych/CFDfaces/CFD-AM-230-150-N.jpg' height=""250px"">,</br><b>Daniel</b>",0,256,IntactOrRearranged,Test,"""","""","""","""",CFD-LM-213-061-N.jpg,Timothy,1,0,"""","""",1,4/21/2021 11:06,72.135.229.130,Mozilla/5.0 (Windows NT 10.0; Win64; x64; rv:87.0) Gecko/20100101 Firefox/87.0,,Firefox,87,Windows,10
84,1,2487,"""",html-slider-response,189,457618,0.0-189.0,"""","<img src='jspsych/CFDfaces/CFD-AM-230-150-N.jpg' height=""250px"">,</br><b>Daniel</b>","""",256,ConfidenceQuery,Test,"""","""","""","""",CFD-LM-213-061-N.jpg,Timothy,1,"""",0,41,1,4/21/2021 11:06,72.135.229.130,Mozilla/5.0 (Windows NT 10.0; Win64; x64; rv:87.0) Gecko/20100101 Firefox/87.0,,Firefox,87,Windows,10
84,1,null,"""",html-keyboard-response,190,458620,0.0-190.0,"""","<div style=""font-size:60px;"">+</div>","""",256,ITI,Test,null,1000,"""","""","""","""","""","""","""","""",1,4/21/2021 11:06,72.135.229.130,Mozilla/5.0 (Windows NT 10.0; Win64; x64; rv:87.0) Gecko/20100101 Firefox/87.0,,Firefox,87,Windows,10
84,1,null,"""",image-keyboard-response,191,458877,0.0-191.0,"""",jspsych/scrambledDisgustFaces/scrambledBF24DIS.JPG,"""",256,forwardMask,Test,null,250,"""",d,"""","""","""","""","""","""",1,4/21/2021 11:06,72.135.229.130,Mozilla/5.0 (Windows NT 10.0; Win64; x64; rv:87.0) Gecko/20100101 Firefox/87.0,,Firefox,87,Windows,10
84,1,null,"""",image-keyboard-response,192,458912,0.0-192.0,"""",jspsych/disgustFaces/BF24DIS.JPG,"""",256,Cue,Test,null,16,"""","""","""","""","""","""","""","""",1,4/21/2021 11:06,72.135.229.130,Mozilla/5.0 (Windows NT 10.0; Win64; x64; rv:87.0) Gecko/20100101 Firefox/87.0,,Firefox,87,Windows,10
84,1,null,"""",image-keyboard-response,193,459032,0.0-193.0,"""",jspsych/neutralFaces/BF30NES.JPG,"""",256,backwardMask,Test,null,100,"""","""","""","""","""","""","""","""",1,4/21/2021 11:06,72.135.229.130,Mozilla/5.0 (Windows NT 10.0; Win64; x64; rv:87.0) Gecko/20100101 Firefox/87.0,,Firefox,87,Windows,10
84,1,null,"""",html-keyboard-response,194,460053,0.0-194.0,"""","<div style=""font-size:60px;"">+</div>","""",256,fixationBtwnNeutralMaskAndPrompt,Test,null,1000,"""","""","""","""","""","""","""","""",1,4/21/2021 11:06,72.135.229.130,Mozilla/5.0 (Windows NT 10.0; Win64; x64; rv:87.0) Gecko/20100101 Firefox/87.0,,Firefox,87,Windows,10
84,1,3628,"""",html-button-response,195,463681,0.0-195.0,"""","<img src='jspsych/CFDfaces/CFD-AM-207-108-N.jpg' height=""250px"">,</br><b>Robert</b>",1,256,IntactOrRearranged,Test,"""","""","""","""",CFD-AF-243-170-N.jpg,Jordan,0,1,"""","""",1,4/21/2021 11:06,72.135.229.130,Mozilla/5.0 (Windows NT 10.0; Win64; x64; rv:87.0) Gecko/20100101 Firefox/87.0,,Firefox,87,Windows,10
84,1,1461,"""",html-slider-response,196,465146,0.0-196.0,"""","<img src='jspsych/CFDfaces/CFD-AM-207-108-N.jpg' height=""250px"">,</br><b>Robert</b>","""",256,ConfidenceQuery,Test,"""","""","""","""",CFD-AF-243-170-N.jpg,Jordan,0,"""",0,55,1,4/21/2021 11:06,72.135.229.130,Mozilla/5.0 (Windows NT 10.0; Win64; x64; rv:87.0) Gecko/20100101 Firefox/87.0,,Firefox,87,Windows,10
84,1,null,"""",html-keyboard-response,197,466162,0.0-197.0,"""","<div style=""font-size:60px;"">+</div>","""",256,ITI,Test,null,1000,"""","""","""","""","""","""","""","""",1,4/21/2021 11:06,72.135.229.130,Mozilla/5.0 (Windows NT 10.0; Win64; x64; rv:87.0) Gecko/20100101 Firefox/87.0,,Firefox,87,Windows,10
84,1,null,"""",image-keyboard-response,198,466432,0.0-198.0,"""",jspsych/scrambledDisgustFaces/scrambledBM27DIS.JPG,"""",256,forwardMask,Test,null,250,"""",d,"""","""","""","""","""","""",1,4/21/2021 11:06,72.135.229.130,Mozilla/5.0 (Windows NT 10.0; Win64; x64; rv:87.0) Gecko/20100101 Firefox/87.0,,Firefox,87,Windows,10
84,1,null,"""",image-keyboard-response,199,466472,0.0-199.0,"""",jspsych/disgustFaces/BM28DIS.JPG,"""",256,Cue,Test,null,16,"""","""","""","""","""","""","""","""",1,4/21/2021 11:06,72.135.229.130,Mozilla/5.0 (Windows NT 10.0; Win64; x64; rv:87.0) Gecko/20100101 Firefox/87.0,,Firefox,87,Windows,10
84,1,null,"""",image-keyboard-response,200,466590,0.0-200.0,"""",jspsych/neutralFaces/BM21NES.JPG,"""",256,backwardMask,Test,null,100,"""","""","""","""","""","""","""","""",1,4/21/2021 11:06,72.135.229.130,Mozilla/5.0 (Windows NT 10.0; Win64; x64; rv:87.0) Gecko/20100101 Firefox/87.0,,Firefox,87,Windows,10
84,1,null,"""",html-keyboard-response,201,467591,0.0-201.0,"""","<div style=""font-size:60px;"">+</div>","""",256,fixationBtwnNeutralMaskAndPrompt,Test,null,1000,"""","""","""","""","""","""","""","""",1,4/21/2021 11:06,72.135.229.130,Mozilla/5.0 (Windows NT 10.0; Win64; x64; rv:87.0) Gecko/20100101 Firefox/87.0,,Firefox,87,Windows,10
84,1,3169,"""",html-button-response,202,470762,0.0-202.0,"""","<img src='jspsych/CFDfaces/CFD-AM-243-212-N.jpg' height=""250px"">,</br><b>Gregory</b>",1,256,IntactOrRearranged,Test,"""","""","""","""",CFD-AF-242-158-N.jpg,Jenna,1,1,"""","""",1,4/21/2021 11:06,72.135.229.130,Mozilla/5.0 (Windows NT 10.0; Win64; x64; rv:87.0) Gecko/20100101 Firefox/87.0,,Firefox,87,Windows,10
84,1,1167,"""",html-slider-response,203,471929,0.0-203.0,"""","<img src='jspsych/CFDfaces/CFD-AM-243-212-N.jpg' height=""250px"">,</br><b>Gregory</b>","""",256,ConfidenceQuery,Test,"""","""","""","""",CFD-AF-242-158-N.jpg,Jenna,1,"""",0,95,1,4/21/2021 11:06,72.135.229.130,Mozilla/5.0 (Windows NT 10.0; Win64; x64; rv:87.0) Gecko/20100101 Firefox/87.0,,Firefox,87,Windows,10
84,1,null,"""",html-keyboard-response,204,472941,0.0-204.0,"""","<div style=""font-size:60px;"">+</div>","""",256,ITI,Test,null,1000,"""","""","""","""","""","""","""","""",1,4/21/2021 11:06,72.135.229.130,Mozilla/5.0 (Windows NT 10.0; Win64; x64; rv:87.0) Gecko/20100101 Firefox/87.0,,Firefox,87,Windows,10
84,1,null,"""",image-keyboard-response,205,473203,0.0-205.0,"""",jspsych/scrambledDisgustFaces/scrambledAF25DIS.JPG,"""",256,forwardMask,Test,null,250,"""",d,"""","""","""","""","""","""",1,4/21/2021 11:06,72.135.229.130,Mozilla/5.0 (Windows NT 10.0; Win64; x64; rv:87.0) Gecko/20100101 Firefox/87.0,,Firefox,87,Windows,10
84,1,null,"""",image-keyboard-response,206,473222,0.0-206.0,"""",jspsych/disgustFaces/AF25DIS.JPG,"""",256,Cue,Test,null,16,"""","""","""","""","""","""","""","""",1,4/21/2021 11:06,72.135.229.130,Mozilla/5.0 (Windows NT 10.0; Win64; x64; rv:87.0) Gecko/20100101 Firefox/87.0,,Firefox,87,Windows,10
84,1,null,"""",image-keyboard-response,207,473343,0.0-207.0,"""",jspsych/neutralFaces/BF05NES.JPG,"""",256,backwardMask,Test,null,100,"""","""","""","""","""","""","""","""",1,4/21/2021 11:06,72.135.229.130,Mozilla/5.0 (Windows NT 10.0; Win64; x64; rv:87.0) Gecko/20100101 Firefox/87.0,,Firefox,87,Windows,10
84,1,null,"""",html-keyboard-response,208,474362,0.0-208.0,"""","<div style=""font-size:60px;"">+</div>","""",256,fixationBtwnNeutralMaskAndPrompt,Test,null,1000,"""","""","""","""","""","""","""","""",1,4/21/2021 11:06,72.135.229.130,Mozilla/5.0 (Windows NT 10.0; Win64; x64; rv:87.0) Gecko/20100101 Firefox/87.0,,Firefox,87,Windows,10
84,1,3609,"""",html-button-response,209,477978,0.0-209.0,"""","<img src='jspsych/CFDfaces/CFD-AF-208-003-N.jpg' height=""250px"">,</br><b>Vanessa</b>",0,256,IntactOrRearranged,Test,"""","""","""","""",CFD-BM-001-014-N.jpg,Vincent,0,0,"""","""",1,4/21/2021 11:06,72.135.229.130,Mozilla/5.0 (Windows NT 10.0; Win64; x64; rv:87.0) Gecko/20100101 Firefox/87.0,,Firefox,87,Windows,10
84,1,1302,"""",html-slider-response,210,479282,0.0-210.0,"""","<img src='jspsych/CFDfaces/CFD-AF-208-003-N.jpg' height=""250px"">,</br><b>Vanessa</b>","""",256,ConfidenceQuery,Test,"""","""","""","""",CFD-BM-001-014-N.jpg,Vincent,0,"""",0,47,1,4/21/2021 11:06,72.135.229.130,Mozilla/5.0 (Windows NT 10.0; Win64; x64; rv:87.0) Gecko/20100101 Firefox/87.0,,Firefox,87,Windows,10
84,1,null,"""",html-keyboard-response,211,480302,0.0-211.0,"""","<div style=""font-size:60px;"">+</div>","""",256,ITI,Test,null,1000,"""","""","""","""","""","""","""","""",1,4/21/2021 11:06,72.135.229.130,Mozilla/5.0 (Windows NT 10.0; Win64; x64; rv:87.0) Gecko/20100101 Firefox/87.0,,Firefox,87,Windows,10
84,1,null,"""",image-keyboard-response,212,480563,0.0-212.0,"""",jspsych/scrambledDisgustFaces/scrambledBF14DIS.JPG,"""",256,forwardMask,Test,null,250,"""",d,"""","""","""","""","""","""",1,4/21/2021 11:06,72.135.229.130,Mozilla/5.0 (Windows NT 10.0; Win64; x64; rv:87.0) Gecko/20100101 Firefox/87.0,,Firefox,87,Windows,10
84,1,null,"""",image-keyboard-response,213,480603,0.0-213.0,"""",jspsych/disgustFaces/BF14DIS.JPG,"""",256,Cue,Test,null,16,"""","""","""","""","""","""","""","""",1,4/21/2021 11:06,72.135.229.130,Mozilla/5.0 (Windows NT 10.0; Win64; x64; rv:87.0) Gecko/20100101 Firefox/87.0,,Firefox,87,Windows,10
84,1,null,"""",image-keyboard-response,214,480723,0.0-214.0,"""",jspsych/neutralFaces/AF02NES.JPG,"""",256,backwardMask,Test,null,100,"""","""","""","""","""","""","""","""",1,4/21/2021 11:06,72.135.229.130,Mozilla/5.0 (Windows NT 10.0; Win64; x64; rv:87.0) Gecko/20100101 Firefox/87.0,,Firefox,87,Windows,10
84,1,null,"""",html-keyboard-response,215,481743,0.0-215.0,"""","<div style=""font-size:60px;"">+</div>","""",256,fixationBtwnNeutralMaskAndPrompt,Test,null,1000,"""","""","""","""","""","""","""","""",1,4/21/2021 11:06,72.135.229.130,Mozilla/5.0 (Windows NT 10.0; Win64; x64; rv:87.0) Gecko/20100101 Firefox/87.0,,Firefox,87,Windows,10
84,1,2370,"""",html-button-response,216,484114,0.0-216.0,"""","<img src='jspsych/CFDfaces/CFD-LF-220-120-N.jpg' height=""250px"">,</br><b>Samantha</b>",0,256,IntactOrRearranged,Test,"""","""","""","""",CFD-AM-211-052-N.jpg,Luis,0,0,"""","""",1,4/21/2021 11:06,72.135.229.130,Mozilla/5.0 (Windows NT 10.0; Win64; x64; rv:87.0) Gecko/20100101 Firefox/87.0,,Firefox,87,Windows,10
84,1,1997,"""",html-slider-response,217,486114,0.0-217.0,"""","<img src='jspsych/CFDfaces/CFD-LF-220-120-N.jpg' height=""250px"">,</br><b>Samantha</b>","""",256,ConfidenceQuery,Test,"""","""","""","""",CFD-AM-211-052-N.jpg,Luis,0,"""",0,100,1,4/21/2021 11:06,72.135.229.130,Mozilla/5.0 (Windows NT 10.0; Win64; x64; rv:87.0) Gecko/20100101 Firefox/87.0,,Firefox,87,Windows,10
84,1,null,"""",html-keyboard-response,218,487120,0.0-218.0,"""","<div style=""font-size:60px;"">+</div>","""",256,ITI,Test,null,1000,"""","""","""","""","""","""","""","""",1,4/21/2021 11:06,72.135.229.130,Mozilla/5.0 (Windows NT 10.0; Win64; x64; rv:87.0) Gecko/20100101 Firefox/87.0,,Firefox,87,Windows,10
84,1,null,"""",image-keyboard-response,219,487382,0.0-219.0,"""",jspsych/scrambledDisgustFaces/scrambledAM08DIS.JPG,"""",256,forwardMask,Test,null,250,"""",d,"""","""","""","""","""","""",1,4/21/2021 11:06,72.135.229.130,Mozilla/5.0 (Windows NT 10.0; Win64; x64; rv:87.0) Gecko/20100101 Firefox/87.0,,Firefox,87,Windows,10
84,1,null,"""",image-keyboard-response,220,487422,0.0-220.0,"""",jspsych/disgustFaces/AM08DIS.JPG,"""",256,Cue,Test,null,16,"""","""","""","""","""","""","""","""",1,4/21/2021 11:06,72.135.229.130,Mozilla/5.0 (Windows NT 10.0; Win64; x64; rv:87.0) Gecko/20100101 Firefox/87.0,,Firefox,87,Windows,10
84,1,null,"""",image-keyboard-response,221,487543,0.0-221.0,"""",jspsych/neutralFaces/AM31NES.JPG,"""",256,backwardMask,Test,null,100,"""","""","""","""","""","""","""","""",1,4/21/2021 11:06,72.135.229.130,Mozilla/5.0 (Windows NT 10.0; Win64; x64; rv:87.0) Gecko/20100101 Firefox/87.0,,Firefox,87,Windows,10
84,1,null,"""",html-keyboard-response,222,488563,0.0-222.0,"""","<div style=""font-size:60px;"">+</div>","""",256,fixationBtwnNeutralMaskAndPrompt,Test,null,1000,"""","""","""","""","""","""","""","""",1,4/21/2021 11:06,72.135.229.130,Mozilla/5.0 (Windows NT 10.0; Win64; x64; rv:87.0) Gecko/20100101 Firefox/87.0,,Firefox,87,Windows,10
84,1,2093,"""",html-button-response,223,490657,0.0-223.0,"""","<img src='jspsych/CFDfaces/CFD-AM-221-184-N.jpg' height=""250px"">,</br><b>Brandon</b>",1,256,IntactOrRearranged,Test,"""","""","""","""",CFD-AF-201-060-N.jpg,Lindsey,0,1,"""","""",1,4/21/2021 11:06,72.135.229.130,Mozilla/5.0 (Windows NT 10.0; Win64; x64; rv:87.0) Gecko/20100101 Firefox/87.0,,Firefox,87,Windows,10
84,1,1055,"""",html-slider-response,224,491714,0.0-224.0,"""","<img src='jspsych/CFDfaces/CFD-AM-221-184-N.jpg' height=""250px"">,</br><b>Brandon</b>","""",256,ConfidenceQuery,Test,"""","""","""","""",CFD-AF-201-060-N.jpg,Lindsey,0,"""",0,47,1,4/21/2021 11:06,72.135.229.130,Mozilla/5.0 (Windows NT 10.0; Win64; x64; rv:87.0) Gecko/20100101 Firefox/87.0,,Firefox,87,Windows,10
84,1,null,"""",html-keyboard-response,225,492722,0.0-225.0,"""","<div style=""font-size:60px;"">+</div>","""",256,ITI,Test,null,1000,"""","""","""","""","""","""","""","""",1,4/21/2021 11:06,72.135.229.130,Mozilla/5.0 (Windows NT 10.0; Win64; x64; rv:87.0) Gecko/20100101 Firefox/87.0,,Firefox,87,Windows,10
84,1,null,"""",image-keyboard-response,226,492983,0.0-226.0,"""",jspsych/scrambledNeutralFaces/scrambledBF09NES.JPG,"""",256,forwardMask,Test,null,250,"""",n,"""","""","""","""","""","""",1,4/21/2021 11:06,72.135.229.130,Mozilla/5.0 (Windows NT 10.0; Win64; x64; rv:87.0) Gecko/20100101 Firefox/87.0,,Firefox,87,Windows,10
84,1,null,"""",image-keyboard-response,227,493016,0.0-227.0,"""",jspsych/neutralFaces/BF09NES.JPG,"""",256,Cue,Test,null,16,"""","""","""","""","""","""","""","""",1,4/21/2021 11:06,72.135.229.130,Mozilla/5.0 (Windows NT 10.0; Win64; x64; rv:87.0) Gecko/20100101 Firefox/87.0,,Firefox,87,Windows,10
84,1,null,"""",image-keyboard-response,228,493122,0.0-228.0,"""",jspsych/neutralFaces/AF30NES.JPG,"""",256,backwardMask,Test,null,100,"""","""","""","""","""","""","""","""",1,4/21/2021 11:06,72.135.229.130,Mozilla/5.0 (Windows NT 10.0; Win64; x64; rv:87.0) Gecko/20100101 Firefox/87.0,,Firefox,87,Windows,10
84,1,null,"""",html-keyboard-response,229,494127,0.0-229.0,"""","<div style=""font-size:60px;"">+</div>","""",256,fixationBtwnNeutralMaskAndPrompt,Test,null,1000,"""","""","""","""","""","""","""","""",1,4/21/2021 11:06,72.135.229.130,Mozilla/5.0 (Windows NT 10.0; Win64; x64; rv:87.0) Gecko/20100101 Firefox/87.0,,Firefox,87,Windows,10
84,1,1577,"""",html-button-response,230,495705,0.0-230.0,"""","<img src='jspsych/CFDfaces/CFD-BF-209-172-N.jpg' height=""250px"">,</br><b>Christina</b>",0,256,IntactOrRearranged,Test,"""","""","""","""",CFD-WM-215-041-N.jpg,Justin,1,0,"""","""",1,4/21/2021 11:06,72.135.229.130,Mozilla/5.0 (Windows NT 10.0; Win64; x64; rv:87.0) Gecko/20100101 Firefox/87.0,,Firefox,87,Windows,10
84,1,1183,"""",html-slider-response,231,496890,0.0-231.0,"""","<img src='jspsych/CFDfaces/CFD-BF-209-172-N.jpg' height=""250px"">,</br><b>Christina</b>","""",256,ConfidenceQuery,Test,"""","""","""","""",CFD-WM-215-041-N.jpg,Justin,1,"""",0,59,1,4/21/2021 11:06,72.135.229.130,Mozilla/5.0 (Windows NT 10.0; Win64; x64; rv:87.0) Gecko/20100101 Firefox/87.0,,Firefox,87,Windows,10
84,1,null,"""",html-keyboard-response,232,497903,0.0-232.0,"""","<div style=""font-size:60px;"">+</div>","""",256,ITI,Test,null,1000,"""","""","""","""","""","""","""","""",1,4/21/2021 11:06,72.135.229.130,Mozilla/5.0 (Windows NT 10.0; Win64; x64; rv:87.0) Gecko/20100101 Firefox/87.0,,Firefox,87,Windows,10
84,1,null,"""",image-keyboard-response,233,498162,0.0-233.0,"""",jspsych/scrambledDisgustFaces/scrambledAF13DIS.JPG,"""",256,forwardMask,Test,null,250,"""",d,"""","""","""","""","""","""",1,4/21/2021 11:06,72.135.229.130,Mozilla/5.0 (Windows NT 10.0; Win64; x64; rv:87.0) Gecko/20100101 Firefox/87.0,,Firefox,87,Windows,10
84,1,null,"""",image-keyboard-response,234,498182,0.0-234.0,"""",jspsych/disgustFaces/AF13DIS.JPG,"""",256,Cue,Test,null,16,"""","""","""","""","""","""","""","""",1,4/21/2021 11:06,72.135.229.130,Mozilla/5.0 (Windows NT 10.0; Win64; x64; rv:87.0) Gecko/20100101 Firefox/87.0,,Firefox,87,Windows,10
84,1,null,"""",image-keyboard-response,235,498302,0.0-235.0,"""",jspsych/neutralFaces/AF03NES.JPG,"""",256,backwardMask,Test,null,100,"""","""","""","""","""","""","""","""",1,4/21/2021 11:06,72.135.229.130,Mozilla/5.0 (Windows NT 10.0; Win64; x64; rv:87.0) Gecko/20100101 Firefox/87.0,,Firefox,87,Windows,10
84,1,null,"""",html-keyboard-response,236,499322,0.0-236.0,"""","<div style=""font-size:60px;"">+</div>","""",256,fixationBtwnNeutralMaskAndPrompt,Test,null,1000,"""","""","""","""","""","""","""","""",1,4/21/2021 11:06,72.135.229.130,Mozilla/5.0 (Windows NT 10.0; Win64; x64; rv:87.0) Gecko/20100101 Firefox/87.0,,Firefox,87,Windows,10
84,1,3718,"""",html-button-response,237,503042,0.0-237.0,"""","<img src='jspsych/CFDfaces/CFD-WF-024-003-N.jpg' height=""250px"">,</br><b>Ashley</b>",1,256,IntactOrRearranged,Test,"""","""","""","""",CFD-BF-222-240-N.jpg,Whitney,1,1,"""","""",1,4/21/2021 11:06,72.135.229.130,Mozilla/5.0 (Windows NT 10.0; Win64; x64; rv:87.0) Gecko/20100101 Firefox/87.0,,Firefox,87,Windows,10
84,1,2198,"""",html-slider-response,238,505242,0.0-238.0,"""","<img src='jspsych/CFDfaces/CFD-WF-024-003-N.jpg' height=""250px"">,</br><b>Ashley</b>","""",256,ConfidenceQuery,Test,"""","""","""","""",CFD-BF-222-240-N.jpg,Whitney,1,"""",0,93,1,4/21/2021 11:06,72.135.229.130,Mozilla/5.0 (Windows NT 10.0; Win64; x64; rv:87.0) Gecko/20100101 Firefox/87.0,,Firefox,87,Windows,10
84,1,null,"""",html-keyboard-response,239,506262,0.0-239.0,"""","<div style=""font-size:60px;"">+</div>","""",256,ITI,Test,null,1000,"""","""","""","""","""","""","""","""",1,4/21/2021 11:06,72.135.229.130,Mozilla/5.0 (Windows NT 10.0; Win64; x64; rv:87.0) Gecko/20100101 Firefox/87.0,,Firefox,87,Windows,10
84,1,null,"""",image-keyboard-response,240,506522,0.0-240.0,"""",jspsych/scrambledDisgustFaces/scrambledBM02DIS.JPG,"""",256,forwardMask,Test,null,250,"""",d,"""","""","""","""","""","""",1,4/21/2021 11:06,72.135.229.130,Mozilla/5.0 (Windows NT 10.0; Win64; x64; rv:87.0) Gecko/20100101 Firefox/87.0,,Firefox,87,Windows,10
84,1,null,"""",image-keyboard-response,241,506562,0.0-241.0,"""",jspsych/disgustFaces/BM03DIS.JPG,"""",256,Cue,Test,null,16,"""","""","""","""","""","""","""","""",1,4/21/2021 11:06,72.135.229.130,Mozilla/5.0 (Windows NT 10.0; Win64; x64; rv:87.0) Gecko/20100101 Firefox/87.0,,Firefox,87,Windows,10
84,1,null,"""",image-keyboard-response,242,506678,0.0-242.0,"""",jspsych/neutralFaces/AM33NES.JPG,"""",256,backwardMask,Test,null,100,"""","""","""","""","""","""","""","""",1,4/21/2021 11:06,72.135.229.130,Mozilla/5.0 (Windows NT 10.0; Win64; x64; rv:87.0) Gecko/20100101 Firefox/87.0,,Firefox,87,Windows,10
84,1,null,"""",html-keyboard-response,243,507693,0.0-243.0,"""","<div style=""font-size:60px;"">+</div>","""",256,fixationBtwnNeutralMaskAndPrompt,Test,null,1000,"""","""","""","""","""","""","""","""",1,4/21/2021 11:06,72.135.229.130,Mozilla/5.0 (Windows NT 10.0; Win64; x64; rv:87.0) Gecko/20100101 Firefox/87.0,,Firefox,87,Windows,10
84,1,2084,"""",html-button-response,244,509777,0.0-244.0,"""","<img src='jspsych/CFDfaces/CFD-WF-215-145-N.jpg' height=""250px"">,</br><b>Emily</b>",0,256,IntactOrRearranged,Test,"""","""","""","""",CFD-BM-032-024-N.jpg,Kenneth,1,0,"""","""",1,4/21/2021 11:06,72.135.229.130,Mozilla/5.0 (Windows NT 10.0; Win64; x64; rv:87.0) Gecko/20100101 Firefox/87.0,,Firefox,87,Windows,10
84,1,1599,"""",html-slider-response,245,511378,0.0-245.0,"""","<img src='jspsych/CFDfaces/CFD-WF-215-145-N.jpg' height=""250px"">,</br><b>Emily</b>","""",256,ConfidenceQuery,Test,"""","""","""","""",CFD-BM-032-024-N.jpg,Kenneth,1,"""",0,50,1,4/21/2021 11:06,72.135.229.130,Mozilla/5.0 (Windows NT 10.0; Win64; x64; rv:87.0) Gecko/20100101 Firefox/87.0,,Firefox,87,Windows,10
84,1,null,"""",html-keyboard-response,246,512392,0.0-246.0,"""","<div style=""font-size:60px;"">+</div>","""",256,ITI,Test,null,1000,"""","""","""","""","""","""","""","""",1,4/21/2021 11:06,72.135.229.130,Mozilla/5.0 (Windows NT 10.0; Win64; x64; rv:87.0) Gecko/20100101 Firefox/87.0,,Firefox,87,Windows,10
84,1,null,"""",image-keyboard-response,247,512653,0.0-247.0,"""",jspsych/scrambledDisgustFaces/scrambledBM16DIS.JPG,"""",256,forwardMask,Test,null,250,"""",d,"""","""","""","""","""","""",1,4/21/2021 11:06,72.135.229.130,Mozilla/5.0 (Windows NT 10.0; Win64; x64; rv:87.0) Gecko/20100101 Firefox/87.0,,Firefox,87,Windows,10
84,1,null,"""",image-keyboard-response,248,512693,0.0-248.0,"""",jspsych/disgustFaces/BM17DIS.JPG,"""",256,Cue,Test,null,16,"""","""","""","""","""","""","""","""",1,4/21/2021 11:06,72.135.229.130,Mozilla/5.0 (Windows NT 10.0; Win64; x64; rv:87.0) Gecko/20100101 Firefox/87.0,,Firefox,87,Windows,10
84,1,null,"""",image-keyboard-response,249,512813,0.0-249.0,"""",jspsych/neutralFaces/BM04NES.JPG,"""",256,backwardMask,Test,null,100,"""","""","""","""","""","""","""","""",1,4/21/2021 11:06,72.135.229.130,Mozilla/5.0 (Windows NT 10.0; Win64; x64; rv:87.0) Gecko/20100101 Firefox/87.0,,Firefox,87,Windows,10
84,1,null,"""",html-keyboard-response,250,513833,0.0-250.0,"""","<div style=""font-size:60px;"">+</div>","""",256,fixationBtwnNeutralMaskAndPrompt,Test,null,1000,"""","""","""","""","""","""","""","""",1,4/21/2021 11:06,72.135.229.130,Mozilla/5.0 (Windows NT 10.0; Win64; x64; rv:87.0) Gecko/20100101 Firefox/87.0,,Firefox,87,Windows,10
84,1,2505,"""",html-button-response,251,516338,0.0-251.0,"""","<img src='jspsych/CFDfaces/CFD-BM-027-001-N.jpg' height=""250px"">,</br><b>Richard</b>",1,256,IntactOrRearranged,Test,"""","""","""","""",CFD-BM-210-148-N.jpg,Jacob,1,1,"""","""",1,4/21/2021 11:06,72.135.229.130,Mozilla/5.0 (Windows NT 10.0; Win64; x64; rv:87.0) Gecko/20100101 Firefox/87.0,,Firefox,87,Windows,10
84,1,2037,"""",html-slider-response,252,518378,0.0-252.0,"""","<img src='jspsych/CFDfaces/CFD-BM-027-001-N.jpg' height=""250px"">,</br><b>Richard</b>","""",256,ConfidenceQuery,Test,"""","""","""","""",CFD-BM-210-148-N.jpg,Jacob,1,"""",0,92,1,4/21/2021 11:06,72.135.229.130,Mozilla/5.0 (Windows NT 10.0; Win64; x64; rv:87.0) Gecko/20100101 Firefox/87.0,,Firefox,87,Windows,10
84,1,null,"""",html-keyboard-response,253,519402,0.0-253.0,"""","<div style=""font-size:60px;"">+</div>","""",256,ITI,Test,null,1000,"""","""","""","""","""","""","""","""",1,4/21/2021 11:06,72.135.229.130,Mozilla/5.0 (Windows NT 10.0; Win64; x64; rv:87.0) Gecko/20100101 Firefox/87.0,,Firefox,87,Windows,10
84,1,null,"""",image-keyboard-response,254,519663,0.0-254.0,"""",jspsych/scrambledNeutralFaces/scrambledBF30NES.JPG,"""",256,forwardMask,Test,null,250,"""",n,"""","""","""","""","""","""",1,4/21/2021 11:06,72.135.229.130,Mozilla/5.0 (Windows NT 10.0; Win64; x64; rv:87.0) Gecko/20100101 Firefox/87.0,,Firefox,87,Windows,10
84,1,null,"""",image-keyboard-response,255,519683,0.0-255.0,"""",jspsych/neutralFaces/BF30NES.JPG,"""",256,Cue,Test,null,16,"""","""","""","""","""","""","""","""",1,4/21/2021 11:06,72.135.229.130,Mozilla/5.0 (Windows NT 10.0; Win64; x64; rv:87.0) Gecko/20100101 Firefox/87.0,,Firefox,87,Windows,10
84,1,null,"""",image-keyboard-response,256,519792,0.0-256.0,"""",jspsych/neutralFaces/BF32NES.JPG,"""",256,backwardMask,Test,null,100,"""","""","""","""","""","""","""","""",1,4/21/2021 11:06,72.135.229.130,Mozilla/5.0 (Windows NT 10.0; Win64; x64; rv:87.0) Gecko/20100101 Firefox/87.0,,Firefox,87,Windows,10
84,1,null,"""",html-keyboard-response,257,520803,0.0-257.0,"""","<div style=""font-size:60px;"">+</div>","""",256,fixationBtwnNeutralMaskAndPrompt,Test,null,1000,"""","""","""","""","""","""","""","""",1,4/21/2021 11:06,72.135.229.130,Mozilla/5.0 (Windows NT 10.0; Win64; x64; rv:87.0) Gecko/20100101 Firefox/87.0,,Firefox,87,Windows,10
84,1,1933,"""",html-button-response,258,522738,0.0-258.0,"""","<img src='jspsych/CFDfaces/CFD-AM-242-176-N.jpg' height=""250px"">,</br><b>Brian</b>",0,256,IntactOrRearranged,Test,"""","""","""","""",CFD-BM-205-001-N.jpg,Mark,0,0,"""","""",1,4/21/2021 11:06,72.135.229.130,Mozilla/5.0 (Windows NT 10.0; Win64; x64; rv:87.0) Gecko/20100101 Firefox/87.0,,Firefox,87,Windows,10
84,1,1015,"""",html-slider-response,259,523755,0.0-259.0,"""","<img src='jspsych/CFDfaces/CFD-AM-242-176-N.jpg' height=""250px"">,</br><b>Brian</b>","""",256,ConfidenceQuery,Test,"""","""","""","""",CFD-BM-205-001-N.jpg,Mark,0,"""",0,45,1,4/21/2021 11:06,72.135.229.130,Mozilla/5.0 (Windows NT 10.0; Win64; x64; rv:87.0) Gecko/20100101 Firefox/87.0,,Firefox,87,Windows,10
84,1,null,"""",html-keyboard-response,260,524773,0.0-260.0,"""","<div style=""font-size:60px;"">+</div>","""",256,ITI,Test,null,1000,"""","""","""","""","""","""","""","""",1,4/21/2021 11:06,72.135.229.130,Mozilla/5.0 (Windows NT 10.0; Win64; x64; rv:87.0) Gecko/20100101 Firefox/87.0,,Firefox,87,Windows,10
84,1,null,"""",image-keyboard-response,261,525033,0.0-261.0,"""",jspsych/scrambledNeutralFaces/scrambledBF24NES.JPG,"""",256,forwardMask,Test,null,250,"""",n,"""","""","""","""","""","""",1,4/21/2021 11:06,72.135.229.130,Mozilla/5.0 (Windows NT 10.0; Win64; x64; rv:87.0) Gecko/20100101 Firefox/87.0,,Firefox,87,Windows,10
84,1,null,"""",image-keyboard-response,262,525072,0.0-262.0,"""",jspsych/neutralFaces/BF24NES.JPG,"""",256,Cue,Test,null,16,"""","""","""","""","""","""","""","""",1,4/21/2021 11:06,72.135.229.130,Mozilla/5.0 (Windows NT 10.0; Win64; x64; rv:87.0) Gecko/20100101 Firefox/87.0,,Firefox,87,Windows,10
84,1,null,"""",image-keyboard-response,263,525192,0.0-263.0,"""",jspsych/neutralFaces/AF16NES.JPG,"""",256,backwardMask,Test,null,100,"""","""","""","""","""","""","""","""",1,4/21/2021 11:06,72.135.229.130,Mozilla/5.0 (Windows NT 10.0; Win64; x64; rv:87.0) Gecko/20100101 Firefox/87.0,,Firefox,87,Windows,10
84,1,null,"""",html-keyboard-response,264,526212,0.0-264.0,"""","<div style=""font-size:60px;"">+</div>","""",256,fixationBtwnNeutralMaskAndPrompt,Test,null,1000,"""","""","""","""","""","""","""","""",1,4/21/2021 11:06,72.135.229.130,Mozilla/5.0 (Windows NT 10.0; Win64; x64; rv:87.0) Gecko/20100101 Firefox/87.0,,Firefox,87,Windows,10
84,1,2292,"""",html-button-response,265,528505,0.0-265.0,"""","<img src='jspsych/CFDfaces/CFD-BM-043-071-N.jpg' height=""250px"">,</br><b>Ian</b>",0,256,IntactOrRearranged,Test,"""","""","""","""",CFD-WF-038-021-N.jpg,Taylor,0,0,"""","""",1,4/21/2021 11:06,72.135.229.130,Mozilla/5.0 (Windows NT 10.0; Win64; x64; rv:87.0) Gecko/20100101 Firefox/87.0,,Firefox,87,Windows,10
84,1,1614,"""",html-slider-response,266,530121,0.0-266.0,"""","<img src='jspsych/CFDfaces/CFD-BM-043-071-N.jpg' height=""250px"">,</br><b>Ian</b>","""",256,ConfidenceQuery,Test,"""","""","""","""",CFD-WF-038-021-N.jpg,Taylor,0,"""",0,83,1,4/21/2021 11:06,72.135.229.130,Mozilla/5.0 (Windows NT 10.0; Win64; x64; rv:87.0) Gecko/20100101 Firefox/87.0,,Firefox,87,Windows,10
84,1,null,"""",html-keyboard-response,267,531142,0.0-267.0,"""","<div style=""font-size:60px;"">+</div>","""",256,ITI,Test,null,1000,"""","""","""","""","""","""","""","""",1,4/21/2021 11:06,72.135.229.130,Mozilla/5.0 (Windows NT 10.0; Win64; x64; rv:87.0) Gecko/20100101 Firefox/87.0,,Firefox,87,Windows,10
84,1,null,"""",image-keyboard-response,268,531402,0.0-268.0,"""",jspsych/scrambledNeutralFaces/scrambledBM16NES.JPG,"""",256,forwardMask,Test,null,250,"""",n,"""","""","""","""","""","""",1,4/21/2021 11:06,72.135.229.130,Mozilla/5.0 (Windows NT 10.0; Win64; x64; rv:87.0) Gecko/20100101 Firefox/87.0,,Firefox,87,Windows,10
84,1,null,"""",image-keyboard-response,269,531443,0.0-269.0,"""",jspsych/neutralFaces/BM16NES.JPG,"""",256,Cue,Test,null,16,"""","""","""","""","""","""","""","""",1,4/21/2021 11:06,72.135.229.130,Mozilla/5.0 (Windows NT 10.0; Win64; x64; rv:87.0) Gecko/20100101 Firefox/87.0,,Firefox,87,Windows,10
84,1,null,"""",image-keyboard-response,270,531563,0.0-270.0,"""",jspsych/neutralFaces/BM24NES.JPG,"""",256,backwardMask,Test,null,100,"""","""","""","""","""","""","""","""",1,4/21/2021 11:06,72.135.229.130,Mozilla/5.0 (Windows NT 10.0; Win64; x64; rv:87.0) Gecko/20100101 Firefox/87.0,,Firefox,87,Windows,10
84,1,null,"""",html-keyboard-response,271,532582,0.0-271.0,"""","<div style=""font-size:60px;"">+</div>","""",256,fixationBtwnNeutralMaskAndPrompt,Test,null,1000,"""","""","""","""","""","""","""","""",1,4/21/2021 11:06,72.135.229.130,Mozilla/5.0 (Windows NT 10.0; Win64; x64; rv:87.0) Gecko/20100101 Firefox/87.0,,Firefox,87,Windows,10
84,1,4346,"""",html-button-response,272,536930,0.0-272.0,"""","<img src='jspsych/CFDfaces/CFD-BF-201-080-N.jpg' height=""250px"">,</br><b>Amanda</b>",1,256,IntactOrRearranged,Test,"""","""","""","""",CFD-LM-217-162-N.jpg,Travis,1,1,"""","""",1,4/21/2021 11:06,72.135.229.130,Mozilla/5.0 (Windows NT 10.0; Win64; x64; rv:87.0) Gecko/20100101 Firefox/87.0,,Firefox,87,Windows,10
84,1,2155,"""",html-slider-response,273,539089,0.0-273.0,"""","<img src='jspsych/CFDfaces/CFD-BF-201-080-N.jpg' height=""250px"">,</br><b>Amanda</b>","""",256,ConfidenceQuery,Test,"""","""","""","""",CFD-LM-217-162-N.jpg,Travis,1,"""",0,78,1,4/21/2021 11:06,72.135.229.130,Mozilla/5.0 (Windows NT 10.0; Win64; x64; rv:87.0) Gecko/20100101 Firefox/87.0,,Firefox,87,Windows,10
84,1,null,"""",html-keyboard-response,274,540092,0.0-274.0,"""","<div style=""font-size:60px;"">+</div>","""",256,ITI,Test,null,1000,"""","""","""","""","""","""","""","""",1,4/21/2021 11:06,72.135.229.130,Mozilla/5.0 (Windows NT 10.0; Win64; x64; rv:87.0) Gecko/20100101 Firefox/87.0,,Firefox,87,Windows,10
84,1,null,"""",image-keyboard-response,275,540353,0.0-275.0,"""",jspsych/scrambledNeutralFaces/scrambledBM25NES.JPG,"""",256,forwardMask,Test,null,250,"""",n,"""","""","""","""","""","""",1,4/21/2021 11:06,72.135.229.130,Mozilla/5.0 (Windows NT 10.0; Win64; x64; rv:87.0) Gecko/20100101 Firefox/87.0,,Firefox,87,Windows,10
84,1,null,"""",image-keyboard-response,276,540393,0.0-276.0,"""",jspsych/neutralFaces/BM25NES.JPG,"""",256,Cue,Test,null,16,"""","""","""","""","""","""","""","""",1,4/21/2021 11:06,72.135.229.130,Mozilla/5.0 (Windows NT 10.0; Win64; x64; rv:87.0) Gecko/20100101 Firefox/87.0,,Firefox,87,Windows,10
84,1,null,"""",image-keyboard-response,277,540513,0.0-277.0,"""",jspsych/neutralFaces/AM06NES.JPG,"""",256,backwardMask,Test,null,100,"""","""","""","""","""","""","""","""",1,4/21/2021 11:06,72.135.229.130,Mozilla/5.0 (Windows NT 10.0; Win64; x64; rv:87.0) Gecko/20100101 Firefox/87.0,,Firefox,87,Windows,10
84,1,null,"""",html-keyboard-response,278,541532,0.0-278.0,"""","<div style=""font-size:60px;"">+</div>","""",256,fixationBtwnNeutralMaskAndPrompt,Test,null,1000,"""","""","""","""","""","""","""","""",1,4/21/2021 11:06,72.135.229.130,Mozilla/5.0 (Windows NT 10.0; Win64; x64; rv:87.0) Gecko/20100101 Firefox/87.0,,Firefox,87,Windows,10
84,1,1812,"""",html-button-response,279,543346,0.0-279.0,"""","<img src='jspsych/CFDfaces/CFD-LF-200-058-N.jpg' height=""250px"">,</br><b>Brittany</b>",0,256,IntactOrRearranged,Test,"""","""","""","""",CFD-AF-235-170-N.jpg,Melissa,0,0,"""","""",1,4/21/2021 11:06,72.135.229.130,Mozilla/5.0 (Windows NT 10.0; Win64; x64; rv:87.0) Gecko/20100101 Firefox/87.0,,Firefox,87,Windows,10
84,1,967,"""",html-slider-response,280,544314,0.0-280.0,"""","<img src='jspsych/CFDfaces/CFD-LF-200-058-N.jpg' height=""250px"">,</br><b>Brittany</b>","""",256,ConfidenceQuery,Test,"""","""","""","""",CFD-AF-235-170-N.jpg,Melissa,0,"""",0,51,1,4/21/2021 11:06,72.135.229.130,Mozilla/5.0 (Windows NT 10.0; Win64; x64; rv:87.0) Gecko/20100101 Firefox/87.0,,Firefox,87,Windows,10
84,1,null,"""",html-keyboard-response,281,545333,0.0-281.0,"""","<div style=""font-size:60px;"">+</div>","""",256,ITI,Test,null,1000,"""","""","""","""","""","""","""","""",1,4/21/2021 11:06,72.135.229.130,Mozilla/5.0 (Windows NT 10.0; Win64; x64; rv:87.0) Gecko/20100101 Firefox/87.0,,Firefox,87,Windows,10
84,1,null,"""",image-keyboard-response,282,545593,0.0-282.0,"""",jspsych/scrambledNeutralFaces/scrambledAM31NES.JPG,"""",256,forwardMask,Test,null,250,"""",n,"""","""","""","""","""","""",1,4/21/2021 11:06,72.135.229.130,Mozilla/5.0 (Windows NT 10.0; Win64; x64; rv:87.0) Gecko/20100101 Firefox/87.0,,Firefox,87,Windows,10
84,1,null,"""",image-keyboard-response,283,545613,0.0-283.0,"""",jspsych/neutralFaces/AM31NES.JPG,"""",256,Cue,Test,null,16,"""","""","""","""","""","""","""","""",1,4/21/2021 11:06,72.135.229.130,Mozilla/5.0 (Windows NT 10.0; Win64; x64; rv:87.0) Gecko/20100101 Firefox/87.0,,Firefox,87,Windows,10
84,1,null,"""",image-keyboard-response,284,545732,0.0-284.0,"""",jspsych/neutralFaces/AM02NES.JPG,"""",256,backwardMask,Test,null,100,"""","""","""","""","""","""","""","""",1,4/21/2021 11:06,72.135.229.130,Mozilla/5.0 (Windows NT 10.0; Win64; x64; rv:87.0) Gecko/20100101 Firefox/87.0,,Firefox,87,Windows,10
84,1,null,"""",html-keyboard-response,285,546753,0.0-285.0,"""","<div style=""font-size:60px;"">+</div>","""",256,fixationBtwnNeutralMaskAndPrompt,Test,null,1000,"""","""","""","""","""","""","""","""",1,4/21/2021 11:06,72.135.229.130,Mozilla/5.0 (Windows NT 10.0; Win64; x64; rv:87.0) Gecko/20100101 Firefox/87.0,,Firefox,87,Windows,10
84,1,2183,"""",html-button-response,286,548937,0.0-286.0,"""","<img src='jspsych/CFDfaces/CFD-BM-211-174-N.jpg' height=""250px"">,</br><b>Peter</b>",0,256,IntactOrRearranged,Test,"""","""","""","""",CFD-AF-241-141-N.jpg,Tiffany,0,0,"""","""",1,4/21/2021 11:06,72.135.229.130,Mozilla/5.0 (Windows NT 10.0; Win64; x64; rv:87.0) Gecko/20100101 Firefox/87.0,,Firefox,87,Windows,10
84,1,1597,"""",html-slider-response,287,550539,0.0-287.0,"""","<img src='jspsych/CFDfaces/CFD-BM-211-174-N.jpg' height=""250px"">,</br><b>Peter</b>","""",256,ConfidenceQuery,Test,"""","""","""","""",CFD-AF-241-141-N.jpg,Tiffany,0,"""",0,79,1,4/21/2021 11:06,72.135.229.130,Mozilla/5.0 (Windows NT 10.0; Win64; x64; rv:87.0) Gecko/20100101 Firefox/87.0,,Firefox,87,Windows,10
84,1,null,"""",html-keyboard-response,288,551553,0.0-288.0,"""","<div style=""font-size:60px;"">+</div>","""",256,ITI,Test,null,1000,"""","""","""","""","""","""","""","""",1,4/21/2021 11:06,72.135.229.130,Mozilla/5.0 (Windows NT 10.0; Win64; x64; rv:87.0) Gecko/20100101 Firefox/87.0,,Firefox,87,Windows,10
84,1,null,"""",image-keyboard-response,289,551809,0.0-289.0,"""",jspsych/scrambledNeutralFaces/scrambledAF30NES.JPG,"""",256,forwardMask,Test,null,250,"""",n,"""","""","""","""","""","""",1,4/21/2021 11:06,72.135.229.130,Mozilla/5.0 (Windows NT 10.0; Win64; x64; rv:87.0) Gecko/20100101 Firefox/87.0,,Firefox,87,Windows,10
84,1,null,"""",image-keyboard-response,290,551832,0.0-290.0,"""",jspsych/neutralFaces/AF30NES.JPG,"""",256,Cue,Test,null,16,"""","""","""","""","""","""","""","""",1,4/21/2021 11:06,72.135.229.130,Mozilla/5.0 (Windows NT 10.0; Win64; x64; rv:87.0) Gecko/20100101 Firefox/87.0,,Firefox,87,Windows,10
84,1,null,"""",image-keyboard-response,291,551952,0.0-291.0,"""",jspsych/neutralFaces/BF03NES.JPG,"""",256,backwardMask,Test,null,100,"""","""","""","""","""","""","""","""",1,4/21/2021 11:06,72.135.229.130,Mozilla/5.0 (Windows NT 10.0; Win64; x64; rv:87.0) Gecko/20100101 Firefox/87.0,,Firefox,87,Windows,10
84,1,null,"""",html-keyboard-response,292,552973,0.0-292.0,"""","<div style=""font-size:60px;"">+</div>","""",256,fixationBtwnNeutralMaskAndPrompt,Test,null,1000,"""","""","""","""","""","""","""","""",1,4/21/2021 11:06,72.135.229.130,Mozilla/5.0 (Windows NT 10.0; Win64; x64; rv:87.0) Gecko/20100101 Firefox/87.0,,Firefox,87,Windows,10
84,1,1444,"""",html-button-response,293,554418,0.0-293.0,"""","<img src='jspsych/CFDfaces/CFD-LM-248-089-N.jpg' height=""250px"">,</br><b>Juan</b>",0,256,IntactOrRearranged,Test,"""","""","""","""",CFD-AM-248-104-N.jpg,Cameron,0,0,"""","""",1,4/21/2021 11:06,72.135.229.130,Mozilla/5.0 (Windows NT 10.0; Win64; x64; rv:87.0) Gecko/20100101 Firefox/87.0,,Firefox,87,Windows,10
84,1,1230,"""",html-slider-response,294,555650,0.0-294.0,"""","<img src='jspsych/CFDfaces/CFD-LM-248-089-N.jpg' height=""250px"">,</br><b>Juan</b>","""",256,ConfidenceQuery,Test,"""","""","""","""",CFD-AM-248-104-N.jpg,Cameron,0,"""",0,86,1,4/21/2021 11:06,72.135.229.130,Mozilla/5.0 (Windows NT 10.0; Win64; x64; rv:87.0) Gecko/20100101 Firefox/87.0,,Firefox,87,Windows,10
84,1,null,"""",html-keyboard-response,295,556652,0.0-295.0,"""","<div style=""font-size:60px;"">+</div>","""",256,ITI,Test,null,1000,"""","""","""","""","""","""","""","""",1,4/21/2021 11:06,72.135.229.130,Mozilla/5.0 (Windows NT 10.0; Win64; x64; rv:87.0) Gecko/20100101 Firefox/87.0,,Firefox,87,Windows,10
