run_id,condition,rt,responses,trial_type,trial_index,time_elapsed,internal_node_id,question_order,stimulus,button_pressed,iTrial,Phase,ExperimentPhase,key_press,StimulusDurationSetting,CharacterResponse,correctResponse,Face,Name,rearranged,didSubjectEnterRearranged,slider_start,response,Block,recorded_at,ip,user_agent,device,browser,browser_version,platform,platform_version
5,1,6091,"{""Q0"":""AH7X1YWMNPEQ4""}",survey-text,0,6097,0.0-0.0,"""","""","""","""","""","""","""","""","""","""","""","""","""","""","""","""","""",4/18/2021 16:11,76.90.195.125,Mozilla/5.0 (Windows NT 10.0; Win64; x64; rv:87.0) Gecko/20100101 Firefox/87.0,,Firefox,87,Windows,10
5,1,2686,"{""Q0"":""42""}",survey-text,1,8799,0.0-1.0,"""","""","""","""","""","""","""","""","""","""","""","""","""","""","""","""","""",4/18/2021 16:11,76.90.195.125,Mozilla/5.0 (Windows NT 10.0; Win64; x64; rv:87.0) Gecko/20100101 Firefox/87.0,,Firefox,87,Windows,10
5,1,4532,"{""Q0"":""male"",""Q1"":""Not Hispanic/Latino"",""Q2"":""White or Caucasian""}",survey-multi-choice,2,13336,0.0-2.0,"[0,1,2]","""","""","""","""","""","""","""","""","""","""","""","""","""","""","""","""",4/18/2021 16:11,76.90.195.125,Mozilla/5.0 (Windows NT 10.0; Win64; x64; rv:87.0) Gecko/20100101 Firefox/87.0,,Firefox,87,Windows,10
5,1,10718,"""",image-button-response,3,24102,0.0-3.0,"""",directionsMemoryAssociation1.JPG,0,1,IntroDirections1,break,"""","""","""","""","""","""","""","""","""","""","""",4/18/2021 16:11,76.90.195.125,Mozilla/5.0 (Windows NT 10.0; Win64; x64; rv:87.0) Gecko/20100101 Firefox/87.0,,Firefox,87,Windows,10
5,1,13718,"""",image-button-response,4,37830,0.0-4.0,"""",directionsMemoryAssociation2.JPG,0,1,IntroDirections2,break,"""","""","""","""","""","""","""","""","""","""","""",4/18/2021 16:11,76.90.195.125,Mozilla/5.0 (Windows NT 10.0; Win64; x64; rv:87.0) Gecko/20100101 Firefox/87.0,,Firefox,87,Windows,10
5,1,null,"""",html-keyboard-response,5,42846,0.0-5.0,"""","<img src='jspsych/CFDfaces/CFD-WM-237-052-N.jpg' height=""250px"">,</br><b>Patrick</b>","""",1,IntactFace,Practice,null,5000,"""","""","""","""","""","""","""","""","""",4/18/2021 16:11,76.90.195.125,Mozilla/5.0 (Windows NT 10.0; Win64; x64; rv:87.0) Gecko/20100101 Firefox/87.0,,Firefox,87,Windows,10
5,1,null,"""",html-keyboard-response,6,43365,0.0-6.0,"""","<div style=""font-size:60px;"">+</div>","""",1,ITI,Practice,null,1000,"""","""","""","""","""","""","""","""","""",4/18/2021 16:11,76.90.195.125,Mozilla/5.0 (Windows NT 10.0; Win64; x64; rv:87.0) Gecko/20100101 Firefox/87.0,,Firefox,87,Windows,10
5,1,2260,"""",html-keyboard-response,7,48375,0.0-7.0,"""","<img src='jspsych/CFDfaces/CFD-BM-026-002-N.jpg' height=""250px"">,</br><b>Carlos</b>","""",2,IntactFace,Practice,70,5000,f,"""","""","""","""","""","""","""","""",4/18/2021 16:11,76.90.195.125,Mozilla/5.0 (Windows NT 10.0; Win64; x64; rv:87.0) Gecko/20100101 Firefox/87.0,,Firefox,87,Windows,10
5,1,null,"""",html-keyboard-response,8,48894,0.0-8.0,"""","<div style=""font-size:60px;"">+</div>","""",2,ITI,Practice,null,1000,"""","""","""","""","""","""","""","""","""",4/18/2021 16:11,76.90.195.125,Mozilla/5.0 (Windows NT 10.0; Win64; x64; rv:87.0) Gecko/20100101 Firefox/87.0,,Firefox,87,Windows,10
5,1,3074,"""",html-keyboard-response,9,53915,0.0-9.0,"""","<img src='jspsych/CFDfaces/CFD-WF-204-038-N.jpg' height=""250px"">,</br><b>Katelyn</b>","""",3,IntactFace,Practice,78,5000,n,"""","""","""","""","""","""","""","""",4/18/2021 16:11,76.90.195.125,Mozilla/5.0 (Windows NT 10.0; Win64; x64; rv:87.0) Gecko/20100101 Firefox/87.0,,Firefox,87,Windows,10
5,1,null,"""",html-keyboard-response,10,54435,0.0-10.0,"""","<div style=""font-size:60px;"">+</div>","""",3,ITI,Practice,null,1000,"""","""","""","""","""","""","""","""","""",4/18/2021 16:11,76.90.195.125,Mozilla/5.0 (Windows NT 10.0; Win64; x64; rv:87.0) Gecko/20100101 Firefox/87.0,,Firefox,87,Windows,10
5,1,2653,"""",html-keyboard-response,11,59444,0.0-11.0,"""","<img src='jspsych/CFDfaces/CFD-WM-213-076-N.jpg' height=""250px"">,</br><b>Samuel</b>","""",4,IntactFace,Practice,78,5000,n,"""","""","""","""","""","""","""","""",4/18/2021 16:11,76.90.195.125,Mozilla/5.0 (Windows NT 10.0; Win64; x64; rv:87.0) Gecko/20100101 Firefox/87.0,,Firefox,87,Windows,10
5,1,null,"""",html-keyboard-response,12,59964,0.0-12.0,"""","<div style=""font-size:60px;"">+</div>","""",4,ITI,Practice,null,1000,"""","""","""","""","""","""","""","""","""",4/18/2021 16:11,76.90.195.125,Mozilla/5.0 (Windows NT 10.0; Win64; x64; rv:87.0) Gecko/20100101 Firefox/87.0,,Firefox,87,Windows,10
5,1,1964,"""",html-keyboard-response,13,64984,0.0-13.0,"""","<img src='jspsych/CFDfaces/CFD-AF-215-70-N.jpg' height=""250px"">,</br><b>Cassandra</b>","""",5,IntactFace,Practice,70,5000,f,"""","""","""","""","""","""","""","""",4/18/2021 16:11,76.90.195.125,Mozilla/5.0 (Windows NT 10.0; Win64; x64; rv:87.0) Gecko/20100101 Firefox/87.0,,Firefox,87,Windows,10
5,1,null,"""",html-keyboard-response,14,65504,0.0-14.0,"""","<div style=""font-size:60px;"">+</div>","""",5,ITI,Practice,null,1000,"""","""","""","""","""","""","""","""","""",4/18/2021 16:11,76.90.195.125,Mozilla/5.0 (Windows NT 10.0; Win64; x64; rv:87.0) Gecko/20100101 Firefox/87.0,,Firefox,87,Windows,10
5,1,1998,"""",html-keyboard-response,15,70515,0.0-15.0,"""","<img src='jspsych/CFDfaces/CFD-WF-003-003-N.jpg' height=""250px"">,</br><b>Tara</b>","""",6,IntactFace,Practice,70,5000,f,"""","""","""","""","""","""","""","""",4/18/2021 16:11,76.90.195.125,Mozilla/5.0 (Windows NT 10.0; Win64; x64; rv:87.0) Gecko/20100101 Firefox/87.0,,Firefox,87,Windows,10
5,1,null,"""",html-keyboard-response,16,71024,0.0-16.0,"""","<div style=""font-size:60px;"">+</div>","""",6,ITI,Practice,null,1000,"""","""","""","""","""","""","""","""","""",4/18/2021 16:11,76.90.195.125,Mozilla/5.0 (Windows NT 10.0; Win64; x64; rv:87.0) Gecko/20100101 Firefox/87.0,,Firefox,87,Windows,10
5,1,3013,"""",html-keyboard-response,17,76034,0.0-17.0,"""","<img src='jspsych/CFDfaces/CFD-LF-210-220-N.jpg' height=""250px"">,</br><b>Shannon</b>","""",7,IntactFace,Practice,70,5000,f,"""","""","""","""","""","""","""","""",4/18/2021 16:11,76.90.195.125,Mozilla/5.0 (Windows NT 10.0; Win64; x64; rv:87.0) Gecko/20100101 Firefox/87.0,,Firefox,87,Windows,10
5,1,null,"""",html-keyboard-response,18,76554,0.0-18.0,"""","<div style=""font-size:60px;"">+</div>","""",7,ITI,Practice,null,1000,"""","""","""","""","""","""","""","""","""",4/18/2021 16:11,76.90.195.125,Mozilla/5.0 (Windows NT 10.0; Win64; x64; rv:87.0) Gecko/20100101 Firefox/87.0,,Firefox,87,Windows,10
5,1,1719,"""",html-keyboard-response,19,81574,0.0-19.0,"""","<img src='jspsych/CFDfaces/CFD-BM-210-148-N.jpg' height=""250px"">,</br><b>Marcus</b>","""",8,IntactFace,Practice,70,5000,f,"""","""","""","""","""","""","""","""",4/18/2021 16:11,76.90.195.125,Mozilla/5.0 (Windows NT 10.0; Win64; x64; rv:87.0) Gecko/20100101 Firefox/87.0,,Firefox,87,Windows,10
5,1,null,"""",html-keyboard-response,20,82094,0.0-20.0,"""","<div style=""font-size:60px;"">+</div>","""",8,ITI,Practice,null,1000,"""","""","""","""","""","""","""","""","""",4/18/2021 16:11,76.90.195.125,Mozilla/5.0 (Windows NT 10.0; Win64; x64; rv:87.0) Gecko/20100101 Firefox/87.0,,Firefox,87,Windows,10
5,1,18661,"""",image-button-response,21,100773,0.0-21.0,"""",directionsForTest.JPG,0,1,directionsForTest,break,"""","""","""","""","""","""","""","""","""","""","""",4/18/2021 16:11,76.90.195.125,Mozilla/5.0 (Windows NT 10.0; Win64; x64; rv:87.0) Gecko/20100101 Firefox/87.0,,Firefox,87,Windows,10
5,1,9974,"""",image-button-response,22,110756,0.0-22.0,"""",directionsForTest2.JPG,0,1,directionsForTest2,break,"""","""","""","""","""","""","""","""","""","""","""",4/18/2021 16:11,76.90.195.125,Mozilla/5.0 (Windows NT 10.0; Win64; x64; rv:87.0) Gecko/20100101 Firefox/87.0,,Firefox,87,Windows,10
5,1,null,"""",html-keyboard-response,23,111773,0.0-23.0,"""","<div style=""font-size:60px;"">+</div>","""",1,ITI,Practice,null,1000,"""","""","""","""","""","""","""","""","""",4/18/2021 16:11,76.90.195.125,Mozilla/5.0 (Windows NT 10.0; Win64; x64; rv:87.0) Gecko/20100101 Firefox/87.0,,Firefox,87,Windows,10
5,1,null,"""",image-keyboard-response,24,112054,0.0-24.0,"""",jspsych/scrambledNeutralFaces/scrambledBF33NES.JPG,"""",1,forwardMask,Practice,null,250,"""",n,"""","""","""","""","""","""","""",4/18/2021 16:11,76.90.195.125,Mozilla/5.0 (Windows NT 10.0; Win64; x64; rv:87.0) Gecko/20100101 Firefox/87.0,,Firefox,87,Windows,10
5,1,null,"""",image-keyboard-response,25,112094,0.0-25.0,"""",jspsych/neutralFaces/BF33NES.JPG,"""",1,Cue,Practice,null,16,"""","""","""","""","""","""","""","""","""",4/18/2021 16:11,76.90.195.125,Mozilla/5.0 (Windows NT 10.0; Win64; x64; rv:87.0) Gecko/20100101 Firefox/87.0,,Firefox,87,Windows,10
5,1,null,"""",image-keyboard-response,26,112214,0.0-26.0,"""",jspsych/neutralFaces/BF15NES.JPG,"""",1,backwardMask,Practice,null,100,"""","""","""","""","""","""","""","""","""",4/18/2021 16:11,76.90.195.125,Mozilla/5.0 (Windows NT 10.0; Win64; x64; rv:87.0) Gecko/20100101 Firefox/87.0,,Firefox,87,Windows,10
5,1,null,"""",html-keyboard-response,27,113234,0.0-27.0,"""","<div style=""font-size:60px;"">+</div>","""",1,fixationBtwnNeutralMaskAndPrompt,Practice,null,1000,"""","""","""","""","""","""","""","""","""",4/18/2021 16:11,76.90.195.125,Mozilla/5.0 (Windows NT 10.0; Win64; x64; rv:87.0) Gecko/20100101 Firefox/87.0,,Firefox,87,Windows,10
5,1,4249,"""",html-button-response,28,117485,0.0-28.0,"""","<img src='jspsych/CFDfaces/CFD-BM-210-148-N.jpg'height=""250px""></br><b>Carlos</b>",1,1,IntactOrRearranged,Practice,"""","""","""","""",CFD-BM-210-148-N.jpg,Carlos,1,1,"""","""","""",4/18/2021 16:11,76.90.195.125,Mozilla/5.0 (Windows NT 10.0; Win64; x64; rv:87.0) Gecko/20100101 Firefox/87.0,,Firefox,87,Windows,10
5,1,null,"""",html-slider-response,29,122535,0.0-29.0,"""","<img src='jspsych/CFDfaces/CFD-BM-210-148-N.jpg'height=""250px""></br><b>Carlos</b>","""",1,ConfidenceQuery,Practice,"""","""","""","""",CFD-LF-213-079-N.jpg,Lindsey,1,"""",0,null,"""",4/18/2021 16:11,76.90.195.125,Mozilla/5.0 (Windows NT 10.0; Win64; x64; rv:87.0) Gecko/20100101 Firefox/87.0,,Firefox,87,Windows,10
5,1,2251,"""",html-button-response,30,124789,0.0-30.0,"""",You are Correct. You Called A Rearranged Pair Rearranged,0,1,feedback,Practice,"""","""","""","""","""","""","""","""","""","""","""",4/18/2021 16:11,76.90.195.125,Mozilla/5.0 (Windows NT 10.0; Win64; x64; rv:87.0) Gecko/20100101 Firefox/87.0,,Firefox,87,Windows,10
5,1,null,"""",html-keyboard-response,31,125793,0.0-31.0,"""","<div style=""font-size:60px;"">+</div>","""",2,ITI,Practice,null,1000,"""","""","""","""","""","""","""","""","""",4/18/2021 16:11,76.90.195.125,Mozilla/5.0 (Windows NT 10.0; Win64; x64; rv:87.0) Gecko/20100101 Firefox/87.0,,Firefox,87,Windows,10
5,1,null,"""",image-keyboard-response,32,126054,0.0-32.0,"""",jspsych/scrambledNeutralFaces/scrambledAF33NES.JPG,"""",2,forwardMask,Practice,null,250,"""",n,"""","""","""","""","""","""","""",4/18/2021 16:11,76.90.195.125,Mozilla/5.0 (Windows NT 10.0; Win64; x64; rv:87.0) Gecko/20100101 Firefox/87.0,,Firefox,87,Windows,10
5,1,null,"""",image-keyboard-response,33,126094,0.0-33.0,"""",jspsych/neutralFaces/AF33NES.JPG,"""",2,Cue,Practice,null,16,"""","""","""","""","""","""","""","""","""",4/18/2021 16:11,76.90.195.125,Mozilla/5.0 (Windows NT 10.0; Win64; x64; rv:87.0) Gecko/20100101 Firefox/87.0,,Firefox,87,Windows,10
5,1,null,"""",image-keyboard-response,34,126213,0.0-34.0,"""",jspsych/neutralFaces/AF34NES.JPG,"""",2,backwardMask,Practice,null,100,"""","""","""","""","""","""","""","""","""",4/18/2021 16:11,76.90.195.125,Mozilla/5.0 (Windows NT 10.0; Win64; x64; rv:87.0) Gecko/20100101 Firefox/87.0,,Firefox,87,Windows,10
5,1,null,"""",html-keyboard-response,35,127233,0.0-35.0,"""","<div style=""font-size:60px;"">+</div>","""",2,fixationBtwnNeutralMaskAndPrompt,Practice,null,1000,"""","""","""","""","""","""","""","""","""",4/18/2021 16:11,76.90.195.125,Mozilla/5.0 (Windows NT 10.0; Win64; x64; rv:87.0) Gecko/20100101 Firefox/87.0,,Firefox,87,Windows,10
5,1,1538,"""",html-button-response,36,128773,0.0-36.0,"""","<img src='jspsych/CFDfaces/CFD-WF-003-003-N.jpg'height=""250px""></br><b>Tara</b>",0,2,IntactOrRearranged,Practice,"""","""","""","""",CFD-WF-003-003-N.jpg,Tara,0,0,"""","""","""",4/18/2021 16:11,76.90.195.125,Mozilla/5.0 (Windows NT 10.0; Win64; x64; rv:87.0) Gecko/20100101 Firefox/87.0,,Firefox,87,Windows,10
5,1,3196,"""",html-slider-response,37,131973,0.0-37.0,"""","<img src='jspsych/CFDfaces/CFD-WF-003-003-N.jpg'height=""250px""></br><b>Tara</b>","""",2,ConfidenceQuery,Practice,"""","""","""","""",CFD-LF-213-079-N.jpg,Lindsey,0,"""",0,78,"""",4/18/2021 16:11,76.90.195.125,Mozilla/5.0 (Windows NT 10.0; Win64; x64; rv:87.0) Gecko/20100101 Firefox/87.0,,Firefox,87,Windows,10
5,1,1273,"""",html-button-response,38,133252,0.0-38.0,"""",You are Correct. You called an Intact Pair Intact,0,2,feedback,Practice,"""","""","""","""","""","""","""","""","""","""","""",4/18/2021 16:11,76.90.195.125,Mozilla/5.0 (Windows NT 10.0; Win64; x64; rv:87.0) Gecko/20100101 Firefox/87.0,,Firefox,87,Windows,10
5,1,null,"""",html-keyboard-response,39,134263,0.0-39.0,"""","<div style=""font-size:60px;"">+</div>","""",3,ITI,Practice,null,1000,"""","""","""","""","""","""","""","""","""",4/18/2021 16:11,76.90.195.125,Mozilla/5.0 (Windows NT 10.0; Win64; x64; rv:87.0) Gecko/20100101 Firefox/87.0,,Firefox,87,Windows,10
5,1,null,"""",image-keyboard-response,40,134523,0.0-40.0,"""",jspsych/scrambledNeutralFaces/scrambledAM31NES.JPG,"""",3,forwardMask,Practice,null,250,"""",n,"""","""","""","""","""","""","""",4/18/2021 16:11,76.90.195.125,Mozilla/5.0 (Windows NT 10.0; Win64; x64; rv:87.0) Gecko/20100101 Firefox/87.0,,Firefox,87,Windows,10
5,1,null,"""",image-keyboard-response,41,134564,0.0-41.0,"""",jspsych/neutralFaces/AM31NES.JPG,"""",3,Cue,Practice,null,16,"""","""","""","""","""","""","""","""","""",4/18/2021 16:11,76.90.195.125,Mozilla/5.0 (Windows NT 10.0; Win64; x64; rv:87.0) Gecko/20100101 Firefox/87.0,,Firefox,87,Windows,10
5,1,null,"""",image-keyboard-response,42,134683,0.0-42.0,"""",jspsych/neutralFaces/AM21NES.JPG,"""",3,backwardMask,Practice,null,100,"""","""","""","""","""","""","""","""","""",4/18/2021 16:11,76.90.195.125,Mozilla/5.0 (Windows NT 10.0; Win64; x64; rv:87.0) Gecko/20100101 Firefox/87.0,,Firefox,87,Windows,10
5,1,null,"""",html-keyboard-response,43,135703,0.0-43.0,"""","<div style=""font-size:60px;"">+</div>","""",3,fixationBtwnNeutralMaskAndPrompt,Practice,null,1000,"""","""","""","""","""","""","""","""","""",4/18/2021 16:11,76.90.195.125,Mozilla/5.0 (Windows NT 10.0; Win64; x64; rv:87.0) Gecko/20100101 Firefox/87.0,,Firefox,87,Windows,10
5,1,1628,"""",html-button-response,44,137334,0.0-44.0,"""","<img src='jspsych/CFDfaces/CFD-LF-210-220-N.jpg'height=""250px""></br><b>Shannon</b>",0,3,IntactOrRearranged,Practice,"""","""","""","""",CFD-LF-210-220-N.jpg,Shannon,0,0,"""","""","""",4/18/2021 16:11,76.90.195.125,Mozilla/5.0 (Windows NT 10.0; Win64; x64; rv:87.0) Gecko/20100101 Firefox/87.0,,Firefox,87,Windows,10
5,1,3426,"""",html-slider-response,45,140773,0.0-45.0,"""","<img src='jspsych/CFDfaces/CFD-LF-210-220-N.jpg'height=""250px""></br><b>Shannon</b>","""",3,ConfidenceQuery,Practice,"""","""","""","""",CFD-LF-213-079-N.jpg,Lindsey,0,"""",0,80,"""",4/18/2021 16:11,76.90.195.125,Mozilla/5.0 (Windows NT 10.0; Win64; x64; rv:87.0) Gecko/20100101 Firefox/87.0,,Firefox,87,Windows,10
5,1,1084,"""",html-button-response,46,141861,0.0-46.0,"""",You are Correct. You called an Intact Pair Intact,0,3,feedback,Practice,"""","""","""","""","""","""","""","""","""","""","""",4/18/2021 16:11,76.90.195.125,Mozilla/5.0 (Windows NT 10.0; Win64; x64; rv:87.0) Gecko/20100101 Firefox/87.0,,Firefox,87,Windows,10
5,1,null,"""",html-keyboard-response,47,142865,0.0-47.0,"""","<div style=""font-size:60px;"">+</div>","""",4,ITI,Practice,null,1000,"""","""","""","""","""","""","""","""","""",4/18/2021 16:11,76.90.195.125,Mozilla/5.0 (Windows NT 10.0; Win64; x64; rv:87.0) Gecko/20100101 Firefox/87.0,,Firefox,87,Windows,10
5,1,null,"""",image-keyboard-response,48,143144,0.0-48.0,"""",jspsych/scrambledNeutralFaces/scrambledAM22NES.JPG,"""",4,forwardMask,Practice,null,250,"""",n,"""","""","""","""","""","""","""",4/18/2021 16:11,76.90.195.125,Mozilla/5.0 (Windows NT 10.0; Win64; x64; rv:87.0) Gecko/20100101 Firefox/87.0,,Firefox,87,Windows,10
5,1,null,"""",image-keyboard-response,49,143184,0.0-49.0,"""",jspsych/neutralFaces/AM22NES.JPG,"""",4,Cue,Practice,null,16,"""","""","""","""","""","""","""","""","""",4/18/2021 16:11,76.90.195.125,Mozilla/5.0 (Windows NT 10.0; Win64; x64; rv:87.0) Gecko/20100101 Firefox/87.0,,Firefox,87,Windows,10
5,1,null,"""",image-keyboard-response,50,143303,0.0-50.0,"""",jspsych/neutralFaces/BM04NES.JPG,"""",4,backwardMask,Practice,null,100,"""","""","""","""","""","""","""","""","""",4/18/2021 16:11,76.90.195.125,Mozilla/5.0 (Windows NT 10.0; Win64; x64; rv:87.0) Gecko/20100101 Firefox/87.0,,Firefox,87,Windows,10
5,1,null,"""",html-keyboard-response,51,144324,0.0-51.0,"""","<div style=""font-size:60px;"">+</div>","""",4,fixationBtwnNeutralMaskAndPrompt,Practice,null,1000,"""","""","""","""","""","""","""","""","""",4/18/2021 16:11,76.90.195.125,Mozilla/5.0 (Windows NT 10.0; Win64; x64; rv:87.0) Gecko/20100101 Firefox/87.0,,Firefox,87,Windows,10
5,1,4335,"""",html-button-response,52,148661,0.0-52.0,"""","<img src='jspsych/CFDfaces/CFD-WF-204-038-N.jpg'height=""250px""></br><b>Cassandra</b>",1,4,IntactOrRearranged,Practice,"""","""","""","""",CFD-WF-204-038-N.jpg,Cassandra,1,1,"""","""","""",4/18/2021 16:11,76.90.195.125,Mozilla/5.0 (Windows NT 10.0; Win64; x64; rv:87.0) Gecko/20100101 Firefox/87.0,,Firefox,87,Windows,10
5,1,2608,"""",html-slider-response,53,151277,0.0-53.0,"""","<img src='jspsych/CFDfaces/CFD-WF-204-038-N.jpg'height=""250px""></br><b>Cassandra</b>","""",4,ConfidenceQuery,Practice,"""","""","""","""",CFD-LF-213-079-N.jpg,Lindsey,1,"""",0,61,"""",4/18/2021 16:11,76.90.195.125,Mozilla/5.0 (Windows NT 10.0; Win64; x64; rv:87.0) Gecko/20100101 Firefox/87.0,,Firefox,87,Windows,10
5,1,1166,"""",html-button-response,54,152444,0.0-54.0,"""",You are Correct. You Called A Rearranged Pair Rearranged,0,4,feedback,Practice,"""","""","""","""","""","""","""","""","""","""","""",4/18/2021 16:11,76.90.195.125,Mozilla/5.0 (Windows NT 10.0; Win64; x64; rv:87.0) Gecko/20100101 Firefox/87.0,,Firefox,87,Windows,10
5,1,null,"""",html-keyboard-response,55,153453,0.0-55.0,"""","<div style=""font-size:60px;"">+</div>","""",5,ITI,Practice,null,1000,"""","""","""","""","""","""","""","""","""",4/18/2021 16:11,76.90.195.125,Mozilla/5.0 (Windows NT 10.0; Win64; x64; rv:87.0) Gecko/20100101 Firefox/87.0,,Firefox,87,Windows,10
5,1,null,"""",image-keyboard-response,56,153713,0.0-56.0,"""",jspsych/scrambledNeutralFaces/scrambledAF27NES.JPG,"""",5,forwardMask,Practice,null,250,"""",n,"""","""","""","""","""","""","""",4/18/2021 16:11,76.90.195.125,Mozilla/5.0 (Windows NT 10.0; Win64; x64; rv:87.0) Gecko/20100101 Firefox/87.0,,Firefox,87,Windows,10
5,1,null,"""",image-keyboard-response,57,153753,0.0-57.0,"""",jspsych/neutralFaces/AF27NES.JPG,"""",5,Cue,Practice,null,16,"""","""","""","""","""","""","""","""","""",4/18/2021 16:11,76.90.195.125,Mozilla/5.0 (Windows NT 10.0; Win64; x64; rv:87.0) Gecko/20100101 Firefox/87.0,,Firefox,87,Windows,10
5,1,null,"""",image-keyboard-response,58,153873,0.0-58.0,"""",jspsych/neutralFaces/AF11NES.JPG,"""",5,backwardMask,Practice,null,100,"""","""","""","""","""","""","""","""","""",4/18/2021 16:11,76.90.195.125,Mozilla/5.0 (Windows NT 10.0; Win64; x64; rv:87.0) Gecko/20100101 Firefox/87.0,,Firefox,87,Windows,10
5,1,null,"""",html-keyboard-response,59,154893,0.0-59.0,"""","<div style=""font-size:60px;"">+</div>","""",5,fixationBtwnNeutralMaskAndPrompt,Practice,null,1000,"""","""","""","""","""","""","""","""","""",4/18/2021 16:11,76.90.195.125,Mozilla/5.0 (Windows NT 10.0; Win64; x64; rv:87.0) Gecko/20100101 Firefox/87.0,,Firefox,87,Windows,10
5,1,2753,"""",html-button-response,60,157652,0.0-60.0,"""","<img src='jspsych/CFDfaces/CFD-BM-026-002-N.jpg'height=""250px""></br><b>Marcus</b>",1,5,IntactOrRearranged,Practice,"""","""","""","""",CFD-BM-026-002-N.jpg,Marcus,1,1,"""","""","""",4/18/2021 16:11,76.90.195.125,Mozilla/5.0 (Windows NT 10.0; Win64; x64; rv:87.0) Gecko/20100101 Firefox/87.0,,Firefox,87,Windows,10
5,1,3109,"""",html-slider-response,61,160764,0.0-61.0,"""","<img src='jspsych/CFDfaces/CFD-BM-026-002-N.jpg'height=""250px""></br><b>Marcus</b>","""",5,ConfidenceQuery,Practice,"""","""","""","""",CFD-LF-213-079-N.jpg,Lindsey,1,"""",0,79,"""",4/18/2021 16:11,76.90.195.125,Mozilla/5.0 (Windows NT 10.0; Win64; x64; rv:87.0) Gecko/20100101 Firefox/87.0,,Firefox,87,Windows,10
5,1,1056,"""",html-button-response,62,161828,0.0-62.0,"""",You are Correct. You Called A Rearranged Pair Rearranged,0,5,feedback,Practice,"""","""","""","""","""","""","""","""","""","""","""",4/18/2021 16:11,76.90.195.125,Mozilla/5.0 (Windows NT 10.0; Win64; x64; rv:87.0) Gecko/20100101 Firefox/87.0,,Firefox,87,Windows,10
5,1,null,"""",html-keyboard-response,63,162833,0.0-63.0,"""","<div style=""font-size:60px;"">+</div>","""",6,ITI,Practice,null,1000,"""","""","""","""","""","""","""","""","""",4/18/2021 16:11,76.90.195.125,Mozilla/5.0 (Windows NT 10.0; Win64; x64; rv:87.0) Gecko/20100101 Firefox/87.0,,Firefox,87,Windows,10
5,1,null,"""",image-keyboard-response,64,163093,0.0-64.0,"""",jspsych/scrambledDisgustFaces/scrambledAM05DIS.JPG,"""",6,forwardMask,Practice,null,250,"""",d,"""","""","""","""","""","""","""",4/18/2021 16:11,76.90.195.125,Mozilla/5.0 (Windows NT 10.0; Win64; x64; rv:87.0) Gecko/20100101 Firefox/87.0,,Firefox,87,Windows,10
5,1,null,"""",image-keyboard-response,65,163113,0.0-65.0,"""",jspsych/disgustFaces/AM05DIS.JPG,"""",6,Cue,Practice,null,16,"""","""","""","""","""","""","""","""","""",4/18/2021 16:11,76.90.195.125,Mozilla/5.0 (Windows NT 10.0; Win64; x64; rv:87.0) Gecko/20100101 Firefox/87.0,,Firefox,87,Windows,10
5,1,null,"""",image-keyboard-response,66,163233,0.0-66.0,"""",jspsych/neutralFaces/AM29NES.JPG,"""",6,backwardMask,Practice,null,100,"""","""","""","""","""","""","""","""","""",4/18/2021 16:11,76.90.195.125,Mozilla/5.0 (Windows NT 10.0; Win64; x64; rv:87.0) Gecko/20100101 Firefox/87.0,,Firefox,87,Windows,10
5,1,null,"""",html-keyboard-response,67,164253,0.0-67.0,"""","<div style=""font-size:60px;"">+</div>","""",6,fixationBtwnNeutralMaskAndPrompt,Practice,null,1000,"""","""","""","""","""","""","""","""","""",4/18/2021 16:11,76.90.195.125,Mozilla/5.0 (Windows NT 10.0; Win64; x64; rv:87.0) Gecko/20100101 Firefox/87.0,,Firefox,87,Windows,10
5,1,2558,"""",html-button-response,68,166812,0.0-68.0,"""","<img src='jspsych/CFDfaces/CFD-AF-215-70-N.jpg'height=""250px""></br><b>Katelyn</b>",1,6,IntactOrRearranged,Practice,"""","""","""","""",CFD-AF-215-70-N.jpg,Katelyn,1,1,"""","""","""",4/18/2021 16:11,76.90.195.125,Mozilla/5.0 (Windows NT 10.0; Win64; x64; rv:87.0) Gecko/20100101 Firefox/87.0,,Firefox,87,Windows,10
5,1,2471,"""",html-slider-response,69,169292,0.0-69.0,"""","<img src='jspsych/CFDfaces/CFD-AF-215-70-N.jpg'height=""250px""></br><b>Katelyn</b>","""",6,ConfidenceQuery,Practice,"""","""","""","""",CFD-LF-213-079-N.jpg,Lindsey,1,"""",0,59,"""",4/18/2021 16:11,76.90.195.125,Mozilla/5.0 (Windows NT 10.0; Win64; x64; rv:87.0) Gecko/20100101 Firefox/87.0,,Firefox,87,Windows,10
5,1,1381,"""",html-button-response,70,170676,0.0-70.0,"""",You are Correct. You Called A Rearranged Pair Rearranged,0,6,feedback,Practice,"""","""","""","""","""","""","""","""","""","""","""",4/18/2021 16:11,76.90.195.125,Mozilla/5.0 (Windows NT 10.0; Win64; x64; rv:87.0) Gecko/20100101 Firefox/87.0,,Firefox,87,Windows,10
5,1,null,"""",html-keyboard-response,71,171693,0.0-71.0,"""","<div style=""font-size:60px;"">+</div>","""",7,ITI,Practice,null,1000,"""","""","""","""","""","""","""","""","""",4/18/2021 16:11,76.90.195.125,Mozilla/5.0 (Windows NT 10.0; Win64; x64; rv:87.0) Gecko/20100101 Firefox/87.0,,Firefox,87,Windows,10
5,1,null,"""",image-keyboard-response,72,171963,0.0-72.0,"""",jspsych/scrambledNeutralFaces/scrambledAF12NES.JPG,"""",7,forwardMask,Practice,null,250,"""",n,"""","""","""","""","""","""","""",4/18/2021 16:11,76.90.195.125,Mozilla/5.0 (Windows NT 10.0; Win64; x64; rv:87.0) Gecko/20100101 Firefox/87.0,,Firefox,87,Windows,10
5,1,null,"""",image-keyboard-response,73,172003,0.0-73.0,"""",jspsych/neutralFaces/AF12NES.JPG,"""",7,Cue,Practice,null,16,"""","""","""","""","""","""","""","""","""",4/18/2021 16:11,76.90.195.125,Mozilla/5.0 (Windows NT 10.0; Win64; x64; rv:87.0) Gecko/20100101 Firefox/87.0,,Firefox,87,Windows,10
5,1,null,"""",image-keyboard-response,74,172123,0.0-74.0,"""",jspsych/neutralFaces/BF23NES.JPG,"""",7,backwardMask,Practice,null,100,"""","""","""","""","""","""","""","""","""",4/18/2021 16:11,76.90.195.125,Mozilla/5.0 (Windows NT 10.0; Win64; x64; rv:87.0) Gecko/20100101 Firefox/87.0,,Firefox,87,Windows,10
5,1,null,"""",html-keyboard-response,75,173144,0.0-75.0,"""","<div style=""font-size:60px;"">+</div>","""",7,fixationBtwnNeutralMaskAndPrompt,Practice,null,1000,"""","""","""","""","""","""","""","""","""",4/18/2021 16:11,76.90.195.125,Mozilla/5.0 (Windows NT 10.0; Win64; x64; rv:87.0) Gecko/20100101 Firefox/87.0,,Firefox,87,Windows,10
5,1,2686,"""",html-button-response,76,175836,0.0-76.0,"""","<img src='jspsych/CFDfaces/CFD-WM-237-052-N.jpg'height=""250px""></br><b>Patrick</b>",0,7,IntactOrRearranged,Practice,"""","""","""","""",CFD-WM-237-052-N.jpg,Patrick,0,0,"""","""","""",4/18/2021 16:11,76.90.195.125,Mozilla/5.0 (Windows NT 10.0; Win64; x64; rv:87.0) Gecko/20100101 Firefox/87.0,,Firefox,87,Windows,10
5,1,2693,"""",html-slider-response,77,178532,0.0-77.0,"""","<img src='jspsych/CFDfaces/CFD-WM-237-052-N.jpg'height=""250px""></br><b>Patrick</b>","""",7,ConfidenceQuery,Practice,"""","""","""","""",CFD-LF-213-079-N.jpg,Lindsey,0,"""",0,49,"""",4/18/2021 16:11,76.90.195.125,Mozilla/5.0 (Windows NT 10.0; Win64; x64; rv:87.0) Gecko/20100101 Firefox/87.0,,Firefox,87,Windows,10
5,1,1334,"""",html-button-response,78,179867,0.0-78.0,"""",You are Correct. You called an Intact Pair Intact,0,7,feedback,Practice,"""","""","""","""","""","""","""","""","""","""","""",4/18/2021 16:11,76.90.195.125,Mozilla/5.0 (Windows NT 10.0; Win64; x64; rv:87.0) Gecko/20100101 Firefox/87.0,,Firefox,87,Windows,10
5,1,null,"""",html-keyboard-response,79,180884,0.0-79.0,"""","<div style=""font-size:60px;"">+</div>","""",8,ITI,Practice,null,1000,"""","""","""","""","""","""","""","""","""",4/18/2021 16:11,76.90.195.125,Mozilla/5.0 (Windows NT 10.0; Win64; x64; rv:87.0) Gecko/20100101 Firefox/87.0,,Firefox,87,Windows,10
5,1,null,"""",image-keyboard-response,80,181143,0.0-80.0,"""",jspsych/scrambledDisgustFaces/scrambledBM12DIS.JPG,"""",8,forwardMask,Practice,null,250,"""",d,"""","""","""","""","""","""","""",4/18/2021 16:11,76.90.195.125,Mozilla/5.0 (Windows NT 10.0; Win64; x64; rv:87.0) Gecko/20100101 Firefox/87.0,,Firefox,87,Windows,10
5,1,null,"""",image-keyboard-response,81,181183,0.0-81.0,"""",jspsych/disgustFaces/BM13DIS.JPG,"""",8,Cue,Practice,null,16,"""","""","""","""","""","""","""","""","""",4/18/2021 16:11,76.90.195.125,Mozilla/5.0 (Windows NT 10.0; Win64; x64; rv:87.0) Gecko/20100101 Firefox/87.0,,Firefox,87,Windows,10
5,1,null,"""",image-keyboard-response,82,181303,0.0-82.0,"""",jspsych/neutralFaces/BM14NES.JPG,"""",8,backwardMask,Practice,null,100,"""","""","""","""","""","""","""","""","""",4/18/2021 16:11,76.90.195.125,Mozilla/5.0 (Windows NT 10.0; Win64; x64; rv:87.0) Gecko/20100101 Firefox/87.0,,Firefox,87,Windows,10
5,1,null,"""",html-keyboard-response,83,182324,0.0-83.0,"""","<div style=""font-size:60px;"">+</div>","""",8,fixationBtwnNeutralMaskAndPrompt,Practice,null,1000,"""","""","""","""","""","""","""","""","""",4/18/2021 16:11,76.90.195.125,Mozilla/5.0 (Windows NT 10.0; Win64; x64; rv:87.0) Gecko/20100101 Firefox/87.0,,Firefox,87,Windows,10
5,1,2303,"""",html-button-response,84,184628,0.0-84.0,"""","<img src='jspsych/CFDfaces/CFD-WM-213-076-N.jpg'height=""250px""></br><b>Samuel</b>",0,8,IntactOrRearranged,Practice,"""","""","""","""",CFD-WM-213-076-N.jpg,Samuel,0,0,"""","""","""",4/18/2021 16:11,76.90.195.125,Mozilla/5.0 (Windows NT 10.0; Win64; x64; rv:87.0) Gecko/20100101 Firefox/87.0,,Firefox,87,Windows,10
5,1,2286,"""",html-slider-response,85,186916,0.0-85.0,"""","<img src='jspsych/CFDfaces/CFD-WM-213-076-N.jpg'height=""250px""></br><b>Samuel</b>","""",8,ConfidenceQuery,Practice,"""","""","""","""",CFD-LF-213-079-N.jpg,Lindsey,0,"""",0,50,"""",4/18/2021 16:11,76.90.195.125,Mozilla/5.0 (Windows NT 10.0; Win64; x64; rv:87.0) Gecko/20100101 Firefox/87.0,,Firefox,87,Windows,10
5,1,916,"""",html-button-response,86,187835,0.0-86.0,"""",You are Correct. You called an Intact Pair Intact,0,8,feedback,Practice,"""","""","""","""","""","""","""","""","""","""","""",4/18/2021 16:11,76.90.195.125,Mozilla/5.0 (Windows NT 10.0; Win64; x64; rv:87.0) Gecko/20100101 Firefox/87.0,,Firefox,87,Windows,10
5,1,7223,"""",image-button-response,87,195067,0.0-87.0,"""",directionsMemoryAssociation3.JPG,0,128,DirectionsBeforeActualTEst,Break,"""","""","""","""","""","""","""","""","""","""","""",4/18/2021 16:11,76.90.195.125,Mozilla/5.0 (Windows NT 10.0; Win64; x64; rv:87.0) Gecko/20100101 Firefox/87.0,,Firefox,87,Windows,10
5,1,2171,"""",image-button-response,88,197253,0.0-88.0,"""",directionsForTest2.JPG,0,1,directionsForTest2,break,"""","""","""","""","""","""","""","""","""","""","""",4/18/2021 16:11,76.90.195.125,Mozilla/5.0 (Windows NT 10.0; Win64; x64; rv:87.0) Gecko/20100101 Firefox/87.0,,Firefox,87,Windows,10
5,1,5884,"""",html-button-response,89,203140,0.0-89.0,"""","<p>You will be asked to memorize and then recall four sets of face-name pairs. </p> <p> Each set will have 32 pairs. </p> <p>After the fourth set, there will be a brief follow-up experiment (<40 min alltogether)</p>",0,"""","""","""","""","""","""","""","""","""","""","""","""","""","""",4/18/2021 16:11,76.90.195.125,Mozilla/5.0 (Windows NT 10.0; Win64; x64; rv:87.0) Gecko/20100101 Firefox/87.0,,Firefox,87,Windows,10
5,1,2962,"""",html-keyboard-response,90,208175,0.0-90.0,"""","<img src='jspsych/CFDfaces/CFD-BM-032-024-N.jpg' height=""250px""></br><b>Ian</b>","""",256,IntactFace,Memorization,78,5000,n,"""",CFD-WF-217-085-N.jpg,Jasmine,0,"""","""","""",1,4/18/2021 16:11,76.90.195.125,Mozilla/5.0 (Windows NT 10.0; Win64; x64; rv:87.0) Gecko/20100101 Firefox/87.0,,Firefox,87,Windows,10
5,1,null,"""",html-keyboard-response,91,208694,0.0-91.0,"""","<div style=""font-size:60px;"">+</div>","""",256,fixation,Memorization,null,500,"""","""","""","""","""","""","""","""",1,4/18/2021 16:11,76.90.195.125,Mozilla/5.0 (Windows NT 10.0; Win64; x64; rv:87.0) Gecko/20100101 Firefox/87.0,,Firefox,87,Windows,10
5,1,2756,"""",html-keyboard-response,92,213714,0.0-92.0,"""","<img src='jspsych/CFDfaces/CFD-AM-231-136-N.jpg' height=""250px""></br><b>Nicholas</b>","""",256,IntactFace,Memorization,70,5000,f,"""",CFD-LF-220-120-N.jpg,Sara,0,"""","""","""",1,4/18/2021 16:11,76.90.195.125,Mozilla/5.0 (Windows NT 10.0; Win64; x64; rv:87.0) Gecko/20100101 Firefox/87.0,,Firefox,87,Windows,10
5,1,null,"""",html-keyboard-response,93,214233,0.0-93.0,"""","<div style=""font-size:60px;"">+</div>","""",256,fixation,Memorization,null,500,"""","""","""","""","""","""","""","""",1,4/18/2021 16:11,76.90.195.125,Mozilla/5.0 (Windows NT 10.0; Win64; x64; rv:87.0) Gecko/20100101 Firefox/87.0,,Firefox,87,Windows,10
5,1,2504,"""",html-keyboard-response,94,219243,0.0-94.0,"""","<img src='jspsych/CFDfaces/CFD-BF-201-080-N.jpg' height=""250px""></br><b>Christina</b>","""",256,IntactFace,Memorization,78,5000,n,"""",CFD-AF-230-193-N.jpg,Laura,0,"""","""","""",1,4/18/2021 16:11,76.90.195.125,Mozilla/5.0 (Windows NT 10.0; Win64; x64; rv:87.0) Gecko/20100101 Firefox/87.0,,Firefox,87,Windows,10
5,1,null,"""",html-keyboard-response,95,219764,0.0-95.0,"""","<div style=""font-size:60px;"">+</div>","""",256,fixation,Memorization,null,500,"""","""","""","""","""","""","""","""",1,4/18/2021 16:11,76.90.195.125,Mozilla/5.0 (Windows NT 10.0; Win64; x64; rv:87.0) Gecko/20100101 Firefox/87.0,,Firefox,87,Windows,10
5,1,2406,"""",html-keyboard-response,96,224773,0.0-96.0,"""","<img src='jspsych/CFDfaces/CFD-AF-243-170-N.jpg' height=""250px""></br><b>Emily</b>","""",256,IntactFace,Memorization,70,5000,f,"""",CFD-LF-213-079-N.jpg,Lindsey,0,"""","""","""",1,4/18/2021 16:11,76.90.195.125,Mozilla/5.0 (Windows NT 10.0; Win64; x64; rv:87.0) Gecko/20100101 Firefox/87.0,,Firefox,87,Windows,10
5,1,null,"""",html-keyboard-response,97,225292,0.0-97.0,"""","<div style=""font-size:60px;"">+</div>","""",256,fixation,Memorization,null,500,"""","""","""","""","""","""","""","""",1,4/18/2021 16:11,76.90.195.125,Mozilla/5.0 (Windows NT 10.0; Win64; x64; rv:87.0) Gecko/20100101 Firefox/87.0,,Firefox,87,Windows,10
5,1,2810,"""",html-keyboard-response,98,230313,0.0-98.0,"""","<img src='jspsych/CFDfaces/CFD-WF-016-015-N.jpg' height=""250px""></br><b>Andrea</b>","""",256,IntactFace,Memorization,70,5000,f,"""",CFD-BM-010-003-N.jpg,Austin,0,"""","""","""",1,4/18/2021 16:11,76.90.195.125,Mozilla/5.0 (Windows NT 10.0; Win64; x64; rv:87.0) Gecko/20100101 Firefox/87.0,,Firefox,87,Windows,10
5,1,null,"""",html-keyboard-response,99,230833,0.0-99.0,"""","<div style=""font-size:60px;"">+</div>","""",256,fixation,Memorization,null,500,"""","""","""","""","""","""","""","""",1,4/18/2021 16:11,76.90.195.125,Mozilla/5.0 (Windows NT 10.0; Win64; x64; rv:87.0) Gecko/20100101 Firefox/87.0,,Firefox,87,Windows,10
5,1,1889,"""",html-keyboard-response,100,235843,0.0-100.0,"""","<img src='jspsych/CFDfaces/CFD-WF-017-003-N.jpg' height=""250px""></br><b>Kimberly</b>","""",256,IntactFace,Memorization,78,5000,n,"""",CFD-BM-043-071-N.jpg,Ryan,0,"""","""","""",1,4/18/2021 16:11,76.90.195.125,Mozilla/5.0 (Windows NT 10.0; Win64; x64; rv:87.0) Gecko/20100101 Firefox/87.0,,Firefox,87,Windows,10
5,1,null,"""",html-keyboard-response,101,236363,0.0-101.0,"""","<div style=""font-size:60px;"">+</div>","""",256,fixation,Memorization,null,500,"""","""","""","""","""","""","""","""",1,4/18/2021 16:11,76.90.195.125,Mozilla/5.0 (Windows NT 10.0; Win64; x64; rv:87.0) Gecko/20100101 Firefox/87.0,,Firefox,87,Windows,10
5,1,2423,"""",html-keyboard-response,102,241373,0.0-102.0,"""","<img src='jspsych/CFDfaces/CFD-AM-238-269-N.jpg' height=""250px""></br><b>Joshua</b>","""",256,IntactFace,Memorization,70,5000,f,"""",CFD-BM-205-001-N.jpg,Jeremy,0,"""","""","""",1,4/18/2021 16:11,76.90.195.125,Mozilla/5.0 (Windows NT 10.0; Win64; x64; rv:87.0) Gecko/20100101 Firefox/87.0,,Firefox,87,Windows,10
5,1,null,"""",html-keyboard-response,103,241893,0.0-103.0,"""","<div style=""font-size:60px;"">+</div>","""",256,fixation,Memorization,null,500,"""","""","""","""","""","""","""","""",1,4/18/2021 16:11,76.90.195.125,Mozilla/5.0 (Windows NT 10.0; Win64; x64; rv:87.0) Gecko/20100101 Firefox/87.0,,Firefox,87,Windows,10
5,1,1702,"""",html-keyboard-response,104,246902,0.0-104.0,"""","<img src='jspsych/CFDfaces/CFD-WM-216-061-N.jpg' height=""250px""></br><b>Christian</b>","""",256,IntactFace,Memorization,70,5000,f,"""",CFD-WM-041-021-N.jpg,Timothy,0,"""","""","""",1,4/18/2021 16:11,76.90.195.125,Mozilla/5.0 (Windows NT 10.0; Win64; x64; rv:87.0) Gecko/20100101 Firefox/87.0,,Firefox,87,Windows,10
5,1,null,"""",html-keyboard-response,105,247423,0.0-105.0,"""","<div style=""font-size:60px;"">+</div>","""",256,fixation,Memorization,null,500,"""","""","""","""","""","""","""","""",1,4/18/2021 16:11,76.90.195.125,Mozilla/5.0 (Windows NT 10.0; Win64; x64; rv:87.0) Gecko/20100101 Firefox/87.0,,Firefox,87,Windows,10
5,1,2883,"""",html-keyboard-response,106,252443,0.0-106.0,"""","<img src='jspsych/CFDfaces/CFD-WM-222-057-N.jpg' height=""250px""></br><b>Peter</b>","""",256,IntactFace,Memorization,70,5000,f,"""",CFD-BF-009-002-N.jpg,Melissa,0,"""","""","""",1,4/18/2021 16:11,76.90.195.125,Mozilla/5.0 (Windows NT 10.0; Win64; x64; rv:87.0) Gecko/20100101 Firefox/87.0,,Firefox,87,Windows,10
5,1,null,"""",html-keyboard-response,107,252962,0.0-107.0,"""","<div style=""font-size:60px;"">+</div>","""",256,fixation,Memorization,null,500,"""","""","""","""","""","""","""","""",1,4/18/2021 16:11,76.90.195.125,Mozilla/5.0 (Windows NT 10.0; Win64; x64; rv:87.0) Gecko/20100101 Firefox/87.0,,Firefox,87,Windows,10
5,1,2295,"""",html-keyboard-response,108,257982,0.0-108.0,"""","<img src='jspsych/CFDfaces/CFD-BM-022-022-N.jpg' height=""250px""></br><b>James</b>","""",256,IntactFace,Memorization,70,5000,f,"""",CFD-BF-019-001-N.jpg,Amy,0,"""","""","""",1,4/18/2021 16:11,76.90.195.125,Mozilla/5.0 (Windows NT 10.0; Win64; x64; rv:87.0) Gecko/20100101 Firefox/87.0,,Firefox,87,Windows,10
5,1,null,"""",html-keyboard-response,109,258502,0.0-109.0,"""","<div style=""font-size:60px;"">+</div>","""",256,fixation,Memorization,null,500,"""","""","""","""","""","""","""","""",1,4/18/2021 16:11,76.90.195.125,Mozilla/5.0 (Windows NT 10.0; Win64; x64; rv:87.0) Gecko/20100101 Firefox/87.0,,Firefox,87,Windows,10
5,1,2294,"""",html-keyboard-response,110,263524,0.0-110.0,"""","<img src='jspsych/CFDfaces/CFD-LF-231-260-N.jpg' height=""250px""></br><b>Ashley</b>","""",256,IntactFace,Memorization,78,5000,n,"""",CFD-BF-025-002-N.jpg,Lauren,0,"""","""","""",1,4/18/2021 16:11,76.90.195.125,Mozilla/5.0 (Windows NT 10.0; Win64; x64; rv:87.0) Gecko/20100101 Firefox/87.0,,Firefox,87,Windows,10
5,1,null,"""",html-keyboard-response,111,264044,0.0-111.0,"""","<div style=""font-size:60px;"">+</div>","""",256,fixation,Memorization,null,500,"""","""","""","""","""","""","""","""",1,4/18/2021 16:11,76.90.195.125,Mozilla/5.0 (Windows NT 10.0; Win64; x64; rv:87.0) Gecko/20100101 Firefox/87.0,,Firefox,87,Windows,10
5,1,3420,"""",html-keyboard-response,112,269064,0.0-112.0,"""","<img src='jspsych/CFDfaces/CFD-AF-241-141-N.jpg' height=""250px""></br><b>Stephanie</b>","""",256,IntactFace,Memorization,70,5000,f,"""",CFD-LM-201-057-N.jpg,Sean,0,"""","""","""",1,4/18/2021 16:11,76.90.195.125,Mozilla/5.0 (Windows NT 10.0; Win64; x64; rv:87.0) Gecko/20100101 Firefox/87.0,,Firefox,87,Windows,10
5,1,null,"""",html-keyboard-response,113,269583,0.0-113.0,"""","<div style=""font-size:60px;"">+</div>","""",256,fixation,Memorization,null,500,"""","""","""","""","""","""","""","""",1,4/18/2021 16:11,76.90.195.125,Mozilla/5.0 (Windows NT 10.0; Win64; x64; rv:87.0) Gecko/20100101 Firefox/87.0,,Firefox,87,Windows,10
5,1,2419,"""",html-keyboard-response,114,274604,0.0-114.0,"""","<img src='jspsych/CFDfaces/CFD-AM-211-052-N.jpg' height=""250px""></br><b>Daniel</b>","""",256,IntactFace,Memorization,70,5000,f,"""",CFD-LM-252-076-N.jpg,Jesse,0,"""","""","""",1,4/18/2021 16:11,76.90.195.125,Mozilla/5.0 (Windows NT 10.0; Win64; x64; rv:87.0) Gecko/20100101 Firefox/87.0,,Firefox,87,Windows,10
5,1,null,"""",html-keyboard-response,115,275123,0.0-115.0,"""","<div style=""font-size:60px;"">+</div>","""",256,fixation,Memorization,null,500,"""","""","""","""","""","""","""","""",1,4/18/2021 16:11,76.90.195.125,Mozilla/5.0 (Windows NT 10.0; Win64; x64; rv:87.0) Gecko/20100101 Firefox/87.0,,Firefox,87,Windows,10
5,1,1919,"""",html-keyboard-response,116,280133,0.0-116.0,"""","<img src='jspsych/CFDfaces/CFD-LF-201-035-N.jpg' height=""250px""></br><b>Meghan</b>","""",256,IntactFace,Memorization,70,5000,f,"""",CFD-LF-236-221-N.jpg,Taylor,0,"""","""","""",1,4/18/2021 16:11,76.90.195.125,Mozilla/5.0 (Windows NT 10.0; Win64; x64; rv:87.0) Gecko/20100101 Firefox/87.0,,Firefox,87,Windows,10
5,1,null,"""",html-keyboard-response,117,280653,0.0-117.0,"""","<div style=""font-size:60px;"">+</div>","""",256,fixation,Memorization,null,500,"""","""","""","""","""","""","""","""",1,4/18/2021 16:11,76.90.195.125,Mozilla/5.0 (Windows NT 10.0; Win64; x64; rv:87.0) Gecko/20100101 Firefox/87.0,,Firefox,87,Windows,10
5,1,2157,"""",html-keyboard-response,118,285672,0.0-118.0,"""","<img src='jspsych/CFDfaces/CFD-LM-219-295-N.jpg' height=""250px""></br><b>Juan</b>","""",256,IntactFace,Memorization,70,5000,f,"""",CFD-LM-200-045-N.jpg,Justin,0,"""","""","""",1,4/18/2021 16:11,76.90.195.125,Mozilla/5.0 (Windows NT 10.0; Win64; x64; rv:87.0) Gecko/20100101 Firefox/87.0,,Firefox,87,Windows,10
5,1,null,"""",html-keyboard-response,119,286192,0.0-119.0,"""","<div style=""font-size:60px;"">+</div>","""",256,fixation,Memorization,null,500,"""","""","""","""","""","""","""","""",1,4/18/2021 16:11,76.90.195.125,Mozilla/5.0 (Windows NT 10.0; Win64; x64; rv:87.0) Gecko/20100101 Firefox/87.0,,Firefox,87,Windows,10
5,1,3034,"""",html-keyboard-response,120,291215,0.0-120.0,"""","<img src='jspsych/CFDfaces/CFD-BF-039-031-N.jpg' height=""250px""></br><b>Michelle</b>","""",256,IntactFace,Memorization,78,5000,n,"""",CFD-AF-222-134-N.jpg,Tiffany,0,"""","""","""",1,4/18/2021 16:11,76.90.195.125,Mozilla/5.0 (Windows NT 10.0; Win64; x64; rv:87.0) Gecko/20100101 Firefox/87.0,,Firefox,87,Windows,10
5,1,null,"""",html-keyboard-response,121,291733,0.0-121.0,"""","<div style=""font-size:60px;"">+</div>","""",256,fixation,Memorization,null,500,"""","""","""","""","""","""","""","""",1,4/18/2021 16:11,76.90.195.125,Mozilla/5.0 (Windows NT 10.0; Win64; x64; rv:87.0) Gecko/20100101 Firefox/87.0,,Firefox,87,Windows,10
5,1,1814,"""",html-keyboard-response,122,296753,0.0-122.0,"""","<img src='jspsych/CFDfaces/CFD-WF-223-133-N.jpg' height=""250px""></br><b>Brittany</b>","""",256,IntactFace,Memorization,70,5000,f,"""",CFD-BF-001-025-N.jpg,Whitney,0,"""","""","""",1,4/18/2021 16:11,76.90.195.125,Mozilla/5.0 (Windows NT 10.0; Win64; x64; rv:87.0) Gecko/20100101 Firefox/87.0,,Firefox,87,Windows,10
5,1,null,"""",html-keyboard-response,123,297272,0.0-123.0,"""","<div style=""font-size:60px;"">+</div>","""",256,fixation,Memorization,null,500,"""","""","""","""","""","""","""","""",1,4/18/2021 16:11,76.90.195.125,Mozilla/5.0 (Windows NT 10.0; Win64; x64; rv:87.0) Gecko/20100101 Firefox/87.0,,Firefox,87,Windows,10
5,1,2888,"""",html-keyboard-response,124,302293,0.0-124.0,"""","<img src='jspsych/CFDfaces/CFD-WF-019-005-N.jpg' height=""250px""></br><b>Vanessa</b>","""",256,IntactFace,Memorization,70,5000,f,"""",CFD-WF-215-145-N.jpg,Angela,0,"""","""","""",1,4/18/2021 16:11,76.90.195.125,Mozilla/5.0 (Windows NT 10.0; Win64; x64; rv:87.0) Gecko/20100101 Firefox/87.0,,Firefox,87,Windows,10
5,1,null,"""",html-keyboard-response,125,302813,0.0-125.0,"""","<div style=""font-size:60px;"">+</div>","""",256,fixation,Memorization,null,500,"""","""","""","""","""","""","""","""",1,4/18/2021 16:11,76.90.195.125,Mozilla/5.0 (Windows NT 10.0; Win64; x64; rv:87.0) Gecko/20100101 Firefox/87.0,,Firefox,87,Windows,10
5,1,2637,"""",html-keyboard-response,126,307832,0.0-126.0,"""","<img src='jspsych/CFDfaces/CFD-AM-230-150-N.jpg' height=""250px""></br><b>Jason</b>","""",256,IntactFace,Memorization,70,5000,f,"""",CFD-WF-218-087-N.jpg,Jordan,0,"""","""","""",1,4/18/2021 16:11,76.90.195.125,Mozilla/5.0 (Windows NT 10.0; Win64; x64; rv:87.0) Gecko/20100101 Firefox/87.0,,Firefox,87,Windows,10
5,1,null,"""",html-keyboard-response,127,308352,0.0-127.0,"""","<div style=""font-size:60px;"">+</div>","""",256,fixation,Memorization,null,500,"""","""","""","""","""","""","""","""",1,4/18/2021 16:11,76.90.195.125,Mozilla/5.0 (Windows NT 10.0; Win64; x64; rv:87.0) Gecko/20100101 Firefox/87.0,,Firefox,87,Windows,10
5,1,3178,"""",html-keyboard-response,128,313363,0.0-128.0,"""","<img src='jspsych/CFDfaces/CFD-AM-243-212-N.jpg' height=""250px""></br><b>Robert</b>","""",256,IntactFace,Memorization,70,5000,f,"""",CFD-WM-020-001-N.jpg,Jacob,0,"""","""","""",1,4/18/2021 16:11,76.90.195.125,Mozilla/5.0 (Windows NT 10.0; Win64; x64; rv:87.0) Gecko/20100101 Firefox/87.0,,Firefox,87,Windows,10
5,1,null,"""",html-keyboard-response,129,313882,0.0-129.0,"""","<div style=""font-size:60px;"">+</div>","""",256,fixation,Memorization,null,500,"""","""","""","""","""","""","""","""",1,4/18/2021 16:11,76.90.195.125,Mozilla/5.0 (Windows NT 10.0; Win64; x64; rv:87.0) Gecko/20100101 Firefox/87.0,,Firefox,87,Windows,10
5,1,2631,"""",html-keyboard-response,130,318902,0.0-130.0,"""","<img src='jspsych/CFDfaces/CFD-LF-239-148-N.jpg' height=""250px""></br><b>Victoria</b>","""",256,IntactFace,Memorization,70,5000,f,"""",CFD-LM-221-216-N.jpg,Mark,0,"""","""","""",1,4/18/2021 16:11,76.90.195.125,Mozilla/5.0 (Windows NT 10.0; Win64; x64; rv:87.0) Gecko/20100101 Firefox/87.0,,Firefox,87,Windows,10
5,1,null,"""",html-keyboard-response,131,319422,0.0-131.0,"""","<div style=""font-size:60px;"">+</div>","""",256,fixation,Memorization,null,500,"""","""","""","""","""","""","""","""",1,4/18/2021 16:11,76.90.195.125,Mozilla/5.0 (Windows NT 10.0; Win64; x64; rv:87.0) Gecko/20100101 Firefox/87.0,,Firefox,87,Windows,10
5,1,2875,"""",html-keyboard-response,132,324431,0.0-132.0,"""","<img src='jspsych/CFDfaces/CFD-AF-239-171-N.jpg' height=""250px""></br><b>Elizabeth</b>","""",256,IntactFace,Memorization,78,5000,n,"""",CFD-AM-246-184-N.jpg,Luis,0,"""","""","""",1,4/18/2021 16:11,76.90.195.125,Mozilla/5.0 (Windows NT 10.0; Win64; x64; rv:87.0) Gecko/20100101 Firefox/87.0,,Firefox,87,Windows,10
5,1,null,"""",html-keyboard-response,133,324952,0.0-133.0,"""","<div style=""font-size:60px;"">+</div>","""",256,fixation,Memorization,null,500,"""","""","""","""","""","""","""","""",1,4/18/2021 16:11,76.90.195.125,Mozilla/5.0 (Windows NT 10.0; Win64; x64; rv:87.0) Gecko/20100101 Firefox/87.0,,Firefox,87,Windows,10
5,1,3507,"""",html-keyboard-response,134,329972,0.0-134.0,"""","<img src='jspsych/CFDfaces/CFD-WM-232-070-N.jpg' height=""250px""></br><b>Jeffrey</b>","""",256,IntactFace,Memorization,70,5000,f,"""",CFD-WM-212-097-N.jpg,Steven,0,"""","""","""",1,4/18/2021 16:11,76.90.195.125,Mozilla/5.0 (Windows NT 10.0; Win64; x64; rv:87.0) Gecko/20100101 Firefox/87.0,,Firefox,87,Windows,10
5,1,null,"""",html-keyboard-response,135,330492,0.0-135.0,"""","<div style=""font-size:60px;"">+</div>","""",256,fixation,Memorization,null,500,"""","""","""","""","""","""","""","""",1,4/18/2021 16:11,76.90.195.125,Mozilla/5.0 (Windows NT 10.0; Win64; x64; rv:87.0) Gecko/20100101 Firefox/87.0,,Firefox,87,Windows,10
5,1,4068,"""",html-keyboard-response,136,335512,0.0-136.0,"""","<img src='jspsych/CFDfaces/CFD-BF-016-017-N.jpg' height=""250px""></br><b>Samantha</b>","""",256,IntactFace,Memorization,70,5000,f,"""",CFD-AM-202-079-N.jpg,Vincent,0,"""","""","""",1,4/18/2021 16:11,76.90.195.125,Mozilla/5.0 (Windows NT 10.0; Win64; x64; rv:87.0) Gecko/20100101 Firefox/87.0,,Firefox,87,Windows,10
5,1,null,"""",html-keyboard-response,137,336032,0.0-137.0,"""","<div style=""font-size:60px;"">+</div>","""",256,fixation,Memorization,null,500,"""","""","""","""","""","""","""","""",1,4/18/2021 16:11,76.90.195.125,Mozilla/5.0 (Windows NT 10.0; Win64; x64; rv:87.0) Gecko/20100101 Firefox/87.0,,Firefox,87,Windows,10
5,1,2537,"""",html-keyboard-response,138,341052,0.0-138.0,"""","<img src='jspsych/CFDfaces/CFD-AM-214-168-N.jpg' height=""250px""></br><b>Eric</b>","""",256,IntactFace,Memorization,78,5000,n,"""",CFD-BF-226-119-N.jpg,Heather,0,"""","""","""",1,4/18/2021 16:11,76.90.195.125,Mozilla/5.0 (Windows NT 10.0; Win64; x64; rv:87.0) Gecko/20100101 Firefox/87.0,,Firefox,87,Windows,10
5,1,null,"""",html-keyboard-response,139,341573,0.0-139.0,"""","<div style=""font-size:60px;"">+</div>","""",256,fixation,Memorization,null,500,"""","""","""","""","""","""","""","""",1,4/18/2021 16:11,76.90.195.125,Mozilla/5.0 (Windows NT 10.0; Win64; x64; rv:87.0) Gecko/20100101 Firefox/87.0,,Firefox,87,Windows,10
5,1,3390,"""",html-keyboard-response,140,346592,0.0-140.0,"""","<img src='jspsych/CFDfaces/CFD-LF-208-127-N.jpg' height=""250px""></br><b>Amanda</b>","""",256,IntactFace,Memorization,78,5000,n,"""",CFD-LM-233-171-N.jpg,Cameron,0,"""","""","""",1,4/18/2021 16:11,76.90.195.125,Mozilla/5.0 (Windows NT 10.0; Win64; x64; rv:87.0) Gecko/20100101 Firefox/87.0,,Firefox,87,Windows,10
5,1,null,"""",html-keyboard-response,141,347111,0.0-141.0,"""","<div style=""font-size:60px;"">+</div>","""",256,fixation,Memorization,null,500,"""","""","""","""","""","""","""","""",1,4/18/2021 16:11,76.90.195.125,Mozilla/5.0 (Windows NT 10.0; Win64; x64; rv:87.0) Gecko/20100101 Firefox/87.0,,Firefox,87,Windows,10
5,1,2673,"""",html-keyboard-response,142,352122,0.0-142.0,"""","<img src='jspsych/CFDfaces/CFD-BM-208-065-N.jpg' height=""250px""></br><b>Gregory</b>","""",256,IntactFace,Memorization,70,5000,f,"""",CFD-LM-225-130-N.jpg,Travis,0,"""","""","""",1,4/18/2021 16:11,76.90.195.125,Mozilla/5.0 (Windows NT 10.0; Win64; x64; rv:87.0) Gecko/20100101 Firefox/87.0,,Firefox,87,Windows,10
5,1,null,"""",html-keyboard-response,143,352640,0.0-143.0,"""","<div style=""font-size:60px;"">+</div>","""",256,fixation,Memorization,null,500,"""","""","""","""","""","""","""","""",1,4/18/2021 16:11,76.90.195.125,Mozilla/5.0 (Windows NT 10.0; Win64; x64; rv:87.0) Gecko/20100101 Firefox/87.0,,Firefox,87,Windows,10
5,1,2297,"""",html-keyboard-response,144,357652,0.0-144.0,"""","<img src='jspsych/CFDfaces/CFD-AF-242-158-N.jpg' height=""250px""></br><b>Julie</b>","""",256,IntactFace,Memorization,70,5000,f,"""",CFD-BM-207-024-N.jpg,Dustin,0,"""","""","""",1,4/18/2021 16:11,76.90.195.125,Mozilla/5.0 (Windows NT 10.0; Win64; x64; rv:87.0) Gecko/20100101 Firefox/87.0,,Firefox,87,Windows,10
5,1,null,"""",html-keyboard-response,145,358171,0.0-145.0,"""","<div style=""font-size:60px;"">+</div>","""",256,fixation,Memorization,null,500,"""","""","""","""","""","""","""","""",1,4/18/2021 16:11,76.90.195.125,Mozilla/5.0 (Windows NT 10.0; Win64; x64; rv:87.0) Gecko/20100101 Firefox/87.0,,Firefox,87,Windows,10
5,1,2399,"""",html-keyboard-response,146,363191,0.0-146.0,"""","<img src='jspsych/CFDfaces/CFD-LM-248-089-N.jpg' height=""250px""></br><b>Brandon</b>","""",256,IntactFace,Memorization,70,5000,f,"""",CFD-LF-204-133-N.jpg,Jenna,0,"""","""","""",1,4/18/2021 16:11,76.90.195.125,Mozilla/5.0 (Windows NT 10.0; Win64; x64; rv:87.0) Gecko/20100101 Firefox/87.0,,Firefox,87,Windows,10
5,1,null,"""",html-keyboard-response,147,363712,0.0-147.0,"""","<div style=""font-size:60px;"">+</div>","""",256,fixation,Memorization,null,500,"""","""","""","""","""","""","""","""",1,4/18/2021 16:11,76.90.195.125,Mozilla/5.0 (Windows NT 10.0; Win64; x64; rv:87.0) Gecko/20100101 Firefox/87.0,,Firefox,87,Windows,10
5,1,2193,"""",html-keyboard-response,148,368732,0.0-148.0,"""","<img src='jspsych/CFDfaces/CFD-WF-023-003-N.jpg' height=""250px""></br><b>Kayla</b>","""",256,IntactFace,Memorization,70,5000,f,"""",CFD-AM-213-056-N.jpg,Kenneth,0,"""","""","""",1,4/18/2021 16:11,76.90.195.125,Mozilla/5.0 (Windows NT 10.0; Win64; x64; rv:87.0) Gecko/20100101 Firefox/87.0,,Firefox,87,Windows,10
5,1,null,"""",html-keyboard-response,149,369252,0.0-149.0,"""","<div style=""font-size:60px;"">+</div>","""",256,fixation,Memorization,null,500,"""","""","""","""","""","""","""","""",1,4/18/2021 16:11,76.90.195.125,Mozilla/5.0 (Windows NT 10.0; Win64; x64; rv:87.0) Gecko/20100101 Firefox/87.0,,Firefox,87,Windows,10
5,1,2956,"""",html-keyboard-response,150,374272,0.0-150.0,"""","<img src='jspsych/CFDfaces/CFD-WM-019-003-N.jpg' height=""250px""></br><b>Brian</b>","""",256,IntactFace,Memorization,78,5000,n,"""",CFD-LF-243-175-N.jpg,Erin,0,"""","""","""",1,4/18/2021 16:11,76.90.195.125,Mozilla/5.0 (Windows NT 10.0; Win64; x64; rv:87.0) Gecko/20100101 Firefox/87.0,,Firefox,87,Windows,10
5,1,null,"""",html-keyboard-response,151,374792,0.0-151.0,"""","<div style=""font-size:60px;"">+</div>","""",256,fixation,Memorization,null,500,"""","""","""","""","""","""","""","""",1,4/18/2021 16:11,76.90.195.125,Mozilla/5.0 (Windows NT 10.0; Win64; x64; rv:87.0) Gecko/20100101 Firefox/87.0,,Firefox,87,Windows,10
5,1,3226,"""",html-keyboard-response,152,379812,0.0-152.0,"""","<img src='jspsych/CFDfaces/CFD-BM-018-001-N.jpg' height=""250px""></br><b>Richard</b>","""",256,IntactFace,Memorization,70,5000,f,"""",CFD-WF-207-014-N.jpg,Rebecca,0,"""","""","""",1,4/18/2021 16:11,76.90.195.125,Mozilla/5.0 (Windows NT 10.0; Win64; x64; rv:87.0) Gecko/20100101 Firefox/87.0,,Firefox,87,Windows,10
5,1,null,"""",html-keyboard-response,153,380332,0.0-153.0,"""","<div style=""font-size:60px;"">+</div>","""",256,fixation,Memorization,null,500,"""","""","""","""","""","""","""","""",1,4/18/2021 16:11,76.90.195.125,Mozilla/5.0 (Windows NT 10.0; Win64; x64; rv:87.0) Gecko/20100101 Firefox/87.0,,Firefox,87,Windows,10
5,1,1478,"""",html-keyboard-response,154,381810,0.0-154.0,"""",Press Any Key to Begin Memory Test,"""",1,welcomeScreen,Break,32,"""","""","""","""","""","""","""","""","""",1,4/18/2021 16:11,76.90.195.125,Mozilla/5.0 (Windows NT 10.0; Win64; x64; rv:87.0) Gecko/20100101 Firefox/87.0,,Firefox,87,Windows,10
5,1,null,"""",html-keyboard-response,155,382821,0.0-155.0,"""","<div style=""font-size:60px;"">+</div>","""",256,ITI,Test,null,1000,"""","""","""","""","""","""","""","""",1,4/18/2021 16:11,76.90.195.125,Mozilla/5.0 (Windows NT 10.0; Win64; x64; rv:87.0) Gecko/20100101 Firefox/87.0,,Firefox,87,Windows,10
5,1,null,"""",image-keyboard-response,156,383082,0.0-156.0,"""",jspsych/scrambledNeutralFaces/scrambledBF33NES.JPG,"""",256,forwardMask,Test,null,250,"""",n,"""","""","""","""","""","""",1,4/18/2021 16:11,76.90.195.125,Mozilla/5.0 (Windows NT 10.0; Win64; x64; rv:87.0) Gecko/20100101 Firefox/87.0,,Firefox,87,Windows,10
5,1,null,"""",image-keyboard-response,157,383118,0.0-157.0,"""",jspsych/neutralFaces/BF33NES.JPG,"""",256,Cue,Test,null,16,"""","""","""","""","""","""","""","""",1,4/18/2021 16:11,76.90.195.125,Mozilla/5.0 (Windows NT 10.0; Win64; x64; rv:87.0) Gecko/20100101 Firefox/87.0,,Firefox,87,Windows,10
5,1,null,"""",image-keyboard-response,158,383241,0.0-158.0,"""",jspsych/neutralFaces/BF15NES.JPG,"""",256,backwardMask,Test,null,100,"""","""","""","""","""","""","""","""",1,4/18/2021 16:11,76.90.195.125,Mozilla/5.0 (Windows NT 10.0; Win64; x64; rv:87.0) Gecko/20100101 Firefox/87.0,,Firefox,87,Windows,10
5,1,null,"""",html-keyboard-response,159,384262,0.0-159.0,"""","<div style=""font-size:60px;"">+</div>","""",256,fixationBtwnNeutralMaskAndPrompt,Test,null,1000,"""","""","""","""","""","""","""","""",1,4/18/2021 16:11,76.90.195.125,Mozilla/5.0 (Windows NT 10.0; Win64; x64; rv:87.0) Gecko/20100101 Firefox/87.0,,Firefox,87,Windows,10
5,1,2018,"""",html-button-response,160,386283,0.0-160.0,"""","<img src='jspsych/CFDfaces/CFD-BF-016-017-N.jpg' height=""250px"">,</br><b>Samantha</b>",0,256,IntactOrRearranged,Test,"""","""","""","""",CFD-LF-220-120-N.jpg,Lauren,0,0,"""","""",1,4/18/2021 16:11,76.90.195.125,Mozilla/5.0 (Windows NT 10.0; Win64; x64; rv:87.0) Gecko/20100101 Firefox/87.0,,Firefox,87,Windows,10
5,1,2358,"""",html-slider-response,161,388643,0.0-161.0,"""","<img src='jspsych/CFDfaces/CFD-BF-016-017-N.jpg' height=""250px"">,</br><b>Samantha</b>","""",256,ConfidenceQuery,Test,"""","""","""","""",CFD-LF-220-120-N.jpg,Lauren,0,"""",0,73,1,4/18/2021 16:11,76.90.195.125,Mozilla/5.0 (Windows NT 10.0; Win64; x64; rv:87.0) Gecko/20100101 Firefox/87.0,,Firefox,87,Windows,10
5,1,null,"""",html-keyboard-response,162,389662,0.0-162.0,"""","<div style=""font-size:60px;"">+</div>","""",256,ITI,Test,null,1000,"""","""","""","""","""","""","""","""",1,4/18/2021 16:11,76.90.195.125,Mozilla/5.0 (Windows NT 10.0; Win64; x64; rv:87.0) Gecko/20100101 Firefox/87.0,,Firefox,87,Windows,10
5,1,null,"""",image-keyboard-response,163,389922,0.0-163.0,"""",jspsych/scrambledNeutralFaces/scrambledAF33NES.JPG,"""",256,forwardMask,Test,null,250,"""",n,"""","""","""","""","""","""",1,4/18/2021 16:11,76.90.195.125,Mozilla/5.0 (Windows NT 10.0; Win64; x64; rv:87.0) Gecko/20100101 Firefox/87.0,,Firefox,87,Windows,10
5,1,null,"""",image-keyboard-response,164,389942,0.0-164.0,"""",jspsych/neutralFaces/AF33NES.JPG,"""",256,Cue,Test,null,16,"""","""","""","""","""","""","""","""",1,4/18/2021 16:11,76.90.195.125,Mozilla/5.0 (Windows NT 10.0; Win64; x64; rv:87.0) Gecko/20100101 Firefox/87.0,,Firefox,87,Windows,10
5,1,null,"""",image-keyboard-response,165,390062,0.0-165.0,"""",jspsych/neutralFaces/AF34NES.JPG,"""",256,backwardMask,Test,null,100,"""","""","""","""","""","""","""","""",1,4/18/2021 16:11,76.90.195.125,Mozilla/5.0 (Windows NT 10.0; Win64; x64; rv:87.0) Gecko/20100101 Firefox/87.0,,Firefox,87,Windows,10
5,1,null,"""",html-keyboard-response,166,391082,0.0-166.0,"""","<div style=""font-size:60px;"">+</div>","""",256,fixationBtwnNeutralMaskAndPrompt,Test,null,1000,"""","""","""","""","""","""","""","""",1,4/18/2021 16:11,76.90.195.125,Mozilla/5.0 (Windows NT 10.0; Win64; x64; rv:87.0) Gecko/20100101 Firefox/87.0,,Firefox,87,Windows,10
5,1,4550,"""",html-button-response,167,395634,0.0-167.0,"""","<img src='jspsych/CFDfaces/CFD-BM-022-022-N.jpg' height=""250px"">,</br><b>Jeffrey</b>",1,256,IntactOrRearranged,Test,"""","""","""","""",CFD-BF-001-025-N.jpg,Whitney,1,1,"""","""",1,4/18/2021 16:11,76.90.195.125,Mozilla/5.0 (Windows NT 10.0; Win64; x64; rv:87.0) Gecko/20100101 Firefox/87.0,,Firefox,87,Windows,10
5,1,2190,"""",html-slider-response,168,397835,0.0-168.0,"""","<img src='jspsych/CFDfaces/CFD-BM-022-022-N.jpg' height=""250px"">,</br><b>Jeffrey</b>","""",256,ConfidenceQuery,Test,"""","""","""","""",CFD-BF-001-025-N.jpg,Whitney,1,"""",0,23,1,4/18/2021 16:11,76.90.195.125,Mozilla/5.0 (Windows NT 10.0; Win64; x64; rv:87.0) Gecko/20100101 Firefox/87.0,,Firefox,87,Windows,10
5,1,null,"""",html-keyboard-response,169,398851,0.0-169.0,"""","<div style=""font-size:60px;"">+</div>","""",256,ITI,Test,null,1000,"""","""","""","""","""","""","""","""",1,4/18/2021 16:11,76.90.195.125,Mozilla/5.0 (Windows NT 10.0; Win64; x64; rv:87.0) Gecko/20100101 Firefox/87.0,,Firefox,87,Windows,10
5,1,null,"""",image-keyboard-response,170,399111,0.0-170.0,"""",jspsych/scrambledNeutralFaces/scrambledAM31NES.JPG,"""",256,forwardMask,Test,null,250,"""",n,"""","""","""","""","""","""",1,4/18/2021 16:11,76.90.195.125,Mozilla/5.0 (Windows NT 10.0; Win64; x64; rv:87.0) Gecko/20100101 Firefox/87.0,,Firefox,87,Windows,10
5,1,null,"""",image-keyboard-response,171,399151,0.0-171.0,"""",jspsych/neutralFaces/AM31NES.JPG,"""",256,Cue,Test,null,16,"""","""","""","""","""","""","""","""",1,4/18/2021 16:11,76.90.195.125,Mozilla/5.0 (Windows NT 10.0; Win64; x64; rv:87.0) Gecko/20100101 Firefox/87.0,,Firefox,87,Windows,10
5,1,null,"""",image-keyboard-response,172,399272,0.0-172.0,"""",jspsych/neutralFaces/AM21NES.JPG,"""",256,backwardMask,Test,null,100,"""","""","""","""","""","""","""","""",1,4/18/2021 16:11,76.90.195.125,Mozilla/5.0 (Windows NT 10.0; Win64; x64; rv:87.0) Gecko/20100101 Firefox/87.0,,Firefox,87,Windows,10
5,1,null,"""",html-keyboard-response,173,400291,0.0-173.0,"""","<div style=""font-size:60px;"">+</div>","""",256,fixationBtwnNeutralMaskAndPrompt,Test,null,1000,"""","""","""","""","""","""","""","""",1,4/18/2021 16:11,76.90.195.125,Mozilla/5.0 (Windows NT 10.0; Win64; x64; rv:87.0) Gecko/20100101 Firefox/87.0,,Firefox,87,Windows,10
5,1,2685,"""",html-button-response,174,402978,0.0-174.0,"""","<img src='jspsych/CFDfaces/CFD-WM-232-070-N.jpg' height=""250px"">,</br><b>Richard</b>",1,256,IntactOrRearranged,Test,"""","""","""","""",CFD-WF-207-014-N.jpg,Rebecca,1,1,"""","""",1,4/18/2021 16:11,76.90.195.125,Mozilla/5.0 (Windows NT 10.0; Win64; x64; rv:87.0) Gecko/20100101 Firefox/87.0,,Firefox,87,Windows,10
5,1,2871,"""",html-slider-response,175,405858,0.0-175.0,"""","<img src='jspsych/CFDfaces/CFD-WM-232-070-N.jpg' height=""250px"">,</br><b>Richard</b>","""",256,ConfidenceQuery,Test,"""","""","""","""",CFD-WF-207-014-N.jpg,Rebecca,1,"""",0,66,1,4/18/2021 16:11,76.90.195.125,Mozilla/5.0 (Windows NT 10.0; Win64; x64; rv:87.0) Gecko/20100101 Firefox/87.0,,Firefox,87,Windows,10
5,1,null,"""",html-keyboard-response,176,406871,0.0-176.0,"""","<div style=""font-size:60px;"">+</div>","""",256,ITI,Test,null,1000,"""","""","""","""","""","""","""","""",1,4/18/2021 16:11,76.90.195.125,Mozilla/5.0 (Windows NT 10.0; Win64; x64; rv:87.0) Gecko/20100101 Firefox/87.0,,Firefox,87,Windows,10
5,1,null,"""",image-keyboard-response,177,407132,0.0-177.0,"""",jspsych/scrambledNeutralFaces/scrambledAM22NES.JPG,"""",256,forwardMask,Test,null,250,"""",n,"""","""","""","""","""","""",1,4/18/2021 16:11,76.90.195.125,Mozilla/5.0 (Windows NT 10.0; Win64; x64; rv:87.0) Gecko/20100101 Firefox/87.0,,Firefox,87,Windows,10
5,1,null,"""",image-keyboard-response,178,407171,0.0-178.0,"""",jspsych/neutralFaces/AM22NES.JPG,"""",256,Cue,Test,null,16,"""","""","""","""","""","""","""","""",1,4/18/2021 16:11,76.90.195.125,Mozilla/5.0 (Windows NT 10.0; Win64; x64; rv:87.0) Gecko/20100101 Firefox/87.0,,Firefox,87,Windows,10
5,1,null,"""",image-keyboard-response,179,407291,0.0-179.0,"""",jspsych/neutralFaces/BM04NES.JPG,"""",256,backwardMask,Test,null,100,"""","""","""","""","""","""","""","""",1,4/18/2021 16:11,76.90.195.125,Mozilla/5.0 (Windows NT 10.0; Win64; x64; rv:87.0) Gecko/20100101 Firefox/87.0,,Firefox,87,Windows,10
5,1,null,"""",html-keyboard-response,180,408302,0.0-180.0,"""","<div style=""font-size:60px;"">+</div>","""",256,fixationBtwnNeutralMaskAndPrompt,Test,null,1000,"""","""","""","""","""","""","""","""",1,4/18/2021 16:11,76.90.195.125,Mozilla/5.0 (Windows NT 10.0; Win64; x64; rv:87.0) Gecko/20100101 Firefox/87.0,,Firefox,87,Windows,10
5,1,3515,"""",html-button-response,181,411818,0.0-181.0,"""","<img src='jspsych/CFDfaces/CFD-LM-219-295-N.jpg' height=""250px"">,</br><b>Juan</b>",0,256,IntactOrRearranged,Test,"""","""","""","""",CFD-BF-025-002-N.jpg,Jordan,0,0,"""","""",1,4/18/2021 16:11,76.90.195.125,Mozilla/5.0 (Windows NT 10.0; Win64; x64; rv:87.0) Gecko/20100101 Firefox/87.0,,Firefox,87,Windows,10
5,1,2959,"""",html-slider-response,182,414786,0.0-182.0,"""","<img src='jspsych/CFDfaces/CFD-LM-219-295-N.jpg' height=""250px"">,</br><b>Juan</b>","""",256,ConfidenceQuery,Test,"""","""","""","""",CFD-BF-025-002-N.jpg,Jordan,0,"""",0,60,1,4/18/2021 16:11,76.90.195.125,Mozilla/5.0 (Windows NT 10.0; Win64; x64; rv:87.0) Gecko/20100101 Firefox/87.0,,Firefox,87,Windows,10
5,1,null,"""",html-keyboard-response,183,415791,0.0-183.0,"""","<div style=""font-size:60px;"">+</div>","""",256,ITI,Test,null,1000,"""","""","""","""","""","""","""","""",1,4/18/2021 16:11,76.90.195.125,Mozilla/5.0 (Windows NT 10.0; Win64; x64; rv:87.0) Gecko/20100101 Firefox/87.0,,Firefox,87,Windows,10
5,1,null,"""",image-keyboard-response,184,416052,0.0-184.0,"""",jspsych/scrambledNeutralFaces/scrambledAF27NES.JPG,"""",256,forwardMask,Test,null,250,"""",n,"""","""","""","""","""","""",1,4/18/2021 16:11,76.90.195.125,Mozilla/5.0 (Windows NT 10.0; Win64; x64; rv:87.0) Gecko/20100101 Firefox/87.0,,Firefox,87,Windows,10
5,1,null,"""",image-keyboard-response,185,416092,0.0-185.0,"""",jspsych/neutralFaces/AF27NES.JPG,"""",256,Cue,Test,null,16,"""","""","""","""","""","""","""","""",1,4/18/2021 16:11,76.90.195.125,Mozilla/5.0 (Windows NT 10.0; Win64; x64; rv:87.0) Gecko/20100101 Firefox/87.0,,Firefox,87,Windows,10
5,1,null,"""",image-keyboard-response,186,416211,0.0-186.0,"""",jspsych/neutralFaces/AF11NES.JPG,"""",256,backwardMask,Test,null,100,"""","""","""","""","""","""","""","""",1,4/18/2021 16:11,76.90.195.125,Mozilla/5.0 (Windows NT 10.0; Win64; x64; rv:87.0) Gecko/20100101 Firefox/87.0,,Firefox,87,Windows,10
5,1,null,"""",html-keyboard-response,187,417231,0.0-187.0,"""","<div style=""font-size:60px;"">+</div>","""",256,fixationBtwnNeutralMaskAndPrompt,Test,null,1000,"""","""","""","""","""","""","""","""",1,4/18/2021 16:11,76.90.195.125,Mozilla/5.0 (Windows NT 10.0; Win64; x64; rv:87.0) Gecko/20100101 Firefox/87.0,,Firefox,87,Windows,10
5,1,2425,"""",html-button-response,188,419658,0.0-188.0,"""","<img src='jspsych/CFDfaces/CFD-BF-039-031-N.jpg' height=""250px"">,</br><b>Michelle</b>",0,256,IntactOrRearranged,Test,"""","""","""","""",CFD-LM-252-076-N.jpg,Kenneth,0,0,"""","""",1,4/18/2021 16:11,76.90.195.125,Mozilla/5.0 (Windows NT 10.0; Win64; x64; rv:87.0) Gecko/20100101 Firefox/87.0,,Firefox,87,Windows,10
5,1,2005,"""",html-slider-response,189,421675,0.0-189.0,"""","<img src='jspsych/CFDfaces/CFD-BF-039-031-N.jpg' height=""250px"">,</br><b>Michelle</b>","""",256,ConfidenceQuery,Test,"""","""","""","""",CFD-LM-252-076-N.jpg,Kenneth,0,"""",0,58,1,4/18/2021 16:11,76.90.195.125,Mozilla/5.0 (Windows NT 10.0; Win64; x64; rv:87.0) Gecko/20100101 Firefox/87.0,,Firefox,87,Windows,10
5,1,null,"""",html-keyboard-response,190,422691,0.0-190.0,"""","<div style=""font-size:60px;"">+</div>","""",256,ITI,Test,null,1000,"""","""","""","""","""","""","""","""",1,4/18/2021 16:11,76.90.195.125,Mozilla/5.0 (Windows NT 10.0; Win64; x64; rv:87.0) Gecko/20100101 Firefox/87.0,,Firefox,87,Windows,10
5,1,null,"""",image-keyboard-response,191,422947,0.0-191.0,"""",jspsych/scrambledDisgustFaces/scrambledAM05DIS.JPG,"""",256,forwardMask,Test,null,250,"""",d,"""","""","""","""","""","""",1,4/18/2021 16:11,76.90.195.125,Mozilla/5.0 (Windows NT 10.0; Win64; x64; rv:87.0) Gecko/20100101 Firefox/87.0,,Firefox,87,Windows,10
5,1,null,"""",image-keyboard-response,192,422971,0.0-192.0,"""",jspsych/disgustFaces/AM05DIS.JPG,"""",256,Cue,Test,null,16,"""","""","""","""","""","""","""","""",1,4/18/2021 16:11,76.90.195.125,Mozilla/5.0 (Windows NT 10.0; Win64; x64; rv:87.0) Gecko/20100101 Firefox/87.0,,Firefox,87,Windows,10
5,1,null,"""",image-keyboard-response,193,423092,0.0-193.0,"""",jspsych/neutralFaces/AM29NES.JPG,"""",256,backwardMask,Test,null,100,"""","""","""","""","""","""","""","""",1,4/18/2021 16:11,76.90.195.125,Mozilla/5.0 (Windows NT 10.0; Win64; x64; rv:87.0) Gecko/20100101 Firefox/87.0,,Firefox,87,Windows,10
5,1,null,"""",html-keyboard-response,194,424111,0.0-194.0,"""","<div style=""font-size:60px;"">+</div>","""",256,fixationBtwnNeutralMaskAndPrompt,Test,null,1000,"""","""","""","""","""","""","""","""",1,4/18/2021 16:11,76.90.195.125,Mozilla/5.0 (Windows NT 10.0; Win64; x64; rv:87.0) Gecko/20100101 Firefox/87.0,,Firefox,87,Windows,10
5,1,2074,"""",html-button-response,195,426187,0.0-195.0,"""","<img src='jspsych/CFDfaces/CFD-AM-243-212-N.jpg' height=""250px"">,</br><b>Robert</b>",0,256,IntactOrRearranged,Test,"""","""","""","""",CFD-LM-221-216-N.jpg,Jesse,0,0,"""","""",1,4/18/2021 16:11,76.90.195.125,Mozilla/5.0 (Windows NT 10.0; Win64; x64; rv:87.0) Gecko/20100101 Firefox/87.0,,Firefox,87,Windows,10
5,1,null,"""",html-slider-response,196,431201,0.0-196.0,"""","<img src='jspsych/CFDfaces/CFD-AM-243-212-N.jpg' height=""250px"">,</br><b>Robert</b>","""",256,ConfidenceQuery,Test,"""","""","""","""",CFD-LM-221-216-N.jpg,Jesse,0,"""",0,null,1,4/18/2021 16:11,76.90.195.125,Mozilla/5.0 (Windows NT 10.0; Win64; x64; rv:87.0) Gecko/20100101 Firefox/87.0,,Firefox,87,Windows,10
5,1,null,"""",html-keyboard-response,197,432221,0.0-197.0,"""","<div style=""font-size:60px;"">+</div>","""",256,ITI,Test,null,1000,"""","""","""","""","""","""","""","""",1,4/18/2021 16:11,76.90.195.125,Mozilla/5.0 (Windows NT 10.0; Win64; x64; rv:87.0) Gecko/20100101 Firefox/87.0,,Firefox,87,Windows,10
5,1,null,"""",image-keyboard-response,198,432501,0.0-198.0,"""",jspsych/scrambledNeutralFaces/scrambledAF12NES.JPG,"""",256,forwardMask,Test,null,250,"""",n,"""","""","""","""","""","""",1,4/18/2021 16:11,76.90.195.125,Mozilla/5.0 (Windows NT 10.0; Win64; x64; rv:87.0) Gecko/20100101 Firefox/87.0,,Firefox,87,Windows,10
5,1,null,"""",image-keyboard-response,199,432542,0.0-199.0,"""",jspsych/neutralFaces/AF12NES.JPG,"""",256,Cue,Test,null,16,"""","""","""","""","""","""","""","""",1,4/18/2021 16:11,76.90.195.125,Mozilla/5.0 (Windows NT 10.0; Win64; x64; rv:87.0) Gecko/20100101 Firefox/87.0,,Firefox,87,Windows,10
5,1,null,"""",image-keyboard-response,200,432661,0.0-200.0,"""",jspsych/neutralFaces/BF23NES.JPG,"""",256,backwardMask,Test,null,100,"""","""","""","""","""","""","""","""",1,4/18/2021 16:11,76.90.195.125,Mozilla/5.0 (Windows NT 10.0; Win64; x64; rv:87.0) Gecko/20100101 Firefox/87.0,,Firefox,87,Windows,10
5,1,null,"""",html-keyboard-response,201,433681,0.0-201.0,"""","<div style=""font-size:60px;"">+</div>","""",256,fixationBtwnNeutralMaskAndPrompt,Test,null,1000,"""","""","""","""","""","""","""","""",1,4/18/2021 16:11,76.90.195.125,Mozilla/5.0 (Windows NT 10.0; Win64; x64; rv:87.0) Gecko/20100101 Firefox/87.0,,Firefox,87,Windows,10
5,1,2687,"""",html-button-response,202,436370,0.0-202.0,"""","<img src='jspsych/CFDfaces/CFD-LF-231-260-N.jpg' height=""250px"">,</br><b>Elizabeth</b>",1,256,IntactOrRearranged,Test,"""","""","""","""",CFD-AF-222-134-N.jpg,Tiffany,1,1,"""","""",1,4/18/2021 16:11,76.90.195.125,Mozilla/5.0 (Windows NT 10.0; Win64; x64; rv:87.0) Gecko/20100101 Firefox/87.0,,Firefox,87,Windows,10
5,1,null,"""",html-slider-response,203,441382,0.0-203.0,"""","<img src='jspsych/CFDfaces/CFD-LF-231-260-N.jpg' height=""250px"">,</br><b>Elizabeth</b>","""",256,ConfidenceQuery,Test,"""","""","""","""",CFD-AF-222-134-N.jpg,Tiffany,1,"""",0,null,1,4/18/2021 16:11,76.90.195.125,Mozilla/5.0 (Windows NT 10.0; Win64; x64; rv:87.0) Gecko/20100101 Firefox/87.0,,Firefox,87,Windows,10
5,1,null,"""",html-keyboard-response,204,442402,0.0-204.0,"""","<div style=""font-size:60px;"">+</div>","""",256,ITI,Test,null,1000,"""","""","""","""","""","""","""","""",1,4/18/2021 16:11,76.90.195.125,Mozilla/5.0 (Windows NT 10.0; Win64; x64; rv:87.0) Gecko/20100101 Firefox/87.0,,Firefox,87,Windows,10
5,1,null,"""",image-keyboard-response,205,442662,0.0-205.0,"""",jspsych/scrambledDisgustFaces/scrambledBM12DIS.JPG,"""",256,forwardMask,Test,null,250,"""",d,"""","""","""","""","""","""",1,4/18/2021 16:11,76.90.195.125,Mozilla/5.0 (Windows NT 10.0; Win64; x64; rv:87.0) Gecko/20100101 Firefox/87.0,,Firefox,87,Windows,10
5,1,null,"""",image-keyboard-response,206,442701,0.0-206.0,"""",jspsych/disgustFaces/BM13DIS.JPG,"""",256,Cue,Test,null,16,"""","""","""","""","""","""","""","""",1,4/18/2021 16:11,76.90.195.125,Mozilla/5.0 (Windows NT 10.0; Win64; x64; rv:87.0) Gecko/20100101 Firefox/87.0,,Firefox,87,Windows,10
5,1,null,"""",image-keyboard-response,207,442821,0.0-207.0,"""",jspsych/neutralFaces/BM14NES.JPG,"""",256,backwardMask,Test,null,100,"""","""","""","""","""","""","""","""",1,4/18/2021 16:11,76.90.195.125,Mozilla/5.0 (Windows NT 10.0; Win64; x64; rv:87.0) Gecko/20100101 Firefox/87.0,,Firefox,87,Windows,10
5,1,null,"""",html-keyboard-response,208,443841,0.0-208.0,"""","<div style=""font-size:60px;"">+</div>","""",256,fixationBtwnNeutralMaskAndPrompt,Test,null,1000,"""","""","""","""","""","""","""","""",1,4/18/2021 16:11,76.90.195.125,Mozilla/5.0 (Windows NT 10.0; Win64; x64; rv:87.0) Gecko/20100101 Firefox/87.0,,Firefox,87,Windows,10
5,1,4823,"""",html-button-response,209,448666,0.0-209.0,"""","<img src='jspsych/CFDfaces/CFD-BM-208-065-N.jpg' height=""250px"">,</br><b>Daniel</b>",0,256,IntactOrRearranged,Test,"""","""","""","""",CFD-BM-207-024-N.jpg,Dustin,1,0,"""","""",1,4/18/2021 16:11,76.90.195.125,Mozilla/5.0 (Windows NT 10.0; Win64; x64; rv:87.0) Gecko/20100101 Firefox/87.0,,Firefox,87,Windows,10
5,1,3029,"""",html-slider-response,210,451706,0.0-210.0,"""","<img src='jspsych/CFDfaces/CFD-BM-208-065-N.jpg' height=""250px"">,</br><b>Daniel</b>","""",256,ConfidenceQuery,Test,"""","""","""","""",CFD-BM-207-024-N.jpg,Dustin,1,"""",0,59,1,4/18/2021 16:11,76.90.195.125,Mozilla/5.0 (Windows NT 10.0; Win64; x64; rv:87.0) Gecko/20100101 Firefox/87.0,,Firefox,87,Windows,10
5,1,null,"""",html-keyboard-response,211,452711,0.0-211.0,"""","<div style=""font-size:60px;"">+</div>","""",256,ITI,Test,null,1000,"""","""","""","""","""","""","""","""",1,4/18/2021 16:11,76.90.195.125,Mozilla/5.0 (Windows NT 10.0; Win64; x64; rv:87.0) Gecko/20100101 Firefox/87.0,,Firefox,87,Windows,10
5,1,null,"""",image-keyboard-response,212,452970,0.0-212.0,"""",jspsych/scrambledDisgustFaces/scrambledBF16DIS.JPG,"""",256,forwardMask,Test,null,250,"""",d,"""","""","""","""","""","""",1,4/18/2021 16:11,76.90.195.125,Mozilla/5.0 (Windows NT 10.0; Win64; x64; rv:87.0) Gecko/20100101 Firefox/87.0,,Firefox,87,Windows,10
5,1,null,"""",image-keyboard-response,213,453011,0.0-213.0,"""",jspsych/disgustFaces/BF16DIS.JPG,"""",256,Cue,Test,null,16,"""","""","""","""","""","""","""","""",1,4/18/2021 16:11,76.90.195.125,Mozilla/5.0 (Windows NT 10.0; Win64; x64; rv:87.0) Gecko/20100101 Firefox/87.0,,Firefox,87,Windows,10
5,1,null,"""",image-keyboard-response,214,453131,0.0-214.0,"""",jspsych/neutralFaces/AF20NES.JPG,"""",256,backwardMask,Test,null,100,"""","""","""","""","""","""","""","""",1,4/18/2021 16:11,76.90.195.125,Mozilla/5.0 (Windows NT 10.0; Win64; x64; rv:87.0) Gecko/20100101 Firefox/87.0,,Firefox,87,Windows,10
5,1,null,"""",html-keyboard-response,215,454151,0.0-215.0,"""","<div style=""font-size:60px;"">+</div>","""",256,fixationBtwnNeutralMaskAndPrompt,Test,null,1000,"""","""","""","""","""","""","""","""",1,4/18/2021 16:11,76.90.195.125,Mozilla/5.0 (Windows NT 10.0; Win64; x64; rv:87.0) Gecko/20100101 Firefox/87.0,,Firefox,87,Windows,10
5,1,2809,"""",html-button-response,216,456962,0.0-216.0,"""","<img src='jspsych/CFDfaces/CFD-LF-208-127-N.jpg' height=""250px"">,</br><b>Christina</b>",1,256,IntactOrRearranged,Test,"""","""","""","""",CFD-WM-041-021-N.jpg,Austin,1,1,"""","""",1,4/18/2021 16:11,76.90.195.125,Mozilla/5.0 (Windows NT 10.0; Win64; x64; rv:87.0) Gecko/20100101 Firefox/87.0,,Firefox,87,Windows,10
5,1,2526,"""",html-slider-response,217,459498,0.0-217.0,"""","<img src='jspsych/CFDfaces/CFD-LF-208-127-N.jpg' height=""250px"">,</br><b>Christina</b>","""",256,ConfidenceQuery,Test,"""","""","""","""",CFD-WM-041-021-N.jpg,Austin,1,"""",0,70,1,4/18/2021 16:11,76.90.195.125,Mozilla/5.0 (Windows NT 10.0; Win64; x64; rv:87.0) Gecko/20100101 Firefox/87.0,,Firefox,87,Windows,10
5,1,null,"""",html-keyboard-response,218,460511,0.0-218.0,"""","<div style=""font-size:60px;"">+</div>","""",256,ITI,Test,null,1000,"""","""","""","""","""","""","""","""",1,4/18/2021 16:11,76.90.195.125,Mozilla/5.0 (Windows NT 10.0; Win64; x64; rv:87.0) Gecko/20100101 Firefox/87.0,,Firefox,87,Windows,10
5,1,null,"""",image-keyboard-response,219,460771,0.0-219.0,"""",jspsych/scrambledDisgustFaces/scrambledAM05DIS.JPG,"""",256,forwardMask,Test,null,250,"""",d,"""","""","""","""","""","""",1,4/18/2021 16:11,76.90.195.125,Mozilla/5.0 (Windows NT 10.0; Win64; x64; rv:87.0) Gecko/20100101 Firefox/87.0,,Firefox,87,Windows,10
5,1,null,"""",image-keyboard-response,220,460792,0.0-220.0,"""",jspsych/disgustFaces/AM05DIS.JPG,"""",256,Cue,Test,null,16,"""","""","""","""","""","""","""","""",1,4/18/2021 16:11,76.90.195.125,Mozilla/5.0 (Windows NT 10.0; Win64; x64; rv:87.0) Gecko/20100101 Firefox/87.0,,Firefox,87,Windows,10
5,1,null,"""",image-keyboard-response,221,460911,0.0-221.0,"""",jspsych/neutralFaces/AM33NES.JPG,"""",256,backwardMask,Test,null,100,"""","""","""","""","""","""","""","""",1,4/18/2021 16:11,76.90.195.125,Mozilla/5.0 (Windows NT 10.0; Win64; x64; rv:87.0) Gecko/20100101 Firefox/87.0,,Firefox,87,Windows,10
5,1,null,"""",html-keyboard-response,222,461921,0.0-222.0,"""","<div style=""font-size:60px;"">+</div>","""",256,fixationBtwnNeutralMaskAndPrompt,Test,null,1000,"""","""","""","""","""","""","""","""",1,4/18/2021 16:11,76.90.195.125,Mozilla/5.0 (Windows NT 10.0; Win64; x64; rv:87.0) Gecko/20100101 Firefox/87.0,,Firefox,87,Windows,10
5,1,2535,"""",html-button-response,223,464458,0.0-223.0,"""","<img src='jspsych/CFDfaces/CFD-WF-017-003-N.jpg' height=""250px"">,</br><b>Emily</b>",1,256,IntactOrRearranged,Test,"""","""","""","""",CFD-AM-213-056-N.jpg,Jeremy,1,1,"""","""",1,4/18/2021 16:11,76.90.195.125,Mozilla/5.0 (Windows NT 10.0; Win64; x64; rv:87.0) Gecko/20100101 Firefox/87.0,,Firefox,87,Windows,10
5,1,2318,"""",html-slider-response,224,466786,0.0-224.0,"""","<img src='jspsych/CFDfaces/CFD-WF-017-003-N.jpg' height=""250px"">,</br><b>Emily</b>","""",256,ConfidenceQuery,Test,"""","""","""","""",CFD-AM-213-056-N.jpg,Jeremy,1,"""",0,51,1,4/18/2021 16:11,76.90.195.125,Mozilla/5.0 (Windows NT 10.0; Win64; x64; rv:87.0) Gecko/20100101 Firefox/87.0,,Firefox,87,Windows,10
5,1,null,"""",html-keyboard-response,225,467801,0.0-225.0,"""","<div style=""font-size:60px;"">+</div>","""",256,ITI,Test,null,1000,"""","""","""","""","""","""","""","""",1,4/18/2021 16:11,76.90.195.125,Mozilla/5.0 (Windows NT 10.0; Win64; x64; rv:87.0) Gecko/20100101 Firefox/87.0,,Firefox,87,Windows,10
5,1,null,"""",image-keyboard-response,226,468061,0.0-226.0,"""",jspsych/scrambledDisgustFaces/scrambledAM13DIS.JPG,"""",256,forwardMask,Test,null,250,"""",d,"""","""","""","""","""","""",1,4/18/2021 16:11,76.90.195.125,Mozilla/5.0 (Windows NT 10.0; Win64; x64; rv:87.0) Gecko/20100101 Firefox/87.0,,Firefox,87,Windows,10
5,1,null,"""",image-keyboard-response,227,468101,0.0-227.0,"""",jspsych/disgustFaces/AM13DIS.JPG,"""",256,Cue,Test,null,16,"""","""","""","""","""","""","""","""",1,4/18/2021 16:11,76.90.195.125,Mozilla/5.0 (Windows NT 10.0; Win64; x64; rv:87.0) Gecko/20100101 Firefox/87.0,,Firefox,87,Windows,10
5,1,null,"""",image-keyboard-response,228,468217,0.0-228.0,"""",jspsych/neutralFaces/AM27NES.JPG,"""",256,backwardMask,Test,null,100,"""","""","""","""","""","""","""","""",1,4/18/2021 16:11,76.90.195.125,Mozilla/5.0 (Windows NT 10.0; Win64; x64; rv:87.0) Gecko/20100101 Firefox/87.0,,Firefox,87,Windows,10
5,1,null,"""",html-keyboard-response,229,469221,0.0-229.0,"""","<div style=""font-size:60px;"">+</div>","""",256,fixationBtwnNeutralMaskAndPrompt,Test,null,1000,"""","""","""","""","""","""","""","""",1,4/18/2021 16:11,76.90.195.125,Mozilla/5.0 (Windows NT 10.0; Win64; x64; rv:87.0) Gecko/20100101 Firefox/87.0,,Firefox,87,Windows,10
5,1,3851,"""",html-button-response,230,473073,0.0-230.0,"""","<img src='jspsych/CFDfaces/CFD-WF-023-003-N.jpg' height=""250px"">,</br><b>Kayla</b>",1,256,IntactOrRearranged,Test,"""","""","""","""",CFD-BF-009-002-N.jpg,Melissa,0,1,"""","""",1,4/18/2021 16:11,76.90.195.125,Mozilla/5.0 (Windows NT 10.0; Win64; x64; rv:87.0) Gecko/20100101 Firefox/87.0,,Firefox,87,Windows,10
5,1,3364,"""",html-slider-response,231,476450,0.0-231.0,"""","<img src='jspsych/CFDfaces/CFD-WF-023-003-N.jpg' height=""250px"">,</br><b>Kayla</b>","""",256,ConfidenceQuery,Test,"""","""","""","""",CFD-BF-009-002-N.jpg,Melissa,0,"""",0,39,1,4/18/2021 16:11,76.90.195.125,Mozilla/5.0 (Windows NT 10.0; Win64; x64; rv:87.0) Gecko/20100101 Firefox/87.0,,Firefox,87,Windows,10
5,1,null,"""",html-keyboard-response,232,477461,0.0-232.0,"""","<div style=""font-size:60px;"">+</div>","""",256,ITI,Test,null,1000,"""","""","""","""","""","""","""","""",1,4/18/2021 16:11,76.90.195.125,Mozilla/5.0 (Windows NT 10.0; Win64; x64; rv:87.0) Gecko/20100101 Firefox/87.0,,Firefox,87,Windows,10
5,1,null,"""",image-keyboard-response,233,477721,0.0-233.0,"""",jspsych/scrambledDisgustFaces/scrambledAF03DIS.JPG,"""",256,forwardMask,Test,null,250,"""",d,"""","""","""","""","""","""",1,4/18/2021 16:11,76.90.195.125,Mozilla/5.0 (Windows NT 10.0; Win64; x64; rv:87.0) Gecko/20100101 Firefox/87.0,,Firefox,87,Windows,10
5,1,null,"""",image-keyboard-response,234,477761,0.0-234.0,"""",jspsych/disgustFaces/AF03DIS.JPG,"""",256,Cue,Test,null,16,"""","""","""","""","""","""","""","""",1,4/18/2021 16:11,76.90.195.125,Mozilla/5.0 (Windows NT 10.0; Win64; x64; rv:87.0) Gecko/20100101 Firefox/87.0,,Firefox,87,Windows,10
5,1,null,"""",image-keyboard-response,235,477881,0.0-235.0,"""",jspsych/neutralFaces/BF31NES.JPG,"""",256,backwardMask,Test,null,100,"""","""","""","""","""","""","""","""",1,4/18/2021 16:11,76.90.195.125,Mozilla/5.0 (Windows NT 10.0; Win64; x64; rv:87.0) Gecko/20100101 Firefox/87.0,,Firefox,87,Windows,10
5,1,null,"""",html-keyboard-response,236,478901,0.0-236.0,"""","<div style=""font-size:60px;"">+</div>","""",256,fixationBtwnNeutralMaskAndPrompt,Test,null,1000,"""","""","""","""","""","""","""","""",1,4/18/2021 16:11,76.90.195.125,Mozilla/5.0 (Windows NT 10.0; Win64; x64; rv:87.0) Gecko/20100101 Firefox/87.0,,Firefox,87,Windows,10
5,1,4043,"""",html-button-response,237,482945,0.0-237.0,"""","<img src='jspsych/CFDfaces/CFD-AM-214-168-N.jpg' height=""250px"">,</br><b>Gregory</b>",1,256,IntactOrRearranged,Test,"""","""","""","""",CFD-LM-233-171-N.jpg,Timothy,1,1,"""","""",1,4/18/2021 16:11,76.90.195.125,Mozilla/5.0 (Windows NT 10.0; Win64; x64; rv:87.0) Gecko/20100101 Firefox/87.0,,Firefox,87,Windows,10
5,1,3014,"""",html-slider-response,238,485970,0.0-238.0,"""","<img src='jspsych/CFDfaces/CFD-AM-214-168-N.jpg' height=""250px"">,</br><b>Gregory</b>","""",256,ConfidenceQuery,Test,"""","""","""","""",CFD-LM-233-171-N.jpg,Timothy,1,"""",0,37,1,4/18/2021 16:11,76.90.195.125,Mozilla/5.0 (Windows NT 10.0; Win64; x64; rv:87.0) Gecko/20100101 Firefox/87.0,,Firefox,87,Windows,10
5,1,null,"""",html-keyboard-response,239,486972,0.0-239.0,"""","<div style=""font-size:60px;"">+</div>","""",256,ITI,Test,null,1000,"""","""","""","""","""","""","""","""",1,4/18/2021 16:11,76.90.195.125,Mozilla/5.0 (Windows NT 10.0; Win64; x64; rv:87.0) Gecko/20100101 Firefox/87.0,,Firefox,87,Windows,10
5,1,null,"""",image-keyboard-response,240,487231,0.0-240.0,"""",jspsych/scrambledNeutralFaces/scrambledBM13NES.JPG,"""",256,forwardMask,Test,null,250,"""",n,"""","""","""","""","""","""",1,4/18/2021 16:11,76.90.195.125,Mozilla/5.0 (Windows NT 10.0; Win64; x64; rv:87.0) Gecko/20100101 Firefox/87.0,,Firefox,87,Windows,10
5,1,null,"""",image-keyboard-response,241,487271,0.0-241.0,"""",jspsych/neutralFaces/BM13NES.JPG,"""",256,Cue,Test,null,16,"""","""","""","""","""","""","""","""",1,4/18/2021 16:11,76.90.195.125,Mozilla/5.0 (Windows NT 10.0; Win64; x64; rv:87.0) Gecko/20100101 Firefox/87.0,,Firefox,87,Windows,10
5,1,null,"""",image-keyboard-response,242,487391,0.0-242.0,"""",jspsych/neutralFaces/BM10NES.JPG,"""",256,backwardMask,Test,null,100,"""","""","""","""","""","""","""","""",1,4/18/2021 16:11,76.90.195.125,Mozilla/5.0 (Windows NT 10.0; Win64; x64; rv:87.0) Gecko/20100101 Firefox/87.0,,Firefox,87,Windows,10
5,1,null,"""",html-keyboard-response,243,488411,0.0-243.0,"""","<div style=""font-size:60px;"">+</div>","""",256,fixationBtwnNeutralMaskAndPrompt,Test,null,1000,"""","""","""","""","""","""","""","""",1,4/18/2021 16:11,76.90.195.125,Mozilla/5.0 (Windows NT 10.0; Win64; x64; rv:87.0) Gecko/20100101 Firefox/87.0,,Firefox,87,Windows,10
5,1,3013,"""",html-button-response,244,491425,0.0-244.0,"""","<img src='jspsych/CFDfaces/CFD-LF-239-148-N.jpg' height=""250px"">,</br><b>Ashley</b>",1,256,IntactOrRearranged,Test,"""","""","""","""",CFD-WF-218-087-N.jpg,Jenna,1,1,"""","""",1,4/18/2021 16:11,76.90.195.125,Mozilla/5.0 (Windows NT 10.0; Win64; x64; rv:87.0) Gecko/20100101 Firefox/87.0,,Firefox,87,Windows,10
5,1,3693,"""",html-slider-response,245,495130,0.0-245.0,"""","<img src='jspsych/CFDfaces/CFD-LF-239-148-N.jpg' height=""250px"">,</br><b>Ashley</b>","""",256,ConfidenceQuery,Test,"""","""","""","""",CFD-WF-218-087-N.jpg,Jenna,1,"""",0,32,1,4/18/2021 16:11,76.90.195.125,Mozilla/5.0 (Windows NT 10.0; Win64; x64; rv:87.0) Gecko/20100101 Firefox/87.0,,Firefox,87,Windows,10
5,1,null,"""",html-keyboard-response,246,496141,0.0-246.0,"""","<div style=""font-size:60px;"">+</div>","""",256,ITI,Test,null,1000,"""","""","""","""","""","""","""","""",1,4/18/2021 16:11,76.90.195.125,Mozilla/5.0 (Windows NT 10.0; Win64; x64; rv:87.0) Gecko/20100101 Firefox/87.0,,Firefox,87,Windows,10
5,1,null,"""",image-keyboard-response,247,496401,0.0-247.0,"""",jspsych/scrambledNeutralFaces/scrambledAF25NES.JPG,"""",256,forwardMask,Test,null,250,"""",n,"""","""","""","""","""","""",1,4/18/2021 16:11,76.90.195.125,Mozilla/5.0 (Windows NT 10.0; Win64; x64; rv:87.0) Gecko/20100101 Firefox/87.0,,Firefox,87,Windows,10
5,1,null,"""",image-keyboard-response,248,496441,0.0-248.0,"""",jspsych/neutralFaces/AF25NES.JPG,"""",256,Cue,Test,null,16,"""","""","""","""","""","""","""","""",1,4/18/2021 16:11,76.90.195.125,Mozilla/5.0 (Windows NT 10.0; Win64; x64; rv:87.0) Gecko/20100101 Firefox/87.0,,Firefox,87,Windows,10
5,1,null,"""",image-keyboard-response,249,496561,0.0-249.0,"""",jspsych/neutralFaces/AF14NES.JPG,"""",256,backwardMask,Test,null,100,"""","""","""","""","""","""","""","""",1,4/18/2021 16:11,76.90.195.125,Mozilla/5.0 (Windows NT 10.0; Win64; x64; rv:87.0) Gecko/20100101 Firefox/87.0,,Firefox,87,Windows,10
5,1,null,"""",html-keyboard-response,250,497580,0.0-250.0,"""","<div style=""font-size:60px;"">+</div>","""",256,fixationBtwnNeutralMaskAndPrompt,Test,null,1000,"""","""","""","""","""","""","""","""",1,4/18/2021 16:11,76.90.195.125,Mozilla/5.0 (Windows NT 10.0; Win64; x64; rv:87.0) Gecko/20100101 Firefox/87.0,,Firefox,87,Windows,10
5,1,4938,"""",html-button-response,251,502530,0.0-251.0,"""","<img src='jspsych/CFDfaces/CFD-BM-032-024-N.jpg' height=""250px"">,</br><b>Ian</b>",1,256,IntactOrRearranged,Test,"""","""","""","""",CFD-LM-200-045-N.jpg,Justin,0,1,"""","""",1,4/18/2021 16:11,76.90.195.125,Mozilla/5.0 (Windows NT 10.0; Win64; x64; rv:87.0) Gecko/20100101 Firefox/87.0,,Firefox,87,Windows,10
5,1,2661,"""",html-slider-response,252,505194,0.0-252.0,"""","<img src='jspsych/CFDfaces/CFD-BM-032-024-N.jpg' height=""250px"">,</br><b>Ian</b>","""",256,ConfidenceQuery,Test,"""","""","""","""",CFD-LM-200-045-N.jpg,Justin,0,"""",0,30,1,4/18/2021 16:11,76.90.195.125,Mozilla/5.0 (Windows NT 10.0; Win64; x64; rv:87.0) Gecko/20100101 Firefox/87.0,,Firefox,87,Windows,10
5,1,null,"""",html-keyboard-response,253,506211,0.0-253.0,"""","<div style=""font-size:60px;"">+</div>","""",256,ITI,Test,null,1000,"""","""","""","""","""","""","""","""",1,4/18/2021 16:11,76.90.195.125,Mozilla/5.0 (Windows NT 10.0; Win64; x64; rv:87.0) Gecko/20100101 Firefox/87.0,,Firefox,87,Windows,10
5,1,null,"""",image-keyboard-response,254,506481,0.0-254.0,"""",jspsych/scrambledNeutralFaces/scrambledBF28NES.JPG,"""",256,forwardMask,Test,null,250,"""",n,"""","""","""","""","""","""",1,4/18/2021 16:11,76.90.195.125,Mozilla/5.0 (Windows NT 10.0; Win64; x64; rv:87.0) Gecko/20100101 Firefox/87.0,,Firefox,87,Windows,10
5,1,null,"""",image-keyboard-response,255,506501,0.0-255.0,"""",jspsych/neutralFaces/BF28NES.JPG,"""",256,Cue,Test,null,16,"""","""","""","""","""","""","""","""",1,4/18/2021 16:11,76.90.195.125,Mozilla/5.0 (Windows NT 10.0; Win64; x64; rv:87.0) Gecko/20100101 Firefox/87.0,,Firefox,87,Windows,10
5,1,null,"""",image-keyboard-response,256,506620,0.0-256.0,"""",jspsych/neutralFaces/AF26NES.JPG,"""",256,backwardMask,Test,null,100,"""","""","""","""","""","""","""","""",1,4/18/2021 16:11,76.90.195.125,Mozilla/5.0 (Windows NT 10.0; Win64; x64; rv:87.0) Gecko/20100101 Firefox/87.0,,Firefox,87,Windows,10
5,1,null,"""",html-keyboard-response,257,507641,0.0-257.0,"""","<div style=""font-size:60px;"">+</div>","""",256,fixationBtwnNeutralMaskAndPrompt,Test,null,1000,"""","""","""","""","""","""","""","""",1,4/18/2021 16:11,76.90.195.125,Mozilla/5.0 (Windows NT 10.0; Win64; x64; rv:87.0) Gecko/20100101 Firefox/87.0,,Firefox,87,Windows,10
5,1,4111,"""",html-button-response,258,511753,0.0-258.0,"""","<img src='jspsych/CFDfaces/CFD-AF-241-141-N.jpg' height=""250px"">,</br><b>Stephanie</b>",1,256,IntactOrRearranged,Test,"""","""","""","""",CFD-BM-010-003-N.jpg,Mark,0,1,"""","""",1,4/18/2021 16:11,76.90.195.125,Mozilla/5.0 (Windows NT 10.0; Win64; x64; rv:87.0) Gecko/20100101 Firefox/87.0,,Firefox,87,Windows,10
5,1,2573,"""",html-slider-response,259,514337,0.0-259.0,"""","<img src='jspsych/CFDfaces/CFD-AF-241-141-N.jpg' height=""250px"">,</br><b>Stephanie</b>","""",256,ConfidenceQuery,Test,"""","""","""","""",CFD-BM-010-003-N.jpg,Mark,0,"""",0,19,1,4/18/2021 16:11,76.90.195.125,Mozilla/5.0 (Windows NT 10.0; Win64; x64; rv:87.0) Gecko/20100101 Firefox/87.0,,Firefox,87,Windows,10
5,1,null,"""",html-keyboard-response,260,515340,0.0-260.0,"""","<div style=""font-size:60px;"">+</div>","""",256,ITI,Test,null,1000,"""","""","""","""","""","""","""","""",1,4/18/2021 16:11,76.90.195.125,Mozilla/5.0 (Windows NT 10.0; Win64; x64; rv:87.0) Gecko/20100101 Firefox/87.0,,Firefox,87,Windows,10
5,1,null,"""",image-keyboard-response,261,515601,0.0-261.0,"""",jspsych/scrambledDisgustFaces/scrambledAM31DIS.JPG,"""",256,forwardMask,Test,null,250,"""",d,"""","""","""","""","""","""",1,4/18/2021 16:11,76.90.195.125,Mozilla/5.0 (Windows NT 10.0; Win64; x64; rv:87.0) Gecko/20100101 Firefox/87.0,,Firefox,87,Windows,10
5,1,null,"""",image-keyboard-response,262,515621,0.0-262.0,"""",jspsych/disgustFaces/AM31DIS.JPG,"""",256,Cue,Test,null,16,"""","""","""","""","""","""","""","""",1,4/18/2021 16:11,76.90.195.125,Mozilla/5.0 (Windows NT 10.0; Win64; x64; rv:87.0) Gecko/20100101 Firefox/87.0,,Firefox,87,Windows,10
5,1,null,"""",image-keyboard-response,263,515731,0.0-263.0,"""",jspsych/neutralFaces/BM12NES.JPG,"""",256,backwardMask,Test,null,100,"""","""","""","""","""","""","""","""",1,4/18/2021 16:11,76.90.195.125,Mozilla/5.0 (Windows NT 10.0; Win64; x64; rv:87.0) Gecko/20100101 Firefox/87.0,,Firefox,87,Windows,10
5,1,null,"""",html-keyboard-response,264,516751,0.0-264.0,"""","<div style=""font-size:60px;"">+</div>","""",256,fixationBtwnNeutralMaskAndPrompt,Test,null,1000,"""","""","""","""","""","""","""","""",1,4/18/2021 16:11,76.90.195.125,Mozilla/5.0 (Windows NT 10.0; Win64; x64; rv:87.0) Gecko/20100101 Firefox/87.0,,Firefox,87,Windows,10
5,1,3008,"""",html-button-response,265,519762,0.0-265.0,"""","<img src='jspsych/CFDfaces/CFD-AM-230-150-N.jpg' height=""250px"">,</br><b>Jason</b>",0,256,IntactOrRearranged,Test,"""","""","""","""",CFD-BF-226-119-N.jpg,Heather,0,0,"""","""",1,4/18/2021 16:11,76.90.195.125,Mozilla/5.0 (Windows NT 10.0; Win64; x64; rv:87.0) Gecko/20100101 Firefox/87.0,,Firefox,87,Windows,10
5,1,3259,"""",html-slider-response,266,523033,0.0-266.0,"""","<img src='jspsych/CFDfaces/CFD-AM-230-150-N.jpg' height=""250px"">,</br><b>Jason</b>","""",256,ConfidenceQuery,Test,"""","""","""","""",CFD-BF-226-119-N.jpg,Heather,0,"""",0,77,1,4/18/2021 16:11,76.90.195.125,Mozilla/5.0 (Windows NT 10.0; Win64; x64; rv:87.0) Gecko/20100101 Firefox/87.0,,Firefox,87,Windows,10
5,1,null,"""",html-keyboard-response,267,524051,0.0-267.0,"""","<div style=""font-size:60px;"">+</div>","""",256,ITI,Test,null,1000,"""","""","""","""","""","""","""","""",1,4/18/2021 16:11,76.90.195.125,Mozilla/5.0 (Windows NT 10.0; Win64; x64; rv:87.0) Gecko/20100101 Firefox/87.0,,Firefox,87,Windows,10
5,1,null,"""",image-keyboard-response,268,524311,0.0-268.0,"""",jspsych/scrambledNeutralFaces/scrambledBF01NES.JPG,"""",256,forwardMask,Test,null,250,"""",n,"""","""","""","""","""","""",1,4/18/2021 16:11,76.90.195.125,Mozilla/5.0 (Windows NT 10.0; Win64; x64; rv:87.0) Gecko/20100101 Firefox/87.0,,Firefox,87,Windows,10
5,1,null,"""",image-keyboard-response,269,524351,0.0-269.0,"""",jspsych/neutralFaces/BF01NES.JPG,"""",256,Cue,Test,null,16,"""","""","""","""","""","""","""","""",1,4/18/2021 16:11,76.90.195.125,Mozilla/5.0 (Windows NT 10.0; Win64; x64; rv:87.0) Gecko/20100101 Firefox/87.0,,Firefox,87,Windows,10
5,1,null,"""",image-keyboard-response,270,524470,0.0-270.0,"""",jspsych/neutralFaces/BF15NES.JPG,"""",256,backwardMask,Test,null,100,"""","""","""","""","""","""","""","""",1,4/18/2021 16:11,76.90.195.125,Mozilla/5.0 (Windows NT 10.0; Win64; x64; rv:87.0) Gecko/20100101 Firefox/87.0,,Firefox,87,Windows,10
5,1,null,"""",html-keyboard-response,271,525491,0.0-271.0,"""","<div style=""font-size:60px;"">+</div>","""",256,fixationBtwnNeutralMaskAndPrompt,Test,null,1000,"""","""","""","""","""","""","""","""",1,4/18/2021 16:11,76.90.195.125,Mozilla/5.0 (Windows NT 10.0; Win64; x64; rv:87.0) Gecko/20100101 Firefox/87.0,,Firefox,87,Windows,10
5,1,2117,"""",html-button-response,272,527609,0.0-272.0,"""","<img src='jspsych/CFDfaces/CFD-AM-231-136-N.jpg' height=""250px"">,</br><b>Nicholas</b>",0,256,IntactOrRearranged,Test,"""","""","""","""",CFD-WF-215-145-N.jpg,Erin,0,0,"""","""",1,4/18/2021 16:11,76.90.195.125,Mozilla/5.0 (Windows NT 10.0; Win64; x64; rv:87.0) Gecko/20100101 Firefox/87.0,,Firefox,87,Windows,10
5,1,3443,"""",html-slider-response,273,531065,0.0-273.0,"""","<img src='jspsych/CFDfaces/CFD-AM-231-136-N.jpg' height=""250px"">,</br><b>Nicholas</b>","""",256,ConfidenceQuery,Test,"""","""","""","""",CFD-WF-215-145-N.jpg,Erin,0,"""",0,56,1,4/18/2021 16:11,76.90.195.125,Mozilla/5.0 (Windows NT 10.0; Win64; x64; rv:87.0) Gecko/20100101 Firefox/87.0,,Firefox,87,Windows,10
5,1,null,"""",html-keyboard-response,274,532080,0.0-274.0,"""","<div style=""font-size:60px;"">+</div>","""",256,ITI,Test,null,1000,"""","""","""","""","""","""","""","""",1,4/18/2021 16:11,76.90.195.125,Mozilla/5.0 (Windows NT 10.0; Win64; x64; rv:87.0) Gecko/20100101 Firefox/87.0,,Firefox,87,Windows,10
5,1,null,"""",image-keyboard-response,275,532341,0.0-275.0,"""",jspsych/scrambledNeutralFaces/scrambledAM04NES.JPG,"""",256,forwardMask,Test,null,250,"""",n,"""","""","""","""","""","""",1,4/18/2021 16:11,76.90.195.125,Mozilla/5.0 (Windows NT 10.0; Win64; x64; rv:87.0) Gecko/20100101 Firefox/87.0,,Firefox,87,Windows,10
5,1,null,"""",image-keyboard-response,276,532380,0.0-276.0,"""",jspsych/neutralFaces/AM04NES.JPG,"""",256,Cue,Test,null,16,"""","""","""","""","""","""","""","""",1,4/18/2021 16:11,76.90.195.125,Mozilla/5.0 (Windows NT 10.0; Win64; x64; rv:87.0) Gecko/20100101 Firefox/87.0,,Firefox,87,Windows,10
5,1,null,"""",image-keyboard-response,277,532500,0.0-277.0,"""",jspsych/neutralFaces/BM34NES.JPG,"""",256,backwardMask,Test,null,100,"""","""","""","""","""","""","""","""",1,4/18/2021 16:11,76.90.195.125,Mozilla/5.0 (Windows NT 10.0; Win64; x64; rv:87.0) Gecko/20100101 Firefox/87.0,,Firefox,87,Windows,10
5,1,null,"""",html-keyboard-response,278,533516,0.0-278.0,"""","<div style=""font-size:60px;"">+</div>","""",256,fixationBtwnNeutralMaskAndPrompt,Test,null,1000,"""","""","""","""","""","""","""","""",1,4/18/2021 16:11,76.90.195.125,Mozilla/5.0 (Windows NT 10.0; Win64; x64; rv:87.0) Gecko/20100101 Firefox/87.0,,Firefox,87,Windows,10
5,1,4580,"""",html-button-response,279,538098,0.0-279.0,"""","<img src='jspsych/CFDfaces/CFD-LF-201-035-N.jpg' height=""250px"">,</br><b>Meghan</b>",1,256,IntactOrRearranged,Test,"""","""","""","""",CFD-LF-243-175-N.jpg,Laura,0,1,"""","""",1,4/18/2021 16:11,76.90.195.125,Mozilla/5.0 (Windows NT 10.0; Win64; x64; rv:87.0) Gecko/20100101 Firefox/87.0,,Firefox,87,Windows,10
5,1,2231,"""",html-slider-response,280,540337,0.0-280.0,"""","<img src='jspsych/CFDfaces/CFD-LF-201-035-N.jpg' height=""250px"">,</br><b>Meghan</b>","""",256,ConfidenceQuery,Test,"""","""","""","""",CFD-LF-243-175-N.jpg,Laura,0,"""",0,31,1,4/18/2021 16:11,76.90.195.125,Mozilla/5.0 (Windows NT 10.0; Win64; x64; rv:87.0) Gecko/20100101 Firefox/87.0,,Firefox,87,Windows,10
5,1,null,"""",html-keyboard-response,281,541340,0.0-281.0,"""","<div style=""font-size:60px;"">+</div>","""",256,ITI,Test,null,1000,"""","""","""","""","""","""","""","""",1,4/18/2021 16:11,76.90.195.125,Mozilla/5.0 (Windows NT 10.0; Win64; x64; rv:87.0) Gecko/20100101 Firefox/87.0,,Firefox,87,Windows,10
5,1,null,"""",image-keyboard-response,282,541600,0.0-282.0,"""",jspsych/scrambledNeutralFaces/scrambledBF34NES.JPG,"""",256,forwardMask,Test,null,250,"""",n,"""","""","""","""","""","""",1,4/18/2021 16:11,76.90.195.125,Mozilla/5.0 (Windows NT 10.0; Win64; x64; rv:87.0) Gecko/20100101 Firefox/87.0,,Firefox,87,Windows,10
5,1,null,"""",image-keyboard-response,283,541641,0.0-283.0,"""",jspsych/neutralFaces/BF34NES.JPG,"""",256,Cue,Test,null,16,"""","""","""","""","""","""","""","""",1,4/18/2021 16:11,76.90.195.125,Mozilla/5.0 (Windows NT 10.0; Win64; x64; rv:87.0) Gecko/20100101 Firefox/87.0,,Firefox,87,Windows,10
5,1,null,"""",image-keyboard-response,284,541760,0.0-284.0,"""",jspsych/neutralFaces/BF22NES.JPG,"""",256,backwardMask,Test,null,100,"""","""","""","""","""","""","""","""",1,4/18/2021 16:11,76.90.195.125,Mozilla/5.0 (Windows NT 10.0; Win64; x64; rv:87.0) Gecko/20100101 Firefox/87.0,,Firefox,87,Windows,10
5,1,null,"""",html-keyboard-response,285,542781,0.0-285.0,"""","<div style=""font-size:60px;"">+</div>","""",256,fixationBtwnNeutralMaskAndPrompt,Test,null,1000,"""","""","""","""","""","""","""","""",1,4/18/2021 16:11,76.90.195.125,Mozilla/5.0 (Windows NT 10.0; Win64; x64; rv:87.0) Gecko/20100101 Firefox/87.0,,Firefox,87,Windows,10
5,1,2259,"""",html-button-response,286,545041,0.0-286.0,"""","<img src='jspsych/CFDfaces/CFD-LM-248-089-N.jpg' height=""250px"">,</br><b>Brandon</b>",0,256,IntactOrRearranged,Test,"""","""","""","""",CFD-WM-212-097-N.jpg,Steven,0,0,"""","""",1,4/18/2021 16:11,76.90.195.125,Mozilla/5.0 (Windows NT 10.0; Win64; x64; rv:87.0) Gecko/20100101 Firefox/87.0,,Firefox,87,Windows,10
5,1,2500,"""",html-slider-response,287,547553,0.0-287.0,"""","<img src='jspsych/CFDfaces/CFD-LM-248-089-N.jpg' height=""250px"">,</br><b>Brandon</b>","""",256,ConfidenceQuery,Test,"""","""","""","""",CFD-WM-212-097-N.jpg,Steven,0,"""",0,70,1,4/18/2021 16:11,76.90.195.125,Mozilla/5.0 (Windows NT 10.0; Win64; x64; rv:87.0) Gecko/20100101 Firefox/87.0,,Firefox,87,Windows,10
5,1,null,"""",html-keyboard-response,288,548570,0.0-288.0,"""","<div style=""font-size:60px;"">+</div>","""",256,ITI,Test,null,1000,"""","""","""","""","""","""","""","""",1,4/18/2021 16:11,76.90.195.125,Mozilla/5.0 (Windows NT 10.0; Win64; x64; rv:87.0) Gecko/20100101 Firefox/87.0,,Firefox,87,Windows,10
5,1,null,"""",image-keyboard-response,289,548830,0.0-289.0,"""",jspsych/scrambledNeutralFaces/scrambledAF26NES.JPG,"""",256,forwardMask,Test,null,250,"""",n,"""","""","""","""","""","""",1,4/18/2021 16:11,76.90.195.125,Mozilla/5.0 (Windows NT 10.0; Win64; x64; rv:87.0) Gecko/20100101 Firefox/87.0,,Firefox,87,Windows,10
5,1,null,"""",image-keyboard-response,290,548850,0.0-290.0,"""",jspsych/neutralFaces/AF26NES.JPG,"""",256,Cue,Test,null,16,"""","""","""","""","""","""","""","""",1,4/18/2021 16:11,76.90.195.125,Mozilla/5.0 (Windows NT 10.0; Win64; x64; rv:87.0) Gecko/20100101 Firefox/87.0,,Firefox,87,Windows,10
5,1,null,"""",image-keyboard-response,291,548970,0.0-291.0,"""",jspsych/neutralFaces/AF07NES.JPG,"""",256,backwardMask,Test,null,100,"""","""","""","""","""","""","""","""",1,4/18/2021 16:11,76.90.195.125,Mozilla/5.0 (Windows NT 10.0; Win64; x64; rv:87.0) Gecko/20100101 Firefox/87.0,,Firefox,87,Windows,10
5,1,null,"""",html-keyboard-response,292,549990,0.0-292.0,"""","<div style=""font-size:60px;"">+</div>","""",256,fixationBtwnNeutralMaskAndPrompt,Test,null,1000,"""","""","""","""","""","""","""","""",1,4/18/2021 16:11,76.90.195.125,Mozilla/5.0 (Windows NT 10.0; Win64; x64; rv:87.0) Gecko/20100101 Firefox/87.0,,Firefox,87,Windows,10
5,1,2817,"""",html-button-response,293,552810,0.0-293.0,"""","<img src='jspsych/CFDfaces/CFD-WM-216-061-N.jpg' height=""250px"">,</br><b>Joshua</b>",1,256,IntactOrRearranged,Test,"""","""","""","""",CFD-LM-225-130-N.jpg,Travis,1,1,"""","""",1,4/18/2021 16:11,76.90.195.125,Mozilla/5.0 (Windows NT 10.0; Win64; x64; rv:87.0) Gecko/20100101 Firefox/87.0,,Firefox,87,Windows,10
5,1,2527,"""",html-slider-response,294,555346,0.0-294.0,"""","<img src='jspsych/CFDfaces/CFD-WM-216-061-N.jpg' height=""250px"">,</br><b>Joshua</b>","""",256,ConfidenceQuery,Test,"""","""","""","""",CFD-LM-225-130-N.jpg,Travis,1,"""",0,88,1,4/18/2021 16:11,76.90.195.125,Mozilla/5.0 (Windows NT 10.0; Win64; x64; rv:87.0) Gecko/20100101 Firefox/87.0,,Firefox,87,Windows,10
5,1,null,"""",html-keyboard-response,295,556350,0.0-295.0,"""","<div style=""font-size:60px;"">+</div>","""",256,ITI,Test,null,1000,"""","""","""","""","""","""","""","""",1,4/18/2021 16:11,76.90.195.125,Mozilla/5.0 (Windows NT 10.0; Win64; x64; rv:87.0) Gecko/20100101 Firefox/87.0,,Firefox,87,Windows,10
5,1,null,"""",image-keyboard-response,296,556611,0.0-296.0,"""",jspsych/scrambledNeutralFaces/scrambledBF01NES.JPG,"""",256,forwardMask,Test,null,250,"""",n,"""","""","""","""","""","""",1,4/18/2021 16:11,76.90.195.125,Mozilla/5.0 (Windows NT 10.0; Win64; x64; rv:87.0) Gecko/20100101 Firefox/87.0,,Firefox,87,Windows,10
5,1,null,"""",image-keyboard-response,297,556630,0.0-297.0,"""",jspsych/neutralFaces/BF01NES.JPG,"""",256,Cue,Test,null,16,"""","""","""","""","""","""","""","""",1,4/18/2021 16:11,76.90.195.125,Mozilla/5.0 (Windows NT 10.0; Win64; x64; rv:87.0) Gecko/20100101 Firefox/87.0,,Firefox,87,Windows,10
