run_id,condition,rt,responses,trial_type,trial_index,time_elapsed,internal_node_id,question_order,stimulus,button_pressed,iTrial,Phase,ExperimentPhase,key_press,StimulusDurationSetting,CharacterResponse,correctResponse,Face,Name,rearranged,slider_start,response,didSubjectEnterRearranged,Block,recorded_at,ip,user_agent,device,browser,browser_version,platform,platform_version
122,1,32728,"{""Q0"":""A1T7EB1WEDCMXV""}",survey-text,0,32735,0.0-0.0,"""","""","""","""","""","""","""","""","""","""","""","""","""","""","""","""","""",4/24/2021 21:19,98.23.182.206,Mozilla/5.0 (X11; Linux x86_64; rv:88.0) Gecko/20100101 Firefox/88.0,,Firefox,88,Linux,
122,1,7535,"{""Q0"":""34""}",survey-text,1,40284,0.0-1.0,"""","""","""","""","""","""","""","""","""","""","""","""","""","""","""","""","""",4/24/2021 21:19,98.23.182.206,Mozilla/5.0 (X11; Linux x86_64; rv:88.0) Gecko/20100101 Firefox/88.0,,Firefox,88,Linux,
122,1,10481,"{""Q0"":""male"",""Q1"":""Not Hispanic/Latino"",""Q2"":""White or Caucasian""}",survey-multi-choice,2,50773,0.0-2.0,"[0,1,2]","""","""","""","""","""","""","""","""","""","""","""","""","""","""","""","""",4/24/2021 21:19,98.23.182.206,Mozilla/5.0 (X11; Linux x86_64; rv:88.0) Gecko/20100101 Firefox/88.0,,Firefox,88,Linux,
122,1,96047,"""",image-button-response,3,146837,0.0-3.0,"""",directionsMemoryAssociation1.JPG,0,1,IntroDirections1,break,"""","""","""","""","""","""","""","""","""","""","""",4/24/2021 21:19,98.23.182.206,Mozilla/5.0 (X11; Linux x86_64; rv:88.0) Gecko/20100101 Firefox/88.0,,Firefox,88,Linux,
122,1,41213,"""",image-button-response,4,188066,0.0-4.0,"""",directionsMemoryAssociation2.JPG,0,1,IntroDirections2,break,"""","""","""","""","""","""","""","""","""","""","""",4/24/2021 21:19,98.23.182.206,Mozilla/5.0 (X11; Linux x86_64; rv:88.0) Gecko/20100101 Firefox/88.0,,Firefox,88,Linux,
122,1,null,"""",html-keyboard-response,5,193084,0.0-5.0,"""","<img src='jspsych/CFDfaces/CFD-BF-010-001-N.jpg' height=""250px"">,</br><b>Cassandra</b>","""",1,IntactFace,Practice,null,5000,"""","""","""","""","""","""","""","""","""",4/24/2021 21:19,98.23.182.206,Mozilla/5.0 (X11; Linux x86_64; rv:88.0) Gecko/20100101 Firefox/88.0,,Firefox,88,Linux,
122,1,null,"""",html-keyboard-response,6,193587,0.0-6.0,"""","<div style=""font-size:60px;"">+</div>","""",1,ITI,Practice,null,1000,"""","""","""","""","""","""","""","""","""",4/24/2021 21:19,98.23.182.206,Mozilla/5.0 (X11; Linux x86_64; rv:88.0) Gecko/20100101 Firefox/88.0,,Firefox,88,Linux,
122,1,3250,"""",html-keyboard-response,7,198593,0.0-7.0,"""","<img src='jspsych/CFDfaces/CFD-LF-232-199-N.jpg' height=""250px"">,</br><b>Tara</b>","""",2,IntactFace,Practice,70,5000,f,"""","""","""","""","""","""","""","""",4/24/2021 21:19,98.23.182.206,Mozilla/5.0 (X11; Linux x86_64; rv:88.0) Gecko/20100101 Firefox/88.0,,Firefox,88,Linux,
122,1,null,"""",html-keyboard-response,8,199095,0.0-8.0,"""","<div style=""font-size:60px;"">+</div>","""",2,ITI,Practice,null,1000,"""","""","""","""","""","""","""","""","""",4/24/2021 21:19,98.23.182.206,Mozilla/5.0 (X11; Linux x86_64; rv:88.0) Gecko/20100101 Firefox/88.0,,Firefox,88,Linux,
122,1,2177,"""",html-keyboard-response,9,204101,0.0-9.0,"""","<img src='jspsych/CFDfaces/CFD-BF-004-014-N.jpg' height=""250px"">,</br><b>Katelyn</b>","""",3,IntactFace,Practice,70,5000,f,"""","""","""","""","""","""","""","""",4/24/2021 21:19,98.23.182.206,Mozilla/5.0 (X11; Linux x86_64; rv:88.0) Gecko/20100101 Firefox/88.0,,Firefox,88,Linux,
122,1,null,"""",html-keyboard-response,10,204604,0.0-10.0,"""","<div style=""font-size:60px;"">+</div>","""",3,ITI,Practice,null,1000,"""","""","""","""","""","""","""","""","""",4/24/2021 21:19,98.23.182.206,Mozilla/5.0 (X11; Linux x86_64; rv:88.0) Gecko/20100101 Firefox/88.0,,Firefox,88,Linux,
122,1,1990,"""",html-keyboard-response,11,209608,0.0-11.0,"""","<img src='jspsych/CFDfaces/CFD-BM-026-002-N.jpg' height=""250px"">,</br><b>Patrick</b>","""",4,IntactFace,Practice,70,5000,f,"""","""","""","""","""","""","""","""",4/24/2021 21:19,98.23.182.206,Mozilla/5.0 (X11; Linux x86_64; rv:88.0) Gecko/20100101 Firefox/88.0,,Firefox,88,Linux,
122,1,null,"""",html-keyboard-response,12,210110,0.0-12.0,"""","<div style=""font-size:60px;"">+</div>","""",4,ITI,Practice,null,1000,"""","""","""","""","""","""","""","""","""",4/24/2021 21:19,98.23.182.206,Mozilla/5.0 (X11; Linux x86_64; rv:88.0) Gecko/20100101 Firefox/88.0,,Firefox,88,Linux,
122,1,2541,"""",html-keyboard-response,13,215115,0.0-13.0,"""","<img src='jspsych/CFDfaces/CFD-BM-027-001-N.jpg' height=""250px"">,</br><b>Carlos</b>","""",5,IntactFace,Practice,70,5000,f,"""","""","""","""","""","""","""","""",4/24/2021 21:19,98.23.182.206,Mozilla/5.0 (X11; Linux x86_64; rv:88.0) Gecko/20100101 Firefox/88.0,,Firefox,88,Linux,
122,1,null,"""",html-keyboard-response,14,215617,0.0-14.0,"""","<div style=""font-size:60px;"">+</div>","""",5,ITI,Practice,null,1000,"""","""","""","""","""","""","""","""","""",4/24/2021 21:19,98.23.182.206,Mozilla/5.0 (X11; Linux x86_64; rv:88.0) Gecko/20100101 Firefox/88.0,,Firefox,88,Linux,
122,1,1699,"""",html-keyboard-response,15,220621,0.0-15.0,"""","<img src='jspsych/CFDfaces/CFD-AM-207-108-N.jpg' height=""250px"">,</br><b>Samuel</b>","""",6,IntactFace,Practice,78,5000,n,"""","""","""","""","""","""","""","""",4/24/2021 21:19,98.23.182.206,Mozilla/5.0 (X11; Linux x86_64; rv:88.0) Gecko/20100101 Firefox/88.0,,Firefox,88,Linux,
122,1,null,"""",html-keyboard-response,16,221125,0.0-16.0,"""","<div style=""font-size:60px;"">+</div>","""",6,ITI,Practice,null,1000,"""","""","""","""","""","""","""","""","""",4/24/2021 21:19,98.23.182.206,Mozilla/5.0 (X11; Linux x86_64; rv:88.0) Gecko/20100101 Firefox/88.0,,Firefox,88,Linux,
122,1,1748,"""",html-keyboard-response,17,226132,0.0-17.0,"""","<img src='jspsych/CFDfaces/CFD-WF-024-003-N.jpg' height=""250px"">,</br><b>Shannon</b>","""",7,IntactFace,Practice,70,5000,f,"""","""","""","""","""","""","""","""",4/24/2021 21:19,98.23.182.206,Mozilla/5.0 (X11; Linux x86_64; rv:88.0) Gecko/20100101 Firefox/88.0,,Firefox,88,Linux,
122,1,null,"""",html-keyboard-response,18,226633,0.0-18.0,"""","<div style=""font-size:60px;"">+</div>","""",7,ITI,Practice,null,1000,"""","""","""","""","""","""","""","""","""",4/24/2021 21:19,98.23.182.206,Mozilla/5.0 (X11; Linux x86_64; rv:88.0) Gecko/20100101 Firefox/88.0,,Firefox,88,Linux,
122,1,1648,"""",html-keyboard-response,19,231638,0.0-19.0,"""","<img src='jspsych/CFDfaces/CFD-LM-224-162-N.jpg' height=""250px"">,</br><b>Marcus</b>","""",8,IntactFace,Practice,70,5000,f,"""","""","""","""","""","""","""","""",4/24/2021 21:19,98.23.182.206,Mozilla/5.0 (X11; Linux x86_64; rv:88.0) Gecko/20100101 Firefox/88.0,,Firefox,88,Linux,
122,1,null,"""",html-keyboard-response,20,232141,0.0-20.0,"""","<div style=""font-size:60px;"">+</div>","""",8,ITI,Practice,null,1000,"""","""","""","""","""","""","""","""","""",4/24/2021 21:19,98.23.182.206,Mozilla/5.0 (X11; Linux x86_64; rv:88.0) Gecko/20100101 Firefox/88.0,,Firefox,88,Linux,
122,1,67857,"""",image-button-response,21,300009,0.0-21.0,"""",directionsForTest.JPG,0,1,directionsForTest,break,"""","""","""","""","""","""","""","""","""","""","""",4/24/2021 21:19,98.23.182.206,Mozilla/5.0 (X11; Linux x86_64; rv:88.0) Gecko/20100101 Firefox/88.0,,Firefox,88,Linux,
122,1,65669,"""",image-button-response,22,365690,0.0-22.0,"""",directionsForTest2.JPG,0,1,directionsForTest2,break,"""","""","""","""","""","""","""","""","""","""","""",4/24/2021 21:19,98.23.182.206,Mozilla/5.0 (X11; Linux x86_64; rv:88.0) Gecko/20100101 Firefox/88.0,,Firefox,88,Linux,
122,1,null,"""",html-keyboard-response,23,366693,0.0-23.0,"""","<div style=""font-size:60px;"">+</div>","""",1,ITI,Practice,null,1000,"""","""","""","""","""","""","""","""","""",4/24/2021 21:19,98.23.182.206,Mozilla/5.0 (X11; Linux x86_64; rv:88.0) Gecko/20100101 Firefox/88.0,,Firefox,88,Linux,
122,1,null,"""",image-keyboard-response,24,366947,0.0-24.0,"""",jspsych/scrambledDisgustFaces/scrambledAM32DIS.JPG,"""",1,forwardMask,Practice,null,250,"""",d,"""","""","""","""","""","""","""",4/24/2021 21:19,98.23.182.206,Mozilla/5.0 (X11; Linux x86_64; rv:88.0) Gecko/20100101 Firefox/88.0,,Firefox,88,Linux,
122,1,null,"""",image-keyboard-response,25,366970,0.0-25.0,"""",jspsych/disgustFaces/AM32DIS.JPG,"""",1,Cue,Practice,null,16,"""","""","""","""","""","""","""","""","""",4/24/2021 21:19,98.23.182.206,Mozilla/5.0 (X11; Linux x86_64; rv:88.0) Gecko/20100101 Firefox/88.0,,Firefox,88,Linux,
122,1,null,"""",image-keyboard-response,26,367076,0.0-26.0,"""",jspsych/neutralFaces/AM05NES.JPG,"""",1,backwardMask,Practice,null,100,"""","""","""","""","""","""","""","""","""",4/24/2021 21:19,98.23.182.206,Mozilla/5.0 (X11; Linux x86_64; rv:88.0) Gecko/20100101 Firefox/88.0,,Firefox,88,Linux,
122,1,null,"""",html-keyboard-response,27,368077,0.0-27.0,"""","<div style=""font-size:60px;"">+</div>","""",1,fixationBtwnNeutralMaskAndPrompt,Practice,null,1000,"""","""","""","""","""","""","""","""","""",4/24/2021 21:19,98.23.182.206,Mozilla/5.0 (X11; Linux x86_64; rv:88.0) Gecko/20100101 Firefox/88.0,,Firefox,88,Linux,
122,1,null,"""",html-button-response,28,373081,0.0-28.0,"""","<img src='jspsych/CFDfaces/CFD-LF-232-199-N.jpg'height=""250px""></br><b>Tara</b>",null,1,IntactOrRearranged,Practice,"""","""","""","""",CFD-LF-232-199-N.jpg,Tara,0,"""","""","""","""",4/24/2021 21:19,98.23.182.206,Mozilla/5.0 (X11; Linux x86_64; rv:88.0) Gecko/20100101 Firefox/88.0,,Firefox,88,Linux,
122,1,null,"""",html-slider-response,29,378100,0.0-29.0,"""","<img src='jspsych/CFDfaces/CFD-LF-232-199-N.jpg'height=""250px""></br><b>Tara</b>","""",1,ConfidenceQuery,Practice,"""","""","""","""",CFD-BF-009-002-N.jpg,Laura,0,0,null,"""","""",4/24/2021 21:19,98.23.182.206,Mozilla/5.0 (X11; Linux x86_64; rv:88.0) Gecko/20100101 Firefox/88.0,,Firefox,88,Linux,
122,1,5346,"""",html-button-response,30,383449,0.0-30.0,"""",<p>Please click either button: REARRANGED or INTACT before the 5-second time limit.</p>,0,1,feedback,Practice,"""","""","""","""","""","""","""","""","""","""","""",4/24/2021 21:19,98.23.182.206,Mozilla/5.0 (X11; Linux x86_64; rv:88.0) Gecko/20100101 Firefox/88.0,,Firefox,88,Linux,
122,1,null,"""",html-keyboard-response,31,384451,0.0-31.0,"""","<div style=""font-size:60px;"">+</div>","""",2,ITI,Practice,null,1000,"""","""","""","""","""","""","""","""","""",4/24/2021 21:19,98.23.182.206,Mozilla/5.0 (X11; Linux x86_64; rv:88.0) Gecko/20100101 Firefox/88.0,,Firefox,88,Linux,
122,1,null,"""",image-keyboard-response,32,384705,0.0-32.0,"""",jspsych/scrambledDisgustFaces/scrambledBF13DIS.JPG,"""",2,forwardMask,Practice,null,250,"""",d,"""","""","""","""","""","""","""",4/24/2021 21:19,98.23.182.206,Mozilla/5.0 (X11; Linux x86_64; rv:88.0) Gecko/20100101 Firefox/88.0,,Firefox,88,Linux,
122,1,null,"""",image-keyboard-response,33,384726,0.0-33.0,"""",jspsych/disgustFaces/BF13DIS.JPG,"""",2,Cue,Practice,null,16,"""","""","""","""","""","""","""","""","""",4/24/2021 21:19,98.23.182.206,Mozilla/5.0 (X11; Linux x86_64; rv:88.0) Gecko/20100101 Firefox/88.0,,Firefox,88,Linux,
122,1,null,"""",image-keyboard-response,34,384831,0.0-34.0,"""",jspsych/neutralFaces/BF16NES.JPG,"""",2,backwardMask,Practice,null,100,"""","""","""","""","""","""","""","""","""",4/24/2021 21:19,98.23.182.206,Mozilla/5.0 (X11; Linux x86_64; rv:88.0) Gecko/20100101 Firefox/88.0,,Firefox,88,Linux,
122,1,null,"""",html-keyboard-response,35,385833,0.0-35.0,"""","<div style=""font-size:60px;"">+</div>","""",2,fixationBtwnNeutralMaskAndPrompt,Practice,null,1000,"""","""","""","""","""","""","""","""","""",4/24/2021 21:19,98.23.182.206,Mozilla/5.0 (X11; Linux x86_64; rv:88.0) Gecko/20100101 Firefox/88.0,,Firefox,88,Linux,
122,1,2503,"""",html-button-response,36,388338,0.0-36.0,"""","<img src='jspsych/CFDfaces/CFD-BF-004-014-N.jpg'height=""250px""></br><b>Cassandra</b>",0,2,IntactOrRearranged,Practice,"""","""","""","""",CFD-BF-004-014-N.jpg,Cassandra,1,"""","""",0,"""",4/24/2021 21:19,98.23.182.206,Mozilla/5.0 (X11; Linux x86_64; rv:88.0) Gecko/20100101 Firefox/88.0,,Firefox,88,Linux,
122,1,3207,"""",html-slider-response,37,391549,0.0-37.0,"""","<img src='jspsych/CFDfaces/CFD-BF-004-014-N.jpg'height=""250px""></br><b>Cassandra</b>","""",2,ConfidenceQuery,Practice,"""","""","""","""",CFD-BF-009-002-N.jpg,Laura,1,0,79,"""","""",4/24/2021 21:19,98.23.182.206,Mozilla/5.0 (X11; Linux x86_64; rv:88.0) Gecko/20100101 Firefox/88.0,,Firefox,88,Linux,
122,1,5275,"""",html-button-response,38,396825,0.0-38.0,"""",You are Incorrect. You called a Rearranged Pair Intact,0,2,feedback,Practice,"""","""","""","""","""","""","""","""","""","""","""",4/24/2021 21:19,98.23.182.206,Mozilla/5.0 (X11; Linux x86_64; rv:88.0) Gecko/20100101 Firefox/88.0,,Firefox,88,Linux,
122,1,null,"""",html-keyboard-response,39,397828,0.0-39.0,"""","<div style=""font-size:60px;"">+</div>","""",3,ITI,Practice,null,1000,"""","""","""","""","""","""","""","""","""",4/24/2021 21:19,98.23.182.206,Mozilla/5.0 (X11; Linux x86_64; rv:88.0) Gecko/20100101 Firefox/88.0,,Firefox,88,Linux,
122,1,null,"""",image-keyboard-response,40,398084,0.0-40.0,"""",jspsych/scrambledNeutralFaces/scrambledAM33NES.JPG,"""",3,forwardMask,Practice,null,250,"""",n,"""","""","""","""","""","""","""",4/24/2021 21:19,98.23.182.206,Mozilla/5.0 (X11; Linux x86_64; rv:88.0) Gecko/20100101 Firefox/88.0,,Firefox,88,Linux,
122,1,null,"""",image-keyboard-response,41,398106,0.0-41.0,"""",jspsych/neutralFaces/AM33NES.JPG,"""",3,Cue,Practice,null,16,"""","""","""","""","""","""","""","""","""",4/24/2021 21:19,98.23.182.206,Mozilla/5.0 (X11; Linux x86_64; rv:88.0) Gecko/20100101 Firefox/88.0,,Firefox,88,Linux,
122,1,null,"""",image-keyboard-response,42,398211,0.0-42.0,"""",jspsych/neutralFaces/BM09NES.JPG,"""",3,backwardMask,Practice,null,100,"""","""","""","""","""","""","""","""","""",4/24/2021 21:19,98.23.182.206,Mozilla/5.0 (X11; Linux x86_64; rv:88.0) Gecko/20100101 Firefox/88.0,,Firefox,88,Linux,
122,1,null,"""",html-keyboard-response,43,399212,0.0-43.0,"""","<div style=""font-size:60px;"">+</div>","""",3,fixationBtwnNeutralMaskAndPrompt,Practice,null,1000,"""","""","""","""","""","""","""","""","""",4/24/2021 21:19,98.23.182.206,Mozilla/5.0 (X11; Linux x86_64; rv:88.0) Gecko/20100101 Firefox/88.0,,Firefox,88,Linux,
122,1,3182,"""",html-button-response,44,402395,0.0-44.0,"""","<img src='jspsych/CFDfaces/CFD-BF-010-001-N.jpg'height=""250px""></br><b>Katelyn</b>",0,3,IntactOrRearranged,Practice,"""","""","""","""",CFD-BF-010-001-N.jpg,Katelyn,1,"""","""",0,"""",4/24/2021 21:19,98.23.182.206,Mozilla/5.0 (X11; Linux x86_64; rv:88.0) Gecko/20100101 Firefox/88.0,,Firefox,88,Linux,
122,1,2562,"""",html-slider-response,45,404963,0.0-45.0,"""","<img src='jspsych/CFDfaces/CFD-BF-010-001-N.jpg'height=""250px""></br><b>Katelyn</b>","""",3,ConfidenceQuery,Practice,"""","""","""","""",CFD-BF-009-002-N.jpg,Laura,1,0,23,"""","""",4/24/2021 21:19,98.23.182.206,Mozilla/5.0 (X11; Linux x86_64; rv:88.0) Gecko/20100101 Firefox/88.0,,Firefox,88,Linux,
122,1,1966,"""",html-button-response,46,406931,0.0-46.0,"""",You are Incorrect. You called a Rearranged Pair Intact,0,3,feedback,Practice,"""","""","""","""","""","""","""","""","""","""","""",4/24/2021 21:19,98.23.182.206,Mozilla/5.0 (X11; Linux x86_64; rv:88.0) Gecko/20100101 Firefox/88.0,,Firefox,88,Linux,
122,1,null,"""",html-keyboard-response,47,407934,0.0-47.0,"""","<div style=""font-size:60px;"">+</div>","""",4,ITI,Practice,null,1000,"""","""","""","""","""","""","""","""","""",4/24/2021 21:19,98.23.182.206,Mozilla/5.0 (X11; Linux x86_64; rv:88.0) Gecko/20100101 Firefox/88.0,,Firefox,88,Linux,
122,1,null,"""",image-keyboard-response,48,408186,0.0-48.0,"""",jspsych/scrambledDisgustFaces/scrambledBF16DIS.JPG,"""",4,forwardMask,Practice,null,250,"""",d,"""","""","""","""","""","""","""",4/24/2021 21:19,98.23.182.206,Mozilla/5.0 (X11; Linux x86_64; rv:88.0) Gecko/20100101 Firefox/88.0,,Firefox,88,Linux,
122,1,null,"""",image-keyboard-response,49,408211,0.0-49.0,"""",jspsych/disgustFaces/BF16DIS.JPG,"""",4,Cue,Practice,null,16,"""","""","""","""","""","""","""","""","""",4/24/2021 21:19,98.23.182.206,Mozilla/5.0 (X11; Linux x86_64; rv:88.0) Gecko/20100101 Firefox/88.0,,Firefox,88,Linux,
122,1,null,"""",image-keyboard-response,50,408316,0.0-50.0,"""",jspsych/neutralFaces/AF25NES.JPG,"""",4,backwardMask,Practice,null,100,"""","""","""","""","""","""","""","""","""",4/24/2021 21:19,98.23.182.206,Mozilla/5.0 (X11; Linux x86_64; rv:88.0) Gecko/20100101 Firefox/88.0,,Firefox,88,Linux,
122,1,null,"""",html-keyboard-response,51,409317,0.0-51.0,"""","<div style=""font-size:60px;"">+</div>","""",4,fixationBtwnNeutralMaskAndPrompt,Practice,null,1000,"""","""","""","""","""","""","""","""","""",4/24/2021 21:19,98.23.182.206,Mozilla/5.0 (X11; Linux x86_64; rv:88.0) Gecko/20100101 Firefox/88.0,,Firefox,88,Linux,
122,1,2142,"""",html-button-response,52,411461,0.0-52.0,"""","<img src='jspsych/CFDfaces/CFD-LM-224-162-N.jpg'height=""250px""></br><b>Carlos</b>",1,4,IntactOrRearranged,Practice,"""","""","""","""",CFD-LM-224-162-N.jpg,Carlos,1,"""","""",1,"""",4/24/2021 21:19,98.23.182.206,Mozilla/5.0 (X11; Linux x86_64; rv:88.0) Gecko/20100101 Firefox/88.0,,Firefox,88,Linux,
122,1,4041,"""",html-slider-response,53,415507,0.0-53.0,"""","<img src='jspsych/CFDfaces/CFD-LM-224-162-N.jpg'height=""250px""></br><b>Carlos</b>","""",4,ConfidenceQuery,Practice,"""","""","""","""",CFD-BF-009-002-N.jpg,Laura,1,0,91,"""","""",4/24/2021 21:19,98.23.182.206,Mozilla/5.0 (X11; Linux x86_64; rv:88.0) Gecko/20100101 Firefox/88.0,,Firefox,88,Linux,
122,1,2644,"""",html-button-response,54,418155,0.0-54.0,"""",You are Correct. You Called A Rearranged Pair Rearranged,0,4,feedback,Practice,"""","""","""","""","""","""","""","""","""","""","""",4/24/2021 21:19,98.23.182.206,Mozilla/5.0 (X11; Linux x86_64; rv:88.0) Gecko/20100101 Firefox/88.0,,Firefox,88,Linux,
122,1,null,"""",html-keyboard-response,55,419158,0.0-55.0,"""","<div style=""font-size:60px;"">+</div>","""",5,ITI,Practice,null,1000,"""","""","""","""","""","""","""","""","""",4/24/2021 21:19,98.23.182.206,Mozilla/5.0 (X11; Linux x86_64; rv:88.0) Gecko/20100101 Firefox/88.0,,Firefox,88,Linux,
122,1,null,"""",image-keyboard-response,56,419412,0.0-56.0,"""",jspsych/scrambledDisgustFaces/scrambledAM19DIS.JPG,"""",5,forwardMask,Practice,null,250,"""",d,"""","""","""","""","""","""","""",4/24/2021 21:19,98.23.182.206,Mozilla/5.0 (X11; Linux x86_64; rv:88.0) Gecko/20100101 Firefox/88.0,,Firefox,88,Linux,
122,1,null,"""",image-keyboard-response,57,419433,0.0-57.0,"""",jspsych/disgustFaces/AM19DIS.JPG,"""",5,Cue,Practice,null,16,"""","""","""","""","""","""","""","""","""",4/24/2021 21:19,98.23.182.206,Mozilla/5.0 (X11; Linux x86_64; rv:88.0) Gecko/20100101 Firefox/88.0,,Firefox,88,Linux,
122,1,null,"""",image-keyboard-response,58,419539,0.0-58.0,"""",jspsych/neutralFaces/BM04NES.JPG,"""",5,backwardMask,Practice,null,100,"""","""","""","""","""","""","""","""","""",4/24/2021 21:19,98.23.182.206,Mozilla/5.0 (X11; Linux x86_64; rv:88.0) Gecko/20100101 Firefox/88.0,,Firefox,88,Linux,
122,1,null,"""",html-keyboard-response,59,420540,0.0-59.0,"""","<div style=""font-size:60px;"">+</div>","""",5,fixationBtwnNeutralMaskAndPrompt,Practice,null,1000,"""","""","""","""","""","""","""","""","""",4/24/2021 21:19,98.23.182.206,Mozilla/5.0 (X11; Linux x86_64; rv:88.0) Gecko/20100101 Firefox/88.0,,Firefox,88,Linux,
122,1,2485,"""",html-button-response,60,423026,0.0-60.0,"""","<img src='jspsych/CFDfaces/CFD-BM-026-002-N.jpg'height=""250px""></br><b>Patrick</b>",0,5,IntactOrRearranged,Practice,"""","""","""","""",CFD-BM-026-002-N.jpg,Patrick,0,"""","""",0,"""",4/24/2021 21:19,98.23.182.206,Mozilla/5.0 (X11; Linux x86_64; rv:88.0) Gecko/20100101 Firefox/88.0,,Firefox,88,Linux,
122,1,2716,"""",html-slider-response,61,425746,0.0-61.0,"""","<img src='jspsych/CFDfaces/CFD-BM-026-002-N.jpg'height=""250px""></br><b>Patrick</b>","""",5,ConfidenceQuery,Practice,"""","""","""","""",CFD-BF-009-002-N.jpg,Laura,0,0,67,"""","""",4/24/2021 21:19,98.23.182.206,Mozilla/5.0 (X11; Linux x86_64; rv:88.0) Gecko/20100101 Firefox/88.0,,Firefox,88,Linux,
122,1,1761,"""",html-button-response,62,427508,0.0-62.0,"""",You are Correct. You called an Intact Pair Intact,0,5,feedback,Practice,"""","""","""","""","""","""","""","""","""","""","""",4/24/2021 21:19,98.23.182.206,Mozilla/5.0 (X11; Linux x86_64; rv:88.0) Gecko/20100101 Firefox/88.0,,Firefox,88,Linux,
122,1,null,"""",html-keyboard-response,63,428512,0.0-63.0,"""","<div style=""font-size:60px;"">+</div>","""",6,ITI,Practice,null,1000,"""","""","""","""","""","""","""","""","""",4/24/2021 21:19,98.23.182.206,Mozilla/5.0 (X11; Linux x86_64; rv:88.0) Gecko/20100101 Firefox/88.0,,Firefox,88,Linux,
122,1,null,"""",image-keyboard-response,64,428768,0.0-64.0,"""",jspsych/scrambledDisgustFaces/scrambledAM23DIS.JPG,"""",6,forwardMask,Practice,null,250,"""",d,"""","""","""","""","""","""","""",4/24/2021 21:19,98.23.182.206,Mozilla/5.0 (X11; Linux x86_64; rv:88.0) Gecko/20100101 Firefox/88.0,,Firefox,88,Linux,
122,1,null,"""",image-keyboard-response,65,428789,0.0-65.0,"""",jspsych/disgustFaces/AM23DIS.JPG,"""",6,Cue,Practice,null,16,"""","""","""","""","""","""","""","""","""",4/24/2021 21:19,98.23.182.206,Mozilla/5.0 (X11; Linux x86_64; rv:88.0) Gecko/20100101 Firefox/88.0,,Firefox,88,Linux,
122,1,null,"""",image-keyboard-response,66,428893,0.0-66.0,"""",jspsych/neutralFaces/AM33NES.JPG,"""",6,backwardMask,Practice,null,100,"""","""","""","""","""","""","""","""","""",4/24/2021 21:19,98.23.182.206,Mozilla/5.0 (X11; Linux x86_64; rv:88.0) Gecko/20100101 Firefox/88.0,,Firefox,88,Linux,
122,1,null,"""",html-keyboard-response,67,429895,0.0-67.0,"""","<div style=""font-size:60px;"">+</div>","""",6,fixationBtwnNeutralMaskAndPrompt,Practice,null,1000,"""","""","""","""","""","""","""","""","""",4/24/2021 21:19,98.23.182.206,Mozilla/5.0 (X11; Linux x86_64; rv:88.0) Gecko/20100101 Firefox/88.0,,Firefox,88,Linux,
122,1,2682,"""",html-button-response,68,432578,0.0-68.0,"""","<img src='jspsych/CFDfaces/CFD-BM-027-001-N.jpg'height=""250px""></br><b>Marcus</b>",1,6,IntactOrRearranged,Practice,"""","""","""","""",CFD-BM-027-001-N.jpg,Marcus,1,"""","""",1,"""",4/24/2021 21:19,98.23.182.206,Mozilla/5.0 (X11; Linux x86_64; rv:88.0) Gecko/20100101 Firefox/88.0,,Firefox,88,Linux,
122,1,2365,"""",html-slider-response,69,434947,0.0-69.0,"""","<img src='jspsych/CFDfaces/CFD-BM-027-001-N.jpg'height=""250px""></br><b>Marcus</b>","""",6,ConfidenceQuery,Practice,"""","""","""","""",CFD-BF-009-002-N.jpg,Laura,1,0,48,"""","""",4/24/2021 21:19,98.23.182.206,Mozilla/5.0 (X11; Linux x86_64; rv:88.0) Gecko/20100101 Firefox/88.0,,Firefox,88,Linux,
122,1,3989,"""",html-button-response,70,438939,0.0-70.0,"""",You are Correct. You Called A Rearranged Pair Rearranged,0,6,feedback,Practice,"""","""","""","""","""","""","""","""","""","""","""",4/24/2021 21:19,98.23.182.206,Mozilla/5.0 (X11; Linux x86_64; rv:88.0) Gecko/20100101 Firefox/88.0,,Firefox,88,Linux,
122,1,null,"""",html-keyboard-response,71,439940,0.0-71.0,"""","<div style=""font-size:60px;"">+</div>","""",7,ITI,Practice,null,1000,"""","""","""","""","""","""","""","""","""",4/24/2021 21:19,98.23.182.206,Mozilla/5.0 (X11; Linux x86_64; rv:88.0) Gecko/20100101 Firefox/88.0,,Firefox,88,Linux,
122,1,null,"""",image-keyboard-response,72,440195,0.0-72.0,"""",jspsych/scrambledDisgustFaces/scrambledBF19DIS.JPG,"""",7,forwardMask,Practice,null,250,"""",d,"""","""","""","""","""","""","""",4/24/2021 21:19,98.23.182.206,Mozilla/5.0 (X11; Linux x86_64; rv:88.0) Gecko/20100101 Firefox/88.0,,Firefox,88,Linux,
122,1,null,"""",image-keyboard-response,73,440216,0.0-73.0,"""",jspsych/disgustFaces/BF19DIS.JPG,"""",7,Cue,Practice,null,16,"""","""","""","""","""","""","""","""","""",4/24/2021 21:19,98.23.182.206,Mozilla/5.0 (X11; Linux x86_64; rv:88.0) Gecko/20100101 Firefox/88.0,,Firefox,88,Linux,
122,1,null,"""",image-keyboard-response,74,440322,0.0-74.0,"""",jspsych/neutralFaces/AF27NES.JPG,"""",7,backwardMask,Practice,null,100,"""","""","""","""","""","""","""","""","""",4/24/2021 21:19,98.23.182.206,Mozilla/5.0 (X11; Linux x86_64; rv:88.0) Gecko/20100101 Firefox/88.0,,Firefox,88,Linux,
122,1,null,"""",html-keyboard-response,75,441323,0.0-75.0,"""","<div style=""font-size:60px;"">+</div>","""",7,fixationBtwnNeutralMaskAndPrompt,Practice,null,1000,"""","""","""","""","""","""","""","""","""",4/24/2021 21:19,98.23.182.206,Mozilla/5.0 (X11; Linux x86_64; rv:88.0) Gecko/20100101 Firefox/88.0,,Firefox,88,Linux,
122,1,2293,"""",html-button-response,76,443618,0.0-76.0,"""","<img src='jspsych/CFDfaces/CFD-WF-024-003-N.jpg'height=""250px""></br><b>Shannon</b>",0,7,IntactOrRearranged,Practice,"""","""","""","""",CFD-WF-024-003-N.jpg,Shannon,0,"""","""",0,"""",4/24/2021 21:19,98.23.182.206,Mozilla/5.0 (X11; Linux x86_64; rv:88.0) Gecko/20100101 Firefox/88.0,,Firefox,88,Linux,
122,1,2508,"""",html-slider-response,77,446131,0.0-77.0,"""","<img src='jspsych/CFDfaces/CFD-WF-024-003-N.jpg'height=""250px""></br><b>Shannon</b>","""",7,ConfidenceQuery,Practice,"""","""","""","""",CFD-BF-009-002-N.jpg,Laura,0,0,88,"""","""",4/24/2021 21:19,98.23.182.206,Mozilla/5.0 (X11; Linux x86_64; rv:88.0) Gecko/20100101 Firefox/88.0,,Firefox,88,Linux,
122,1,1488,"""",html-button-response,78,447620,0.0-78.0,"""",You are Correct. You called an Intact Pair Intact,0,7,feedback,Practice,"""","""","""","""","""","""","""","""","""","""","""",4/24/2021 21:19,98.23.182.206,Mozilla/5.0 (X11; Linux x86_64; rv:88.0) Gecko/20100101 Firefox/88.0,,Firefox,88,Linux,
122,1,null,"""",html-keyboard-response,79,448622,0.0-79.0,"""","<div style=""font-size:60px;"">+</div>","""",8,ITI,Practice,null,1000,"""","""","""","""","""","""","""","""","""",4/24/2021 21:19,98.23.182.206,Mozilla/5.0 (X11; Linux x86_64; rv:88.0) Gecko/20100101 Firefox/88.0,,Firefox,88,Linux,
122,1,null,"""",image-keyboard-response,80,448878,0.0-80.0,"""",jspsych/scrambledNeutralFaces/scrambledBF24NES.JPG,"""",8,forwardMask,Practice,null,250,"""",n,"""","""","""","""","""","""","""",4/24/2021 21:19,98.23.182.206,Mozilla/5.0 (X11; Linux x86_64; rv:88.0) Gecko/20100101 Firefox/88.0,,Firefox,88,Linux,
122,1,null,"""",image-keyboard-response,81,448898,0.0-81.0,"""",jspsych/neutralFaces/BF24NES.JPG,"""",8,Cue,Practice,null,16,"""","""","""","""","""","""","""","""","""",4/24/2021 21:19,98.23.182.206,Mozilla/5.0 (X11; Linux x86_64; rv:88.0) Gecko/20100101 Firefox/88.0,,Firefox,88,Linux,
122,1,null,"""",image-keyboard-response,82,449002,0.0-82.0,"""",jspsych/neutralFaces/AF19NES.JPG,"""",8,backwardMask,Practice,null,100,"""","""","""","""","""","""","""","""","""",4/24/2021 21:19,98.23.182.206,Mozilla/5.0 (X11; Linux x86_64; rv:88.0) Gecko/20100101 Firefox/88.0,,Firefox,88,Linux,
122,1,null,"""",html-keyboard-response,83,450003,0.0-83.0,"""","<div style=""font-size:60px;"">+</div>","""",8,fixationBtwnNeutralMaskAndPrompt,Practice,null,1000,"""","""","""","""","""","""","""","""","""",4/24/2021 21:19,98.23.182.206,Mozilla/5.0 (X11; Linux x86_64; rv:88.0) Gecko/20100101 Firefox/88.0,,Firefox,88,Linux,
122,1,2134,"""",html-button-response,84,452139,0.0-84.0,"""","<img src='jspsych/CFDfaces/CFD-AM-207-108-N.jpg'height=""250px""></br><b>Samuel</b>",0,8,IntactOrRearranged,Practice,"""","""","""","""",CFD-AM-207-108-N.jpg,Samuel,0,"""","""",0,"""",4/24/2021 21:19,98.23.182.206,Mozilla/5.0 (X11; Linux x86_64; rv:88.0) Gecko/20100101 Firefox/88.0,,Firefox,88,Linux,
122,1,2836,"""",html-slider-response,85,454978,0.0-85.0,"""","<img src='jspsych/CFDfaces/CFD-AM-207-108-N.jpg'height=""250px""></br><b>Samuel</b>","""",8,ConfidenceQuery,Practice,"""","""","""","""",CFD-BF-009-002-N.jpg,Laura,0,0,58,"""","""",4/24/2021 21:19,98.23.182.206,Mozilla/5.0 (X11; Linux x86_64; rv:88.0) Gecko/20100101 Firefox/88.0,,Firefox,88,Linux,
122,1,1830,"""",html-button-response,86,456810,0.0-86.0,"""",You are Correct. You called an Intact Pair Intact,0,8,feedback,Practice,"""","""","""","""","""","""","""","""","""","""","""",4/24/2021 21:19,98.23.182.206,Mozilla/5.0 (X11; Linux x86_64; rv:88.0) Gecko/20100101 Firefox/88.0,,Firefox,88,Linux,
122,1,34726,"""",image-button-response,87,491547,0.0-87.0,"""",directionsMemoryAssociation3.JPG,0,128,DirectionsBeforeActualTEst,Break,"""","""","""","""","""","""","""","""","""","""","""",4/24/2021 21:19,98.23.182.206,Mozilla/5.0 (X11; Linux x86_64; rv:88.0) Gecko/20100101 Firefox/88.0,,Firefox,88,Linux,
122,1,10414,"""",image-button-response,88,501978,0.0-88.0,"""",directionsForTest2.JPG,0,1,directionsForTest2,break,"""","""","""","""","""","""","""","""","""","""","""",4/24/2021 21:19,98.23.182.206,Mozilla/5.0 (X11; Linux x86_64; rv:88.0) Gecko/20100101 Firefox/88.0,,Firefox,88,Linux,
122,1,7272,"""",html-button-response,89,509251,0.0-89.0,"""","<p>You will be asked to memorize and then recall four sets of face-name pairs. </p> <p> Each set will have 32 pairs. </p> <p>After the fourth set, there will be a brief follow-up experiment (<40 min alltogether)</p>",0,"""","""","""","""","""","""","""","""","""","""","""","""","""","""",4/24/2021 21:19,98.23.182.206,Mozilla/5.0 (X11; Linux x86_64; rv:88.0) Gecko/20100101 Firefox/88.0,,Firefox,88,Linux,
122,1,2250,"""",html-keyboard-response,90,514255,0.0-90.0,"""","<img src='jspsych/CFDfaces/CFD-WF-220-101-N.jpg' height=""250px""></br><b>Victoria</b>","""",256,IntactFace,Memorization,70,5000,f,"""",CFD-BF-001-025-N.jpg,Jasmine,0,"""","""","""",1,4/24/2021 21:19,98.23.182.206,Mozilla/5.0 (X11; Linux x86_64; rv:88.0) Gecko/20100101 Firefox/88.0,,Firefox,88,Linux,
122,1,null,"""",html-keyboard-response,91,514756,0.0-91.0,"""","<div style=""font-size:60px;"">+</div>","""",256,fixation,Memorization,null,500,"""","""","""","""","""","""","""","""",1,4/24/2021 21:19,98.23.182.206,Mozilla/5.0 (X11; Linux x86_64; rv:88.0) Gecko/20100101 Firefox/88.0,,Firefox,88,Linux,
122,1,2171,"""",html-keyboard-response,92,519758,0.0-92.0,"""","<img src='jspsych/CFDfaces/CFD-BF-025-002-N.jpg' height=""250px""></br><b>Stephanie</b>","""",256,IntactFace,Memorization,78,5000,n,"""",CFD-AM-214-168-N.jpg,Dustin,0,"""","""","""",1,4/24/2021 21:19,98.23.182.206,Mozilla/5.0 (X11; Linux x86_64; rv:88.0) Gecko/20100101 Firefox/88.0,,Firefox,88,Linux,
122,1,null,"""",html-keyboard-response,93,520260,0.0-93.0,"""","<div style=""font-size:60px;"">+</div>","""",256,fixation,Memorization,null,500,"""","""","""","""","""","""","""","""",1,4/24/2021 21:19,98.23.182.206,Mozilla/5.0 (X11; Linux x86_64; rv:88.0) Gecko/20100101 Firefox/88.0,,Firefox,88,Linux,
122,1,2551,"""",html-keyboard-response,94,525260,0.0-94.0,"""","<img src='jspsych/CFDfaces/CFD-BM-032-024-N.jpg' height=""250px""></br><b>James</b>","""",256,IntactFace,Memorization,70,5000,f,"""",CFD-AF-235-170-N.jpg,Melissa,0,"""","""","""",1,4/24/2021 21:19,98.23.182.206,Mozilla/5.0 (X11; Linux x86_64; rv:88.0) Gecko/20100101 Firefox/88.0,,Firefox,88,Linux,
122,1,null,"""",html-keyboard-response,95,525763,0.0-95.0,"""","<div style=""font-size:60px;"">+</div>","""",256,fixation,Memorization,null,500,"""","""","""","""","""","""","""","""",1,4/24/2021 21:19,98.23.182.206,Mozilla/5.0 (X11; Linux x86_64; rv:88.0) Gecko/20100101 Firefox/88.0,,Firefox,88,Linux,
122,1,1816,"""",html-keyboard-response,96,530765,0.0-96.0,"""","<img src='jspsych/CFDfaces/CFD-BF-212-315-N.jpg' height=""250px""></br><b>Michelle</b>","""",256,IntactFace,Memorization,70,5000,f,"""",CFD-AM-213-056-N.jpg,Travis,0,"""","""","""",1,4/24/2021 21:19,98.23.182.206,Mozilla/5.0 (X11; Linux x86_64; rv:88.0) Gecko/20100101 Firefox/88.0,,Firefox,88,Linux,
122,1,null,"""",html-keyboard-response,97,531267,0.0-97.0,"""","<div style=""font-size:60px;"">+</div>","""",256,fixation,Memorization,null,500,"""","""","""","""","""","""","""","""",1,4/24/2021 21:19,98.23.182.206,Mozilla/5.0 (X11; Linux x86_64; rv:88.0) Gecko/20100101 Firefox/88.0,,Firefox,88,Linux,
122,1,1928,"""",html-keyboard-response,98,536270,0.0-98.0,"""","<img src='jspsych/CFDfaces/CFD-WM-019-003-N.jpg' height=""250px""></br><b>Eric</b>","""",256,IntactFace,Memorization,70,5000,f,"""",CFD-LM-221-216-N.jpg,Steven,0,"""","""","""",1,4/24/2021 21:19,98.23.182.206,Mozilla/5.0 (X11; Linux x86_64; rv:88.0) Gecko/20100101 Firefox/88.0,,Firefox,88,Linux,
122,1,null,"""",html-keyboard-response,99,536773,0.0-99.0,"""","<div style=""font-size:60px;"">+</div>","""",256,fixation,Memorization,null,500,"""","""","""","""","""","""","""","""",1,4/24/2021 21:19,98.23.182.206,Mozilla/5.0 (X11; Linux x86_64; rv:88.0) Gecko/20100101 Firefox/88.0,,Firefox,88,Linux,
122,1,3174,"""",html-keyboard-response,100,541775,0.0-100.0,"""","<img src='jspsych/CFDfaces/CFD-BM-208-065-N.jpg' height=""250px""></br><b>Jason</b>","""",256,IntactFace,Memorization,78,5000,n,"""",CFD-LM-223-175-N.jpg,Kenneth,0,"""","""","""",1,4/24/2021 21:19,98.23.182.206,Mozilla/5.0 (X11; Linux x86_64; rv:88.0) Gecko/20100101 Firefox/88.0,,Firefox,88,Linux,
122,1,null,"""",html-keyboard-response,101,542277,0.0-101.0,"""","<div style=""font-size:60px;"">+</div>","""",256,fixation,Memorization,null,500,"""","""","""","""","""","""","""","""",1,4/24/2021 21:19,98.23.182.206,Mozilla/5.0 (X11; Linux x86_64; rv:88.0) Gecko/20100101 Firefox/88.0,,Firefox,88,Linux,
122,1,1762,"""",html-keyboard-response,102,547279,0.0-102.0,"""","<img src='jspsych/CFDfaces/CFD-LF-220-120-N.jpg' height=""250px""></br><b>Meghan</b>","""",256,IntactFace,Memorization,70,5000,f,"""",CFD-BF-222-240-N.jpg,Amy,0,"""","""","""",1,4/24/2021 21:19,98.23.182.206,Mozilla/5.0 (X11; Linux x86_64; rv:88.0) Gecko/20100101 Firefox/88.0,,Firefox,88,Linux,
122,1,null,"""",html-keyboard-response,103,547781,0.0-103.0,"""","<div style=""font-size:60px;"">+</div>","""",256,fixation,Memorization,null,500,"""","""","""","""","""","""","""","""",1,4/24/2021 21:19,98.23.182.206,Mozilla/5.0 (X11; Linux x86_64; rv:88.0) Gecko/20100101 Firefox/88.0,,Firefox,88,Linux,
122,1,2431,"""",html-keyboard-response,104,552783,0.0-104.0,"""","<img src='jspsych/CFDfaces/CFD-AF-239-171-N.jpg' height=""250px""></br><b>Ashley</b>","""",256,IntactFace,Memorization,70,5000,f,"""",CFD-AF-233-190-N.jpg,Tiffany,0,"""","""","""",1,4/24/2021 21:19,98.23.182.206,Mozilla/5.0 (X11; Linux x86_64; rv:88.0) Gecko/20100101 Firefox/88.0,,Firefox,88,Linux,
122,1,null,"""",html-keyboard-response,105,553285,0.0-105.0,"""","<div style=""font-size:60px;"">+</div>","""",256,fixation,Memorization,null,500,"""","""","""","""","""","""","""","""",1,4/24/2021 21:19,98.23.182.206,Mozilla/5.0 (X11; Linux x86_64; rv:88.0) Gecko/20100101 Firefox/88.0,,Firefox,88,Linux,
122,1,2050,"""",html-keyboard-response,106,558287,0.0-106.0,"""","<img src='jspsych/CFDfaces/CFD-BM-011-016-N.jpg' height=""250px""></br><b>Joshua</b>","""",256,IntactFace,Memorization,70,5000,f,"""",CFD-WM-215-041-N.jpg,Cameron,0,"""","""","""",1,4/24/2021 21:19,98.23.182.206,Mozilla/5.0 (X11; Linux x86_64; rv:88.0) Gecko/20100101 Firefox/88.0,,Firefox,88,Linux,
122,1,null,"""",html-keyboard-response,107,558788,0.0-107.0,"""","<div style=""font-size:60px;"">+</div>","""",256,fixation,Memorization,null,500,"""","""","""","""","""","""","""","""",1,4/24/2021 21:19,98.23.182.206,Mozilla/5.0 (X11; Linux x86_64; rv:88.0) Gecko/20100101 Firefox/88.0,,Firefox,88,Linux,
122,1,2555,"""",html-keyboard-response,108,563791,0.0-108.0,"""","<img src='jspsych/CFDfaces/CFD-BM-017-021-N.jpg' height=""250px""></br><b>Gregory</b>","""",256,IntactFace,Memorization,70,5000,f,"""",CFD-AM-211-052-N.jpg,Vincent,0,"""","""","""",1,4/24/2021 21:19,98.23.182.206,Mozilla/5.0 (X11; Linux x86_64; rv:88.0) Gecko/20100101 Firefox/88.0,,Firefox,88,Linux,
122,1,null,"""",html-keyboard-response,109,564292,0.0-109.0,"""","<div style=""font-size:60px;"">+</div>","""",256,fixation,Memorization,null,500,"""","""","""","""","""","""","""","""",1,4/24/2021 21:19,98.23.182.206,Mozilla/5.0 (X11; Linux x86_64; rv:88.0) Gecko/20100101 Firefox/88.0,,Firefox,88,Linux,
122,1,2684,"""",html-keyboard-response,110,569294,0.0-110.0,"""","<img src='jspsych/CFDfaces/CFD-LM-239-075-N.jpg' height=""250px""></br><b>Ian</b>","""",256,IntactFace,Memorization,78,5000,n,"""",CFD-BF-019-001-N.jpg,Angela,0,"""","""","""",1,4/24/2021 21:19,98.23.182.206,Mozilla/5.0 (X11; Linux x86_64; rv:88.0) Gecko/20100101 Firefox/88.0,,Firefox,88,Linux,
122,1,null,"""",html-keyboard-response,111,569795,0.0-111.0,"""","<div style=""font-size:60px;"">+</div>","""",256,fixation,Memorization,null,500,"""","""","""","""","""","""","""","""",1,4/24/2021 21:19,98.23.182.206,Mozilla/5.0 (X11; Linux x86_64; rv:88.0) Gecko/20100101 Firefox/88.0,,Firefox,88,Linux,
122,1,2703,"""",html-keyboard-response,112,574798,0.0-112.0,"""","<img src='jspsych/CFDfaces/CFD-LF-236-221-N.jpg' height=""250px""></br><b>Brittany</b>","""",256,IntactFace,Memorization,78,5000,n,"""",CFD-WF-018-017-N.jpg,Rebecca,0,"""","""","""",1,4/24/2021 21:19,98.23.182.206,Mozilla/5.0 (X11; Linux x86_64; rv:88.0) Gecko/20100101 Firefox/88.0,,Firefox,88,Linux,
122,1,null,"""",html-keyboard-response,113,575299,0.0-113.0,"""","<div style=""font-size:60px;"">+</div>","""",256,fixation,Memorization,null,500,"""","""","""","""","""","""","""","""",1,4/24/2021 21:19,98.23.182.206,Mozilla/5.0 (X11; Linux x86_64; rv:88.0) Gecko/20100101 Firefox/88.0,,Firefox,88,Linux,
122,1,2145,"""",html-keyboard-response,114,580300,0.0-114.0,"""","<img src='jspsych/CFDfaces/CFD-AF-215-70-N.jpg' height=""250px""></br><b>Vanessa</b>","""",256,IntactFace,Memorization,70,5000,f,"""",CFD-LM-225-130-N.jpg,Sean,0,"""","""","""",1,4/24/2021 21:19,98.23.182.206,Mozilla/5.0 (X11; Linux x86_64; rv:88.0) Gecko/20100101 Firefox/88.0,,Firefox,88,Linux,
122,1,null,"""",html-keyboard-response,115,580801,0.0-115.0,"""","<div style=""font-size:60px;"">+</div>","""",256,fixation,Memorization,null,500,"""","""","""","""","""","""","""","""",1,4/24/2021 21:19,98.23.182.206,Mozilla/5.0 (X11; Linux x86_64; rv:88.0) Gecko/20100101 Firefox/88.0,,Firefox,88,Linux,
122,1,2538,"""",html-keyboard-response,116,585803,0.0-116.0,"""","<img src='jspsych/CFDfaces/CFD-WM-006-002-N.jpg' height=""250px""></br><b>Daniel</b>","""",256,IntactFace,Memorization,70,5000,f,"""",CFD-AF-220-107-N.jpg,Jenna,0,"""","""","""",1,4/24/2021 21:19,98.23.182.206,Mozilla/5.0 (X11; Linux x86_64; rv:88.0) Gecko/20100101 Firefox/88.0,,Firefox,88,Linux,
122,1,null,"""",html-keyboard-response,117,586305,0.0-117.0,"""","<div style=""font-size:60px;"">+</div>","""",256,fixation,Memorization,null,500,"""","""","""","""","""","""","""","""",1,4/24/2021 21:19,98.23.182.206,Mozilla/5.0 (X11; Linux x86_64; rv:88.0) Gecko/20100101 Firefox/88.0,,Firefox,88,Linux,
122,1,2634,"""",html-keyboard-response,118,591307,0.0-118.0,"""","<img src='jspsych/CFDfaces/CFD-WF-215-145-N.jpg' height=""250px""></br><b>Elizabeth</b>","""",256,IntactFace,Memorization,70,5000,f,"""",CFD-LM-234-176-N.jpg,Jacob,0,"""","""","""",1,4/24/2021 21:19,98.23.182.206,Mozilla/5.0 (X11; Linux x86_64; rv:88.0) Gecko/20100101 Firefox/88.0,,Firefox,88,Linux,
122,1,null,"""",html-keyboard-response,119,591809,0.0-119.0,"""","<div style=""font-size:60px;"">+</div>","""",256,fixation,Memorization,null,500,"""","""","""","""","""","""","""","""",1,4/24/2021 21:19,98.23.182.206,Mozilla/5.0 (X11; Linux x86_64; rv:88.0) Gecko/20100101 Firefox/88.0,,Firefox,88,Linux,
122,1,3154,"""",html-keyboard-response,120,596810,0.0-120.0,"""","<img src='jspsych/CFDfaces/CFD-LM-213-061-N.jpg' height=""250px""></br><b>Nicholas</b>","""",256,IntactFace,Memorization,78,5000,n,"""",CFD-WM-212-097-N.jpg,Timothy,0,"""","""","""",1,4/24/2021 21:19,98.23.182.206,Mozilla/5.0 (X11; Linux x86_64; rv:88.0) Gecko/20100101 Firefox/88.0,,Firefox,88,Linux,
122,1,null,"""",html-keyboard-response,121,597312,0.0-121.0,"""","<div style=""font-size:60px;"">+</div>","""",256,fixation,Memorization,null,500,"""","""","""","""","""","""","""","""",1,4/24/2021 21:19,98.23.182.206,Mozilla/5.0 (X11; Linux x86_64; rv:88.0) Gecko/20100101 Firefox/88.0,,Firefox,88,Linux,
122,1,1819,"""",html-keyboard-response,122,602314,0.0-122.0,"""","<img src='jspsych/CFDfaces/CFD-BM-029-024-N.jpg' height=""250px""></br><b>Jeffrey</b>","""",256,IntactFace,Memorization,70,5000,f,"""",CFD-AF-230-193-N.jpg,Sara,0,"""","""","""",1,4/24/2021 21:19,98.23.182.206,Mozilla/5.0 (X11; Linux x86_64; rv:88.0) Gecko/20100101 Firefox/88.0,,Firefox,88,Linux,
122,1,null,"""",html-keyboard-response,123,602815,0.0-123.0,"""","<div style=""font-size:60px;"">+</div>","""",256,fixation,Memorization,null,500,"""","""","""","""","""","""","""","""",1,4/24/2021 21:19,98.23.182.206,Mozilla/5.0 (X11; Linux x86_64; rv:88.0) Gecko/20100101 Firefox/88.0,,Firefox,88,Linux,
122,1,2701,"""",html-keyboard-response,124,607816,0.0-124.0,"""","<img src='jspsych/CFDfaces/CFD-LM-209-111-N.jpg' height=""250px""></br><b>Peter</b>","""",256,IntactFace,Memorization,70,5000,f,"""",CFD-LM-233-171-N.jpg,Justin,0,"""","""","""",1,4/24/2021 21:19,98.23.182.206,Mozilla/5.0 (X11; Linux x86_64; rv:88.0) Gecko/20100101 Firefox/88.0,,Firefox,88,Linux,
122,1,null,"""",html-keyboard-response,125,608319,0.0-125.0,"""","<div style=""font-size:60px;"">+</div>","""",256,fixation,Memorization,null,500,"""","""","""","""","""","""","""","""",1,4/24/2021 21:19,98.23.182.206,Mozilla/5.0 (X11; Linux x86_64; rv:88.0) Gecko/20100101 Firefox/88.0,,Firefox,88,Linux,
122,1,2458,"""",html-keyboard-response,126,613321,0.0-126.0,"""","<img src='jspsych/CFDfaces/CFD-BF-209-172-N.jpg' height=""250px""></br><b>Samantha</b>","""",256,IntactFace,Memorization,78,5000,n,"""",CFD-BF-009-002-N.jpg,Erin,0,"""","""","""",1,4/24/2021 21:19,98.23.182.206,Mozilla/5.0 (X11; Linux x86_64; rv:88.0) Gecko/20100101 Firefox/88.0,,Firefox,88,Linux,
122,1,null,"""",html-keyboard-response,127,613823,0.0-127.0,"""","<div style=""font-size:60px;"">+</div>","""",256,fixation,Memorization,null,500,"""","""","""","""","""","""","""","""",1,4/24/2021 21:19,98.23.182.206,Mozilla/5.0 (X11; Linux x86_64; rv:88.0) Gecko/20100101 Firefox/88.0,,Firefox,88,Linux,
122,1,2908,"""",html-keyboard-response,128,618824,0.0-128.0,"""","<img src='jspsych/CFDfaces/CFD-LF-231-260-N.jpg' height=""250px""></br><b>Kayla</b>","""",256,IntactFace,Memorization,70,5000,f,"""",CFD-WF-204-038-N.jpg,Lindsey,0,"""","""","""",1,4/24/2021 21:19,98.23.182.206,Mozilla/5.0 (X11; Linux x86_64; rv:88.0) Gecko/20100101 Firefox/88.0,,Firefox,88,Linux,
122,1,null,"""",html-keyboard-response,129,619326,0.0-129.0,"""","<div style=""font-size:60px;"">+</div>","""",256,fixation,Memorization,null,500,"""","""","""","""","""","""","""","""",1,4/24/2021 21:19,98.23.182.206,Mozilla/5.0 (X11; Linux x86_64; rv:88.0) Gecko/20100101 Firefox/88.0,,Firefox,88,Linux,
122,1,2985,"""",html-keyboard-response,130,624330,0.0-130.0,"""","<img src='jspsych/CFDfaces/CFD-LF-213-079-N.jpg' height=""250px""></br><b>Amanda</b>","""",256,IntactFace,Memorization,70,5000,f,"""",CFD-LF-200-058-N.jpg,Laura,0,"""","""","""",1,4/24/2021 21:19,98.23.182.206,Mozilla/5.0 (X11; Linux x86_64; rv:88.0) Gecko/20100101 Firefox/88.0,,Firefox,88,Linux,
122,1,null,"""",html-keyboard-response,131,624832,0.0-131.0,"""","<div style=""font-size:60px;"">+</div>","""",256,fixation,Memorization,null,500,"""","""","""","""","""","""","""","""",1,4/24/2021 21:19,98.23.182.206,Mozilla/5.0 (X11; Linux x86_64; rv:88.0) Gecko/20100101 Firefox/88.0,,Firefox,88,Linux,
122,1,2345,"""",html-keyboard-response,132,629835,0.0-132.0,"""","<img src='jspsych/CFDfaces/CFD-WF-003-003-N.jpg' height=""250px""></br><b>Christina</b>","""",256,IntactFace,Memorization,70,5000,f,"""",CFD-AF-237-223-N.jpg,Heather,0,"""","""","""",1,4/24/2021 21:19,98.23.182.206,Mozilla/5.0 (X11; Linux x86_64; rv:88.0) Gecko/20100101 Firefox/88.0,,Firefox,88,Linux,
122,1,null,"""",html-keyboard-response,133,630336,0.0-133.0,"""","<div style=""font-size:60px;"">+</div>","""",256,fixation,Memorization,null,500,"""","""","""","""","""","""","""","""",1,4/24/2021 21:19,98.23.182.206,Mozilla/5.0 (X11; Linux x86_64; rv:88.0) Gecko/20100101 Firefox/88.0,,Firefox,88,Linux,
122,1,2445,"""",html-keyboard-response,134,635338,0.0-134.0,"""","<img src='jspsych/CFDfaces/CFD-BF-221-223-N.jpg' height=""250px""></br><b>Julie</b>","""",256,IntactFace,Memorization,70,5000,f,"""",CFD-LF-206-078-N.jpg,Taylor,0,"""","""","""",1,4/24/2021 21:19,98.23.182.206,Mozilla/5.0 (X11; Linux x86_64; rv:88.0) Gecko/20100101 Firefox/88.0,,Firefox,88,Linux,
122,1,null,"""",html-keyboard-response,135,635840,0.0-135.0,"""","<div style=""font-size:60px;"">+</div>","""",256,fixation,Memorization,null,500,"""","""","""","""","""","""","""","""",1,4/24/2021 21:19,98.23.182.206,Mozilla/5.0 (X11; Linux x86_64; rv:88.0) Gecko/20100101 Firefox/88.0,,Firefox,88,Linux,
122,1,3303,"""",html-keyboard-response,136,640843,0.0-136.0,"""","<img src='jspsych/CFDfaces/CFD-BM-022-022-N.jpg' height=""250px""></br><b>Brian</b>","""",256,IntactFace,Memorization,78,5000,n,"""",CFD-WF-029-002-N.jpg,Jordan,0,"""","""","""",1,4/24/2021 21:19,98.23.182.206,Mozilla/5.0 (X11; Linux x86_64; rv:88.0) Gecko/20100101 Firefox/88.0,,Firefox,88,Linux,
122,1,null,"""",html-keyboard-response,137,641344,0.0-137.0,"""","<div style=""font-size:60px;"">+</div>","""",256,fixation,Memorization,null,500,"""","""","""","""","""","""","""","""",1,4/24/2021 21:19,98.23.182.206,Mozilla/5.0 (X11; Linux x86_64; rv:88.0) Gecko/20100101 Firefox/88.0,,Firefox,88,Linux,
122,1,1968,"""",html-keyboard-response,138,646346,0.0-138.0,"""","<img src='jspsych/CFDfaces/CFD-AM-205-153-N.jpg' height=""250px""></br><b>Robert</b>","""",256,IntactFace,Memorization,78,5000,n,"""",CFD-LM-201-057-N.jpg,Ryan,0,"""","""","""",1,4/24/2021 21:19,98.23.182.206,Mozilla/5.0 (X11; Linux x86_64; rv:88.0) Gecko/20100101 Firefox/88.0,,Firefox,88,Linux,
122,1,null,"""",html-keyboard-response,139,646847,0.0-139.0,"""","<div style=""font-size:60px;"">+</div>","""",256,fixation,Memorization,null,500,"""","""","""","""","""","""","""","""",1,4/24/2021 21:19,98.23.182.206,Mozilla/5.0 (X11; Linux x86_64; rv:88.0) Gecko/20100101 Firefox/88.0,,Firefox,88,Linux,
122,1,2519,"""",html-keyboard-response,140,651850,0.0-140.0,"""","<img src='jspsych/CFDfaces/CFD-WF-223-133-N.jpg' height=""250px""></br><b>Emily</b>","""",256,IntactFace,Memorization,70,5000,f,"""",CFD-WM-222-057-N.jpg,Austin,0,"""","""","""",1,4/24/2021 21:19,98.23.182.206,Mozilla/5.0 (X11; Linux x86_64; rv:88.0) Gecko/20100101 Firefox/88.0,,Firefox,88,Linux,
122,1,null,"""",html-keyboard-response,141,652351,0.0-141.0,"""","<div style=""font-size:60px;"">+</div>","""",256,fixation,Memorization,null,500,"""","""","""","""","""","""","""","""",1,4/24/2021 21:19,98.23.182.206,Mozilla/5.0 (X11; Linux x86_64; rv:88.0) Gecko/20100101 Firefox/88.0,,Firefox,88,Linux,
122,1,2447,"""",html-keyboard-response,142,657354,0.0-142.0,"""","<img src='jspsych/CFDfaces/CFD-BM-211-174-N.jpg' height=""250px""></br><b>Christian</b>","""",256,IntactFace,Memorization,70,5000,f,"""",CFD-WM-003-002-N.jpg,Mark,0,"""","""","""",1,4/24/2021 21:19,98.23.182.206,Mozilla/5.0 (X11; Linux x86_64; rv:88.0) Gecko/20100101 Firefox/88.0,,Firefox,88,Linux,
122,1,null,"""",html-keyboard-response,143,657855,0.0-143.0,"""","<div style=""font-size:60px;"">+</div>","""",256,fixation,Memorization,null,500,"""","""","""","""","""","""","""","""",1,4/24/2021 21:19,98.23.182.206,Mozilla/5.0 (X11; Linux x86_64; rv:88.0) Gecko/20100101 Firefox/88.0,,Firefox,88,Linux,
122,1,2775,"""",html-keyboard-response,144,662858,0.0-144.0,"""","<img src='jspsych/CFDfaces/CFD-BF-005-001-N.jpg' height=""250px""></br><b>Andrea</b>","""",256,IntactFace,Memorization,70,5000,f,"""",CFD-AF-242-158-N.jpg,Lauren,0,"""","""","""",1,4/24/2021 21:19,98.23.182.206,Mozilla/5.0 (X11; Linux x86_64; rv:88.0) Gecko/20100101 Firefox/88.0,,Firefox,88,Linux,
122,1,null,"""",html-keyboard-response,145,663359,0.0-145.0,"""","<div style=""font-size:60px;"">+</div>","""",256,fixation,Memorization,null,500,"""","""","""","""","""","""","""","""",1,4/24/2021 21:19,98.23.182.206,Mozilla/5.0 (X11; Linux x86_64; rv:88.0) Gecko/20100101 Firefox/88.0,,Firefox,88,Linux,
122,1,2016,"""",html-keyboard-response,146,668362,0.0-146.0,"""","<img src='jspsych/CFDfaces/CFD-BM-001-014-N.jpg' height=""250px""></br><b>Brandon</b>","""",256,IntactFace,Memorization,70,5000,f,"""",CFD-AM-242-176-N.jpg,Jeremy,0,"""","""","""",1,4/24/2021 21:19,98.23.182.206,Mozilla/5.0 (X11; Linux x86_64; rv:88.0) Gecko/20100101 Firefox/88.0,,Firefox,88,Linux,
122,1,null,"""",html-keyboard-response,147,668865,0.0-147.0,"""","<div style=""font-size:60px;"">+</div>","""",256,fixation,Memorization,null,500,"""","""","""","""","""","""","""","""",1,4/24/2021 21:19,98.23.182.206,Mozilla/5.0 (X11; Linux x86_64; rv:88.0) Gecko/20100101 Firefox/88.0,,Firefox,88,Linux,
122,1,1850,"""",html-keyboard-response,148,673866,0.0-148.0,"""","<img src='jspsych/CFDfaces/CFD-AM-237-154-N.jpg' height=""250px""></br><b>Juan</b>","""",256,IntactFace,Memorization,70,5000,f,"""",CFD-AF-240-206-N.jpg,Whitney,0,"""","""","""",1,4/24/2021 21:19,98.23.182.206,Mozilla/5.0 (X11; Linux x86_64; rv:88.0) Gecko/20100101 Firefox/88.0,,Firefox,88,Linux,
122,1,null,"""",html-keyboard-response,149,674367,0.0-149.0,"""","<div style=""font-size:60px;"">+</div>","""",256,fixation,Memorization,null,500,"""","""","""","""","""","""","""","""",1,4/24/2021 21:19,98.23.182.206,Mozilla/5.0 (X11; Linux x86_64; rv:88.0) Gecko/20100101 Firefox/88.0,,Firefox,88,Linux,
122,1,2909,"""",html-keyboard-response,150,679370,0.0-150.0,"""","<img src='jspsych/CFDfaces/CFD-LF-205-100-N.jpg' height=""250px""></br><b>Kimberly</b>","""",256,IntactFace,Memorization,70,5000,f,"""",CFD-WM-017-002-N.jpg,Jesse,0,"""","""","""",1,4/24/2021 21:19,98.23.182.206,Mozilla/5.0 (X11; Linux x86_64; rv:88.0) Gecko/20100101 Firefox/88.0,,Firefox,88,Linux,
122,1,null,"""",html-keyboard-response,151,679871,0.0-151.0,"""","<div style=""font-size:60px;"">+</div>","""",256,fixation,Memorization,null,500,"""","""","""","""","""","""","""","""",1,4/24/2021 21:19,98.23.182.206,Mozilla/5.0 (X11; Linux x86_64; rv:88.0) Gecko/20100101 Firefox/88.0,,Firefox,88,Linux,
122,1,2199,"""",html-keyboard-response,152,684872,0.0-152.0,"""","<img src='jspsych/CFDfaces/CFD-WM-011-002-N.jpg' height=""250px""></br><b>Richard</b>","""",256,IntactFace,Memorization,70,5000,f,"""",CFD-AM-246-184-N.jpg,Luis,0,"""","""","""",1,4/24/2021 21:19,98.23.182.206,Mozilla/5.0 (X11; Linux x86_64; rv:88.0) Gecko/20100101 Firefox/88.0,,Firefox,88,Linux,
122,1,null,"""",html-keyboard-response,153,685374,0.0-153.0,"""","<div style=""font-size:60px;"">+</div>","""",256,fixation,Memorization,null,500,"""","""","""","""","""","""","""","""",1,4/24/2021 21:19,98.23.182.206,Mozilla/5.0 (X11; Linux x86_64; rv:88.0) Gecko/20100101 Firefox/88.0,,Firefox,88,Linux,
122,1,5399,"""",html-keyboard-response,154,690773,0.0-154.0,"""",Press Any Key to Begin Memory Test,"""",1,welcomeScreen,Break,70,"""","""","""","""","""","""","""","""","""",1,4/24/2021 21:19,98.23.182.206,Mozilla/5.0 (X11; Linux x86_64; rv:88.0) Gecko/20100101 Firefox/88.0,,Firefox,88,Linux,
122,1,null,"""",html-keyboard-response,155,691775,0.0-155.0,"""","<div style=""font-size:60px;"">+</div>","""",256,ITI,Test,null,1000,"""","""","""","""","""","""","""","""",1,4/24/2021 21:19,98.23.182.206,Mozilla/5.0 (X11; Linux x86_64; rv:88.0) Gecko/20100101 Firefox/88.0,,Firefox,88,Linux,
122,1,null,"""",image-keyboard-response,156,692028,0.0-156.0,"""",jspsych/scrambledDisgustFaces/scrambledAM32DIS.JPG,"""",256,forwardMask,Test,null,250,"""",d,"""","""","""","""","""","""",1,4/24/2021 21:19,98.23.182.206,Mozilla/5.0 (X11; Linux x86_64; rv:88.0) Gecko/20100101 Firefox/88.0,,Firefox,88,Linux,
122,1,null,"""",image-keyboard-response,157,692051,0.0-157.0,"""",jspsych/disgustFaces/AM32DIS.JPG,"""",256,Cue,Test,null,16,"""","""","""","""","""","""","""","""",1,4/24/2021 21:19,98.23.182.206,Mozilla/5.0 (X11; Linux x86_64; rv:88.0) Gecko/20100101 Firefox/88.0,,Firefox,88,Linux,
122,1,null,"""",image-keyboard-response,158,692157,0.0-158.0,"""",jspsych/neutralFaces/AM05NES.JPG,"""",256,backwardMask,Test,null,100,"""","""","""","""","""","""","""","""",1,4/24/2021 21:19,98.23.182.206,Mozilla/5.0 (X11; Linux x86_64; rv:88.0) Gecko/20100101 Firefox/88.0,,Firefox,88,Linux,
122,1,null,"""",html-keyboard-response,159,693159,0.0-159.0,"""","<div style=""font-size:60px;"">+</div>","""",256,fixationBtwnNeutralMaskAndPrompt,Test,null,1000,"""","""","""","""","""","""","""","""",1,4/24/2021 21:19,98.23.182.206,Mozilla/5.0 (X11; Linux x86_64; rv:88.0) Gecko/20100101 Firefox/88.0,,Firefox,88,Linux,
122,1,2417,"""",html-button-response,160,695578,0.0-160.0,"""","<img src='jspsych/CFDfaces/CFD-BM-022-022-N.jpg' height=""250px"">,</br><b>Brian</b>",1,256,IntactOrRearranged,Test,"""","""","""","""",CFD-LM-234-176-N.jpg,Jacob,0,"""","""",1,1,4/24/2021 21:19,98.23.182.206,Mozilla/5.0 (X11; Linux x86_64; rv:88.0) Gecko/20100101 Firefox/88.0,,Firefox,88,Linux,
122,1,null,"""",html-slider-response,161,700586,0.0-161.0,"""","<img src='jspsych/CFDfaces/CFD-BM-022-022-N.jpg' height=""250px"">,</br><b>Brian</b>","""",256,ConfidenceQuery,Test,"""","""","""","""",CFD-LM-234-176-N.jpg,Jacob,0,0,null,"""",1,4/24/2021 21:19,98.23.182.206,Mozilla/5.0 (X11; Linux x86_64; rv:88.0) Gecko/20100101 Firefox/88.0,,Firefox,88,Linux,
122,1,null,"""",html-keyboard-response,162,701591,0.0-162.0,"""","<div style=""font-size:60px;"">+</div>","""",256,ITI,Test,null,1000,"""","""","""","""","""","""","""","""",1,4/24/2021 21:19,98.23.182.206,Mozilla/5.0 (X11; Linux x86_64; rv:88.0) Gecko/20100101 Firefox/88.0,,Firefox,88,Linux,
122,1,null,"""",image-keyboard-response,163,701846,0.0-163.0,"""",jspsych/scrambledDisgustFaces/scrambledBF13DIS.JPG,"""",256,forwardMask,Test,null,250,"""",d,"""","""","""","""","""","""",1,4/24/2021 21:19,98.23.182.206,Mozilla/5.0 (X11; Linux x86_64; rv:88.0) Gecko/20100101 Firefox/88.0,,Firefox,88,Linux,
122,1,null,"""",image-keyboard-response,164,701866,0.0-164.0,"""",jspsych/disgustFaces/BF13DIS.JPG,"""",256,Cue,Test,null,16,"""","""","""","""","""","""","""","""",1,4/24/2021 21:19,98.23.182.206,Mozilla/5.0 (X11; Linux x86_64; rv:88.0) Gecko/20100101 Firefox/88.0,,Firefox,88,Linux,
122,1,null,"""",image-keyboard-response,165,701971,0.0-165.0,"""",jspsych/neutralFaces/BF16NES.JPG,"""",256,backwardMask,Test,null,100,"""","""","""","""","""","""","""","""",1,4/24/2021 21:19,98.23.182.206,Mozilla/5.0 (X11; Linux x86_64; rv:88.0) Gecko/20100101 Firefox/88.0,,Firefox,88,Linux,
122,1,null,"""",html-keyboard-response,166,702972,0.0-166.0,"""","<div style=""font-size:60px;"">+</div>","""",256,fixationBtwnNeutralMaskAndPrompt,Test,null,1000,"""","""","""","""","""","""","""","""",1,4/24/2021 21:19,98.23.182.206,Mozilla/5.0 (X11; Linux x86_64; rv:88.0) Gecko/20100101 Firefox/88.0,,Firefox,88,Linux,
122,1,2069,"""",html-button-response,167,705044,0.0-167.0,"""","<img src='jspsych/CFDfaces/CFD-WM-011-002-N.jpg' height=""250px"">,</br><b>Christian</b>",1,256,IntactOrRearranged,Test,"""","""","""","""",CFD-AM-242-176-N.jpg,Ryan,1,"""","""",1,1,4/24/2021 21:19,98.23.182.206,Mozilla/5.0 (X11; Linux x86_64; rv:88.0) Gecko/20100101 Firefox/88.0,,Firefox,88,Linux,
122,1,2045,"""",html-slider-response,168,707092,0.0-168.0,"""","<img src='jspsych/CFDfaces/CFD-WM-011-002-N.jpg' height=""250px"">,</br><b>Christian</b>","""",256,ConfidenceQuery,Test,"""","""","""","""",CFD-AM-242-176-N.jpg,Ryan,1,0,77,"""",1,4/24/2021 21:19,98.23.182.206,Mozilla/5.0 (X11; Linux x86_64; rv:88.0) Gecko/20100101 Firefox/88.0,,Firefox,88,Linux,
122,1,null,"""",html-keyboard-response,169,708094,0.0-169.0,"""","<div style=""font-size:60px;"">+</div>","""",256,ITI,Test,null,1000,"""","""","""","""","""","""","""","""",1,4/24/2021 21:19,98.23.182.206,Mozilla/5.0 (X11; Linux x86_64; rv:88.0) Gecko/20100101 Firefox/88.0,,Firefox,88,Linux,
122,1,null,"""",image-keyboard-response,170,708348,0.0-170.0,"""",jspsych/scrambledNeutralFaces/scrambledAM33NES.JPG,"""",256,forwardMask,Test,null,250,"""",n,"""","""","""","""","""","""",1,4/24/2021 21:19,98.23.182.206,Mozilla/5.0 (X11; Linux x86_64; rv:88.0) Gecko/20100101 Firefox/88.0,,Firefox,88,Linux,
122,1,null,"""",image-keyboard-response,171,708371,0.0-171.0,"""",jspsych/neutralFaces/AM33NES.JPG,"""",256,Cue,Test,null,16,"""","""","""","""","""","""","""","""",1,4/24/2021 21:19,98.23.182.206,Mozilla/5.0 (X11; Linux x86_64; rv:88.0) Gecko/20100101 Firefox/88.0,,Firefox,88,Linux,
122,1,null,"""",image-keyboard-response,172,708478,0.0-172.0,"""",jspsych/neutralFaces/BM09NES.JPG,"""",256,backwardMask,Test,null,100,"""","""","""","""","""","""","""","""",1,4/24/2021 21:19,98.23.182.206,Mozilla/5.0 (X11; Linux x86_64; rv:88.0) Gecko/20100101 Firefox/88.0,,Firefox,88,Linux,
122,1,null,"""",html-keyboard-response,173,709479,0.0-173.0,"""","<div style=""font-size:60px;"">+</div>","""",256,fixationBtwnNeutralMaskAndPrompt,Test,null,1000,"""","""","""","""","""","""","""","""",1,4/24/2021 21:19,98.23.182.206,Mozilla/5.0 (X11; Linux x86_64; rv:88.0) Gecko/20100101 Firefox/88.0,,Firefox,88,Linux,
122,1,1738,"""",html-button-response,174,711219,0.0-174.0,"""","<img src='jspsych/CFDfaces/CFD-LF-220-120-N.jpg' height=""250px"">,</br><b>Meghan</b>",0,256,IntactOrRearranged,Test,"""","""","""","""",CFD-LM-223-175-N.jpg,Jeremy,0,"""","""",0,1,4/24/2021 21:19,98.23.182.206,Mozilla/5.0 (X11; Linux x86_64; rv:88.0) Gecko/20100101 Firefox/88.0,,Firefox,88,Linux,
122,1,2245,"""",html-slider-response,175,713467,0.0-175.0,"""","<img src='jspsych/CFDfaces/CFD-LF-220-120-N.jpg' height=""250px"">,</br><b>Meghan</b>","""",256,ConfidenceQuery,Test,"""","""","""","""",CFD-LM-223-175-N.jpg,Jeremy,0,0,91,"""",1,4/24/2021 21:19,98.23.182.206,Mozilla/5.0 (X11; Linux x86_64; rv:88.0) Gecko/20100101 Firefox/88.0,,Firefox,88,Linux,
122,1,null,"""",html-keyboard-response,176,714469,0.0-176.0,"""","<div style=""font-size:60px;"">+</div>","""",256,ITI,Test,null,1000,"""","""","""","""","""","""","""","""",1,4/24/2021 21:19,98.23.182.206,Mozilla/5.0 (X11; Linux x86_64; rv:88.0) Gecko/20100101 Firefox/88.0,,Firefox,88,Linux,
122,1,null,"""",image-keyboard-response,177,714724,0.0-177.0,"""",jspsych/scrambledDisgustFaces/scrambledBF16DIS.JPG,"""",256,forwardMask,Test,null,250,"""",d,"""","""","""","""","""","""",1,4/24/2021 21:19,98.23.182.206,Mozilla/5.0 (X11; Linux x86_64; rv:88.0) Gecko/20100101 Firefox/88.0,,Firefox,88,Linux,
122,1,null,"""",image-keyboard-response,178,714745,0.0-178.0,"""",jspsych/disgustFaces/BF16DIS.JPG,"""",256,Cue,Test,null,16,"""","""","""","""","""","""","""","""",1,4/24/2021 21:19,98.23.182.206,Mozilla/5.0 (X11; Linux x86_64; rv:88.0) Gecko/20100101 Firefox/88.0,,Firefox,88,Linux,
122,1,null,"""",image-keyboard-response,179,714852,0.0-179.0,"""",jspsych/neutralFaces/AF25NES.JPG,"""",256,backwardMask,Test,null,100,"""","""","""","""","""","""","""","""",1,4/24/2021 21:19,98.23.182.206,Mozilla/5.0 (X11; Linux x86_64; rv:88.0) Gecko/20100101 Firefox/88.0,,Firefox,88,Linux,
122,1,null,"""",html-keyboard-response,180,715852,0.0-180.0,"""","<div style=""font-size:60px;"">+</div>","""",256,fixationBtwnNeutralMaskAndPrompt,Test,null,1000,"""","""","""","""","""","""","""","""",1,4/24/2021 21:19,98.23.182.206,Mozilla/5.0 (X11; Linux x86_64; rv:88.0) Gecko/20100101 Firefox/88.0,,Firefox,88,Linux,
122,1,2045,"""",html-button-response,181,717898,0.0-181.0,"""","<img src='jspsych/CFDfaces/CFD-LF-213-079-N.jpg' height=""250px"">,</br><b>Christina</b>",1,256,IntactOrRearranged,Test,"""","""","""","""",CFD-AF-220-107-N.jpg,Jasmine,1,"""","""",1,1,4/24/2021 21:19,98.23.182.206,Mozilla/5.0 (X11; Linux x86_64; rv:88.0) Gecko/20100101 Firefox/88.0,,Firefox,88,Linux,
122,1,1846,"""",html-slider-response,182,719748,0.0-182.0,"""","<img src='jspsych/CFDfaces/CFD-LF-213-079-N.jpg' height=""250px"">,</br><b>Christina</b>","""",256,ConfidenceQuery,Test,"""","""","""","""",CFD-AF-220-107-N.jpg,Jasmine,1,0,38,"""",1,4/24/2021 21:19,98.23.182.206,Mozilla/5.0 (X11; Linux x86_64; rv:88.0) Gecko/20100101 Firefox/88.0,,Firefox,88,Linux,
122,1,null,"""",html-keyboard-response,183,720751,0.0-183.0,"""","<div style=""font-size:60px;"">+</div>","""",256,ITI,Test,null,1000,"""","""","""","""","""","""","""","""",1,4/24/2021 21:19,98.23.182.206,Mozilla/5.0 (X11; Linux x86_64; rv:88.0) Gecko/20100101 Firefox/88.0,,Firefox,88,Linux,
122,1,null,"""",image-keyboard-response,184,721005,0.0-184.0,"""",jspsych/scrambledDisgustFaces/scrambledAM19DIS.JPG,"""",256,forwardMask,Test,null,250,"""",d,"""","""","""","""","""","""",1,4/24/2021 21:19,98.23.182.206,Mozilla/5.0 (X11; Linux x86_64; rv:88.0) Gecko/20100101 Firefox/88.0,,Firefox,88,Linux,
122,1,null,"""",image-keyboard-response,185,721030,0.0-185.0,"""",jspsych/disgustFaces/AM19DIS.JPG,"""",256,Cue,Test,null,16,"""","""","""","""","""","""","""","""",1,4/24/2021 21:19,98.23.182.206,Mozilla/5.0 (X11; Linux x86_64; rv:88.0) Gecko/20100101 Firefox/88.0,,Firefox,88,Linux,
122,1,null,"""",image-keyboard-response,186,721134,0.0-186.0,"""",jspsych/neutralFaces/BM04NES.JPG,"""",256,backwardMask,Test,null,100,"""","""","""","""","""","""","""","""",1,4/24/2021 21:19,98.23.182.206,Mozilla/5.0 (X11; Linux x86_64; rv:88.0) Gecko/20100101 Firefox/88.0,,Firefox,88,Linux,
122,1,null,"""",html-keyboard-response,187,722135,0.0-187.0,"""","<div style=""font-size:60px;"">+</div>","""",256,fixationBtwnNeutralMaskAndPrompt,Test,null,1000,"""","""","""","""","""","""","""","""",1,4/24/2021 21:19,98.23.182.206,Mozilla/5.0 (X11; Linux x86_64; rv:88.0) Gecko/20100101 Firefox/88.0,,Firefox,88,Linux,
122,1,1882,"""",html-button-response,188,724019,0.0-188.0,"""","<img src='jspsych/CFDfaces/CFD-WF-223-133-N.jpg' height=""250px"">,</br><b>Andrea</b>",1,256,IntactOrRearranged,Test,"""","""","""","""",CFD-WM-003-002-N.jpg,Jesse,1,"""","""",1,1,4/24/2021 21:19,98.23.182.206,Mozilla/5.0 (X11; Linux x86_64; rv:88.0) Gecko/20100101 Firefox/88.0,,Firefox,88,Linux,
122,1,2277,"""",html-slider-response,189,726298,0.0-189.0,"""","<img src='jspsych/CFDfaces/CFD-WF-223-133-N.jpg' height=""250px"">,</br><b>Andrea</b>","""",256,ConfidenceQuery,Test,"""","""","""","""",CFD-WM-003-002-N.jpg,Jesse,1,0,89,"""",1,4/24/2021 21:19,98.23.182.206,Mozilla/5.0 (X11; Linux x86_64; rv:88.0) Gecko/20100101 Firefox/88.0,,Firefox,88,Linux,
122,1,null,"""",html-keyboard-response,190,727300,0.0-190.0,"""","<div style=""font-size:60px;"">+</div>","""",256,ITI,Test,null,1000,"""","""","""","""","""","""","""","""",1,4/24/2021 21:19,98.23.182.206,Mozilla/5.0 (X11; Linux x86_64; rv:88.0) Gecko/20100101 Firefox/88.0,,Firefox,88,Linux,
122,1,null,"""",image-keyboard-response,191,727554,0.0-191.0,"""",jspsych/scrambledDisgustFaces/scrambledAM23DIS.JPG,"""",256,forwardMask,Test,null,250,"""",d,"""","""","""","""","""","""",1,4/24/2021 21:19,98.23.182.206,Mozilla/5.0 (X11; Linux x86_64; rv:88.0) Gecko/20100101 Firefox/88.0,,Firefox,88,Linux,
122,1,null,"""",image-keyboard-response,192,727578,0.0-192.0,"""",jspsych/disgustFaces/AM23DIS.JPG,"""",256,Cue,Test,null,16,"""","""","""","""","""","""","""","""",1,4/24/2021 21:19,98.23.182.206,Mozilla/5.0 (X11; Linux x86_64; rv:88.0) Gecko/20100101 Firefox/88.0,,Firefox,88,Linux,
122,1,null,"""",image-keyboard-response,193,727681,0.0-193.0,"""",jspsych/neutralFaces/AM33NES.JPG,"""",256,backwardMask,Test,null,100,"""","""","""","""","""","""","""","""",1,4/24/2021 21:19,98.23.182.206,Mozilla/5.0 (X11; Linux x86_64; rv:88.0) Gecko/20100101 Firefox/88.0,,Firefox,88,Linux,
122,1,null,"""",html-keyboard-response,194,728683,0.0-194.0,"""","<div style=""font-size:60px;"">+</div>","""",256,fixationBtwnNeutralMaskAndPrompt,Test,null,1000,"""","""","""","""","""","""","""","""",1,4/24/2021 21:19,98.23.182.206,Mozilla/5.0 (X11; Linux x86_64; rv:88.0) Gecko/20100101 Firefox/88.0,,Firefox,88,Linux,
122,1,2125,"""",html-button-response,195,730811,0.0-195.0,"""","<img src='jspsych/CFDfaces/CFD-BF-209-172-N.jpg' height=""250px"">,</br><b>Samantha</b>",0,256,IntactOrRearranged,Test,"""","""","""","""",CFD-WF-029-002-N.jpg,Jenna,0,"""","""",0,1,4/24/2021 21:19,98.23.182.206,Mozilla/5.0 (X11; Linux x86_64; rv:88.0) Gecko/20100101 Firefox/88.0,,Firefox,88,Linux,
122,1,2084,"""",html-slider-response,196,732898,0.0-196.0,"""","<img src='jspsych/CFDfaces/CFD-BF-209-172-N.jpg' height=""250px"">,</br><b>Samantha</b>","""",256,ConfidenceQuery,Test,"""","""","""","""",CFD-WF-029-002-N.jpg,Jenna,0,0,50,"""",1,4/24/2021 21:19,98.23.182.206,Mozilla/5.0 (X11; Linux x86_64; rv:88.0) Gecko/20100101 Firefox/88.0,,Firefox,88,Linux,
122,1,null,"""",html-keyboard-response,197,733901,0.0-197.0,"""","<div style=""font-size:60px;"">+</div>","""",256,ITI,Test,null,1000,"""","""","""","""","""","""","""","""",1,4/24/2021 21:19,98.23.182.206,Mozilla/5.0 (X11; Linux x86_64; rv:88.0) Gecko/20100101 Firefox/88.0,,Firefox,88,Linux,
122,1,null,"""",image-keyboard-response,198,734154,0.0-198.0,"""",jspsych/scrambledDisgustFaces/scrambledBF19DIS.JPG,"""",256,forwardMask,Test,null,250,"""",d,"""","""","""","""","""","""",1,4/24/2021 21:19,98.23.182.206,Mozilla/5.0 (X11; Linux x86_64; rv:88.0) Gecko/20100101 Firefox/88.0,,Firefox,88,Linux,
122,1,null,"""",image-keyboard-response,199,734175,0.0-199.0,"""",jspsych/disgustFaces/BF19DIS.JPG,"""",256,Cue,Test,null,16,"""","""","""","""","""","""","""","""",1,4/24/2021 21:19,98.23.182.206,Mozilla/5.0 (X11; Linux x86_64; rv:88.0) Gecko/20100101 Firefox/88.0,,Firefox,88,Linux,
122,1,null,"""",image-keyboard-response,200,734280,0.0-200.0,"""",jspsych/neutralFaces/AF27NES.JPG,"""",256,backwardMask,Test,null,100,"""","""","""","""","""","""","""","""",1,4/24/2021 21:19,98.23.182.206,Mozilla/5.0 (X11; Linux x86_64; rv:88.0) Gecko/20100101 Firefox/88.0,,Firefox,88,Linux,
122,1,null,"""",html-keyboard-response,201,735281,0.0-201.0,"""","<div style=""font-size:60px;"">+</div>","""",256,fixationBtwnNeutralMaskAndPrompt,Test,null,1000,"""","""","""","""","""","""","""","""",1,4/24/2021 21:19,98.23.182.206,Mozilla/5.0 (X11; Linux x86_64; rv:88.0) Gecko/20100101 Firefox/88.0,,Firefox,88,Linux,
122,1,2391,"""",html-button-response,202,737674,0.0-202.0,"""","<img src='jspsych/CFDfaces/CFD-LM-209-111-N.jpg' height=""250px"">,</br><b>Peter</b>",0,256,IntactOrRearranged,Test,"""","""","""","""",CFD-AF-237-223-N.jpg,Heather,0,"""","""",0,1,4/24/2021 21:19,98.23.182.206,Mozilla/5.0 (X11; Linux x86_64; rv:88.0) Gecko/20100101 Firefox/88.0,,Firefox,88,Linux,
122,1,2207,"""",html-slider-response,203,739886,0.0-203.0,"""","<img src='jspsych/CFDfaces/CFD-LM-209-111-N.jpg' height=""250px"">,</br><b>Peter</b>","""",256,ConfidenceQuery,Test,"""","""","""","""",CFD-AF-237-223-N.jpg,Heather,0,0,72,"""",1,4/24/2021 21:19,98.23.182.206,Mozilla/5.0 (X11; Linux x86_64; rv:88.0) Gecko/20100101 Firefox/88.0,,Firefox,88,Linux,
122,1,null,"""",html-keyboard-response,204,740887,0.0-204.0,"""","<div style=""font-size:60px;"">+</div>","""",256,ITI,Test,null,1000,"""","""","""","""","""","""","""","""",1,4/24/2021 21:19,98.23.182.206,Mozilla/5.0 (X11; Linux x86_64; rv:88.0) Gecko/20100101 Firefox/88.0,,Firefox,88,Linux,
122,1,null,"""",image-keyboard-response,205,741142,0.0-205.0,"""",jspsych/scrambledNeutralFaces/scrambledBF24NES.JPG,"""",256,forwardMask,Test,null,250,"""",n,"""","""","""","""","""","""",1,4/24/2021 21:19,98.23.182.206,Mozilla/5.0 (X11; Linux x86_64; rv:88.0) Gecko/20100101 Firefox/88.0,,Firefox,88,Linux,
122,1,null,"""",image-keyboard-response,206,741163,0.0-206.0,"""",jspsych/neutralFaces/BF24NES.JPG,"""",256,Cue,Test,null,16,"""","""","""","""","""","""","""","""",1,4/24/2021 21:19,98.23.182.206,Mozilla/5.0 (X11; Linux x86_64; rv:88.0) Gecko/20100101 Firefox/88.0,,Firefox,88,Linux,
122,1,null,"""",image-keyboard-response,207,741270,0.0-207.0,"""",jspsych/neutralFaces/AF19NES.JPG,"""",256,backwardMask,Test,null,100,"""","""","""","""","""","""","""","""",1,4/24/2021 21:19,98.23.182.206,Mozilla/5.0 (X11; Linux x86_64; rv:88.0) Gecko/20100101 Firefox/88.0,,Firefox,88,Linux,
122,1,null,"""",html-keyboard-response,208,742272,0.0-208.0,"""","<div style=""font-size:60px;"">+</div>","""",256,fixationBtwnNeutralMaskAndPrompt,Test,null,1000,"""","""","""","""","""","""","""","""",1,4/24/2021 21:19,98.23.182.206,Mozilla/5.0 (X11; Linux x86_64; rv:88.0) Gecko/20100101 Firefox/88.0,,Firefox,88,Linux,
122,1,2218,"""",html-button-response,209,744490,0.0-209.0,"""","<img src='jspsych/CFDfaces/CFD-WM-006-002-N.jpg' height=""250px"">,</br><b>James</b>",1,256,IntactOrRearranged,Test,"""","""","""","""",CFD-AF-240-206-N.jpg,Whitney,1,"""","""",1,1,4/24/2021 21:19,98.23.182.206,Mozilla/5.0 (X11; Linux x86_64; rv:88.0) Gecko/20100101 Firefox/88.0,,Firefox,88,Linux,
122,1,2525,"""",html-slider-response,210,747018,0.0-210.0,"""","<img src='jspsych/CFDfaces/CFD-WM-006-002-N.jpg' height=""250px"">,</br><b>James</b>","""",256,ConfidenceQuery,Test,"""","""","""","""",CFD-AF-240-206-N.jpg,Whitney,1,0,81,"""",1,4/24/2021 21:19,98.23.182.206,Mozilla/5.0 (X11; Linux x86_64; rv:88.0) Gecko/20100101 Firefox/88.0,,Firefox,88,Linux,
122,1,null,"""",html-keyboard-response,211,748020,0.0-211.0,"""","<div style=""font-size:60px;"">+</div>","""",256,ITI,Test,null,1000,"""","""","""","""","""","""","""","""",1,4/24/2021 21:19,98.23.182.206,Mozilla/5.0 (X11; Linux x86_64; rv:88.0) Gecko/20100101 Firefox/88.0,,Firefox,88,Linux,
122,1,null,"""",image-keyboard-response,212,748273,0.0-212.0,"""",jspsych/scrambledDisgustFaces/scrambledAM13DIS.JPG,"""",256,forwardMask,Test,null,250,"""",d,"""","""","""","""","""","""",1,4/24/2021 21:19,98.23.182.206,Mozilla/5.0 (X11; Linux x86_64; rv:88.0) Gecko/20100101 Firefox/88.0,,Firefox,88,Linux,
122,1,null,"""",image-keyboard-response,213,748295,0.0-213.0,"""",jspsych/disgustFaces/AM13DIS.JPG,"""",256,Cue,Test,null,16,"""","""","""","""","""","""","""","""",1,4/24/2021 21:19,98.23.182.206,Mozilla/5.0 (X11; Linux x86_64; rv:88.0) Gecko/20100101 Firefox/88.0,,Firefox,88,Linux,
122,1,null,"""",image-keyboard-response,214,748399,0.0-214.0,"""",jspsych/neutralFaces/BM32NES.JPG,"""",256,backwardMask,Test,null,100,"""","""","""","""","""","""","""","""",1,4/24/2021 21:19,98.23.182.206,Mozilla/5.0 (X11; Linux x86_64; rv:88.0) Gecko/20100101 Firefox/88.0,,Firefox,88,Linux,
122,1,null,"""",html-keyboard-response,215,749400,0.0-215.0,"""","<div style=""font-size:60px;"">+</div>","""",256,fixationBtwnNeutralMaskAndPrompt,Test,null,1000,"""","""","""","""","""","""","""","""",1,4/24/2021 21:19,98.23.182.206,Mozilla/5.0 (X11; Linux x86_64; rv:88.0) Gecko/20100101 Firefox/88.0,,Firefox,88,Linux,
122,1,2034,"""",html-button-response,216,751437,0.0-216.0,"""","<img src='jspsych/CFDfaces/CFD-BM-001-014-N.jpg' height=""250px"">,</br><b>Brandon</b>",0,256,IntactOrRearranged,Test,"""","""","""","""",CFD-AM-213-056-N.jpg,Travis,0,"""","""",0,1,4/24/2021 21:19,98.23.182.206,Mozilla/5.0 (X11; Linux x86_64; rv:88.0) Gecko/20100101 Firefox/88.0,,Firefox,88,Linux,
122,1,1978,"""",html-slider-response,217,753419,0.0-217.0,"""","<img src='jspsych/CFDfaces/CFD-BM-001-014-N.jpg' height=""250px"">,</br><b>Brandon</b>","""",256,ConfidenceQuery,Test,"""","""","""","""",CFD-AM-213-056-N.jpg,Travis,0,0,100,"""",1,4/24/2021 21:19,98.23.182.206,Mozilla/5.0 (X11; Linux x86_64; rv:88.0) Gecko/20100101 Firefox/88.0,,Firefox,88,Linux,
122,1,null,"""",html-keyboard-response,218,754422,0.0-218.0,"""","<div style=""font-size:60px;"">+</div>","""",256,ITI,Test,null,1000,"""","""","""","""","""","""","""","""",1,4/24/2021 21:19,98.23.182.206,Mozilla/5.0 (X11; Linux x86_64; rv:88.0) Gecko/20100101 Firefox/88.0,,Firefox,88,Linux,
122,1,null,"""",image-keyboard-response,219,754675,0.0-219.0,"""",jspsych/scrambledNeutralFaces/scrambledAF16NES.JPG,"""",256,forwardMask,Test,null,250,"""",n,"""","""","""","""","""","""",1,4/24/2021 21:19,98.23.182.206,Mozilla/5.0 (X11; Linux x86_64; rv:88.0) Gecko/20100101 Firefox/88.0,,Firefox,88,Linux,
122,1,null,"""",image-keyboard-response,220,754697,0.0-220.0,"""",jspsych/neutralFaces/AF16NES.JPG,"""",256,Cue,Test,null,16,"""","""","""","""","""","""","""","""",1,4/24/2021 21:19,98.23.182.206,Mozilla/5.0 (X11; Linux x86_64; rv:88.0) Gecko/20100101 Firefox/88.0,,Firefox,88,Linux,
122,1,null,"""",image-keyboard-response,221,754801,0.0-221.0,"""",jspsych/neutralFaces/BF29NES.JPG,"""",256,backwardMask,Test,null,100,"""","""","""","""","""","""","""","""",1,4/24/2021 21:19,98.23.182.206,Mozilla/5.0 (X11; Linux x86_64; rv:88.0) Gecko/20100101 Firefox/88.0,,Firefox,88,Linux,
122,1,null,"""",html-keyboard-response,222,755804,0.0-222.0,"""","<div style=""font-size:60px;"">+</div>","""",256,fixationBtwnNeutralMaskAndPrompt,Test,null,1000,"""","""","""","""","""","""","""","""",1,4/24/2021 21:19,98.23.182.206,Mozilla/5.0 (X11; Linux x86_64; rv:88.0) Gecko/20100101 Firefox/88.0,,Firefox,88,Linux,
122,1,2574,"""",html-button-response,223,758378,0.0-223.0,"""","<img src='jspsych/CFDfaces/CFD-BM-211-174-N.jpg' height=""250px"">,</br><b>Joshua</b>",1,256,IntactOrRearranged,Test,"""","""","""","""",CFD-BF-019-001-N.jpg,Erin,1,"""","""",1,1,4/24/2021 21:19,98.23.182.206,Mozilla/5.0 (X11; Linux x86_64; rv:88.0) Gecko/20100101 Firefox/88.0,,Firefox,88,Linux,
122,1,2070,"""",html-slider-response,224,760452,0.0-224.0,"""","<img src='jspsych/CFDfaces/CFD-BM-211-174-N.jpg' height=""250px"">,</br><b>Joshua</b>","""",256,ConfidenceQuery,Test,"""","""","""","""",CFD-BF-019-001-N.jpg,Erin,1,0,83,"""",1,4/24/2021 21:19,98.23.182.206,Mozilla/5.0 (X11; Linux x86_64; rv:88.0) Gecko/20100101 Firefox/88.0,,Firefox,88,Linux,
122,1,null,"""",html-keyboard-response,225,761455,0.0-225.0,"""","<div style=""font-size:60px;"">+</div>","""",256,ITI,Test,null,1000,"""","""","""","""","""","""","""","""",1,4/24/2021 21:19,98.23.182.206,Mozilla/5.0 (X11; Linux x86_64; rv:88.0) Gecko/20100101 Firefox/88.0,,Firefox,88,Linux,
122,1,null,"""",image-keyboard-response,226,761709,0.0-226.0,"""",jspsych/scrambledDisgustFaces/scrambledAM09DIS.JPG,"""",256,forwardMask,Test,null,250,"""",d,"""","""","""","""","""","""",1,4/24/2021 21:19,98.23.182.206,Mozilla/5.0 (X11; Linux x86_64; rv:88.0) Gecko/20100101 Firefox/88.0,,Firefox,88,Linux,
122,1,null,"""",image-keyboard-response,227,761732,0.0-227.0,"""",jspsych/disgustFaces/AM09DIS.JPG,"""",256,Cue,Test,null,16,"""","""","""","""","""","""","""","""",1,4/24/2021 21:19,98.23.182.206,Mozilla/5.0 (X11; Linux x86_64; rv:88.0) Gecko/20100101 Firefox/88.0,,Firefox,88,Linux,
122,1,null,"""",image-keyboard-response,228,761836,0.0-228.0,"""",jspsych/neutralFaces/AM29NES.JPG,"""",256,backwardMask,Test,null,100,"""","""","""","""","""","""","""","""",1,4/24/2021 21:19,98.23.182.206,Mozilla/5.0 (X11; Linux x86_64; rv:88.0) Gecko/20100101 Firefox/88.0,,Firefox,88,Linux,
122,1,null,"""",html-keyboard-response,229,762837,0.0-229.0,"""","<div style=""font-size:60px;"">+</div>","""",256,fixationBtwnNeutralMaskAndPrompt,Test,null,1000,"""","""","""","""","""","""","""","""",1,4/24/2021 21:19,98.23.182.206,Mozilla/5.0 (X11; Linux x86_64; rv:88.0) Gecko/20100101 Firefox/88.0,,Firefox,88,Linux,
122,1,2100,"""",html-button-response,230,764939,0.0-230.0,"""","<img src='jspsych/CFDfaces/CFD-WM-019-003-N.jpg' height=""250px"">,</br><b>Gregory</b>",1,256,IntactOrRearranged,Test,"""","""","""","""",CFD-WM-215-041-N.jpg,Timothy,1,"""","""",1,1,4/24/2021 21:19,98.23.182.206,Mozilla/5.0 (X11; Linux x86_64; rv:88.0) Gecko/20100101 Firefox/88.0,,Firefox,88,Linux,
122,1,2366,"""",html-slider-response,231,767308,0.0-231.0,"""","<img src='jspsych/CFDfaces/CFD-WM-019-003-N.jpg' height=""250px"">,</br><b>Gregory</b>","""",256,ConfidenceQuery,Test,"""","""","""","""",CFD-WM-215-041-N.jpg,Timothy,1,0,93,"""",1,4/24/2021 21:19,98.23.182.206,Mozilla/5.0 (X11; Linux x86_64; rv:88.0) Gecko/20100101 Firefox/88.0,,Firefox,88,Linux,
122,1,null,"""",html-keyboard-response,232,768311,0.0-232.0,"""","<div style=""font-size:60px;"">+</div>","""",256,ITI,Test,null,1000,"""","""","""","""","""","""","""","""",1,4/24/2021 21:19,98.23.182.206,Mozilla/5.0 (X11; Linux x86_64; rv:88.0) Gecko/20100101 Firefox/88.0,,Firefox,88,Linux,
122,1,null,"""",image-keyboard-response,233,768567,0.0-233.0,"""",jspsych/scrambledNeutralFaces/scrambledAF20NES.JPG,"""",256,forwardMask,Test,null,250,"""",n,"""","""","""","""","""","""",1,4/24/2021 21:19,98.23.182.206,Mozilla/5.0 (X11; Linux x86_64; rv:88.0) Gecko/20100101 Firefox/88.0,,Firefox,88,Linux,
122,1,null,"""",image-keyboard-response,234,768591,0.0-234.0,"""",jspsych/neutralFaces/AF20NES.JPG,"""",256,Cue,Test,null,16,"""","""","""","""","""","""","""","""",1,4/24/2021 21:19,98.23.182.206,Mozilla/5.0 (X11; Linux x86_64; rv:88.0) Gecko/20100101 Firefox/88.0,,Firefox,88,Linux,
122,1,null,"""",image-keyboard-response,235,768698,0.0-235.0,"""",jspsych/neutralFaces/AF12NES.JPG,"""",256,backwardMask,Test,null,100,"""","""","""","""","""","""","""","""",1,4/24/2021 21:19,98.23.182.206,Mozilla/5.0 (X11; Linux x86_64; rv:88.0) Gecko/20100101 Firefox/88.0,,Firefox,88,Linux,
122,1,null,"""",html-keyboard-response,236,769699,0.0-236.0,"""","<div style=""font-size:60px;"">+</div>","""",256,fixationBtwnNeutralMaskAndPrompt,Test,null,1000,"""","""","""","""","""","""","""","""",1,4/24/2021 21:19,98.23.182.206,Mozilla/5.0 (X11; Linux x86_64; rv:88.0) Gecko/20100101 Firefox/88.0,,Firefox,88,Linux,
122,1,2517,"""",html-button-response,237,772219,0.0-237.0,"""","<img src='jspsych/CFDfaces/CFD-BM-208-065-N.jpg' height=""250px"">,</br><b>Jason</b>",1,256,IntactOrRearranged,Test,"""","""","""","""",CFD-LM-201-057-N.jpg,Cameron,0,"""","""",1,1,4/24/2021 21:19,98.23.182.206,Mozilla/5.0 (X11; Linux x86_64; rv:88.0) Gecko/20100101 Firefox/88.0,,Firefox,88,Linux,
122,1,1782,"""",html-slider-response,238,774003,0.0-238.0,"""","<img src='jspsych/CFDfaces/CFD-BM-208-065-N.jpg' height=""250px"">,</br><b>Jason</b>","""",256,ConfidenceQuery,Test,"""","""","""","""",CFD-LM-201-057-N.jpg,Cameron,0,0,50,"""",1,4/24/2021 21:19,98.23.182.206,Mozilla/5.0 (X11; Linux x86_64; rv:88.0) Gecko/20100101 Firefox/88.0,,Firefox,88,Linux,
122,1,null,"""",html-keyboard-response,239,775006,0.0-239.0,"""","<div style=""font-size:60px;"">+</div>","""",256,ITI,Test,null,1000,"""","""","""","""","""","""","""","""",1,4/24/2021 21:19,98.23.182.206,Mozilla/5.0 (X11; Linux x86_64; rv:88.0) Gecko/20100101 Firefox/88.0,,Firefox,88,Linux,
122,1,null,"""",image-keyboard-response,240,775260,0.0-240.0,"""",jspsych/scrambledNeutralFaces/scrambledBF23NES.JPG,"""",256,forwardMask,Test,null,250,"""",n,"""","""","""","""","""","""",1,4/24/2021 21:19,98.23.182.206,Mozilla/5.0 (X11; Linux x86_64; rv:88.0) Gecko/20100101 Firefox/88.0,,Firefox,88,Linux,
122,1,null,"""",image-keyboard-response,241,775279,0.0-241.0,"""",jspsych/neutralFaces/BF23NES.JPG,"""",256,Cue,Test,null,16,"""","""","""","""","""","""","""","""",1,4/24/2021 21:19,98.23.182.206,Mozilla/5.0 (X11; Linux x86_64; rv:88.0) Gecko/20100101 Firefox/88.0,,Firefox,88,Linux,
122,1,null,"""",image-keyboard-response,242,775384,0.0-242.0,"""",jspsych/neutralFaces/BF24NES.JPG,"""",256,backwardMask,Test,null,100,"""","""","""","""","""","""","""","""",1,4/24/2021 21:19,98.23.182.206,Mozilla/5.0 (X11; Linux x86_64; rv:88.0) Gecko/20100101 Firefox/88.0,,Firefox,88,Linux,
122,1,null,"""",html-keyboard-response,243,776384,0.0-243.0,"""","<div style=""font-size:60px;"">+</div>","""",256,fixationBtwnNeutralMaskAndPrompt,Test,null,1000,"""","""","""","""","""","""","""","""",1,4/24/2021 21:19,98.23.182.206,Mozilla/5.0 (X11; Linux x86_64; rv:88.0) Gecko/20100101 Firefox/88.0,,Firefox,88,Linux,
122,1,1346,"""",html-button-response,244,777732,0.0-244.0,"""","<img src='jspsych/CFDfaces/CFD-AM-237-154-N.jpg' height=""250px"">,</br><b>Juan</b>",0,256,IntactOrRearranged,Test,"""","""","""","""",CFD-BF-001-025-N.jpg,Angela,0,"""","""",0,1,4/24/2021 21:19,98.23.182.206,Mozilla/5.0 (X11; Linux x86_64; rv:88.0) Gecko/20100101 Firefox/88.0,,Firefox,88,Linux,
122,1,2092,"""",html-slider-response,245,779827,0.0-245.0,"""","<img src='jspsych/CFDfaces/CFD-AM-237-154-N.jpg' height=""250px"">,</br><b>Juan</b>","""",256,ConfidenceQuery,Test,"""","""","""","""",CFD-BF-001-025-N.jpg,Angela,0,0,97,"""",1,4/24/2021 21:19,98.23.182.206,Mozilla/5.0 (X11; Linux x86_64; rv:88.0) Gecko/20100101 Firefox/88.0,,Firefox,88,Linux,
122,1,null,"""",html-keyboard-response,246,780830,0.0-246.0,"""","<div style=""font-size:60px;"">+</div>","""",256,ITI,Test,null,1000,"""","""","""","""","""","""","""","""",1,4/24/2021 21:19,98.23.182.206,Mozilla/5.0 (X11; Linux x86_64; rv:88.0) Gecko/20100101 Firefox/88.0,,Firefox,88,Linux,
122,1,null,"""",image-keyboard-response,247,781084,0.0-247.0,"""",jspsych/scrambledNeutralFaces/scrambledBM31NES.JPG,"""",256,forwardMask,Test,null,250,"""",n,"""","""","""","""","""","""",1,4/24/2021 21:19,98.23.182.206,Mozilla/5.0 (X11; Linux x86_64; rv:88.0) Gecko/20100101 Firefox/88.0,,Firefox,88,Linux,
122,1,null,"""",image-keyboard-response,248,781104,0.0-248.0,"""",jspsych/neutralFaces/BM31NES.JPG,"""",256,Cue,Test,null,16,"""","""","""","""","""","""","""","""",1,4/24/2021 21:19,98.23.182.206,Mozilla/5.0 (X11; Linux x86_64; rv:88.0) Gecko/20100101 Firefox/88.0,,Firefox,88,Linux,
122,1,null,"""",image-keyboard-response,249,781210,0.0-249.0,"""",jspsych/neutralFaces/BM03NES.JPG,"""",256,backwardMask,Test,null,100,"""","""","""","""","""","""","""","""",1,4/24/2021 21:19,98.23.182.206,Mozilla/5.0 (X11; Linux x86_64; rv:88.0) Gecko/20100101 Firefox/88.0,,Firefox,88,Linux,
122,1,null,"""",html-keyboard-response,250,782210,0.0-250.0,"""","<div style=""font-size:60px;"">+</div>","""",256,fixationBtwnNeutralMaskAndPrompt,Test,null,1000,"""","""","""","""","""","""","""","""",1,4/24/2021 21:19,98.23.182.206,Mozilla/5.0 (X11; Linux x86_64; rv:88.0) Gecko/20100101 Firefox/88.0,,Firefox,88,Linux,
122,1,1872,"""",html-button-response,251,784084,0.0-251.0,"""","<img src='jspsych/CFDfaces/CFD-BM-011-016-N.jpg' height=""250px"">,</br><b>Eric</b>",0,256,IntactOrRearranged,Test,"""","""","""","""",CFD-LM-225-130-N.jpg,Sean,1,"""","""",0,1,4/24/2021 21:19,98.23.182.206,Mozilla/5.0 (X11; Linux x86_64; rv:88.0) Gecko/20100101 Firefox/88.0,,Firefox,88,Linux,
122,1,2810,"""",html-slider-response,252,786898,0.0-252.0,"""","<img src='jspsych/CFDfaces/CFD-BM-011-016-N.jpg' height=""250px"">,</br><b>Eric</b>","""",256,ConfidenceQuery,Test,"""","""","""","""",CFD-LM-225-130-N.jpg,Sean,1,0,63,"""",1,4/24/2021 21:19,98.23.182.206,Mozilla/5.0 (X11; Linux x86_64; rv:88.0) Gecko/20100101 Firefox/88.0,,Firefox,88,Linux,
122,1,null,"""",html-keyboard-response,253,787902,0.0-253.0,"""","<div style=""font-size:60px;"">+</div>","""",256,ITI,Test,null,1000,"""","""","""","""","""","""","""","""",1,4/24/2021 21:19,98.23.182.206,Mozilla/5.0 (X11; Linux x86_64; rv:88.0) Gecko/20100101 Firefox/88.0,,Firefox,88,Linux,
122,1,null,"""",image-keyboard-response,254,788156,0.0-254.0,"""",jspsych/scrambledDisgustFaces/scrambledAM28DIS.JPG,"""",256,forwardMask,Test,null,250,"""",d,"""","""","""","""","""","""",1,4/24/2021 21:19,98.23.182.206,Mozilla/5.0 (X11; Linux x86_64; rv:88.0) Gecko/20100101 Firefox/88.0,,Firefox,88,Linux,
122,1,null,"""",image-keyboard-response,255,788182,0.0-255.0,"""",jspsych/disgustFaces/AM28DIS.JPG,"""",256,Cue,Test,null,16,"""","""","""","""","""","""","""","""",1,4/24/2021 21:19,98.23.182.206,Mozilla/5.0 (X11; Linux x86_64; rv:88.0) Gecko/20100101 Firefox/88.0,,Firefox,88,Linux,
122,1,null,"""",image-keyboard-response,256,788287,0.0-256.0,"""",jspsych/neutralFaces/AM25NES.JPG,"""",256,backwardMask,Test,null,100,"""","""","""","""","""","""","""","""",1,4/24/2021 21:19,98.23.182.206,Mozilla/5.0 (X11; Linux x86_64; rv:88.0) Gecko/20100101 Firefox/88.0,,Firefox,88,Linux,
122,1,null,"""",html-keyboard-response,257,789289,0.0-257.0,"""","<div style=""font-size:60px;"">+</div>","""",256,fixationBtwnNeutralMaskAndPrompt,Test,null,1000,"""","""","""","""","""","""","""","""",1,4/24/2021 21:19,98.23.182.206,Mozilla/5.0 (X11; Linux x86_64; rv:88.0) Gecko/20100101 Firefox/88.0,,Firefox,88,Linux,
122,1,3256,"""",html-button-response,258,792546,0.0-258.0,"""","<img src='jspsych/CFDfaces/CFD-WF-220-101-N.jpg' height=""250px"">,</br><b>Ashley</b>",0,256,IntactOrRearranged,Test,"""","""","""","""",CFD-WM-017-002-N.jpg,Kenneth,1,"""","""",0,1,4/24/2021 21:19,98.23.182.206,Mozilla/5.0 (X11; Linux x86_64; rv:88.0) Gecko/20100101 Firefox/88.0,,Firefox,88,Linux,
122,1,2412,"""",html-slider-response,259,794963,0.0-259.0,"""","<img src='jspsych/CFDfaces/CFD-WF-220-101-N.jpg' height=""250px"">,</br><b>Ashley</b>","""",256,ConfidenceQuery,Test,"""","""","""","""",CFD-WM-017-002-N.jpg,Kenneth,1,0,33,"""",1,4/24/2021 21:19,98.23.182.206,Mozilla/5.0 (X11; Linux x86_64; rv:88.0) Gecko/20100101 Firefox/88.0,,Firefox,88,Linux,
122,1,null,"""",html-keyboard-response,260,795964,0.0-260.0,"""","<div style=""font-size:60px;"">+</div>","""",256,ITI,Test,null,1000,"""","""","""","""","""","""","""","""",1,4/24/2021 21:19,98.23.182.206,Mozilla/5.0 (X11; Linux x86_64; rv:88.0) Gecko/20100101 Firefox/88.0,,Firefox,88,Linux,
122,1,null,"""",image-keyboard-response,261,796219,0.0-261.0,"""",jspsych/scrambledDisgustFaces/scrambledBF12DIS.JPG,"""",256,forwardMask,Test,null,250,"""",d,"""","""","""","""","""","""",1,4/24/2021 21:19,98.23.182.206,Mozilla/5.0 (X11; Linux x86_64; rv:88.0) Gecko/20100101 Firefox/88.0,,Firefox,88,Linux,
122,1,null,"""",image-keyboard-response,262,796239,0.0-262.0,"""",jspsych/disgustFaces/BF12DIS.JPG,"""",256,Cue,Test,null,16,"""","""","""","""","""","""","""","""",1,4/24/2021 21:19,98.23.182.206,Mozilla/5.0 (X11; Linux x86_64; rv:88.0) Gecko/20100101 Firefox/88.0,,Firefox,88,Linux,
122,1,null,"""",image-keyboard-response,263,796348,0.0-263.0,"""",jspsych/neutralFaces/BF28NES.JPG,"""",256,backwardMask,Test,null,100,"""","""","""","""","""","""","""","""",1,4/24/2021 21:19,98.23.182.206,Mozilla/5.0 (X11; Linux x86_64; rv:88.0) Gecko/20100101 Firefox/88.0,,Firefox,88,Linux,
122,1,null,"""",html-keyboard-response,264,797350,0.0-264.0,"""","<div style=""font-size:60px;"">+</div>","""",256,fixationBtwnNeutralMaskAndPrompt,Test,null,1000,"""","""","""","""","""","""","""","""",1,4/24/2021 21:19,98.23.182.206,Mozilla/5.0 (X11; Linux x86_64; rv:88.0) Gecko/20100101 Firefox/88.0,,Firefox,88,Linux,
122,1,2242,"""",html-button-response,265,799595,0.0-265.0,"""","<img src='jspsych/CFDfaces/CFD-AF-239-171-N.jpg' height=""250px"">,</br><b>Elizabeth</b>",1,256,IntactOrRearranged,Test,"""","""","""","""",CFD-AF-242-158-N.jpg,Jordan,1,"""","""",1,1,4/24/2021 21:19,98.23.182.206,Mozilla/5.0 (X11; Linux x86_64; rv:88.0) Gecko/20100101 Firefox/88.0,,Firefox,88,Linux,
122,1,3204,"""",html-slider-response,266,802802,0.0-266.0,"""","<img src='jspsych/CFDfaces/CFD-AF-239-171-N.jpg' height=""250px"">,</br><b>Elizabeth</b>","""",256,ConfidenceQuery,Test,"""","""","""","""",CFD-AF-242-158-N.jpg,Jordan,1,0,54,"""",1,4/24/2021 21:19,98.23.182.206,Mozilla/5.0 (X11; Linux x86_64; rv:88.0) Gecko/20100101 Firefox/88.0,,Firefox,88,Linux,
122,1,null,"""",html-keyboard-response,267,803805,0.0-267.0,"""","<div style=""font-size:60px;"">+</div>","""",256,ITI,Test,null,1000,"""","""","""","""","""","""","""","""",1,4/24/2021 21:19,98.23.182.206,Mozilla/5.0 (X11; Linux x86_64; rv:88.0) Gecko/20100101 Firefox/88.0,,Firefox,88,Linux,
122,1,null,"""",image-keyboard-response,268,804058,0.0-268.0,"""",jspsych/scrambledDisgustFaces/scrambledBM29DIS.JPG,"""",256,forwardMask,Test,null,250,"""",d,"""","""","""","""","""","""",1,4/24/2021 21:19,98.23.182.206,Mozilla/5.0 (X11; Linux x86_64; rv:88.0) Gecko/20100101 Firefox/88.0,,Firefox,88,Linux,
122,1,null,"""",image-keyboard-response,269,804079,0.0-269.0,"""",jspsych/disgustFaces/BM30DIS.JPG,"""",256,Cue,Test,null,16,"""","""","""","""","""","""","""","""",1,4/24/2021 21:19,98.23.182.206,Mozilla/5.0 (X11; Linux x86_64; rv:88.0) Gecko/20100101 Firefox/88.0,,Firefox,88,Linux,
122,1,null,"""",image-keyboard-response,270,804186,0.0-270.0,"""",jspsych/neutralFaces/AM14NES.JPG,"""",256,backwardMask,Test,null,100,"""","""","""","""","""","""","""","""",1,4/24/2021 21:19,98.23.182.206,Mozilla/5.0 (X11; Linux x86_64; rv:88.0) Gecko/20100101 Firefox/88.0,,Firefox,88,Linux,
122,1,null,"""",html-keyboard-response,271,805188,0.0-271.0,"""","<div style=""font-size:60px;"">+</div>","""",256,fixationBtwnNeutralMaskAndPrompt,Test,null,1000,"""","""","""","""","""","""","""","""",1,4/24/2021 21:19,98.23.182.206,Mozilla/5.0 (X11; Linux x86_64; rv:88.0) Gecko/20100101 Firefox/88.0,,Firefox,88,Linux,
122,1,2629,"""",html-button-response,272,807818,0.0-272.0,"""","<img src='jspsych/CFDfaces/CFD-LM-213-061-N.jpg' height=""250px"">,</br><b>Nicholas</b>",0,256,IntactOrRearranged,Test,"""","""","""","""",CFD-AM-214-168-N.jpg,Dustin,0,"""","""",0,1,4/24/2021 21:19,98.23.182.206,Mozilla/5.0 (X11; Linux x86_64; rv:88.0) Gecko/20100101 Firefox/88.0,,Firefox,88,Linux,
122,1,2543,"""",html-slider-response,273,810364,0.0-273.0,"""","<img src='jspsych/CFDfaces/CFD-LM-213-061-N.jpg' height=""250px"">,</br><b>Nicholas</b>","""",256,ConfidenceQuery,Test,"""","""","""","""",CFD-AM-214-168-N.jpg,Dustin,0,0,70,"""",1,4/24/2021 21:19,98.23.182.206,Mozilla/5.0 (X11; Linux x86_64; rv:88.0) Gecko/20100101 Firefox/88.0,,Firefox,88,Linux,
122,1,null,"""",html-keyboard-response,274,811367,0.0-274.0,"""","<div style=""font-size:60px;"">+</div>","""",256,ITI,Test,null,1000,"""","""","""","""","""","""","""","""",1,4/24/2021 21:19,98.23.182.206,Mozilla/5.0 (X11; Linux x86_64; rv:88.0) Gecko/20100101 Firefox/88.0,,Firefox,88,Linux,
122,1,null,"""",image-keyboard-response,275,811621,0.0-275.0,"""",jspsych/scrambledNeutralFaces/scrambledBM30NES.JPG,"""",256,forwardMask,Test,null,250,"""",n,"""","""","""","""","""","""",1,4/24/2021 21:19,98.23.182.206,Mozilla/5.0 (X11; Linux x86_64; rv:88.0) Gecko/20100101 Firefox/88.0,,Firefox,88,Linux,
122,1,null,"""",image-keyboard-response,276,811641,0.0-276.0,"""",jspsych/neutralFaces/BM30NES.JPG,"""",256,Cue,Test,null,16,"""","""","""","""","""","""","""","""",1,4/24/2021 21:19,98.23.182.206,Mozilla/5.0 (X11; Linux x86_64; rv:88.0) Gecko/20100101 Firefox/88.0,,Firefox,88,Linux,
122,1,null,"""",image-keyboard-response,277,811749,0.0-277.0,"""",jspsych/neutralFaces/BM23NES.JPG,"""",256,backwardMask,Test,null,100,"""","""","""","""","""","""","""","""",1,4/24/2021 21:19,98.23.182.206,Mozilla/5.0 (X11; Linux x86_64; rv:88.0) Gecko/20100101 Firefox/88.0,,Firefox,88,Linux,
122,1,null,"""",html-keyboard-response,278,812750,0.0-278.0,"""","<div style=""font-size:60px;"">+</div>","""",256,fixationBtwnNeutralMaskAndPrompt,Test,null,1000,"""","""","""","""","""","""","""","""",1,4/24/2021 21:19,98.23.182.206,Mozilla/5.0 (X11; Linux x86_64; rv:88.0) Gecko/20100101 Firefox/88.0,,Firefox,88,Linux,
122,1,2274,"""",html-button-response,279,815027,0.0-279.0,"""","<img src='jspsych/CFDfaces/CFD-BM-017-021-N.jpg' height=""250px"">,</br><b>Daniel</b>",0,256,IntactOrRearranged,Test,"""","""","""","""",CFD-WM-222-057-N.jpg,Mark,1,"""","""",0,1,4/24/2021 21:19,98.23.182.206,Mozilla/5.0 (X11; Linux x86_64; rv:88.0) Gecko/20100101 Firefox/88.0,,Firefox,88,Linux,
122,1,2365,"""",html-slider-response,280,817396,0.0-280.0,"""","<img src='jspsych/CFDfaces/CFD-BM-017-021-N.jpg' height=""250px"">,</br><b>Daniel</b>","""",256,ConfidenceQuery,Test,"""","""","""","""",CFD-WM-222-057-N.jpg,Mark,1,0,39,"""",1,4/24/2021 21:19,98.23.182.206,Mozilla/5.0 (X11; Linux x86_64; rv:88.0) Gecko/20100101 Firefox/88.0,,Firefox,88,Linux,
122,1,null,"""",html-keyboard-response,281,818399,0.0-281.0,"""","<div style=""font-size:60px;"">+</div>","""",256,ITI,Test,null,1000,"""","""","""","""","""","""","""","""",1,4/24/2021 21:19,98.23.182.206,Mozilla/5.0 (X11; Linux x86_64; rv:88.0) Gecko/20100101 Firefox/88.0,,Firefox,88,Linux,
122,1,null,"""",image-keyboard-response,282,818655,0.0-282.0,"""",jspsych/scrambledNeutralFaces/scrambledAM11NES.JPG,"""",256,forwardMask,Test,null,250,"""",n,"""","""","""","""","""","""",1,4/24/2021 21:19,98.23.182.206,Mozilla/5.0 (X11; Linux x86_64; rv:88.0) Gecko/20100101 Firefox/88.0,,Firefox,88,Linux,
122,1,null,"""",image-keyboard-response,283,818675,0.0-283.0,"""",jspsych/neutralFaces/AM11NES.JPG,"""",256,Cue,Test,null,16,"""","""","""","""","""","""","""","""",1,4/24/2021 21:19,98.23.182.206,Mozilla/5.0 (X11; Linux x86_64; rv:88.0) Gecko/20100101 Firefox/88.0,,Firefox,88,Linux,
122,1,null,"""",image-keyboard-response,284,818784,0.0-284.0,"""",jspsych/neutralFaces/AM13NES.JPG,"""",256,backwardMask,Test,null,100,"""","""","""","""","""","""","""","""",1,4/24/2021 21:19,98.23.182.206,Mozilla/5.0 (X11; Linux x86_64; rv:88.0) Gecko/20100101 Firefox/88.0,,Firefox,88,Linux,
122,1,null,"""",html-keyboard-response,285,819785,0.0-285.0,"""","<div style=""font-size:60px;"">+</div>","""",256,fixationBtwnNeutralMaskAndPrompt,Test,null,1000,"""","""","""","""","""","""","""","""",1,4/24/2021 21:19,98.23.182.206,Mozilla/5.0 (X11; Linux x86_64; rv:88.0) Gecko/20100101 Firefox/88.0,,Firefox,88,Linux,
122,1,2423,"""",html-button-response,286,822211,0.0-286.0,"""","<img src='jspsych/CFDfaces/CFD-LF-236-221-N.jpg' height=""250px"">,</br><b>Brittany</b>",0,256,IntactOrRearranged,Test,"""","""","""","""",CFD-AF-235-170-N.jpg,Melissa,0,"""","""",0,1,4/24/2021 21:19,98.23.182.206,Mozilla/5.0 (X11; Linux x86_64; rv:88.0) Gecko/20100101 Firefox/88.0,,Firefox,88,Linux,
122,1,2414,"""",html-slider-response,287,824627,0.0-287.0,"""","<img src='jspsych/CFDfaces/CFD-LF-236-221-N.jpg' height=""250px"">,</br><b>Brittany</b>","""",256,ConfidenceQuery,Test,"""","""","""","""",CFD-AF-235-170-N.jpg,Melissa,0,0,59,"""",1,4/24/2021 21:19,98.23.182.206,Mozilla/5.0 (X11; Linux x86_64; rv:88.0) Gecko/20100101 Firefox/88.0,,Firefox,88,Linux,
122,1,null,"""",html-keyboard-response,288,825629,0.0-288.0,"""","<div style=""font-size:60px;"">+</div>","""",256,ITI,Test,null,1000,"""","""","""","""","""","""","""","""",1,4/24/2021 21:19,98.23.182.206,Mozilla/5.0 (X11; Linux x86_64; rv:88.0) Gecko/20100101 Firefox/88.0,,Firefox,88,Linux,
122,1,null,"""",image-keyboard-response,289,825884,0.0-289.0,"""",jspsych/scrambledDisgustFaces/scrambledBF15DIS.JPG,"""",256,forwardMask,Test,null,250,"""",d,"""","""","""","""","""","""",1,4/24/2021 21:19,98.23.182.206,Mozilla/5.0 (X11; Linux x86_64; rv:88.0) Gecko/20100101 Firefox/88.0,,Firefox,88,Linux,
122,1,null,"""",image-keyboard-response,290,825905,0.0-290.0,"""",jspsych/disgustFaces/BF15DIS.JPG,"""",256,Cue,Test,null,16,"""","""","""","""","""","""","""","""",1,4/24/2021 21:19,98.23.182.206,Mozilla/5.0 (X11; Linux x86_64; rv:88.0) Gecko/20100101 Firefox/88.0,,Firefox,88,Linux,
122,1,null,"""",image-keyboard-response,291,826010,0.0-291.0,"""",jspsych/neutralFaces/AF16NES.JPG,"""",256,backwardMask,Test,null,100,"""","""","""","""","""","""","""","""",1,4/24/2021 21:19,98.23.182.206,Mozilla/5.0 (X11; Linux x86_64; rv:88.0) Gecko/20100101 Firefox/88.0,,Firefox,88,Linux,
122,1,null,"""",html-keyboard-response,292,827011,0.0-292.0,"""","<div style=""font-size:60px;"">+</div>","""",256,fixationBtwnNeutralMaskAndPrompt,Test,null,1000,"""","""","""","""","""","""","""","""",1,4/24/2021 21:19,98.23.182.206,Mozilla/5.0 (X11; Linux x86_64; rv:88.0) Gecko/20100101 Firefox/88.0,,Firefox,88,Linux,
122,1,1824,"""",html-button-response,293,828836,0.0-293.0,"""","<img src='jspsych/CFDfaces/CFD-BF-025-002-N.jpg' height=""250px"">,</br><b>Stephanie</b>",0,256,IntactOrRearranged,Test,"""","""","""","""",CFD-LM-221-216-N.jpg,Steven,0,"""","""",0,1,4/24/2021 21:19,98.23.182.206,Mozilla/5.0 (X11; Linux x86_64; rv:88.0) Gecko/20100101 Firefox/88.0,,Firefox,88,Linux,
122,1,2211,"""",html-slider-response,294,831052,0.0-294.0,"""","<img src='jspsych/CFDfaces/CFD-BF-025-002-N.jpg' height=""250px"">,</br><b>Stephanie</b>","""",256,ConfidenceQuery,Test,"""","""","""","""",CFD-LM-221-216-N.jpg,Steven,0,0,64,"""",1,4/24/2021 21:19,98.23.182.206,Mozilla/5.0 (X11; Linux x86_64; rv:88.0) Gecko/20100101 Firefox/88.0,,Firefox,88,Linux,
122,1,null,"""",html-keyboard-response,295,832054,0.0-295.0,"""","<div style=""font-size:60px;"">+</div>","""",256,ITI,Test,null,1000,"""","""","""","""","""","""","""","""",1,4/24/2021 21:19,98.23.182.206,Mozilla/5.0 (X11; Linux x86_64; rv:88.0) Gecko/20100101 Firefox/88.0,,Firefox,88,Linux,
122,1,null,"""",image-keyboard-response,296,832310,0.0-296.0,"""",jspsych/scrambledDisgustFaces/scrambledAF17DIS.JPG,"""",256,forwardMask,Test,null,250,"""",d,"""","""","""","""","""","""",1,4/24/2021 21:19,98.23.182.206,Mozilla/5.0 (X11; Linux x86_64; rv:88.0) Gecko/20100101 Firefox/88.0,,Firefox,88,Linux,
122,1,null,"""",image-keyboard-response,297,832331,0.0-297.0,"""",jspsych/disgustFaces/AF17DIS.JPG,"""",256,Cue,Test,null,16,"""","""","""","""","""","""","""","""",1,4/24/2021 21:19,98.23.182.206,Mozilla/5.0 (X11; Linux x86_64; rv:88.0) Gecko/20100101 Firefox/88.0,,Firefox,88,Linux,
122,1,null,"""",image-keyboard-response,298,832437,0.0-298.0,"""",jspsych/neutralFaces/BF30NES.JPG,"""",256,backwardMask,Test,null,100,"""","""","""","""","""","""","""","""",1,4/24/2021 21:19,98.23.182.206,Mozilla/5.0 (X11; Linux x86_64; rv:88.0) Gecko/20100101 Firefox/88.0,,Firefox,88,Linux,
122,1,null,"""",html-keyboard-response,299,833440,0.0-299.0,"""","<div style=""font-size:60px;"">+</div>","""",256,fixationBtwnNeutralMaskAndPrompt,Test,null,1000,"""","""","""","""","""","""","""","""",1,4/24/2021 21:19,98.23.182.206,Mozilla/5.0 (X11; Linux x86_64; rv:88.0) Gecko/20100101 Firefox/88.0,,Firefox,88,Linux,
122,1,2123,"""",html-button-response,300,835564,0.0-300.0,"""","<img src='jspsych/CFDfaces/CFD-WF-003-003-N.jpg' height=""250px"">,</br><b>Victoria</b>",1,256,IntactOrRearranged,Test,"""","""","""","""",CFD-LF-200-058-N.jpg,Sara,1,"""","""",1,1,4/24/2021 21:19,98.23.182.206,Mozilla/5.0 (X11; Linux x86_64; rv:88.0) Gecko/20100101 Firefox/88.0,,Firefox,88,Linux,
122,1,2650,"""",html-slider-response,301,838219,0.0-301.0,"""","<img src='jspsych/CFDfaces/CFD-WF-003-003-N.jpg' height=""250px"">,</br><b>Victoria</b>","""",256,ConfidenceQuery,Test,"""","""","""","""",CFD-LF-200-058-N.jpg,Sara,1,0,68,"""",1,4/24/2021 21:19,98.23.182.206,Mozilla/5.0 (X11; Linux x86_64; rv:88.0) Gecko/20100101 Firefox/88.0,,Firefox,88,Linux,
122,1,null,"""",html-keyboard-response,302,839220,0.0-302.0,"""","<div style=""font-size:60px;"">+</div>","""",256,ITI,Test,null,1000,"""","""","""","""","""","""","""","""",1,4/24/2021 21:19,98.23.182.206,Mozilla/5.0 (X11; Linux x86_64; rv:88.0) Gecko/20100101 Firefox/88.0,,Firefox,88,Linux,
122,1,null,"""",image-keyboard-response,303,839475,0.0-303.0,"""",jspsych/scrambledDisgustFaces/scrambledAF26DIS.JPG,"""",256,forwardMask,Test,null,250,"""",d,"""","""","""","""","""","""",1,4/24/2021 21:19,98.23.182.206,Mozilla/5.0 (X11; Linux x86_64; rv:88.0) Gecko/20100101 Firefox/88.0,,Firefox,88,Linux,
122,1,null,"""",image-keyboard-response,304,839495,0.0-304.0,"""",jspsych/disgustFaces/AF26DIS.JPG,"""",256,Cue,Test,null,16,"""","""","""","""","""","""","""","""",1,4/24/2021 21:19,98.23.182.206,Mozilla/5.0 (X11; Linux x86_64; rv:88.0) Gecko/20100101 Firefox/88.0,,Firefox,88,Linux,
122,1,null,"""",image-keyboard-response,305,839602,0.0-305.0,"""",jspsych/neutralFaces/BF20NES.JPG,"""",256,backwardMask,Test,null,100,"""","""","""","""","""","""","""","""",1,4/24/2021 21:19,98.23.182.206,Mozilla/5.0 (X11; Linux x86_64; rv:88.0) Gecko/20100101 Firefox/88.0,,Firefox,88,Linux,
122,1,null,"""",html-keyboard-response,306,840603,0.0-306.0,"""","<div style=""font-size:60px;"">+</div>","""",256,fixationBtwnNeutralMaskAndPrompt,Test,null,1000,"""","""","""","""","""","""","""","""",1,4/24/2021 21:19,98.23.182.206,Mozilla/5.0 (X11; Linux x86_64; rv:88.0) Gecko/20100101 Firefox/88.0,,Firefox,88,Linux,
122,1,2741,"""",html-button-response,307,843346,0.0-307.0,"""","<img src='jspsych/CFDfaces/CFD-AM-205-153-N.jpg' height=""250px"">,</br><b>Robert</b>",0,256,IntactOrRearranged,Test,"""","""","""","""",CFD-AF-230-193-N.jpg,Lauren,0,"""","""",0,1,4/24/2021 21:19,98.23.182.206,Mozilla/5.0 (X11; Linux x86_64; rv:88.0) Gecko/20100101 Firefox/88.0,,Firefox,88,Linux,
122,1,2726,"""",html-slider-response,308,846075,0.0-308.0,"""","<img src='jspsych/CFDfaces/CFD-AM-205-153-N.jpg' height=""250px"">,</br><b>Robert</b>","""",256,ConfidenceQuery,Test,"""","""","""","""",CFD-AF-230-193-N.jpg,Lauren,0,0,69,"""",1,4/24/2021 21:19,98.23.182.206,Mozilla/5.0 (X11; Linux x86_64; rv:88.0) Gecko/20100101 Firefox/88.0,,Firefox,88,Linux,
