run_id,condition,rt,responses,trial_type,trial_index,time_elapsed,internal_node_id,question_order,stimulus,button_pressed,iTrial,Phase,ExperimentPhase,key_press,StimulusDurationSetting,CharacterResponse,correctResponse,Face,Name,rearranged,slider_start,response,didSubjectEnterRearranged,Block,recorded_at,ip,user_agent,device,browser,browser_version,platform,platform_version
66,1,18471,"{""Q0"":""A3ON2MEPRGMEXM""}",survey-text,0,18473,0.0-0.0,"""","""","""","""","""","""","""","""","""","""","""","""","""","""","""","""","""",4/20/2021 21:02,73.208.255.247,Mozilla/5.0 (Windows NT 10.0; Win64; x64; rv:88.0) Gecko/20100101 Firefox/88.0,,Firefox,88,Windows,10
66,1,4202,"{""Q0"":""18""}",survey-text,1,22689,0.0-1.0,"""","""","""","""","""","""","""","""","""","""","""","""","""","""","""","""","""",4/20/2021 21:02,73.208.255.247,Mozilla/5.0 (Windows NT 10.0; Win64; x64; rv:88.0) Gecko/20100101 Firefox/88.0,,Firefox,88,Windows,10
66,1,17329,"{""Q0"":""male"",""Q1"":""Not Hispanic/Latino"",""Q2"":""Other""}",survey-multi-choice,2,40026,0.0-2.0,"[0,1,2]","""","""","""","""","""","""","""","""","""","""","""","""","""","""","""","""",4/20/2021 21:02,73.208.255.247,Mozilla/5.0 (Windows NT 10.0; Win64; x64; rv:88.0) Gecko/20100101 Firefox/88.0,,Firefox,88,Windows,10
66,1,18563,"""",image-button-response,3,58602,0.0-3.0,"""",directionsMemoryAssociation1.JPG,0,1,IntroDirections1,break,"""","""","""","""","""","""","""","""","""","""","""",4/20/2021 21:02,73.208.255.247,Mozilla/5.0 (Windows NT 10.0; Win64; x64; rv:88.0) Gecko/20100101 Firefox/88.0,,Firefox,88,Windows,10
66,1,65825,"""",image-button-response,4,124449,0.0-4.0,"""",directionsMemoryAssociation2.JPG,0,1,IntroDirections2,break,"""","""","""","""","""","""","""","""","""","""","""",4/20/2021 21:02,73.208.255.247,Mozilla/5.0 (Windows NT 10.0; Win64; x64; rv:88.0) Gecko/20100101 Firefox/88.0,,Firefox,88,Windows,10
66,1,null,"""",html-keyboard-response,5,129457,0.0-5.0,"""","<img src='jspsych/CFDfaces/CFD-AM-246-184-N.jpg' height=""250px"">,</br><b>Carlos</b>","""",1,IntactFace,Practice,null,5000,"""","""","""","""","""","""","""","""","""",4/20/2021 21:02,73.208.255.247,Mozilla/5.0 (Windows NT 10.0; Win64; x64; rv:88.0) Gecko/20100101 Firefox/88.0,,Firefox,88,Windows,10
66,1,null,"""",html-keyboard-response,6,129963,0.0-6.0,"""","<div style=""font-size:60px;"">+</div>","""",1,ITI,Practice,null,1000,"""","""","""","""","""","""","""","""","""",4/20/2021 21:02,73.208.255.247,Mozilla/5.0 (Windows NT 10.0; Win64; x64; rv:88.0) Gecko/20100101 Firefox/88.0,,Firefox,88,Windows,10
66,1,4760,"""",html-keyboard-response,7,134974,0.0-7.0,"""","<img src='jspsych/CFDfaces/CFD-AF-209-006-N.jpg' height=""250px"">,</br><b>Cassandra</b>","""",2,IntactFace,Practice,78,5000,n,"""","""","""","""","""","""","""","""",4/20/2021 21:02,73.208.255.247,Mozilla/5.0 (Windows NT 10.0; Win64; x64; rv:88.0) Gecko/20100101 Firefox/88.0,,Firefox,88,Windows,10
66,1,null,"""",html-keyboard-response,8,135491,0.0-8.0,"""","<div style=""font-size:60px;"">+</div>","""",2,ITI,Practice,null,1000,"""","""","""","""","""","""","""","""","""",4/20/2021 21:02,73.208.255.247,Mozilla/5.0 (Windows NT 10.0; Win64; x64; rv:88.0) Gecko/20100101 Firefox/88.0,,Firefox,88,Windows,10
66,1,2764,"""",html-keyboard-response,9,140505,0.0-9.0,"""","<img src='jspsych/CFDfaces/CFD-AF-203-077-N.jpg' height=""250px"">,</br><b>Tara</b>","""",3,IntactFace,Practice,78,5000,n,"""","""","""","""","""","""","""","""",4/20/2021 21:02,73.208.255.247,Mozilla/5.0 (Windows NT 10.0; Win64; x64; rv:88.0) Gecko/20100101 Firefox/88.0,,Firefox,88,Windows,10
66,1,null,"""",html-keyboard-response,10,141023,0.0-10.0,"""","<div style=""font-size:60px;"">+</div>","""",3,ITI,Practice,null,1000,"""","""","""","""","""","""","""","""","""",4/20/2021 21:02,73.208.255.247,Mozilla/5.0 (Windows NT 10.0; Win64; x64; rv:88.0) Gecko/20100101 Firefox/88.0,,Firefox,88,Windows,10
66,1,null,"""",html-keyboard-response,11,146028,0.0-11.0,"""","<img src='jspsych/CFDfaces/CFD-WM-215-041-N.jpg' height=""250px"">,</br><b>Samuel</b>","""",4,IntactFace,Practice,null,5000,"""","""","""","""","""","""","""","""","""",4/20/2021 21:02,73.208.255.247,Mozilla/5.0 (Windows NT 10.0; Win64; x64; rv:88.0) Gecko/20100101 Firefox/88.0,,Firefox,88,Windows,10
66,1,null,"""",html-keyboard-response,12,146531,0.0-12.0,"""","<div style=""font-size:60px;"">+</div>","""",4,ITI,Practice,null,1000,"""","""","""","""","""","""","""","""","""",4/20/2021 21:02,73.208.255.247,Mozilla/5.0 (Windows NT 10.0; Win64; x64; rv:88.0) Gecko/20100101 Firefox/88.0,,Firefox,88,Windows,10
66,1,4380,"""",html-keyboard-response,13,151539,0.0-13.0,"""","<img src='jspsych/CFDfaces/CFD-AM-212-050-N.jpg' height=""250px"">,</br><b>Patrick</b>","""",5,IntactFace,Practice,78,5000,n,"""","""","""","""","""","""","""","""",4/20/2021 21:02,73.208.255.247,Mozilla/5.0 (Windows NT 10.0; Win64; x64; rv:88.0) Gecko/20100101 Firefox/88.0,,Firefox,88,Windows,10
66,1,null,"""",html-keyboard-response,14,152059,0.0-14.0,"""","<div style=""font-size:60px;"">+</div>","""",5,ITI,Practice,null,1000,"""","""","""","""","""","""","""","""","""",4/20/2021 21:02,73.208.255.247,Mozilla/5.0 (Windows NT 10.0; Win64; x64; rv:88.0) Gecko/20100101 Firefox/88.0,,Firefox,88,Windows,10
66,1,900,"""",html-keyboard-response,15,157066,0.0-15.0,"""","<img src='jspsych/CFDfaces/CFD-AF-240-206-N.jpg' height=""250px"">,</br><b>Katelyn</b>","""",6,IntactFace,Practice,78,5000,n,"""","""","""","""","""","""","""","""",4/20/2021 21:02,73.208.255.247,Mozilla/5.0 (Windows NT 10.0; Win64; x64; rv:88.0) Gecko/20100101 Firefox/88.0,,Firefox,88,Windows,10
66,1,null,"""",html-keyboard-response,16,157571,0.0-16.0,"""","<div style=""font-size:60px;"">+</div>","""",6,ITI,Practice,null,1000,"""","""","""","""","""","""","""","""","""",4/20/2021 21:02,73.208.255.247,Mozilla/5.0 (Windows NT 10.0; Win64; x64; rv:88.0) Gecko/20100101 Firefox/88.0,,Firefox,88,Windows,10
66,1,3075,"""",html-keyboard-response,17,162581,0.0-17.0,"""","<img src='jspsych/CFDfaces/CFD-AM-211-052-N.jpg' height=""250px"">,</br><b>Marcus</b>","""",7,IntactFace,Practice,78,5000,n,"""","""","""","""","""","""","""","""",4/20/2021 21:02,73.208.255.247,Mozilla/5.0 (Windows NT 10.0; Win64; x64; rv:88.0) Gecko/20100101 Firefox/88.0,,Firefox,88,Windows,10
66,1,null,"""",html-keyboard-response,18,163100,0.0-18.0,"""","<div style=""font-size:60px;"">+</div>","""",7,ITI,Practice,null,1000,"""","""","""","""","""","""","""","""","""",4/20/2021 21:02,73.208.255.247,Mozilla/5.0 (Windows NT 10.0; Win64; x64; rv:88.0) Gecko/20100101 Firefox/88.0,,Firefox,88,Windows,10
66,1,1777,"""",html-keyboard-response,19,168112,0.0-19.0,"""","<img src='jspsych/CFDfaces/CFD-WF-223-133-N.jpg' height=""250px"">,</br><b>Shannon</b>","""",8,IntactFace,Practice,70,5000,f,"""","""","""","""","""","""","""","""",4/20/2021 21:02,73.208.255.247,Mozilla/5.0 (Windows NT 10.0; Win64; x64; rv:88.0) Gecko/20100101 Firefox/88.0,,Firefox,88,Windows,10
66,1,null,"""",html-keyboard-response,20,168626,0.0-20.0,"""","<div style=""font-size:60px;"">+</div>","""",8,ITI,Practice,null,1000,"""","""","""","""","""","""","""","""","""",4/20/2021 21:02,73.208.255.247,Mozilla/5.0 (Windows NT 10.0; Win64; x64; rv:88.0) Gecko/20100101 Firefox/88.0,,Firefox,88,Windows,10
66,1,486061,"""",image-button-response,21,654702,0.0-21.0,"""",directionsForTest.JPG,0,1,directionsForTest,break,"""","""","""","""","""","""","""","""","""","""","""",4/20/2021 21:02,73.208.255.247,Mozilla/5.0 (Windows NT 10.0; Win64; x64; rv:88.0) Gecko/20100101 Firefox/88.0,,Firefox,88,Windows,10
66,1,24046,"""",image-button-response,22,678759,0.0-22.0,"""",directionsForTest2.JPG,0,1,directionsForTest2,break,"""","""","""","""","""","""","""","""","""","""","""",4/20/2021 21:02,73.208.255.247,Mozilla/5.0 (Windows NT 10.0; Win64; x64; rv:88.0) Gecko/20100101 Firefox/88.0,,Firefox,88,Windows,10
66,1,null,"""",html-keyboard-response,23,679766,0.0-23.0,"""","<div style=""font-size:60px;"">+</div>","""",1,ITI,Practice,null,1000,"""","""","""","""","""","""","""","""","""",4/20/2021 21:02,73.208.255.247,Mozilla/5.0 (Windows NT 10.0; Win64; x64; rv:88.0) Gecko/20100101 Firefox/88.0,,Firefox,88,Windows,10
66,1,null,"""",image-keyboard-response,24,680032,0.0-24.0,"""",jspsych/scrambledDisgustFaces/scrambledBF10DIS.JPG,"""",1,forwardMask,Practice,null,250,"""",d,"""","""","""","""","""","""","""",4/20/2021 21:02,73.208.255.247,Mozilla/5.0 (Windows NT 10.0; Win64; x64; rv:88.0) Gecko/20100101 Firefox/88.0,,Firefox,88,Windows,10
66,1,null,"""",image-keyboard-response,25,680062,0.0-25.0,"""",jspsych/disgustFaces/BF10DIS.JPG,"""",1,Cue,Practice,null,16,"""","""","""","""","""","""","""","""","""",4/20/2021 21:02,73.208.255.247,Mozilla/5.0 (Windows NT 10.0; Win64; x64; rv:88.0) Gecko/20100101 Firefox/88.0,,Firefox,88,Windows,10
66,1,null,"""",image-keyboard-response,26,680172,0.0-26.0,"""",jspsych/neutralFaces/BF35NES.JPG,"""",1,backwardMask,Practice,null,100,"""","""","""","""","""","""","""","""","""",4/20/2021 21:02,73.208.255.247,Mozilla/5.0 (Windows NT 10.0; Win64; x64; rv:88.0) Gecko/20100101 Firefox/88.0,,Firefox,88,Windows,10
66,1,null,"""",html-keyboard-response,27,681182,0.0-27.0,"""","<div style=""font-size:60px;"">+</div>","""",1,fixationBtwnNeutralMaskAndPrompt,Practice,null,1000,"""","""","""","""","""","""","""","""","""",4/20/2021 21:02,73.208.255.247,Mozilla/5.0 (Windows NT 10.0; Win64; x64; rv:88.0) Gecko/20100101 Firefox/88.0,,Firefox,88,Windows,10
66,1,null,"""",html-button-response,28,686197,0.0-28.0,"""","<img src='jspsych/CFDfaces/CFD-AF-240-206-N.jpg'height=""250px""></br><b>Cassandra</b>",null,1,IntactOrRearranged,Practice,"""","""","""","""",CFD-AF-240-206-N.jpg,Cassandra,1,"""","""","""","""",4/20/2021 21:02,73.208.255.247,Mozilla/5.0 (Windows NT 10.0; Win64; x64; rv:88.0) Gecko/20100101 Firefox/88.0,,Firefox,88,Windows,10
66,1,null,"""",html-slider-response,29,691215,0.0-29.0,"""","<img src='jspsych/CFDfaces/CFD-AF-240-206-N.jpg'height=""250px""></br><b>Cassandra</b>","""",1,ConfidenceQuery,Practice,"""","""","""","""",CFD-WM-222-057-N.jpg,Jesse,1,0,null,"""","""",4/20/2021 21:02,73.208.255.247,Mozilla/5.0 (Windows NT 10.0; Win64; x64; rv:88.0) Gecko/20100101 Firefox/88.0,,Firefox,88,Windows,10
66,1,5585,"""",html-button-response,30,696802,0.0-30.0,"""",<p>Please click either button: REARRANGED or INTACT before the 5-second time limit.</p>,0,1,feedback,Practice,"""","""","""","""","""","""","""","""","""","""","""",4/20/2021 21:02,73.208.255.247,Mozilla/5.0 (Windows NT 10.0; Win64; x64; rv:88.0) Gecko/20100101 Firefox/88.0,,Firefox,88,Windows,10
66,1,null,"""",html-keyboard-response,31,697817,0.0-31.0,"""","<div style=""font-size:60px;"">+</div>","""",2,ITI,Practice,null,1000,"""","""","""","""","""","""","""","""","""",4/20/2021 21:02,73.208.255.247,Mozilla/5.0 (Windows NT 10.0; Win64; x64; rv:88.0) Gecko/20100101 Firefox/88.0,,Firefox,88,Windows,10
66,1,null,"""",image-keyboard-response,32,698083,0.0-32.0,"""",jspsych/scrambledDisgustFaces/scrambledAM11DIS.JPG,"""",2,forwardMask,Practice,null,250,"""",d,"""","""","""","""","""","""","""",4/20/2021 21:02,73.208.255.247,Mozilla/5.0 (Windows NT 10.0; Win64; x64; rv:88.0) Gecko/20100101 Firefox/88.0,,Firefox,88,Windows,10
66,1,null,"""",image-keyboard-response,33,698115,0.0-33.0,"""",jspsych/disgustFaces/AM11DIS.JPG,"""",2,Cue,Practice,null,16,"""","""","""","""","""","""","""","""","""",4/20/2021 21:02,73.208.255.247,Mozilla/5.0 (Windows NT 10.0; Win64; x64; rv:88.0) Gecko/20100101 Firefox/88.0,,Firefox,88,Windows,10
66,1,null,"""",image-keyboard-response,34,698225,0.0-34.0,"""",jspsych/neutralFaces/BM23NES.JPG,"""",2,backwardMask,Practice,null,100,"""","""","""","""","""","""","""","""","""",4/20/2021 21:02,73.208.255.247,Mozilla/5.0 (Windows NT 10.0; Win64; x64; rv:88.0) Gecko/20100101 Firefox/88.0,,Firefox,88,Windows,10
66,1,null,"""",html-keyboard-response,35,699233,0.0-35.0,"""","<div style=""font-size:60px;"">+</div>","""",2,fixationBtwnNeutralMaskAndPrompt,Practice,null,1000,"""","""","""","""","""","""","""","""","""",4/20/2021 21:02,73.208.255.247,Mozilla/5.0 (Windows NT 10.0; Win64; x64; rv:88.0) Gecko/20100101 Firefox/88.0,,Firefox,88,Windows,10
66,1,2249,"""",html-button-response,36,701483,0.0-36.0,"""","<img src='jspsych/CFDfaces/CFD-AM-246-184-N.jpg'height=""250px""></br><b>Marcus</b>",0,2,IntactOrRearranged,Practice,"""","""","""","""",CFD-AM-246-184-N.jpg,Marcus,1,"""","""",0,"""",4/20/2021 21:02,73.208.255.247,Mozilla/5.0 (Windows NT 10.0; Win64; x64; rv:88.0) Gecko/20100101 Firefox/88.0,,Firefox,88,Windows,10
66,1,4061,"""",html-slider-response,37,705550,0.0-37.0,"""","<img src='jspsych/CFDfaces/CFD-AM-246-184-N.jpg'height=""250px""></br><b>Marcus</b>","""",2,ConfidenceQuery,Practice,"""","""","""","""",CFD-WM-222-057-N.jpg,Jesse,1,0,17,"""","""",4/20/2021 21:02,73.208.255.247,Mozilla/5.0 (Windows NT 10.0; Win64; x64; rv:88.0) Gecko/20100101 Firefox/88.0,,Firefox,88,Windows,10
66,1,3686,"""",html-button-response,38,709240,0.0-38.0,"""",You are Incorrect. You called a Rearranged Pair Intact,0,2,feedback,Practice,"""","""","""","""","""","""","""","""","""","""","""",4/20/2021 21:02,73.208.255.247,Mozilla/5.0 (Windows NT 10.0; Win64; x64; rv:88.0) Gecko/20100101 Firefox/88.0,,Firefox,88,Windows,10
66,1,null,"""",html-keyboard-response,39,710247,0.0-39.0,"""","<div style=""font-size:60px;"">+</div>","""",3,ITI,Practice,null,1000,"""","""","""","""","""","""","""","""","""",4/20/2021 21:02,73.208.255.247,Mozilla/5.0 (Windows NT 10.0; Win64; x64; rv:88.0) Gecko/20100101 Firefox/88.0,,Firefox,88,Windows,10
66,1,null,"""",image-keyboard-response,40,710499,0.0-40.0,"""",jspsych/scrambledDisgustFaces/scrambledAF21DIS.JPG,"""",3,forwardMask,Practice,null,250,"""",d,"""","""","""","""","""","""","""",4/20/2021 21:02,73.208.255.247,Mozilla/5.0 (Windows NT 10.0; Win64; x64; rv:88.0) Gecko/20100101 Firefox/88.0,,Firefox,88,Windows,10
66,1,null,"""",image-keyboard-response,41,710530,0.0-41.0,"""",jspsych/disgustFaces/AF21DIS.JPG,"""",3,Cue,Practice,null,16,"""","""","""","""","""","""","""","""","""",4/20/2021 21:02,73.208.255.247,Mozilla/5.0 (Windows NT 10.0; Win64; x64; rv:88.0) Gecko/20100101 Firefox/88.0,,Firefox,88,Windows,10
66,1,null,"""",image-keyboard-response,42,710640,0.0-42.0,"""",jspsych/neutralFaces/BF33NES.JPG,"""",3,backwardMask,Practice,null,100,"""","""","""","""","""","""","""","""","""",4/20/2021 21:02,73.208.255.247,Mozilla/5.0 (Windows NT 10.0; Win64; x64; rv:88.0) Gecko/20100101 Firefox/88.0,,Firefox,88,Windows,10
66,1,null,"""",html-keyboard-response,43,711643,0.0-43.0,"""","<div style=""font-size:60px;"">+</div>","""",3,fixationBtwnNeutralMaskAndPrompt,Practice,null,1000,"""","""","""","""","""","""","""","""","""",4/20/2021 21:02,73.208.255.247,Mozilla/5.0 (Windows NT 10.0; Win64; x64; rv:88.0) Gecko/20100101 Firefox/88.0,,Firefox,88,Windows,10
66,1,2337,"""",html-button-response,44,713986,0.0-44.0,"""","<img src='jspsych/CFDfaces/CFD-AF-203-077-N.jpg'height=""250px""></br><b>Tara</b>",0,3,IntactOrRearranged,Practice,"""","""","""","""",CFD-AF-203-077-N.jpg,Tara,0,"""","""",0,"""",4/20/2021 21:02,73.208.255.247,Mozilla/5.0 (Windows NT 10.0; Win64; x64; rv:88.0) Gecko/20100101 Firefox/88.0,,Firefox,88,Windows,10
66,1,3247,"""",html-slider-response,45,717237,0.0-45.0,"""","<img src='jspsych/CFDfaces/CFD-AF-203-077-N.jpg'height=""250px""></br><b>Tara</b>","""",3,ConfidenceQuery,Practice,"""","""","""","""",CFD-WM-222-057-N.jpg,Jesse,0,0,82,"""","""",4/20/2021 21:02,73.208.255.247,Mozilla/5.0 (Windows NT 10.0; Win64; x64; rv:88.0) Gecko/20100101 Firefox/88.0,,Firefox,88,Windows,10
66,1,1916,"""",html-button-response,46,719155,0.0-46.0,"""",You are Correct. You called an Intact Pair Intact,0,3,feedback,Practice,"""","""","""","""","""","""","""","""","""","""","""",4/20/2021 21:02,73.208.255.247,Mozilla/5.0 (Windows NT 10.0; Win64; x64; rv:88.0) Gecko/20100101 Firefox/88.0,,Firefox,88,Windows,10
66,1,null,"""",html-keyboard-response,47,720171,0.0-47.0,"""","<div style=""font-size:60px;"">+</div>","""",4,ITI,Practice,null,1000,"""","""","""","""","""","""","""","""","""",4/20/2021 21:02,73.208.255.247,Mozilla/5.0 (Windows NT 10.0; Win64; x64; rv:88.0) Gecko/20100101 Firefox/88.0,,Firefox,88,Windows,10
66,1,null,"""",image-keyboard-response,48,720424,0.0-48.0,"""",jspsych/scrambledDisgustFaces/scrambledBF27DIS.JPG,"""",4,forwardMask,Practice,null,250,"""",d,"""","""","""","""","""","""","""",4/20/2021 21:02,73.208.255.247,Mozilla/5.0 (Windows NT 10.0; Win64; x64; rv:88.0) Gecko/20100101 Firefox/88.0,,Firefox,88,Windows,10
66,1,null,"""",image-keyboard-response,49,720454,0.0-49.0,"""",jspsych/disgustFaces/BF27DIS.JPG,"""",4,Cue,Practice,null,16,"""","""","""","""","""","""","""","""","""",4/20/2021 21:02,73.208.255.247,Mozilla/5.0 (Windows NT 10.0; Win64; x64; rv:88.0) Gecko/20100101 Firefox/88.0,,Firefox,88,Windows,10
66,1,null,"""",image-keyboard-response,50,720563,0.0-50.0,"""",jspsych/neutralFaces/AF06NES.JPG,"""",4,backwardMask,Practice,null,100,"""","""","""","""","""","""","""","""","""",4/20/2021 21:02,73.208.255.247,Mozilla/5.0 (Windows NT 10.0; Win64; x64; rv:88.0) Gecko/20100101 Firefox/88.0,,Firefox,88,Windows,10
66,1,null,"""",html-keyboard-response,51,721570,0.0-51.0,"""","<div style=""font-size:60px;"">+</div>","""",4,fixationBtwnNeutralMaskAndPrompt,Practice,null,1000,"""","""","""","""","""","""","""","""","""",4/20/2021 21:02,73.208.255.247,Mozilla/5.0 (Windows NT 10.0; Win64; x64; rv:88.0) Gecko/20100101 Firefox/88.0,,Firefox,88,Windows,10
66,1,null,"""",html-button-response,52,726579,0.0-52.0,"""","<img src='jspsych/CFDfaces/CFD-AM-211-052-N.jpg'height=""250px""></br><b>Carlos</b>",null,4,IntactOrRearranged,Practice,"""","""","""","""",CFD-AM-211-052-N.jpg,Carlos,1,"""","""","""","""",4/20/2021 21:02,73.208.255.247,Mozilla/5.0 (Windows NT 10.0; Win64; x64; rv:88.0) Gecko/20100101 Firefox/88.0,,Firefox,88,Windows,10
66,1,3231,"""",html-slider-response,53,729817,0.0-53.0,"""","<img src='jspsych/CFDfaces/CFD-AM-211-052-N.jpg'height=""250px""></br><b>Carlos</b>","""",4,ConfidenceQuery,Practice,"""","""","""","""",CFD-WM-222-057-N.jpg,Jesse,1,0,0,"""","""",4/20/2021 21:02,73.208.255.247,Mozilla/5.0 (Windows NT 10.0; Win64; x64; rv:88.0) Gecko/20100101 Firefox/88.0,,Firefox,88,Windows,10
66,1,2018,"""",html-button-response,54,731837,0.0-54.0,"""",<p>Please click either button: REARRANGED or INTACT before the 5-second time limit.</p>,0,4,feedback,Practice,"""","""","""","""","""","""","""","""","""","""","""",4/20/2021 21:02,73.208.255.247,Mozilla/5.0 (Windows NT 10.0; Win64; x64; rv:88.0) Gecko/20100101 Firefox/88.0,,Firefox,88,Windows,10
66,1,null,"""",html-keyboard-response,55,732851,0.0-55.0,"""","<div style=""font-size:60px;"">+</div>","""",5,ITI,Practice,null,1000,"""","""","""","""","""","""","""","""","""",4/20/2021 21:02,73.208.255.247,Mozilla/5.0 (Windows NT 10.0; Win64; x64; rv:88.0) Gecko/20100101 Firefox/88.0,,Firefox,88,Windows,10
66,1,null,"""",image-keyboard-response,56,733114,0.0-56.0,"""",jspsych/scrambledNeutralFaces/scrambledBF06NES.JPG,"""",5,forwardMask,Practice,null,250,"""",n,"""","""","""","""","""","""","""",4/20/2021 21:02,73.208.255.247,Mozilla/5.0 (Windows NT 10.0; Win64; x64; rv:88.0) Gecko/20100101 Firefox/88.0,,Firefox,88,Windows,10
66,1,null,"""",image-keyboard-response,57,733147,0.0-57.0,"""",jspsych/neutralFaces/BF06NES.JPG,"""",5,Cue,Practice,null,16,"""","""","""","""","""","""","""","""","""",4/20/2021 21:02,73.208.255.247,Mozilla/5.0 (Windows NT 10.0; Win64; x64; rv:88.0) Gecko/20100101 Firefox/88.0,,Firefox,88,Windows,10
66,1,null,"""",image-keyboard-response,58,733255,0.0-58.0,"""",jspsych/neutralFaces/AF26NES.JPG,"""",5,backwardMask,Practice,null,100,"""","""","""","""","""","""","""","""","""",4/20/2021 21:02,73.208.255.247,Mozilla/5.0 (Windows NT 10.0; Win64; x64; rv:88.0) Gecko/20100101 Firefox/88.0,,Firefox,88,Windows,10
66,1,null,"""",html-keyboard-response,59,734260,0.0-59.0,"""","<div style=""font-size:60px;"">+</div>","""",5,fixationBtwnNeutralMaskAndPrompt,Practice,null,1000,"""","""","""","""","""","""","""","""","""",4/20/2021 21:02,73.208.255.247,Mozilla/5.0 (Windows NT 10.0; Win64; x64; rv:88.0) Gecko/20100101 Firefox/88.0,,Firefox,88,Windows,10
66,1,1139,"""",html-button-response,60,735402,0.0-60.0,"""","<img src='jspsych/CFDfaces/CFD-AF-209-006-N.jpg'height=""250px""></br><b>Katelyn</b>",1,5,IntactOrRearranged,Practice,"""","""","""","""",CFD-AF-209-006-N.jpg,Katelyn,1,"""","""",1,"""",4/20/2021 21:02,73.208.255.247,Mozilla/5.0 (Windows NT 10.0; Win64; x64; rv:88.0) Gecko/20100101 Firefox/88.0,,Firefox,88,Windows,10
66,1,3202,"""",html-slider-response,61,738609,0.0-61.0,"""","<img src='jspsych/CFDfaces/CFD-AF-209-006-N.jpg'height=""250px""></br><b>Katelyn</b>","""",5,ConfidenceQuery,Practice,"""","""","""","""",CFD-WM-222-057-N.jpg,Jesse,1,0,100,"""","""",4/20/2021 21:02,73.208.255.247,Mozilla/5.0 (Windows NT 10.0; Win64; x64; rv:88.0) Gecko/20100101 Firefox/88.0,,Firefox,88,Windows,10
66,1,1383,"""",html-button-response,62,739997,0.0-62.0,"""",You are Correct. You Called A Rearranged Pair Rearranged,0,5,feedback,Practice,"""","""","""","""","""","""","""","""","""","""","""",4/20/2021 21:02,73.208.255.247,Mozilla/5.0 (Windows NT 10.0; Win64; x64; rv:88.0) Gecko/20100101 Firefox/88.0,,Firefox,88,Windows,10
66,1,null,"""",html-keyboard-response,63,741006,0.0-63.0,"""","<div style=""font-size:60px;"">+</div>","""",6,ITI,Practice,null,1000,"""","""","""","""","""","""","""","""","""",4/20/2021 21:02,73.208.255.247,Mozilla/5.0 (Windows NT 10.0; Win64; x64; rv:88.0) Gecko/20100101 Firefox/88.0,,Firefox,88,Windows,10
66,1,null,"""",image-keyboard-response,64,741273,0.0-64.0,"""",jspsych/scrambledNeutralFaces/scrambledAF07NES.JPG,"""",6,forwardMask,Practice,null,250,"""",n,"""","""","""","""","""","""","""",4/20/2021 21:02,73.208.255.247,Mozilla/5.0 (Windows NT 10.0; Win64; x64; rv:88.0) Gecko/20100101 Firefox/88.0,,Firefox,88,Windows,10
66,1,null,"""",image-keyboard-response,65,741303,0.0-65.0,"""",jspsych/neutralFaces/AF07NES.JPG,"""",6,Cue,Practice,null,16,"""","""","""","""","""","""","""","""","""",4/20/2021 21:02,73.208.255.247,Mozilla/5.0 (Windows NT 10.0; Win64; x64; rv:88.0) Gecko/20100101 Firefox/88.0,,Firefox,88,Windows,10
66,1,null,"""",image-keyboard-response,66,741415,0.0-66.0,"""",jspsych/neutralFaces/BF16NES.JPG,"""",6,backwardMask,Practice,null,100,"""","""","""","""","""","""","""","""","""",4/20/2021 21:02,73.208.255.247,Mozilla/5.0 (Windows NT 10.0; Win64; x64; rv:88.0) Gecko/20100101 Firefox/88.0,,Firefox,88,Windows,10
66,1,null,"""",html-keyboard-response,67,742425,0.0-67.0,"""","<div style=""font-size:60px;"">+</div>","""",6,fixationBtwnNeutralMaskAndPrompt,Practice,null,1000,"""","""","""","""","""","""","""","""","""",4/20/2021 21:02,73.208.255.247,Mozilla/5.0 (Windows NT 10.0; Win64; x64; rv:88.0) Gecko/20100101 Firefox/88.0,,Firefox,88,Windows,10
66,1,2113,"""",html-button-response,68,744540,0.0-68.0,"""","<img src='jspsych/CFDfaces/CFD-WF-223-133-N.jpg'height=""250px""></br><b>Shannon</b>",0,6,IntactOrRearranged,Practice,"""","""","""","""",CFD-WF-223-133-N.jpg,Shannon,0,"""","""",0,"""",4/20/2021 21:02,73.208.255.247,Mozilla/5.0 (Windows NT 10.0; Win64; x64; rv:88.0) Gecko/20100101 Firefox/88.0,,Firefox,88,Windows,10
66,1,2140,"""",html-slider-response,69,746689,0.0-69.0,"""","<img src='jspsych/CFDfaces/CFD-WF-223-133-N.jpg'height=""250px""></br><b>Shannon</b>","""",6,ConfidenceQuery,Practice,"""","""","""","""",CFD-WM-222-057-N.jpg,Jesse,0,0,100,"""","""",4/20/2021 21:02,73.208.255.247,Mozilla/5.0 (Windows NT 10.0; Win64; x64; rv:88.0) Gecko/20100101 Firefox/88.0,,Firefox,88,Windows,10
66,1,1312,"""",html-button-response,70,748003,0.0-70.0,"""",You are Correct. You called an Intact Pair Intact,0,6,feedback,Practice,"""","""","""","""","""","""","""","""","""","""","""",4/20/2021 21:02,73.208.255.247,Mozilla/5.0 (Windows NT 10.0; Win64; x64; rv:88.0) Gecko/20100101 Firefox/88.0,,Firefox,88,Windows,10
66,1,null,"""",html-keyboard-response,71,749006,0.0-71.0,"""","<div style=""font-size:60px;"">+</div>","""",7,ITI,Practice,null,1000,"""","""","""","""","""","""","""","""","""",4/20/2021 21:02,73.208.255.247,Mozilla/5.0 (Windows NT 10.0; Win64; x64; rv:88.0) Gecko/20100101 Firefox/88.0,,Firefox,88,Windows,10
66,1,null,"""",image-keyboard-response,72,749271,0.0-72.0,"""",jspsych/scrambledDisgustFaces/scrambledBF20DIS.JPG,"""",7,forwardMask,Practice,null,250,"""",d,"""","""","""","""","""","""","""",4/20/2021 21:02,73.208.255.247,Mozilla/5.0 (Windows NT 10.0; Win64; x64; rv:88.0) Gecko/20100101 Firefox/88.0,,Firefox,88,Windows,10
66,1,null,"""",image-keyboard-response,73,749302,0.0-73.0,"""",jspsych/disgustFaces/BF20DIS.JPG,"""",7,Cue,Practice,null,16,"""","""","""","""","""","""","""","""","""",4/20/2021 21:02,73.208.255.247,Mozilla/5.0 (Windows NT 10.0; Win64; x64; rv:88.0) Gecko/20100101 Firefox/88.0,,Firefox,88,Windows,10
66,1,null,"""",image-keyboard-response,74,749412,0.0-74.0,"""",jspsych/neutralFaces/AF32NES.JPG,"""",7,backwardMask,Practice,null,100,"""","""","""","""","""","""","""","""","""",4/20/2021 21:02,73.208.255.247,Mozilla/5.0 (Windows NT 10.0; Win64; x64; rv:88.0) Gecko/20100101 Firefox/88.0,,Firefox,88,Windows,10
66,1,null,"""",html-keyboard-response,75,750421,0.0-75.0,"""","<div style=""font-size:60px;"">+</div>","""",7,fixationBtwnNeutralMaskAndPrompt,Practice,null,1000,"""","""","""","""","""","""","""","""","""",4/20/2021 21:02,73.208.255.247,Mozilla/5.0 (Windows NT 10.0; Win64; x64; rv:88.0) Gecko/20100101 Firefox/88.0,,Firefox,88,Windows,10
66,1,2017,"""",html-button-response,76,752443,0.0-76.0,"""","<img src='jspsych/CFDfaces/CFD-WM-215-041-N.jpg'height=""250px""></br><b>Samuel</b>",0,7,IntactOrRearranged,Practice,"""","""","""","""",CFD-WM-215-041-N.jpg,Samuel,0,"""","""",0,"""",4/20/2021 21:02,73.208.255.247,Mozilla/5.0 (Windows NT 10.0; Win64; x64; rv:88.0) Gecko/20100101 Firefox/88.0,,Firefox,88,Windows,10
66,1,2703,"""",html-slider-response,77,755148,0.0-77.0,"""","<img src='jspsych/CFDfaces/CFD-WM-215-041-N.jpg'height=""250px""></br><b>Samuel</b>","""",7,ConfidenceQuery,Practice,"""","""","""","""",CFD-WM-222-057-N.jpg,Jesse,0,0,99,"""","""",4/20/2021 21:02,73.208.255.247,Mozilla/5.0 (Windows NT 10.0; Win64; x64; rv:88.0) Gecko/20100101 Firefox/88.0,,Firefox,88,Windows,10
66,1,1163,"""",html-button-response,78,756311,0.0-78.0,"""",You are Correct. You called an Intact Pair Intact,0,7,feedback,Practice,"""","""","""","""","""","""","""","""","""","""","""",4/20/2021 21:02,73.208.255.247,Mozilla/5.0 (Windows NT 10.0; Win64; x64; rv:88.0) Gecko/20100101 Firefox/88.0,,Firefox,88,Windows,10
66,1,null,"""",html-keyboard-response,79,757329,0.0-79.0,"""","<div style=""font-size:60px;"">+</div>","""",8,ITI,Practice,null,1000,"""","""","""","""","""","""","""","""","""",4/20/2021 21:02,73.208.255.247,Mozilla/5.0 (Windows NT 10.0; Win64; x64; rv:88.0) Gecko/20100101 Firefox/88.0,,Firefox,88,Windows,10
66,1,null,"""",image-keyboard-response,80,757595,0.0-80.0,"""",jspsych/scrambledNeutralFaces/scrambledBM10NES.JPG,"""",8,forwardMask,Practice,null,250,"""",n,"""","""","""","""","""","""","""",4/20/2021 21:02,73.208.255.247,Mozilla/5.0 (Windows NT 10.0; Win64; x64; rv:88.0) Gecko/20100101 Firefox/88.0,,Firefox,88,Windows,10
66,1,null,"""",image-keyboard-response,81,757626,0.0-81.0,"""",jspsych/neutralFaces/BM10NES.JPG,"""",8,Cue,Practice,null,16,"""","""","""","""","""","""","""","""","""",4/20/2021 21:02,73.208.255.247,Mozilla/5.0 (Windows NT 10.0; Win64; x64; rv:88.0) Gecko/20100101 Firefox/88.0,,Firefox,88,Windows,10
66,1,null,"""",image-keyboard-response,82,757736,0.0-82.0,"""",jspsych/neutralFaces/AM28NES.JPG,"""",8,backwardMask,Practice,null,100,"""","""","""","""","""","""","""","""","""",4/20/2021 21:02,73.208.255.247,Mozilla/5.0 (Windows NT 10.0; Win64; x64; rv:88.0) Gecko/20100101 Firefox/88.0,,Firefox,88,Windows,10
66,1,null,"""",html-keyboard-response,83,758744,0.0-83.0,"""","<div style=""font-size:60px;"">+</div>","""",8,fixationBtwnNeutralMaskAndPrompt,Practice,null,1000,"""","""","""","""","""","""","""","""","""",4/20/2021 21:02,73.208.255.247,Mozilla/5.0 (Windows NT 10.0; Win64; x64; rv:88.0) Gecko/20100101 Firefox/88.0,,Firefox,88,Windows,10
66,1,1593,"""",html-button-response,84,760340,0.0-84.0,"""","<img src='jspsych/CFDfaces/CFD-AM-212-050-N.jpg'height=""250px""></br><b>Patrick</b>",0,8,IntactOrRearranged,Practice,"""","""","""","""",CFD-AM-212-050-N.jpg,Patrick,0,"""","""",0,"""",4/20/2021 21:02,73.208.255.247,Mozilla/5.0 (Windows NT 10.0; Win64; x64; rv:88.0) Gecko/20100101 Firefox/88.0,,Firefox,88,Windows,10
66,1,2326,"""",html-slider-response,85,762671,0.0-85.0,"""","<img src='jspsych/CFDfaces/CFD-AM-212-050-N.jpg'height=""250px""></br><b>Patrick</b>","""",8,ConfidenceQuery,Practice,"""","""","""","""",CFD-WM-222-057-N.jpg,Jesse,0,0,99,"""","""",4/20/2021 21:02,73.208.255.247,Mozilla/5.0 (Windows NT 10.0; Win64; x64; rv:88.0) Gecko/20100101 Firefox/88.0,,Firefox,88,Windows,10
66,1,1429,"""",html-button-response,86,764105,0.0-86.0,"""",You are Correct. You called an Intact Pair Intact,0,8,feedback,Practice,"""","""","""","""","""","""","""","""","""","""","""",4/20/2021 21:02,73.208.255.247,Mozilla/5.0 (Windows NT 10.0; Win64; x64; rv:88.0) Gecko/20100101 Firefox/88.0,,Firefox,88,Windows,10
66,1,9489,"""",image-button-response,87,773611,0.0-87.0,"""",directionsMemoryAssociation3.JPG,0,128,DirectionsBeforeActualTEst,Break,"""","""","""","""","""","""","""","""","""","""","""",4/20/2021 21:02,73.208.255.247,Mozilla/5.0 (Windows NT 10.0; Win64; x64; rv:88.0) Gecko/20100101 Firefox/88.0,,Firefox,88,Windows,10
66,1,6271,"""",image-button-response,88,779887,0.0-88.0,"""",directionsForTest2.JPG,0,1,directionsForTest2,break,"""","""","""","""","""","""","""","""","""","""","""",4/20/2021 21:02,73.208.255.247,Mozilla/5.0 (Windows NT 10.0; Win64; x64; rv:88.0) Gecko/20100101 Firefox/88.0,,Firefox,88,Windows,10
66,1,7702,"""",html-button-response,89,787592,0.0-89.0,"""","<p>You will be asked to memorize and then recall four sets of face-name pairs. </p> <p> Each set will have 32 pairs. </p> <p>After the fourth set, there will be a brief follow-up experiment (<40 min alltogether)</p>",0,"""","""","""","""","""","""","""","""","""","""","""","""","""","""",4/20/2021 21:02,73.208.255.247,Mozilla/5.0 (Windows NT 10.0; Win64; x64; rv:88.0) Gecko/20100101 Firefox/88.0,,Firefox,88,Windows,10
66,1,null,"""",html-keyboard-response,90,792615,0.0-90.0,"""","<img src='jspsych/CFDfaces/CFD-WF-207-014-N.jpg' height=""250px""></br><b>Kayla</b>","""",256,IntactFace,Memorization,null,5000,"""","""",CFD-LF-210-220-N.jpg,Laura,0,"""","""","""",1,4/20/2021 21:02,73.208.255.247,Mozilla/5.0 (Windows NT 10.0; Win64; x64; rv:88.0) Gecko/20100101 Firefox/88.0,,Firefox,88,Windows,10
66,1,null,"""",html-keyboard-response,91,793134,0.0-91.0,"""","<div style=""font-size:60px;"">+</div>","""",256,fixation,Memorization,null,500,"""","""","""","""","""","""","""","""",1,4/20/2021 21:02,73.208.255.247,Mozilla/5.0 (Windows NT 10.0; Win64; x64; rv:88.0) Gecko/20100101 Firefox/88.0,,Firefox,88,Windows,10
66,1,192,"""",html-keyboard-response,92,798149,0.0-92.0,"""","<img src='jspsych/CFDfaces/CFD-BM-018-001-N.jpg' height=""250px""></br><b>Christian</b>","""",256,IntactFace,Memorization,78,5000,n,"""",CFD-BM-011-016-N.jpg,Cameron,0,"""","""","""",1,4/20/2021 21:02,73.208.255.247,Mozilla/5.0 (Windows NT 10.0; Win64; x64; rv:88.0) Gecko/20100101 Firefox/88.0,,Firefox,88,Windows,10
66,1,null,"""",html-keyboard-response,93,798665,0.0-93.0,"""","<div style=""font-size:60px;"">+</div>","""",256,fixation,Memorization,null,500,"""","""","""","""","""","""","""","""",1,4/20/2021 21:02,73.208.255.247,Mozilla/5.0 (Windows NT 10.0; Win64; x64; rv:88.0) Gecko/20100101 Firefox/88.0,,Firefox,88,Windows,10
66,1,1925,"""",html-keyboard-response,94,803682,0.0-94.0,"""","<img src='jspsych/CFDfaces/CFD-LF-220-120-N.jpg' height=""250px""></br><b>Michelle</b>","""",256,IntactFace,Memorization,78,5000,n,"""",CFD-WF-024-003-N.jpg,Lauren,0,"""","""","""",1,4/20/2021 21:02,73.208.255.247,Mozilla/5.0 (Windows NT 10.0; Win64; x64; rv:88.0) Gecko/20100101 Firefox/88.0,,Firefox,88,Windows,10
66,1,null,"""",html-keyboard-response,95,804199,0.0-95.0,"""","<div style=""font-size:60px;"">+</div>","""",256,fixation,Memorization,null,500,"""","""","""","""","""","""","""","""",1,4/20/2021 21:02,73.208.255.247,Mozilla/5.0 (Windows NT 10.0; Win64; x64; rv:88.0) Gecko/20100101 Firefox/88.0,,Firefox,88,Windows,10
66,1,2617,"""",html-keyboard-response,96,809211,0.0-96.0,"""","<img src='jspsych/CFDfaces/CFD-LF-205-100-N.jpg' height=""250px""></br><b>Meghan</b>","""",256,IntactFace,Memorization,78,5000,n,"""",CFD-BF-209-172-N.jpg,Taylor,0,"""","""","""",1,4/20/2021 21:02,73.208.255.247,Mozilla/5.0 (Windows NT 10.0; Win64; x64; rv:88.0) Gecko/20100101 Firefox/88.0,,Firefox,88,Windows,10
66,1,null,"""",html-keyboard-response,97,809727,0.0-97.0,"""","<div style=""font-size:60px;"">+</div>","""",256,fixation,Memorization,null,500,"""","""","""","""","""","""","""","""",1,4/20/2021 21:02,73.208.255.247,Mozilla/5.0 (Windows NT 10.0; Win64; x64; rv:88.0) Gecko/20100101 Firefox/88.0,,Firefox,88,Windows,10
66,1,2649,"""",html-keyboard-response,98,814738,0.0-98.0,"""","<img src='jspsych/CFDfaces/CFD-BM-211-174-N.jpg' height=""250px""></br><b>Joshua</b>","""",256,IntactFace,Memorization,78,5000,n,"""",CFD-BM-208-065-N.jpg,Kenneth,0,"""","""","""",1,4/20/2021 21:02,73.208.255.247,Mozilla/5.0 (Windows NT 10.0; Win64; x64; rv:88.0) Gecko/20100101 Firefox/88.0,,Firefox,88,Windows,10
66,1,null,"""",html-keyboard-response,99,815255,0.0-99.0,"""","<div style=""font-size:60px;"">+</div>","""",256,fixation,Memorization,null,500,"""","""","""","""","""","""","""","""",1,4/20/2021 21:02,73.208.255.247,Mozilla/5.0 (Windows NT 10.0; Win64; x64; rv:88.0) Gecko/20100101 Firefox/88.0,,Firefox,88,Windows,10
66,1,1681,"""",html-keyboard-response,100,820262,0.0-100.0,"""","<img src='jspsych/CFDfaces/CFD-BM-029-024-N.jpg' height=""250px""></br><b>Richard</b>","""",256,IntactFace,Memorization,70,5000,f,"""",CFD-LF-200-058-N.jpg,Tiffany,0,"""","""","""",1,4/20/2021 21:02,73.208.255.247,Mozilla/5.0 (Windows NT 10.0; Win64; x64; rv:88.0) Gecko/20100101 Firefox/88.0,,Firefox,88,Windows,10
66,1,null,"""",html-keyboard-response,101,820775,0.0-101.0,"""","<div style=""font-size:60px;"">+</div>","""",256,fixation,Memorization,null,500,"""","""","""","""","""","""","""","""",1,4/20/2021 21:02,73.208.255.247,Mozilla/5.0 (Windows NT 10.0; Win64; x64; rv:88.0) Gecko/20100101 Firefox/88.0,,Firefox,88,Windows,10
66,1,1348,"""",html-keyboard-response,102,825779,0.0-102.0,"""","<img src='jspsych/CFDfaces/CFD-BF-047-003-N.jpg' height=""250px""></br><b>Elizabeth</b>","""",256,IntactFace,Memorization,78,5000,n,"""",CFD-WF-016-015-N.jpg,Rebecca,0,"""","""","""",1,4/20/2021 21:02,73.208.255.247,Mozilla/5.0 (Windows NT 10.0; Win64; x64; rv:88.0) Gecko/20100101 Firefox/88.0,,Firefox,88,Windows,10
66,1,null,"""",html-keyboard-response,103,826283,0.0-103.0,"""","<div style=""font-size:60px;"">+</div>","""",256,fixation,Memorization,null,500,"""","""","""","""","""","""","""","""",1,4/20/2021 21:02,73.208.255.247,Mozilla/5.0 (Windows NT 10.0; Win64; x64; rv:88.0) Gecko/20100101 Firefox/88.0,,Firefox,88,Windows,10
66,1,1347,"""",html-keyboard-response,104,831300,0.0-104.0,"""","<img src='jspsych/CFDfaces/CFD-AF-226-251-N.jpg' height=""250px""></br><b>Vanessa</b>","""",256,IntactFace,Memorization,70,5000,f,"""",CFD-WM-032-001-N.jpg,Vincent,0,"""","""","""",1,4/20/2021 21:02,73.208.255.247,Mozilla/5.0 (Windows NT 10.0; Win64; x64; rv:88.0) Gecko/20100101 Firefox/88.0,,Firefox,88,Windows,10
66,1,null,"""",html-keyboard-response,105,831817,0.0-105.0,"""","<div style=""font-size:60px;"">+</div>","""",256,fixation,Memorization,null,500,"""","""","""","""","""","""","""","""",1,4/20/2021 21:02,73.208.255.247,Mozilla/5.0 (Windows NT 10.0; Win64; x64; rv:88.0) Gecko/20100101 Firefox/88.0,,Firefox,88,Windows,10
66,1,2984,"""",html-keyboard-response,106,836821,0.0-106.0,"""","<img src='jspsych/CFDfaces/CFD-AM-207-108-N.jpg' height=""250px""></br><b>Daniel</b>","""",256,IntactFace,Memorization,78,5000,n,"""",CFD-AM-229-224-N.jpg,Justin,0,"""","""","""",1,4/20/2021 21:02,73.208.255.247,Mozilla/5.0 (Windows NT 10.0; Win64; x64; rv:88.0) Gecko/20100101 Firefox/88.0,,Firefox,88,Windows,10
66,1,null,"""",html-keyboard-response,107,837340,0.0-107.0,"""","<div style=""font-size:60px;"">+</div>","""",256,fixation,Memorization,null,500,"""","""","""","""","""","""","""","""",1,4/20/2021 21:02,73.208.255.247,Mozilla/5.0 (Windows NT 10.0; Win64; x64; rv:88.0) Gecko/20100101 Firefox/88.0,,Firefox,88,Windows,10
66,1,1541,"""",html-keyboard-response,108,842345,0.0-108.0,"""","<img src='jspsych/CFDfaces/CFD-WF-038-021-N.jpg' height=""250px""></br><b>Julie</b>","""",256,IntactFace,Memorization,70,5000,f,"""",CFD-WM-009-002-N.jpg,Steven,0,"""","""","""",1,4/20/2021 21:02,73.208.255.247,Mozilla/5.0 (Windows NT 10.0; Win64; x64; rv:88.0) Gecko/20100101 Firefox/88.0,,Firefox,88,Windows,10
66,1,null,"""",html-keyboard-response,109,842865,0.0-109.0,"""","<div style=""font-size:60px;"">+</div>","""",256,fixation,Memorization,null,500,"""","""","""","""","""","""","""","""",1,4/20/2021 21:02,73.208.255.247,Mozilla/5.0 (Windows NT 10.0; Win64; x64; rv:88.0) Gecko/20100101 Firefox/88.0,,Firefox,88,Windows,10
66,1,2100,"""",html-keyboard-response,110,847880,0.0-110.0,"""","<img src='jspsych/CFDfaces/CFD-BF-009-002-N.jpg' height=""250px""></br><b>Victoria</b>","""",256,IntactFace,Memorization,78,5000,n,"""",CFD-WF-006-002-N.jpg,Whitney,0,"""","""","""",1,4/20/2021 21:02,73.208.255.247,Mozilla/5.0 (Windows NT 10.0; Win64; x64; rv:88.0) Gecko/20100101 Firefox/88.0,,Firefox,88,Windows,10
66,1,null,"""",html-keyboard-response,111,848395,0.0-111.0,"""","<div style=""font-size:60px;"">+</div>","""",256,fixation,Memorization,null,500,"""","""","""","""","""","""","""","""",1,4/20/2021 21:02,73.208.255.247,Mozilla/5.0 (Windows NT 10.0; Win64; x64; rv:88.0) Gecko/20100101 Firefox/88.0,,Firefox,88,Windows,10
66,1,3027,"""",html-keyboard-response,112,853410,0.0-112.0,"""","<img src='jspsych/CFDfaces/CFD-AF-222-134-N.jpg' height=""250px""></br><b>Kimberly</b>","""",256,IntactFace,Memorization,70,5000,f,"""",CFD-WM-006-002-N.jpg,Luis,0,"""","""","""",1,4/20/2021 21:02,73.208.255.247,Mozilla/5.0 (Windows NT 10.0; Win64; x64; rv:88.0) Gecko/20100101 Firefox/88.0,,Firefox,88,Windows,10
66,1,null,"""",html-keyboard-response,113,853915,0.0-113.0,"""","<div style=""font-size:60px;"">+</div>","""",256,fixation,Memorization,null,500,"""","""","""","""","""","""","""","""",1,4/20/2021 21:02,73.208.255.247,Mozilla/5.0 (Windows NT 10.0; Win64; x64; rv:88.0) Gecko/20100101 Firefox/88.0,,Firefox,88,Windows,10
66,1,3886,"""",html-keyboard-response,114,858931,0.0-114.0,"""","<img src='jspsych/CFDfaces/CFD-LF-218-072-N.jpg' height=""250px""></br><b>Stephanie</b>","""",256,IntactFace,Memorization,78,5000,n,"""",CFD-LF-243-175-N.jpg,Sara,0,"""","""","""",1,4/20/2021 21:02,73.208.255.247,Mozilla/5.0 (Windows NT 10.0; Win64; x64; rv:88.0) Gecko/20100101 Firefox/88.0,,Firefox,88,Windows,10
66,1,null,"""",html-keyboard-response,115,859435,0.0-115.0,"""","<div style=""font-size:60px;"">+</div>","""",256,fixation,Memorization,null,500,"""","""","""","""","""","""","""","""",1,4/20/2021 21:02,73.208.255.247,Mozilla/5.0 (Windows NT 10.0; Win64; x64; rv:88.0) Gecko/20100101 Firefox/88.0,,Firefox,88,Windows,10
66,1,3772,"""",html-keyboard-response,116,864452,0.0-116.0,"""","<img src='jspsych/CFDfaces/CFD-AF-215-70-N.jpg' height=""250px""></br><b>Samantha</b>","""",256,IntactFace,Memorization,70,5000,f,"""",CFD-AM-243-212-N.jpg,Jacob,0,"""","""","""",1,4/20/2021 21:02,73.208.255.247,Mozilla/5.0 (Windows NT 10.0; Win64; x64; rv:88.0) Gecko/20100101 Firefox/88.0,,Firefox,88,Windows,10
66,1,null,"""",html-keyboard-response,117,864954,0.0-117.0,"""","<div style=""font-size:60px;"">+</div>","""",256,fixation,Memorization,null,500,"""","""","""","""","""","""","""","""",1,4/20/2021 21:02,73.208.255.247,Mozilla/5.0 (Windows NT 10.0; Win64; x64; rv:88.0) Gecko/20100101 Firefox/88.0,,Firefox,88,Windows,10
66,1,3433,"""",html-keyboard-response,118,869958,0.0-118.0,"""","<img src='jspsych/CFDfaces/CFD-AF-233-190-N.jpg' height=""250px""></br><b>Brittany</b>","""",256,IntactFace,Memorization,78,5000,n,"""",CFD-AF-208-003-N.jpg,Heather,0,"""","""","""",1,4/20/2021 21:02,73.208.255.247,Mozilla/5.0 (Windows NT 10.0; Win64; x64; rv:88.0) Gecko/20100101 Firefox/88.0,,Firefox,88,Windows,10
66,1,null,"""",html-keyboard-response,119,870478,0.0-119.0,"""","<div style=""font-size:60px;"">+</div>","""",256,fixation,Memorization,null,500,"""","""","""","""","""","""","""","""",1,4/20/2021 21:02,73.208.255.247,Mozilla/5.0 (Windows NT 10.0; Win64; x64; rv:88.0) Gecko/20100101 Firefox/88.0,,Firefox,88,Windows,10
66,1,3996,"""",html-keyboard-response,120,875489,0.0-120.0,"""","<img src='jspsych/CFDfaces/CFD-LM-233-171-N.jpg' height=""250px""></br><b>Gregory</b>","""",256,IntactFace,Memorization,70,5000,f,"""",CFD-BM-043-071-N.jpg,Sean,0,"""","""","""",1,4/20/2021 21:02,73.208.255.247,Mozilla/5.0 (Windows NT 10.0; Win64; x64; rv:88.0) Gecko/20100101 Firefox/88.0,,Firefox,88,Windows,10
66,1,null,"""",html-keyboard-response,121,876008,0.0-121.0,"""","<div style=""font-size:60px;"">+</div>","""",256,fixation,Memorization,null,500,"""","""","""","""","""","""","""","""",1,4/20/2021 21:02,73.208.255.247,Mozilla/5.0 (Windows NT 10.0; Win64; x64; rv:88.0) Gecko/20100101 Firefox/88.0,,Firefox,88,Windows,10
66,1,4038,"""",html-keyboard-response,122,881013,0.0-122.0,"""","<img src='jspsych/CFDfaces/CFD-BM-017-021-N.jpg' height=""250px""></br><b>James</b>","""",256,IntactFace,Memorization,70,5000,f,"""",CFD-LM-224-162-N.jpg,Ryan,0,"""","""","""",1,4/20/2021 21:02,73.208.255.247,Mozilla/5.0 (Windows NT 10.0; Win64; x64; rv:88.0) Gecko/20100101 Firefox/88.0,,Firefox,88,Windows,10
66,1,null,"""",html-keyboard-response,123,881515,0.0-123.0,"""","<div style=""font-size:60px;"">+</div>","""",256,fixation,Memorization,null,500,"""","""","""","""","""","""","""","""",1,4/20/2021 21:02,73.208.255.247,Mozilla/5.0 (Windows NT 10.0; Win64; x64; rv:88.0) Gecko/20100101 Firefox/88.0,,Firefox,88,Windows,10
66,1,3486,"""",html-keyboard-response,124,886523,0.0-124.0,"""","<img src='jspsych/CFDfaces/CFD-BF-005-001-N.jpg' height=""250px""></br><b>Andrea</b>","""",256,IntactFace,Memorization,70,5000,f,"""",CFD-LF-203-066-N.jpg,Jenna,0,"""","""","""",1,4/20/2021 21:02,73.208.255.247,Mozilla/5.0 (Windows NT 10.0; Win64; x64; rv:88.0) Gecko/20100101 Firefox/88.0,,Firefox,88,Windows,10
66,1,null,"""",html-keyboard-response,125,887039,0.0-125.0,"""","<div style=""font-size:60px;"">+</div>","""",256,fixation,Memorization,null,500,"""","""","""","""","""","""","""","""",1,4/20/2021 21:02,73.208.255.247,Mozilla/5.0 (Windows NT 10.0; Win64; x64; rv:88.0) Gecko/20100101 Firefox/88.0,,Firefox,88,Windows,10
66,1,1803,"""",html-keyboard-response,126,892044,0.0-126.0,"""","<img src='jspsych/CFDfaces/CFD-AF-242-158-N.jpg' height=""250px""></br><b>Christina</b>","""",256,IntactFace,Memorization,70,5000,f,"""",CFD-WF-202-056-N.jpg,Melissa,0,"""","""","""",1,4/20/2021 21:02,73.208.255.247,Mozilla/5.0 (Windows NT 10.0; Win64; x64; rv:88.0) Gecko/20100101 Firefox/88.0,,Firefox,88,Windows,10
66,1,null,"""",html-keyboard-response,127,892560,0.0-127.0,"""","<div style=""font-size:60px;"">+</div>","""",256,fixation,Memorization,null,500,"""","""","""","""","""","""","""","""",1,4/20/2021 21:02,73.208.255.247,Mozilla/5.0 (Windows NT 10.0; Win64; x64; rv:88.0) Gecko/20100101 Firefox/88.0,,Firefox,88,Windows,10
66,1,2661,"""",html-keyboard-response,128,897565,0.0-128.0,"""","<img src='jspsych/CFDfaces/CFD-AF-239-171-N.jpg' height=""250px""></br><b>Emily</b>","""",256,IntactFace,Memorization,70,5000,f,"""",CFD-LM-220-329-N.jpg,Timothy,0,"""","""","""",1,4/20/2021 21:02,73.208.255.247,Mozilla/5.0 (Windows NT 10.0; Win64; x64; rv:88.0) Gecko/20100101 Firefox/88.0,,Firefox,88,Windows,10
66,1,null,"""",html-keyboard-response,129,898068,0.0-129.0,"""","<div style=""font-size:60px;"">+</div>","""",256,fixation,Memorization,null,500,"""","""","""","""","""","""","""","""",1,4/20/2021 21:02,73.208.255.247,Mozilla/5.0 (Windows NT 10.0; Win64; x64; rv:88.0) Gecko/20100101 Firefox/88.0,,Firefox,88,Windows,10
66,1,1797,"""",html-keyboard-response,130,903079,0.0-130.0,"""","<img src='jspsych/CFDfaces/CFD-WF-029-002-N.jpg' height=""250px""></br><b>Ashley</b>","""",256,IntactFace,Memorization,70,5000,f,"""",CFD-WM-207-048-N.jpg,Austin,0,"""","""","""",1,4/20/2021 21:02,73.208.255.247,Mozilla/5.0 (Windows NT 10.0; Win64; x64; rv:88.0) Gecko/20100101 Firefox/88.0,,Firefox,88,Windows,10
66,1,null,"""",html-keyboard-response,131,903580,0.0-131.0,"""","<div style=""font-size:60px;"">+</div>","""",256,fixation,Memorization,null,500,"""","""","""","""","""","""","""","""",1,4/20/2021 21:02,73.208.255.247,Mozilla/5.0 (Windows NT 10.0; Win64; x64; rv:88.0) Gecko/20100101 Firefox/88.0,,Firefox,88,Windows,10
66,1,null,"""",html-keyboard-response,132,908595,0.0-132.0,"""","<img src='jspsych/CFDfaces/CFD-LM-225-130-N.jpg' height=""250px""></br><b>Eric</b>","""",256,IntactFace,Memorization,null,5000,"""","""",CFD-BM-032-024-N.jpg,Dustin,0,"""","""","""",1,4/20/2021 21:02,73.208.255.247,Mozilla/5.0 (Windows NT 10.0; Win64; x64; rv:88.0) Gecko/20100101 Firefox/88.0,,Firefox,88,Windows,10
66,1,null,"""",html-keyboard-response,133,909111,0.0-133.0,"""","<div style=""font-size:60px;"">+</div>","""",256,fixation,Memorization,null,500,"""","""","""","""","""","""","""","""",1,4/20/2021 21:02,73.208.255.247,Mozilla/5.0 (Windows NT 10.0; Win64; x64; rv:88.0) Gecko/20100101 Firefox/88.0,,Firefox,88,Windows,10
66,1,3871,"""",html-keyboard-response,134,914124,0.0-134.0,"""","<img src='jspsych/CFDfaces/CFD-WM-232-070-N.jpg' height=""250px""></br><b>Peter</b>","""",256,IntactFace,Memorization,78,5000,n,"""",CFD-LF-206-078-N.jpg,Lindsey,0,"""","""","""",1,4/20/2021 21:02,73.208.255.247,Mozilla/5.0 (Windows NT 10.0; Win64; x64; rv:88.0) Gecko/20100101 Firefox/88.0,,Firefox,88,Windows,10
66,1,null,"""",html-keyboard-response,135,914626,0.0-135.0,"""","<div style=""font-size:60px;"">+</div>","""",256,fixation,Memorization,null,500,"""","""","""","""","""","""","""","""",1,4/20/2021 21:02,73.208.255.247,Mozilla/5.0 (Windows NT 10.0; Win64; x64; rv:88.0) Gecko/20100101 Firefox/88.0,,Firefox,88,Windows,10
66,1,4441,"""",html-keyboard-response,136,919638,0.0-136.0,"""","<img src='jspsych/CFDfaces/CFD-BM-041-035-N.jpg' height=""250px""></br><b>Nicholas</b>","""",256,IntactFace,Memorization,70,5000,f,"""",CFD-AM-237-154-N.jpg,Jeremy,0,"""","""","""",1,4/20/2021 21:02,73.208.255.247,Mozilla/5.0 (Windows NT 10.0; Win64; x64; rv:88.0) Gecko/20100101 Firefox/88.0,,Firefox,88,Windows,10
66,1,null,"""",html-keyboard-response,137,920141,0.0-137.0,"""","<div style=""font-size:60px;"">+</div>","""",256,fixation,Memorization,null,500,"""","""","""","""","""","""","""","""",1,4/20/2021 21:02,73.208.255.247,Mozilla/5.0 (Windows NT 10.0; Win64; x64; rv:88.0) Gecko/20100101 Firefox/88.0,,Firefox,88,Windows,10
66,1,3550,"""",html-keyboard-response,138,925150,0.0-138.0,"""","<img src='jspsych/CFDfaces/CFD-WM-237-052-N.jpg' height=""250px""></br><b>Jeffrey</b>","""",256,IntactFace,Memorization,70,5000,f,"""",CFD-LM-221-216-N.jpg,Travis,0,"""","""","""",1,4/20/2021 21:02,73.208.255.247,Mozilla/5.0 (Windows NT 10.0; Win64; x64; rv:88.0) Gecko/20100101 Firefox/88.0,,Firefox,88,Windows,10
66,1,null,"""",html-keyboard-response,139,925667,0.0-139.0,"""","<div style=""font-size:60px;"">+</div>","""",256,fixation,Memorization,null,500,"""","""","""","""","""","""","""","""",1,4/20/2021 21:02,73.208.255.247,Mozilla/5.0 (Windows NT 10.0; Win64; x64; rv:88.0) Gecko/20100101 Firefox/88.0,,Firefox,88,Windows,10
66,1,2270,"""",html-keyboard-response,140,930684,0.0-140.0,"""","<img src='jspsych/CFDfaces/CFD-BM-027-001-N.jpg' height=""250px""></br><b>Juan</b>","""",256,IntactFace,Memorization,78,5000,n,"""",CFD-BF-201-080-N.jpg,Erin,0,"""","""","""",1,4/20/2021 21:02,73.208.255.247,Mozilla/5.0 (Windows NT 10.0; Win64; x64; rv:88.0) Gecko/20100101 Firefox/88.0,,Firefox,88,Windows,10
66,1,null,"""",html-keyboard-response,141,931201,0.0-141.0,"""","<div style=""font-size:60px;"">+</div>","""",256,fixation,Memorization,null,500,"""","""","""","""","""","""","""","""",1,4/20/2021 21:02,73.208.255.247,Mozilla/5.0 (Windows NT 10.0; Win64; x64; rv:88.0) Gecko/20100101 Firefox/88.0,,Firefox,88,Windows,10
66,1,2840,"""",html-keyboard-response,142,936219,0.0-142.0,"""","<img src='jspsych/CFDfaces/CFD-LM-217-162-N.jpg' height=""250px""></br><b>Ian</b>","""",256,IntactFace,Memorization,78,5000,n,"""",CFD-BF-004-014-N.jpg,Jordan,0,"""","""","""",1,4/20/2021 21:02,73.208.255.247,Mozilla/5.0 (Windows NT 10.0; Win64; x64; rv:88.0) Gecko/20100101 Firefox/88.0,,Firefox,88,Windows,10
66,1,null,"""",html-keyboard-response,143,936723,0.0-143.0,"""","<div style=""font-size:60px;"">+</div>","""",256,fixation,Memorization,null,500,"""","""","""","""","""","""","""","""",1,4/20/2021 21:02,73.208.255.247,Mozilla/5.0 (Windows NT 10.0; Win64; x64; rv:88.0) Gecko/20100101 Firefox/88.0,,Firefox,88,Windows,10
66,1,2981,"""",html-keyboard-response,144,941742,0.0-144.0,"""","<img src='jspsych/CFDfaces/CFD-AM-205-153-N.jpg' height=""250px""></br><b>Brandon</b>","""",256,IntactFace,Memorization,70,5000,f,"""",CFD-WM-222-057-N.jpg,Mark,0,"""","""","""",1,4/20/2021 21:02,73.208.255.247,Mozilla/5.0 (Windows NT 10.0; Win64; x64; rv:88.0) Gecko/20100101 Firefox/88.0,,Firefox,88,Windows,10
66,1,null,"""",html-keyboard-response,145,942259,0.0-145.0,"""","<div style=""font-size:60px;"">+</div>","""",256,fixation,Memorization,null,500,"""","""","""","""","""","""","""","""",1,4/20/2021 21:02,73.208.255.247,Mozilla/5.0 (Windows NT 10.0; Win64; x64; rv:88.0) Gecko/20100101 Firefox/88.0,,Firefox,88,Windows,10
66,1,3603,"""",html-keyboard-response,146,947269,0.0-146.0,"""","<img src='jspsych/CFDfaces/CFD-BF-001-025-N.jpg' height=""250px""></br><b>Amanda</b>","""",256,IntactFace,Memorization,78,5000,n,"""",CFD-BF-039-031-N.jpg,Amy,0,"""","""","""",1,4/20/2021 21:02,73.208.255.247,Mozilla/5.0 (Windows NT 10.0; Win64; x64; rv:88.0) Gecko/20100101 Firefox/88.0,,Firefox,88,Windows,10
66,1,null,"""",html-keyboard-response,147,947782,0.0-147.0,"""","<div style=""font-size:60px;"">+</div>","""",256,fixation,Memorization,null,500,"""","""","""","""","""","""","""","""",1,4/20/2021 21:02,73.208.255.247,Mozilla/5.0 (Windows NT 10.0; Win64; x64; rv:88.0) Gecko/20100101 Firefox/88.0,,Firefox,88,Windows,10
66,1,2214,"""",html-keyboard-response,148,952797,0.0-148.0,"""","<img src='jspsych/CFDfaces/CFD-AM-202-079-N.jpg' height=""250px""></br><b>Robert</b>","""",256,IntactFace,Memorization,78,5000,n,"""",CFD-LF-208-127-N.jpg,Jasmine,0,"""","""","""",1,4/20/2021 21:02,73.208.255.247,Mozilla/5.0 (Windows NT 10.0; Win64; x64; rv:88.0) Gecko/20100101 Firefox/88.0,,Firefox,88,Windows,10
66,1,null,"""",html-keyboard-response,149,953301,0.0-149.0,"""","<div style=""font-size:60px;"">+</div>","""",256,fixation,Memorization,null,500,"""","""","""","""","""","""","""","""",1,4/20/2021 21:02,73.208.255.247,Mozilla/5.0 (Windows NT 10.0; Win64; x64; rv:88.0) Gecko/20100101 Firefox/88.0,,Firefox,88,Windows,10
66,1,2368,"""",html-keyboard-response,150,958317,0.0-150.0,"""","<img src='jspsych/CFDfaces/CFD-AM-228-214-N.jpg' height=""250px""></br><b>Brian</b>","""",256,IntactFace,Memorization,70,5000,f,"""",CFD-LM-223-175-N.jpg,Jesse,0,"""","""","""",1,4/20/2021 21:02,73.208.255.247,Mozilla/5.0 (Windows NT 10.0; Win64; x64; rv:88.0) Gecko/20100101 Firefox/88.0,,Firefox,88,Windows,10
66,1,null,"""",html-keyboard-response,151,958837,0.0-151.0,"""","<div style=""font-size:60px;"">+</div>","""",256,fixation,Memorization,null,500,"""","""","""","""","""","""","""","""",1,4/20/2021 21:02,73.208.255.247,Mozilla/5.0 (Windows NT 10.0; Win64; x64; rv:88.0) Gecko/20100101 Firefox/88.0,,Firefox,88,Windows,10
66,1,1733,"""",html-keyboard-response,152,963842,0.0-152.0,"""","<img src='jspsych/CFDfaces/CFD-AM-248-104-N.jpg' height=""250px""></br><b>Jason</b>","""",256,IntactFace,Memorization,78,5000,n,"""",CFD-WF-200-099-N.jpg,Angela,0,"""","""","""",1,4/20/2021 21:02,73.208.255.247,Mozilla/5.0 (Windows NT 10.0; Win64; x64; rv:88.0) Gecko/20100101 Firefox/88.0,,Firefox,88,Windows,10
66,1,null,"""",html-keyboard-response,153,964346,0.0-153.0,"""","<div style=""font-size:60px;"">+</div>","""",256,fixation,Memorization,null,500,"""","""","""","""","""","""","""","""",1,4/20/2021 21:02,73.208.255.247,Mozilla/5.0 (Windows NT 10.0; Win64; x64; rv:88.0) Gecko/20100101 Firefox/88.0,,Firefox,88,Windows,10
66,1,2456,"""",html-keyboard-response,154,966804,0.0-154.0,"""",Press Any Key to Begin Memory Test,"""",1,welcomeScreen,Break,70,"""","""","""","""","""","""","""","""","""",1,4/20/2021 21:02,73.208.255.247,Mozilla/5.0 (Windows NT 10.0; Win64; x64; rv:88.0) Gecko/20100101 Firefox/88.0,,Firefox,88,Windows,10
66,1,null,"""",html-keyboard-response,155,967815,0.0-155.0,"""","<div style=""font-size:60px;"">+</div>","""",256,ITI,Test,null,1000,"""","""","""","""","""","""","""","""",1,4/20/2021 21:02,73.208.255.247,Mozilla/5.0 (Windows NT 10.0; Win64; x64; rv:88.0) Gecko/20100101 Firefox/88.0,,Firefox,88,Windows,10
66,1,null,"""",image-keyboard-response,156,968084,0.0-156.0,"""",jspsych/scrambledDisgustFaces/scrambledBF10DIS.JPG,"""",256,forwardMask,Test,null,250,"""",d,"""","""","""","""","""","""",1,4/20/2021 21:02,73.208.255.247,Mozilla/5.0 (Windows NT 10.0; Win64; x64; rv:88.0) Gecko/20100101 Firefox/88.0,,Firefox,88,Windows,10
66,1,null,"""",image-keyboard-response,157,968114,0.0-157.0,"""",jspsych/disgustFaces/BF10DIS.JPG,"""",256,Cue,Test,null,16,"""","""","""","""","""","""","""","""",1,4/20/2021 21:02,73.208.255.247,Mozilla/5.0 (Windows NT 10.0; Win64; x64; rv:88.0) Gecko/20100101 Firefox/88.0,,Firefox,88,Windows,10
66,1,null,"""",image-keyboard-response,158,968224,0.0-158.0,"""",jspsych/neutralFaces/BF35NES.JPG,"""",256,backwardMask,Test,null,100,"""","""","""","""","""","""","""","""",1,4/20/2021 21:02,73.208.255.247,Mozilla/5.0 (Windows NT 10.0; Win64; x64; rv:88.0) Gecko/20100101 Firefox/88.0,,Firefox,88,Windows,10
66,1,null,"""",html-keyboard-response,159,969233,0.0-159.0,"""","<div style=""font-size:60px;"">+</div>","""",256,fixationBtwnNeutralMaskAndPrompt,Test,null,1000,"""","""","""","""","""","""","""","""",1,4/20/2021 21:02,73.208.255.247,Mozilla/5.0 (Windows NT 10.0; Win64; x64; rv:88.0) Gecko/20100101 Firefox/88.0,,Firefox,88,Windows,10
66,1,3202,"""",html-button-response,160,972436,0.0-160.0,"""","<img src='jspsych/CFDfaces/CFD-BM-027-001-N.jpg' height=""250px"">,</br><b>Juan</b>",1,256,IntactOrRearranged,Test,"""","""","""","""",CFD-LF-208-127-N.jpg,Angela,0,"""","""",1,1,4/20/2021 21:02,73.208.255.247,Mozilla/5.0 (Windows NT 10.0; Win64; x64; rv:88.0) Gecko/20100101 Firefox/88.0,,Firefox,88,Windows,10
66,1,1869,"""",html-slider-response,161,974312,0.0-161.0,"""","<img src='jspsych/CFDfaces/CFD-BM-027-001-N.jpg' height=""250px"">,</br><b>Juan</b>","""",256,ConfidenceQuery,Test,"""","""","""","""",CFD-LF-208-127-N.jpg,Angela,0,0,82,"""",1,4/20/2021 21:02,73.208.255.247,Mozilla/5.0 (Windows NT 10.0; Win64; x64; rv:88.0) Gecko/20100101 Firefox/88.0,,Firefox,88,Windows,10
66,1,null,"""",html-keyboard-response,162,975324,0.0-162.0,"""","<div style=""font-size:60px;"">+</div>","""",256,ITI,Test,null,1000,"""","""","""","""","""","""","""","""",1,4/20/2021 21:02,73.208.255.247,Mozilla/5.0 (Windows NT 10.0; Win64; x64; rv:88.0) Gecko/20100101 Firefox/88.0,,Firefox,88,Windows,10
66,1,null,"""",image-keyboard-response,163,975591,0.0-163.0,"""",jspsych/scrambledDisgustFaces/scrambledAM11DIS.JPG,"""",256,forwardMask,Test,null,250,"""",d,"""","""","""","""","""","""",1,4/20/2021 21:02,73.208.255.247,Mozilla/5.0 (Windows NT 10.0; Win64; x64; rv:88.0) Gecko/20100101 Firefox/88.0,,Firefox,88,Windows,10
66,1,null,"""",image-keyboard-response,164,975621,0.0-164.0,"""",jspsych/disgustFaces/AM11DIS.JPG,"""",256,Cue,Test,null,16,"""","""","""","""","""","""","""","""",1,4/20/2021 21:02,73.208.255.247,Mozilla/5.0 (Windows NT 10.0; Win64; x64; rv:88.0) Gecko/20100101 Firefox/88.0,,Firefox,88,Windows,10
66,1,null,"""",image-keyboard-response,165,975731,0.0-165.0,"""",jspsych/neutralFaces/BM23NES.JPG,"""",256,backwardMask,Test,null,100,"""","""","""","""","""","""","""","""",1,4/20/2021 21:02,73.208.255.247,Mozilla/5.0 (Windows NT 10.0; Win64; x64; rv:88.0) Gecko/20100101 Firefox/88.0,,Firefox,88,Windows,10
66,1,null,"""",html-keyboard-response,166,976745,0.0-166.0,"""","<div style=""font-size:60px;"">+</div>","""",256,fixationBtwnNeutralMaskAndPrompt,Test,null,1000,"""","""","""","""","""","""","""","""",1,4/20/2021 21:02,73.208.255.247,Mozilla/5.0 (Windows NT 10.0; Win64; x64; rv:88.0) Gecko/20100101 Firefox/88.0,,Firefox,88,Windows,10
66,1,2217,"""",html-button-response,167,978964,0.0-167.0,"""","<img src='jspsych/CFDfaces/CFD-BF-001-025-N.jpg' height=""250px"">,</br><b>Christina</b>",1,256,IntactOrRearranged,Test,"""","""","""","""",CFD-WF-006-002-N.jpg,Whitney,1,"""","""",1,1,4/20/2021 21:02,73.208.255.247,Mozilla/5.0 (Windows NT 10.0; Win64; x64; rv:88.0) Gecko/20100101 Firefox/88.0,,Firefox,88,Windows,10
66,1,3214,"""",html-slider-response,168,982192,0.0-168.0,"""","<img src='jspsych/CFDfaces/CFD-BF-001-025-N.jpg' height=""250px"">,</br><b>Christina</b>","""",256,ConfidenceQuery,Test,"""","""","""","""",CFD-WF-006-002-N.jpg,Whitney,1,0,51,"""",1,4/20/2021 21:02,73.208.255.247,Mozilla/5.0 (Windows NT 10.0; Win64; x64; rv:88.0) Gecko/20100101 Firefox/88.0,,Firefox,88,Windows,10
66,1,null,"""",html-keyboard-response,169,983204,0.0-169.0,"""","<div style=""font-size:60px;"">+</div>","""",256,ITI,Test,null,1000,"""","""","""","""","""","""","""","""",1,4/20/2021 21:02,73.208.255.247,Mozilla/5.0 (Windows NT 10.0; Win64; x64; rv:88.0) Gecko/20100101 Firefox/88.0,,Firefox,88,Windows,10
66,1,null,"""",image-keyboard-response,170,983469,0.0-170.0,"""",jspsych/scrambledDisgustFaces/scrambledAF21DIS.JPG,"""",256,forwardMask,Test,null,250,"""",d,"""","""","""","""","""","""",1,4/20/2021 21:02,73.208.255.247,Mozilla/5.0 (Windows NT 10.0; Win64; x64; rv:88.0) Gecko/20100101 Firefox/88.0,,Firefox,88,Windows,10
66,1,null,"""",image-keyboard-response,171,983499,0.0-171.0,"""",jspsych/disgustFaces/AF21DIS.JPG,"""",256,Cue,Test,null,16,"""","""","""","""","""","""","""","""",1,4/20/2021 21:02,73.208.255.247,Mozilla/5.0 (Windows NT 10.0; Win64; x64; rv:88.0) Gecko/20100101 Firefox/88.0,,Firefox,88,Windows,10
66,1,null,"""",image-keyboard-response,172,983609,0.0-172.0,"""",jspsych/neutralFaces/BF33NES.JPG,"""",256,backwardMask,Test,null,100,"""","""","""","""","""","""","""","""",1,4/20/2021 21:02,73.208.255.247,Mozilla/5.0 (Windows NT 10.0; Win64; x64; rv:88.0) Gecko/20100101 Firefox/88.0,,Firefox,88,Windows,10
66,1,null,"""",html-keyboard-response,173,984617,0.0-173.0,"""","<div style=""font-size:60px;"">+</div>","""",256,fixationBtwnNeutralMaskAndPrompt,Test,null,1000,"""","""","""","""","""","""","""","""",1,4/20/2021 21:02,73.208.255.247,Mozilla/5.0 (Windows NT 10.0; Win64; x64; rv:88.0) Gecko/20100101 Firefox/88.0,,Firefox,88,Windows,10
66,1,1639,"""",html-button-response,174,986258,0.0-174.0,"""","<img src='jspsych/CFDfaces/CFD-LF-205-100-N.jpg' height=""250px"">,</br><b>Meghan</b>",1,256,IntactOrRearranged,Test,"""","""","""","""",CFD-WM-032-001-N.jpg,Vincent,0,"""","""",1,1,4/20/2021 21:02,73.208.255.247,Mozilla/5.0 (Windows NT 10.0; Win64; x64; rv:88.0) Gecko/20100101 Firefox/88.0,,Firefox,88,Windows,10
66,1,2386,"""",html-slider-response,175,988647,0.0-175.0,"""","<img src='jspsych/CFDfaces/CFD-LF-205-100-N.jpg' height=""250px"">,</br><b>Meghan</b>","""",256,ConfidenceQuery,Test,"""","""","""","""",CFD-WM-032-001-N.jpg,Vincent,0,0,100,"""",1,4/20/2021 21:02,73.208.255.247,Mozilla/5.0 (Windows NT 10.0; Win64; x64; rv:88.0) Gecko/20100101 Firefox/88.0,,Firefox,88,Windows,10
66,1,null,"""",html-keyboard-response,176,989654,0.0-176.0,"""","<div style=""font-size:60px;"">+</div>","""",256,ITI,Test,null,1000,"""","""","""","""","""","""","""","""",1,4/20/2021 21:02,73.208.255.247,Mozilla/5.0 (Windows NT 10.0; Win64; x64; rv:88.0) Gecko/20100101 Firefox/88.0,,Firefox,88,Windows,10
66,1,null,"""",image-keyboard-response,177,989921,0.0-177.0,"""",jspsych/scrambledDisgustFaces/scrambledBF27DIS.JPG,"""",256,forwardMask,Test,null,250,"""",d,"""","""","""","""","""","""",1,4/20/2021 21:02,73.208.255.247,Mozilla/5.0 (Windows NT 10.0; Win64; x64; rv:88.0) Gecko/20100101 Firefox/88.0,,Firefox,88,Windows,10
66,1,null,"""",image-keyboard-response,178,989953,0.0-178.0,"""",jspsych/disgustFaces/BF27DIS.JPG,"""",256,Cue,Test,null,16,"""","""","""","""","""","""","""","""",1,4/20/2021 21:02,73.208.255.247,Mozilla/5.0 (Windows NT 10.0; Win64; x64; rv:88.0) Gecko/20100101 Firefox/88.0,,Firefox,88,Windows,10
66,1,null,"""",image-keyboard-response,179,990064,0.0-179.0,"""",jspsych/neutralFaces/AF06NES.JPG,"""",256,backwardMask,Test,null,100,"""","""","""","""","""","""","""","""",1,4/20/2021 21:02,73.208.255.247,Mozilla/5.0 (Windows NT 10.0; Win64; x64; rv:88.0) Gecko/20100101 Firefox/88.0,,Firefox,88,Windows,10
66,1,null,"""",html-keyboard-response,180,991069,0.0-180.0,"""","<div style=""font-size:60px;"">+</div>","""",256,fixationBtwnNeutralMaskAndPrompt,Test,null,1000,"""","""","""","""","""","""","""","""",1,4/20/2021 21:02,73.208.255.247,Mozilla/5.0 (Windows NT 10.0; Win64; x64; rv:88.0) Gecko/20100101 Firefox/88.0,,Firefox,88,Windows,10
66,1,3408,"""",html-button-response,181,994479,0.0-181.0,"""","<img src='jspsych/CFDfaces/CFD-BF-047-003-N.jpg' height=""250px"">,</br><b>Kimberly</b>",0,256,IntactOrRearranged,Test,"""","""","""","""",CFD-BF-039-031-N.jpg,Amy,1,"""","""",0,1,4/20/2021 21:02,73.208.255.247,Mozilla/5.0 (Windows NT 10.0; Win64; x64; rv:88.0) Gecko/20100101 Firefox/88.0,,Firefox,88,Windows,10
66,1,3211,"""",html-slider-response,182,997698,0.0-182.0,"""","<img src='jspsych/CFDfaces/CFD-BF-047-003-N.jpg' height=""250px"">,</br><b>Kimberly</b>","""",256,ConfidenceQuery,Test,"""","""","""","""",CFD-BF-039-031-N.jpg,Amy,1,0,43,"""",1,4/20/2021 21:02,73.208.255.247,Mozilla/5.0 (Windows NT 10.0; Win64; x64; rv:88.0) Gecko/20100101 Firefox/88.0,,Firefox,88,Windows,10
66,1,null,"""",html-keyboard-response,183,998701,0.0-183.0,"""","<div style=""font-size:60px;"">+</div>","""",256,ITI,Test,null,1000,"""","""","""","""","""","""","""","""",1,4/20/2021 21:02,73.208.255.247,Mozilla/5.0 (Windows NT 10.0; Win64; x64; rv:88.0) Gecko/20100101 Firefox/88.0,,Firefox,88,Windows,10
66,1,null,"""",image-keyboard-response,184,998965,0.0-184.0,"""",jspsych/scrambledNeutralFaces/scrambledBF06NES.JPG,"""",256,forwardMask,Test,null,250,"""",n,"""","""","""","""","""","""",1,4/20/2021 21:02,73.208.255.247,Mozilla/5.0 (Windows NT 10.0; Win64; x64; rv:88.0) Gecko/20100101 Firefox/88.0,,Firefox,88,Windows,10
66,1,null,"""",image-keyboard-response,185,998996,0.0-185.0,"""",jspsych/neutralFaces/BF06NES.JPG,"""",256,Cue,Test,null,16,"""","""","""","""","""","""","""","""",1,4/20/2021 21:02,73.208.255.247,Mozilla/5.0 (Windows NT 10.0; Win64; x64; rv:88.0) Gecko/20100101 Firefox/88.0,,Firefox,88,Windows,10
66,1,null,"""",image-keyboard-response,186,999105,0.0-186.0,"""",jspsych/neutralFaces/AF26NES.JPG,"""",256,backwardMask,Test,null,100,"""","""","""","""","""","""","""","""",1,4/20/2021 21:02,73.208.255.247,Mozilla/5.0 (Windows NT 10.0; Win64; x64; rv:88.0) Gecko/20100101 Firefox/88.0,,Firefox,88,Windows,10
66,1,null,"""",html-keyboard-response,187,1000122,0.0-187.0,"""","<div style=""font-size:60px;"">+</div>","""",256,fixationBtwnNeutralMaskAndPrompt,Test,null,1000,"""","""","""","""","""","""","""","""",1,4/20/2021 21:02,73.208.255.247,Mozilla/5.0 (Windows NT 10.0; Win64; x64; rv:88.0) Gecko/20100101 Firefox/88.0,,Firefox,88,Windows,10
66,1,3033,"""",html-button-response,188,1003155,0.0-188.0,"""","<img src='jspsych/CFDfaces/CFD-AM-207-108-N.jpg' height=""250px"">,</br><b>James</b>",1,256,IntactOrRearranged,Test,"""","""","""","""",CFD-LM-221-216-N.jpg,Travis,1,"""","""",1,1,4/20/2021 21:02,73.208.255.247,Mozilla/5.0 (Windows NT 10.0; Win64; x64; rv:88.0) Gecko/20100101 Firefox/88.0,,Firefox,88,Windows,10
66,1,1938,"""",html-slider-response,189,1005096,0.0-189.0,"""","<img src='jspsych/CFDfaces/CFD-AM-207-108-N.jpg' height=""250px"">,</br><b>James</b>","""",256,ConfidenceQuery,Test,"""","""","""","""",CFD-LM-221-216-N.jpg,Travis,1,0,78,"""",1,4/20/2021 21:02,73.208.255.247,Mozilla/5.0 (Windows NT 10.0; Win64; x64; rv:88.0) Gecko/20100101 Firefox/88.0,,Firefox,88,Windows,10
66,1,null,"""",html-keyboard-response,190,1006104,0.0-190.0,"""","<div style=""font-size:60px;"">+</div>","""",256,ITI,Test,null,1000,"""","""","""","""","""","""","""","""",1,4/20/2021 21:02,73.208.255.247,Mozilla/5.0 (Windows NT 10.0; Win64; x64; rv:88.0) Gecko/20100101 Firefox/88.0,,Firefox,88,Windows,10
66,1,null,"""",image-keyboard-response,191,1006369,0.0-191.0,"""",jspsych/scrambledNeutralFaces/scrambledAF07NES.JPG,"""",256,forwardMask,Test,null,250,"""",n,"""","""","""","""","""","""",1,4/20/2021 21:02,73.208.255.247,Mozilla/5.0 (Windows NT 10.0; Win64; x64; rv:88.0) Gecko/20100101 Firefox/88.0,,Firefox,88,Windows,10
66,1,null,"""",image-keyboard-response,192,1006400,0.0-192.0,"""",jspsych/neutralFaces/AF07NES.JPG,"""",256,Cue,Test,null,16,"""","""","""","""","""","""","""","""",1,4/20/2021 21:02,73.208.255.247,Mozilla/5.0 (Windows NT 10.0; Win64; x64; rv:88.0) Gecko/20100101 Firefox/88.0,,Firefox,88,Windows,10
66,1,null,"""",image-keyboard-response,193,1006511,0.0-193.0,"""",jspsych/neutralFaces/BF16NES.JPG,"""",256,backwardMask,Test,null,100,"""","""","""","""","""","""","""","""",1,4/20/2021 21:02,73.208.255.247,Mozilla/5.0 (Windows NT 10.0; Win64; x64; rv:88.0) Gecko/20100101 Firefox/88.0,,Firefox,88,Windows,10
66,1,null,"""",html-keyboard-response,194,1007525,0.0-194.0,"""","<div style=""font-size:60px;"">+</div>","""",256,fixationBtwnNeutralMaskAndPrompt,Test,null,1000,"""","""","""","""","""","""","""","""",1,4/20/2021 21:02,73.208.255.247,Mozilla/5.0 (Windows NT 10.0; Win64; x64; rv:88.0) Gecko/20100101 Firefox/88.0,,Firefox,88,Windows,10
66,1,3629,"""",html-button-response,195,1011156,0.0-195.0,"""","<img src='jspsych/CFDfaces/CFD-LF-220-120-N.jpg' height=""250px"">,</br><b>Michelle</b>",1,256,IntactOrRearranged,Test,"""","""","""","""",CFD-LM-224-162-N.jpg,Cameron,0,"""","""",1,1,4/20/2021 21:02,73.208.255.247,Mozilla/5.0 (Windows NT 10.0; Win64; x64; rv:88.0) Gecko/20100101 Firefox/88.0,,Firefox,88,Windows,10
66,1,2112,"""",html-slider-response,196,1013272,0.0-196.0,"""","<img src='jspsych/CFDfaces/CFD-LF-220-120-N.jpg' height=""250px"">,</br><b>Michelle</b>","""",256,ConfidenceQuery,Test,"""","""","""","""",CFD-LM-224-162-N.jpg,Cameron,0,0,67,"""",1,4/20/2021 21:02,73.208.255.247,Mozilla/5.0 (Windows NT 10.0; Win64; x64; rv:88.0) Gecko/20100101 Firefox/88.0,,Firefox,88,Windows,10
66,1,null,"""",html-keyboard-response,197,1014275,0.0-197.0,"""","<div style=""font-size:60px;"">+</div>","""",256,ITI,Test,null,1000,"""","""","""","""","""","""","""","""",1,4/20/2021 21:02,73.208.255.247,Mozilla/5.0 (Windows NT 10.0; Win64; x64; rv:88.0) Gecko/20100101 Firefox/88.0,,Firefox,88,Windows,10
66,1,null,"""",image-keyboard-response,198,1014541,0.0-198.0,"""",jspsych/scrambledDisgustFaces/scrambledBF20DIS.JPG,"""",256,forwardMask,Test,null,250,"""",d,"""","""","""","""","""","""",1,4/20/2021 21:02,73.208.255.247,Mozilla/5.0 (Windows NT 10.0; Win64; x64; rv:88.0) Gecko/20100101 Firefox/88.0,,Firefox,88,Windows,10
66,1,null,"""",image-keyboard-response,199,1014572,0.0-199.0,"""",jspsych/disgustFaces/BF20DIS.JPG,"""",256,Cue,Test,null,16,"""","""","""","""","""","""","""","""",1,4/20/2021 21:02,73.208.255.247,Mozilla/5.0 (Windows NT 10.0; Win64; x64; rv:88.0) Gecko/20100101 Firefox/88.0,,Firefox,88,Windows,10
66,1,null,"""",image-keyboard-response,200,1014682,0.0-200.0,"""",jspsych/neutralFaces/AF32NES.JPG,"""",256,backwardMask,Test,null,100,"""","""","""","""","""","""","""","""",1,4/20/2021 21:02,73.208.255.247,Mozilla/5.0 (Windows NT 10.0; Win64; x64; rv:88.0) Gecko/20100101 Firefox/88.0,,Firefox,88,Windows,10
66,1,null,"""",html-keyboard-response,201,1015689,0.0-201.0,"""","<div style=""font-size:60px;"">+</div>","""",256,fixationBtwnNeutralMaskAndPrompt,Test,null,1000,"""","""","""","""","""","""","""","""",1,4/20/2021 21:02,73.208.255.247,Mozilla/5.0 (Windows NT 10.0; Win64; x64; rv:88.0) Gecko/20100101 Firefox/88.0,,Firefox,88,Windows,10
66,1,4284,"""",html-button-response,202,1019976,0.0-202.0,"""","<img src='jspsych/CFDfaces/CFD-BM-029-024-N.jpg' height=""250px"">,</br><b>Christian</b>",1,256,IntactOrRearranged,Test,"""","""","""","""",CFD-BM-043-071-N.jpg,Sean,1,"""","""",1,1,4/20/2021 21:02,73.208.255.247,Mozilla/5.0 (Windows NT 10.0; Win64; x64; rv:88.0) Gecko/20100101 Firefox/88.0,,Firefox,88,Windows,10
66,1,1986,"""",html-slider-response,203,1021970,0.0-203.0,"""","<img src='jspsych/CFDfaces/CFD-BM-029-024-N.jpg' height=""250px"">,</br><b>Christian</b>","""",256,ConfidenceQuery,Test,"""","""","""","""",CFD-BM-043-071-N.jpg,Sean,1,0,99,"""",1,4/20/2021 21:02,73.208.255.247,Mozilla/5.0 (Windows NT 10.0; Win64; x64; rv:88.0) Gecko/20100101 Firefox/88.0,,Firefox,88,Windows,10
66,1,null,"""",html-keyboard-response,204,1022985,0.0-204.0,"""","<div style=""font-size:60px;"">+</div>","""",256,ITI,Test,null,1000,"""","""","""","""","""","""","""","""",1,4/20/2021 21:02,73.208.255.247,Mozilla/5.0 (Windows NT 10.0; Win64; x64; rv:88.0) Gecko/20100101 Firefox/88.0,,Firefox,88,Windows,10
66,1,null,"""",image-keyboard-response,205,1023252,0.0-205.0,"""",jspsych/scrambledNeutralFaces/scrambledBM10NES.JPG,"""",256,forwardMask,Test,null,250,"""",n,"""","""","""","""","""","""",1,4/20/2021 21:02,73.208.255.247,Mozilla/5.0 (Windows NT 10.0; Win64; x64; rv:88.0) Gecko/20100101 Firefox/88.0,,Firefox,88,Windows,10
66,1,null,"""",image-keyboard-response,206,1023282,0.0-206.0,"""",jspsych/neutralFaces/BM10NES.JPG,"""",256,Cue,Test,null,16,"""","""","""","""","""","""","""","""",1,4/20/2021 21:02,73.208.255.247,Mozilla/5.0 (Windows NT 10.0; Win64; x64; rv:88.0) Gecko/20100101 Firefox/88.0,,Firefox,88,Windows,10
66,1,null,"""",image-keyboard-response,207,1023391,0.0-207.0,"""",jspsych/neutralFaces/AM28NES.JPG,"""",256,backwardMask,Test,null,100,"""","""","""","""","""","""","""","""",1,4/20/2021 21:02,73.208.255.247,Mozilla/5.0 (Windows NT 10.0; Win64; x64; rv:88.0) Gecko/20100101 Firefox/88.0,,Firefox,88,Windows,10
66,1,null,"""",html-keyboard-response,208,1024399,0.0-208.0,"""","<div style=""font-size:60px;"">+</div>","""",256,fixationBtwnNeutralMaskAndPrompt,Test,null,1000,"""","""","""","""","""","""","""","""",1,4/20/2021 21:02,73.208.255.247,Mozilla/5.0 (Windows NT 10.0; Win64; x64; rv:88.0) Gecko/20100101 Firefox/88.0,,Firefox,88,Windows,10
66,1,3176,"""",html-button-response,209,1027577,0.0-209.0,"""","<img src='jspsych/CFDfaces/CFD-WM-232-070-N.jpg' height=""250px"">,</br><b>Peter</b>",0,256,IntactOrRearranged,Test,"""","""","""","""",CFD-WM-006-002-N.jpg,Luis,0,"""","""",0,1,4/20/2021 21:02,73.208.255.247,Mozilla/5.0 (Windows NT 10.0; Win64; x64; rv:88.0) Gecko/20100101 Firefox/88.0,,Firefox,88,Windows,10
66,1,2882,"""",html-slider-response,210,1030476,0.0-210.0,"""","<img src='jspsych/CFDfaces/CFD-WM-232-070-N.jpg' height=""250px"">,</br><b>Peter</b>","""",256,ConfidenceQuery,Test,"""","""","""","""",CFD-WM-006-002-N.jpg,Luis,0,0,29,"""",1,4/20/2021 21:02,73.208.255.247,Mozilla/5.0 (Windows NT 10.0; Win64; x64; rv:88.0) Gecko/20100101 Firefox/88.0,,Firefox,88,Windows,10
66,1,null,"""",html-keyboard-response,211,1031485,0.0-211.0,"""","<div style=""font-size:60px;"">+</div>","""",256,ITI,Test,null,1000,"""","""","""","""","""","""","""","""",1,4/20/2021 21:02,73.208.255.247,Mozilla/5.0 (Windows NT 10.0; Win64; x64; rv:88.0) Gecko/20100101 Firefox/88.0,,Firefox,88,Windows,10
66,1,null,"""",image-keyboard-response,212,1031749,0.0-212.0,"""",jspsych/scrambledNeutralFaces/scrambledBM06NES.JPG,"""",256,forwardMask,Test,null,250,"""",n,"""","""","""","""","""","""",1,4/20/2021 21:02,73.208.255.247,Mozilla/5.0 (Windows NT 10.0; Win64; x64; rv:88.0) Gecko/20100101 Firefox/88.0,,Firefox,88,Windows,10
66,1,null,"""",image-keyboard-response,213,1031781,0.0-213.0,"""",jspsych/neutralFaces/BM06NES.JPG,"""",256,Cue,Test,null,16,"""","""","""","""","""","""","""","""",1,4/20/2021 21:02,73.208.255.247,Mozilla/5.0 (Windows NT 10.0; Win64; x64; rv:88.0) Gecko/20100101 Firefox/88.0,,Firefox,88,Windows,10
66,1,null,"""",image-keyboard-response,214,1031891,0.0-214.0,"""",jspsych/neutralFaces/AM35NES.JPG,"""",256,backwardMask,Test,null,100,"""","""","""","""","""","""","""","""",1,4/20/2021 21:02,73.208.255.247,Mozilla/5.0 (Windows NT 10.0; Win64; x64; rv:88.0) Gecko/20100101 Firefox/88.0,,Firefox,88,Windows,10
66,1,null,"""",html-keyboard-response,215,1032895,0.0-215.0,"""","<div style=""font-size:60px;"">+</div>","""",256,fixationBtwnNeutralMaskAndPrompt,Test,null,1000,"""","""","""","""","""","""","""","""",1,4/20/2021 21:02,73.208.255.247,Mozilla/5.0 (Windows NT 10.0; Win64; x64; rv:88.0) Gecko/20100101 Firefox/88.0,,Firefox,88,Windows,10
66,1,3988,"""",html-button-response,216,1036885,0.0-216.0,"""","<img src='jspsych/CFDfaces/CFD-BM-041-035-N.jpg' height=""250px"">,</br><b>Nicholas</b>",1,256,IntactOrRearranged,Test,"""","""","""","""",CFD-WF-024-003-N.jpg,Jordan,0,"""","""",1,1,4/20/2021 21:02,73.208.255.247,Mozilla/5.0 (Windows NT 10.0; Win64; x64; rv:88.0) Gecko/20100101 Firefox/88.0,,Firefox,88,Windows,10
66,1,2190,"""",html-slider-response,217,1039081,0.0-217.0,"""","<img src='jspsych/CFDfaces/CFD-BM-041-035-N.jpg' height=""250px"">,</br><b>Nicholas</b>","""",256,ConfidenceQuery,Test,"""","""","""","""",CFD-WF-024-003-N.jpg,Jordan,0,0,76,"""",1,4/20/2021 21:02,73.208.255.247,Mozilla/5.0 (Windows NT 10.0; Win64; x64; rv:88.0) Gecko/20100101 Firefox/88.0,,Firefox,88,Windows,10
66,1,null,"""",html-keyboard-response,218,1040091,0.0-218.0,"""","<div style=""font-size:60px;"">+</div>","""",256,ITI,Test,null,1000,"""","""","""","""","""","""","""","""",1,4/20/2021 21:02,73.208.255.247,Mozilla/5.0 (Windows NT 10.0; Win64; x64; rv:88.0) Gecko/20100101 Firefox/88.0,,Firefox,88,Windows,10
66,1,null,"""",image-keyboard-response,219,1040355,0.0-219.0,"""",jspsych/scrambledNeutralFaces/scrambledBM16NES.JPG,"""",256,forwardMask,Test,null,250,"""",n,"""","""","""","""","""","""",1,4/20/2021 21:02,73.208.255.247,Mozilla/5.0 (Windows NT 10.0; Win64; x64; rv:88.0) Gecko/20100101 Firefox/88.0,,Firefox,88,Windows,10
66,1,null,"""",image-keyboard-response,220,1040387,0.0-220.0,"""",jspsych/neutralFaces/BM16NES.JPG,"""",256,Cue,Test,null,16,"""","""","""","""","""","""","""","""",1,4/20/2021 21:02,73.208.255.247,Mozilla/5.0 (Windows NT 10.0; Win64; x64; rv:88.0) Gecko/20100101 Firefox/88.0,,Firefox,88,Windows,10
66,1,null,"""",image-keyboard-response,221,1040496,0.0-221.0,"""",jspsych/neutralFaces/BM32NES.JPG,"""",256,backwardMask,Test,null,100,"""","""","""","""","""","""","""","""",1,4/20/2021 21:02,73.208.255.247,Mozilla/5.0 (Windows NT 10.0; Win64; x64; rv:88.0) Gecko/20100101 Firefox/88.0,,Firefox,88,Windows,10
66,1,null,"""",html-keyboard-response,222,1041505,0.0-222.0,"""","<div style=""font-size:60px;"">+</div>","""",256,fixationBtwnNeutralMaskAndPrompt,Test,null,1000,"""","""","""","""","""","""","""","""",1,4/20/2021 21:02,73.208.255.247,Mozilla/5.0 (Windows NT 10.0; Win64; x64; rv:88.0) Gecko/20100101 Firefox/88.0,,Firefox,88,Windows,10
66,1,3231,"""",html-button-response,223,1044736,0.0-223.0,"""","<img src='jspsych/CFDfaces/CFD-AM-202-079-N.jpg' height=""250px"">,</br><b>Robert</b>",1,256,IntactOrRearranged,Test,"""","""","""","""",CFD-LF-200-058-N.jpg,Tiffany,0,"""","""",1,1,4/20/2021 21:02,73.208.255.247,Mozilla/5.0 (Windows NT 10.0; Win64; x64; rv:88.0) Gecko/20100101 Firefox/88.0,,Firefox,88,Windows,10
66,1,2261,"""",html-slider-response,224,1047013,0.0-224.0,"""","<img src='jspsych/CFDfaces/CFD-AM-202-079-N.jpg' height=""250px"">,</br><b>Robert</b>","""",256,ConfidenceQuery,Test,"""","""","""","""",CFD-LF-200-058-N.jpg,Tiffany,0,0,67,"""",1,4/20/2021 21:02,73.208.255.247,Mozilla/5.0 (Windows NT 10.0; Win64; x64; rv:88.0) Gecko/20100101 Firefox/88.0,,Firefox,88,Windows,10
66,1,null,"""",html-keyboard-response,225,1048029,0.0-225.0,"""","<div style=""font-size:60px;"">+</div>","""",256,ITI,Test,null,1000,"""","""","""","""","""","""","""","""",1,4/20/2021 21:02,73.208.255.247,Mozilla/5.0 (Windows NT 10.0; Win64; x64; rv:88.0) Gecko/20100101 Firefox/88.0,,Firefox,88,Windows,10
66,1,null,"""",image-keyboard-response,226,1048297,0.0-226.0,"""",jspsych/scrambledDisgustFaces/scrambledBM19DIS.JPG,"""",256,forwardMask,Test,null,250,"""",d,"""","""","""","""","""","""",1,4/20/2021 21:02,73.208.255.247,Mozilla/5.0 (Windows NT 10.0; Win64; x64; rv:88.0) Gecko/20100101 Firefox/88.0,,Firefox,88,Windows,10
66,1,null,"""",image-keyboard-response,227,1048328,0.0-227.0,"""",jspsych/disgustFaces/BM20DIS.JPG,"""",256,Cue,Test,null,16,"""","""","""","""","""","""","""","""",1,4/20/2021 21:02,73.208.255.247,Mozilla/5.0 (Windows NT 10.0; Win64; x64; rv:88.0) Gecko/20100101 Firefox/88.0,,Firefox,88,Windows,10
66,1,null,"""",image-keyboard-response,228,1048435,0.0-228.0,"""",jspsych/neutralFaces/AM14NES.JPG,"""",256,backwardMask,Test,null,100,"""","""","""","""","""","""","""","""",1,4/20/2021 21:02,73.208.255.247,Mozilla/5.0 (Windows NT 10.0; Win64; x64; rv:88.0) Gecko/20100101 Firefox/88.0,,Firefox,88,Windows,10
66,1,null,"""",html-keyboard-response,229,1049444,0.0-229.0,"""","<div style=""font-size:60px;"">+</div>","""",256,fixationBtwnNeutralMaskAndPrompt,Test,null,1000,"""","""","""","""","""","""","""","""",1,4/20/2021 21:02,73.208.255.247,Mozilla/5.0 (Windows NT 10.0; Win64; x64; rv:88.0) Gecko/20100101 Firefox/88.0,,Firefox,88,Windows,10
66,1,2056,"""",html-button-response,230,1051501,0.0-230.0,"""","<img src='jspsych/CFDfaces/CFD-WF-207-014-N.jpg' height=""250px"">,</br><b>Kayla</b>",0,256,IntactOrRearranged,Test,"""","""","""","""",CFD-LF-203-066-N.jpg,Jasmine,0,"""","""",0,1,4/20/2021 21:02,73.208.255.247,Mozilla/5.0 (Windows NT 10.0; Win64; x64; rv:88.0) Gecko/20100101 Firefox/88.0,,Firefox,88,Windows,10
66,1,1875,"""",html-slider-response,231,1053388,0.0-231.0,"""","<img src='jspsych/CFDfaces/CFD-WF-207-014-N.jpg' height=""250px"">,</br><b>Kayla</b>","""",256,ConfidenceQuery,Test,"""","""","""","""",CFD-LF-203-066-N.jpg,Jasmine,0,0,83,"""",1,4/20/2021 21:02,73.208.255.247,Mozilla/5.0 (Windows NT 10.0; Win64; x64; rv:88.0) Gecko/20100101 Firefox/88.0,,Firefox,88,Windows,10
66,1,null,"""",html-keyboard-response,232,1054399,0.0-232.0,"""","<div style=""font-size:60px;"">+</div>","""",256,ITI,Test,null,1000,"""","""","""","""","""","""","""","""",1,4/20/2021 21:02,73.208.255.247,Mozilla/5.0 (Windows NT 10.0; Win64; x64; rv:88.0) Gecko/20100101 Firefox/88.0,,Firefox,88,Windows,10
66,1,null,"""",image-keyboard-response,233,1054666,0.0-233.0,"""",jspsych/scrambledDisgustFaces/scrambledBF14DIS.JPG,"""",256,forwardMask,Test,null,250,"""",d,"""","""","""","""","""","""",1,4/20/2021 21:02,73.208.255.247,Mozilla/5.0 (Windows NT 10.0; Win64; x64; rv:88.0) Gecko/20100101 Firefox/88.0,,Firefox,88,Windows,10
66,1,null,"""",image-keyboard-response,234,1054697,0.0-234.0,"""",jspsych/disgustFaces/BF14DIS.JPG,"""",256,Cue,Test,null,16,"""","""","""","""","""","""","""","""",1,4/20/2021 21:02,73.208.255.247,Mozilla/5.0 (Windows NT 10.0; Win64; x64; rv:88.0) Gecko/20100101 Firefox/88.0,,Firefox,88,Windows,10
66,1,null,"""",image-keyboard-response,235,1054806,0.0-235.0,"""",jspsych/neutralFaces/AF35NES.JPG,"""",256,backwardMask,Test,null,100,"""","""","""","""","""","""","""","""",1,4/20/2021 21:02,73.208.255.247,Mozilla/5.0 (Windows NT 10.0; Win64; x64; rv:88.0) Gecko/20100101 Firefox/88.0,,Firefox,88,Windows,10
66,1,null,"""",html-keyboard-response,236,1055822,0.0-236.0,"""","<div style=""font-size:60px;"">+</div>","""",256,fixationBtwnNeutralMaskAndPrompt,Test,null,1000,"""","""","""","""","""","""","""","""",1,4/20/2021 21:02,73.208.255.247,Mozilla/5.0 (Windows NT 10.0; Win64; x64; rv:88.0) Gecko/20100101 Firefox/88.0,,Firefox,88,Windows,10
66,1,1110,"""",html-button-response,237,1056934,0.0-237.0,"""","<img src='jspsych/CFDfaces/CFD-AF-226-251-N.jpg' height=""250px"">,</br><b>Vanessa</b>",0,256,IntactOrRearranged,Test,"""","""","""","""",CFD-BM-208-065-N.jpg,Jeremy,0,"""","""",0,1,4/20/2021 21:02,73.208.255.247,Mozilla/5.0 (Windows NT 10.0; Win64; x64; rv:88.0) Gecko/20100101 Firefox/88.0,,Firefox,88,Windows,10
66,1,2514,"""",html-slider-response,238,1059449,0.0-238.0,"""","<img src='jspsych/CFDfaces/CFD-AF-226-251-N.jpg' height=""250px"">,</br><b>Vanessa</b>","""",256,ConfidenceQuery,Test,"""","""","""","""",CFD-BM-208-065-N.jpg,Jeremy,0,0,100,"""",1,4/20/2021 21:02,73.208.255.247,Mozilla/5.0 (Windows NT 10.0; Win64; x64; rv:88.0) Gecko/20100101 Firefox/88.0,,Firefox,88,Windows,10
66,1,null,"""",html-keyboard-response,239,1060465,0.0-239.0,"""","<div style=""font-size:60px;"">+</div>","""",256,ITI,Test,null,1000,"""","""","""","""","""","""","""","""",1,4/20/2021 21:02,73.208.255.247,Mozilla/5.0 (Windows NT 10.0; Win64; x64; rv:88.0) Gecko/20100101 Firefox/88.0,,Firefox,88,Windows,10
66,1,null,"""",image-keyboard-response,240,1060724,0.0-240.0,"""",jspsych/scrambledNeutralFaces/scrambledBF14NES.JPG,"""",256,forwardMask,Test,null,250,"""",n,"""","""","""","""","""","""",1,4/20/2021 21:02,73.208.255.247,Mozilla/5.0 (Windows NT 10.0; Win64; x64; rv:88.0) Gecko/20100101 Firefox/88.0,,Firefox,88,Windows,10
66,1,null,"""",image-keyboard-response,241,1060746,0.0-241.0,"""",jspsych/neutralFaces/BF14NES.JPG,"""",256,Cue,Test,null,16,"""","""","""","""","""","""","""","""",1,4/20/2021 21:02,73.208.255.247,Mozilla/5.0 (Windows NT 10.0; Win64; x64; rv:88.0) Gecko/20100101 Firefox/88.0,,Firefox,88,Windows,10
66,1,null,"""",image-keyboard-response,242,1060855,0.0-242.0,"""",jspsych/neutralFaces/AF04NES.JPG,"""",256,backwardMask,Test,null,100,"""","""","""","""","""","""","""","""",1,4/20/2021 21:02,73.208.255.247,Mozilla/5.0 (Windows NT 10.0; Win64; x64; rv:88.0) Gecko/20100101 Firefox/88.0,,Firefox,88,Windows,10
66,1,null,"""",html-keyboard-response,243,1061858,0.0-243.0,"""","<div style=""font-size:60px;"">+</div>","""",256,fixationBtwnNeutralMaskAndPrompt,Test,null,1000,"""","""","""","""","""","""","""","""",1,4/20/2021 21:02,73.208.255.247,Mozilla/5.0 (Windows NT 10.0; Win64; x64; rv:88.0) Gecko/20100101 Firefox/88.0,,Firefox,88,Windows,10
66,1,1393,"""",html-button-response,244,1063251,0.0-244.0,"""","<img src='jspsych/CFDfaces/CFD-AF-242-158-N.jpg' height=""250px"">,</br><b>Victoria</b>",1,256,IntactOrRearranged,Test,"""","""","""","""",CFD-WF-016-015-N.jpg,Rebecca,1,"""","""",1,1,4/20/2021 21:02,73.208.255.247,Mozilla/5.0 (Windows NT 10.0; Win64; x64; rv:88.0) Gecko/20100101 Firefox/88.0,,Firefox,88,Windows,10
66,1,2495,"""",html-slider-response,245,1065750,0.0-245.0,"""","<img src='jspsych/CFDfaces/CFD-AF-242-158-N.jpg' height=""250px"">,</br><b>Victoria</b>","""",256,ConfidenceQuery,Test,"""","""","""","""",CFD-WF-016-015-N.jpg,Rebecca,1,0,99,"""",1,4/20/2021 21:02,73.208.255.247,Mozilla/5.0 (Windows NT 10.0; Win64; x64; rv:88.0) Gecko/20100101 Firefox/88.0,,Firefox,88,Windows,10
66,1,null,"""",html-keyboard-response,246,1066772,0.0-246.0,"""","<div style=""font-size:60px;"">+</div>","""",256,ITI,Test,null,1000,"""","""","""","""","""","""","""","""",1,4/20/2021 21:02,73.208.255.247,Mozilla/5.0 (Windows NT 10.0; Win64; x64; rv:88.0) Gecko/20100101 Firefox/88.0,,Firefox,88,Windows,10
66,1,null,"""",image-keyboard-response,247,1067038,0.0-247.0,"""",jspsych/scrambledNeutralFaces/scrambledBM09NES.JPG,"""",256,forwardMask,Test,null,250,"""",n,"""","""","""","""","""","""",1,4/20/2021 21:02,73.208.255.247,Mozilla/5.0 (Windows NT 10.0; Win64; x64; rv:88.0) Gecko/20100101 Firefox/88.0,,Firefox,88,Windows,10
66,1,null,"""",image-keyboard-response,248,1067068,0.0-248.0,"""",jspsych/neutralFaces/BM09NES.JPG,"""",256,Cue,Test,null,16,"""","""","""","""","""","""","""","""",1,4/20/2021 21:02,73.208.255.247,Mozilla/5.0 (Windows NT 10.0; Win64; x64; rv:88.0) Gecko/20100101 Firefox/88.0,,Firefox,88,Windows,10
66,1,null,"""",image-keyboard-response,249,1067177,0.0-249.0,"""",jspsych/neutralFaces/AM34NES.JPG,"""",256,backwardMask,Test,null,100,"""","""","""","""","""","""","""","""",1,4/20/2021 21:02,73.208.255.247,Mozilla/5.0 (Windows NT 10.0; Win64; x64; rv:88.0) Gecko/20100101 Firefox/88.0,,Firefox,88,Windows,10
66,1,null,"""",html-keyboard-response,250,1068180,0.0-250.0,"""","<div style=""font-size:60px;"">+</div>","""",256,fixationBtwnNeutralMaskAndPrompt,Test,null,1000,"""","""","""","""","""","""","""","""",1,4/20/2021 21:02,73.208.255.247,Mozilla/5.0 (Windows NT 10.0; Win64; x64; rv:88.0) Gecko/20100101 Firefox/88.0,,Firefox,88,Windows,10
66,1,3172,"""",html-button-response,251,1071354,0.0-251.0,"""","<img src='jspsych/CFDfaces/CFD-AF-233-190-N.jpg' height=""250px"">,</br><b>Brittany</b>",0,256,IntactOrRearranged,Test,"""","""","""","""",CFD-BM-032-024-N.jpg,Dustin,0,"""","""",0,1,4/20/2021 21:02,73.208.255.247,Mozilla/5.0 (Windows NT 10.0; Win64; x64; rv:88.0) Gecko/20100101 Firefox/88.0,,Firefox,88,Windows,10
66,1,3276,"""",html-slider-response,252,1074636,0.0-252.0,"""","<img src='jspsych/CFDfaces/CFD-AF-233-190-N.jpg' height=""250px"">,</br><b>Brittany</b>","""",256,ConfidenceQuery,Test,"""","""","""","""",CFD-BM-032-024-N.jpg,Dustin,0,0,68,"""",1,4/20/2021 21:02,73.208.255.247,Mozilla/5.0 (Windows NT 10.0; Win64; x64; rv:88.0) Gecko/20100101 Firefox/88.0,,Firefox,88,Windows,10
66,1,null,"""",html-keyboard-response,253,1075653,0.0-253.0,"""","<div style=""font-size:60px;"">+</div>","""",256,ITI,Test,null,1000,"""","""","""","""","""","""","""","""",1,4/20/2021 21:02,73.208.255.247,Mozilla/5.0 (Windows NT 10.0; Win64; x64; rv:88.0) Gecko/20100101 Firefox/88.0,,Firefox,88,Windows,10
66,1,null,"""",image-keyboard-response,254,1075917,0.0-254.0,"""",jspsych/scrambledNeutralFaces/scrambledAF35NES.JPG,"""",256,forwardMask,Test,null,250,"""",n,"""","""","""","""","""","""",1,4/20/2021 21:02,73.208.255.247,Mozilla/5.0 (Windows NT 10.0; Win64; x64; rv:88.0) Gecko/20100101 Firefox/88.0,,Firefox,88,Windows,10
66,1,null,"""",image-keyboard-response,255,1075948,0.0-255.0,"""",jspsych/neutralFaces/AF35NES.JPG,"""",256,Cue,Test,null,16,"""","""","""","""","""","""","""","""",1,4/20/2021 21:02,73.208.255.247,Mozilla/5.0 (Windows NT 10.0; Win64; x64; rv:88.0) Gecko/20100101 Firefox/88.0,,Firefox,88,Windows,10
66,1,null,"""",image-keyboard-response,256,1076057,0.0-256.0,"""",jspsych/neutralFaces/BF08NES.JPG,"""",256,backwardMask,Test,null,100,"""","""","""","""","""","""","""","""",1,4/20/2021 21:02,73.208.255.247,Mozilla/5.0 (Windows NT 10.0; Win64; x64; rv:88.0) Gecko/20100101 Firefox/88.0,,Firefox,88,Windows,10
66,1,null,"""",html-keyboard-response,257,1077061,0.0-257.0,"""","<div style=""font-size:60px;"">+</div>","""",256,fixationBtwnNeutralMaskAndPrompt,Test,null,1000,"""","""","""","""","""","""","""","""",1,4/20/2021 21:02,73.208.255.247,Mozilla/5.0 (Windows NT 10.0; Win64; x64; rv:88.0) Gecko/20100101 Firefox/88.0,,Firefox,88,Windows,10
66,1,2142,"""",html-button-response,258,1079204,0.0-258.0,"""","<img src='jspsych/CFDfaces/CFD-BM-017-021-N.jpg' height=""250px"">,</br><b>Jeffrey</b>",1,256,IntactOrRearranged,Test,"""","""","""","""",CFD-WM-207-048-N.jpg,Mark,1,"""","""",1,1,4/20/2021 21:02,73.208.255.247,Mozilla/5.0 (Windows NT 10.0; Win64; x64; rv:88.0) Gecko/20100101 Firefox/88.0,,Firefox,88,Windows,10
66,1,2293,"""",html-slider-response,259,1081499,0.0-259.0,"""","<img src='jspsych/CFDfaces/CFD-BM-017-021-N.jpg' height=""250px"">,</br><b>Jeffrey</b>","""",256,ConfidenceQuery,Test,"""","""","""","""",CFD-WM-207-048-N.jpg,Mark,1,0,67,"""",1,4/20/2021 21:02,73.208.255.247,Mozilla/5.0 (Windows NT 10.0; Win64; x64; rv:88.0) Gecko/20100101 Firefox/88.0,,Firefox,88,Windows,10
66,1,null,"""",html-keyboard-response,260,1082507,0.0-260.0,"""","<div style=""font-size:60px;"">+</div>","""",256,ITI,Test,null,1000,"""","""","""","""","""","""","""","""",1,4/20/2021 21:02,73.208.255.247,Mozilla/5.0 (Windows NT 10.0; Win64; x64; rv:88.0) Gecko/20100101 Firefox/88.0,,Firefox,88,Windows,10
66,1,null,"""",image-keyboard-response,261,1082774,0.0-261.0,"""",jspsych/scrambledNeutralFaces/scrambledBF24NES.JPG,"""",256,forwardMask,Test,null,250,"""",n,"""","""","""","""","""","""",1,4/20/2021 21:02,73.208.255.247,Mozilla/5.0 (Windows NT 10.0; Win64; x64; rv:88.0) Gecko/20100101 Firefox/88.0,,Firefox,88,Windows,10
66,1,null,"""",image-keyboard-response,262,1082805,0.0-262.0,"""",jspsych/neutralFaces/BF24NES.JPG,"""",256,Cue,Test,null,16,"""","""","""","""","""","""","""","""",1,4/20/2021 21:02,73.208.255.247,Mozilla/5.0 (Windows NT 10.0; Win64; x64; rv:88.0) Gecko/20100101 Firefox/88.0,,Firefox,88,Windows,10
66,1,null,"""",image-keyboard-response,263,1082914,0.0-263.0,"""",jspsych/neutralFaces/AF10NES.JPG,"""",256,backwardMask,Test,null,100,"""","""","""","""","""","""","""","""",1,4/20/2021 21:02,73.208.255.247,Mozilla/5.0 (Windows NT 10.0; Win64; x64; rv:88.0) Gecko/20100101 Firefox/88.0,,Firefox,88,Windows,10
66,1,null,"""",html-keyboard-response,264,1083917,0.0-264.0,"""","<div style=""font-size:60px;"">+</div>","""",256,fixationBtwnNeutralMaskAndPrompt,Test,null,1000,"""","""","""","""","""","""","""","""",1,4/20/2021 21:02,73.208.255.247,Mozilla/5.0 (Windows NT 10.0; Win64; x64; rv:88.0) Gecko/20100101 Firefox/88.0,,Firefox,88,Windows,10
66,1,4557,"""",html-button-response,265,1088477,0.0-265.0,"""","<img src='jspsych/CFDfaces/CFD-WF-029-002-N.jpg' height=""250px"">,</br><b>Elizabeth</b>",1,256,IntactOrRearranged,Test,"""","""","""","""",CFD-WM-009-002-N.jpg,Steven,1,"""","""",1,1,4/20/2021 21:02,73.208.255.247,Mozilla/5.0 (Windows NT 10.0; Win64; x64; rv:88.0) Gecko/20100101 Firefox/88.0,,Firefox,88,Windows,10
66,1,2055,"""",html-slider-response,266,1090539,0.0-266.0,"""","<img src='jspsych/CFDfaces/CFD-WF-029-002-N.jpg' height=""250px"">,</br><b>Elizabeth</b>","""",256,ConfidenceQuery,Test,"""","""","""","""",CFD-WM-009-002-N.jpg,Steven,1,0,63,"""",1,4/20/2021 21:02,73.208.255.247,Mozilla/5.0 (Windows NT 10.0; Win64; x64; rv:88.0) Gecko/20100101 Firefox/88.0,,Firefox,88,Windows,10
66,1,null,"""",html-keyboard-response,267,1091549,0.0-267.0,"""","<div style=""font-size:60px;"">+</div>","""",256,ITI,Test,null,1000,"""","""","""","""","""","""","""","""",1,4/20/2021 21:02,73.208.255.247,Mozilla/5.0 (Windows NT 10.0; Win64; x64; rv:88.0) Gecko/20100101 Firefox/88.0,,Firefox,88,Windows,10
66,1,null,"""",image-keyboard-response,268,1091816,0.0-268.0,"""",jspsych/scrambledDisgustFaces/scrambledAF29DIS.JPG,"""",256,forwardMask,Test,null,250,"""",d,"""","""","""","""","""","""",1,4/20/2021 21:02,73.208.255.247,Mozilla/5.0 (Windows NT 10.0; Win64; x64; rv:88.0) Gecko/20100101 Firefox/88.0,,Firefox,88,Windows,10
66,1,null,"""",image-keyboard-response,269,1091847,0.0-269.0,"""",jspsych/disgustFaces/AF29DIS.JPG,"""",256,Cue,Test,null,16,"""","""","""","""","""","""","""","""",1,4/20/2021 21:02,73.208.255.247,Mozilla/5.0 (Windows NT 10.0; Win64; x64; rv:88.0) Gecko/20100101 Firefox/88.0,,Firefox,88,Windows,10
66,1,null,"""",image-keyboard-response,270,1091956,0.0-270.0,"""",jspsych/neutralFaces/BF01NES.JPG,"""",256,backwardMask,Test,null,100,"""","""","""","""","""","""","""","""",1,4/20/2021 21:02,73.208.255.247,Mozilla/5.0 (Windows NT 10.0; Win64; x64; rv:88.0) Gecko/20100101 Firefox/88.0,,Firefox,88,Windows,10
66,1,null,"""",html-keyboard-response,271,1092965,0.0-271.0,"""","<div style=""font-size:60px;"">+</div>","""",256,fixationBtwnNeutralMaskAndPrompt,Test,null,1000,"""","""","""","""","""","""","""","""",1,4/20/2021 21:02,73.208.255.247,Mozilla/5.0 (Windows NT 10.0; Win64; x64; rv:88.0) Gecko/20100101 Firefox/88.0,,Firefox,88,Windows,10
66,1,3217,"""",html-button-response,272,1096185,0.0-272.0,"""","<img src='jspsych/CFDfaces/CFD-WM-237-052-N.jpg' height=""250px"">,</br><b>Richard</b>",1,256,IntactOrRearranged,Test,"""","""","""","""",CFD-BM-011-016-N.jpg,Timothy,1,"""","""",1,1,4/20/2021 21:02,73.208.255.247,Mozilla/5.0 (Windows NT 10.0; Win64; x64; rv:88.0) Gecko/20100101 Firefox/88.0,,Firefox,88,Windows,10
66,1,1699,"""",html-slider-response,273,1097888,0.0-273.0,"""","<img src='jspsych/CFDfaces/CFD-WM-237-052-N.jpg' height=""250px"">,</br><b>Richard</b>","""",256,ConfidenceQuery,Test,"""","""","""","""",CFD-BM-011-016-N.jpg,Timothy,1,0,100,"""",1,4/20/2021 21:02,73.208.255.247,Mozilla/5.0 (Windows NT 10.0; Win64; x64; rv:88.0) Gecko/20100101 Firefox/88.0,,Firefox,88,Windows,10
66,1,null,"""",html-keyboard-response,274,1098899,0.0-274.0,"""","<div style=""font-size:60px;"">+</div>","""",256,ITI,Test,null,1000,"""","""","""","""","""","""","""","""",1,4/20/2021 21:02,73.208.255.247,Mozilla/5.0 (Windows NT 10.0; Win64; x64; rv:88.0) Gecko/20100101 Firefox/88.0,,Firefox,88,Windows,10
66,1,null,"""",image-keyboard-response,275,1099164,0.0-275.0,"""",jspsych/scrambledNeutralFaces/scrambledBF31NES.JPG,"""",256,forwardMask,Test,null,250,"""",n,"""","""","""","""","""","""",1,4/20/2021 21:02,73.208.255.247,Mozilla/5.0 (Windows NT 10.0; Win64; x64; rv:88.0) Gecko/20100101 Firefox/88.0,,Firefox,88,Windows,10
66,1,null,"""",image-keyboard-response,276,1099194,0.0-276.0,"""",jspsych/neutralFaces/BF31NES.JPG,"""",256,Cue,Test,null,16,"""","""","""","""","""","""","""","""",1,4/20/2021 21:02,73.208.255.247,Mozilla/5.0 (Windows NT 10.0; Win64; x64; rv:88.0) Gecko/20100101 Firefox/88.0,,Firefox,88,Windows,10
66,1,null,"""",image-keyboard-response,277,1099305,0.0-277.0,"""",jspsych/neutralFaces/AF24NES.JPG,"""",256,backwardMask,Test,null,100,"""","""","""","""","""","""","""","""",1,4/20/2021 21:02,73.208.255.247,Mozilla/5.0 (Windows NT 10.0; Win64; x64; rv:88.0) Gecko/20100101 Firefox/88.0,,Firefox,88,Windows,10
66,1,null,"""",html-keyboard-response,278,1100309,0.0-278.0,"""","<div style=""font-size:60px;"">+</div>","""",256,fixationBtwnNeutralMaskAndPrompt,Test,null,1000,"""","""","""","""","""","""","""","""",1,4/20/2021 21:02,73.208.255.247,Mozilla/5.0 (Windows NT 10.0; Win64; x64; rv:88.0) Gecko/20100101 Firefox/88.0,,Firefox,88,Windows,10
66,1,2921,"""",html-button-response,279,1103232,0.0-279.0,"""","<img src='jspsych/CFDfaces/CFD-BF-005-001-N.jpg' height=""250px"">,</br><b>Amanda</b>",1,256,IntactOrRearranged,Test,"""","""","""","""",CFD-LF-243-175-N.jpg,Lauren,1,"""","""",1,1,4/20/2021 21:02,73.208.255.247,Mozilla/5.0 (Windows NT 10.0; Win64; x64; rv:88.0) Gecko/20100101 Firefox/88.0,,Firefox,88,Windows,10
66,1,2239,"""",html-slider-response,280,1105475,0.0-280.0,"""","<img src='jspsych/CFDfaces/CFD-BF-005-001-N.jpg' height=""250px"">,</br><b>Amanda</b>","""",256,ConfidenceQuery,Test,"""","""","""","""",CFD-LF-243-175-N.jpg,Lauren,1,0,84,"""",1,4/20/2021 21:02,73.208.255.247,Mozilla/5.0 (Windows NT 10.0; Win64; x64; rv:88.0) Gecko/20100101 Firefox/88.0,,Firefox,88,Windows,10
66,1,null,"""",html-keyboard-response,281,1106483,0.0-281.0,"""","<div style=""font-size:60px;"">+</div>","""",256,ITI,Test,null,1000,"""","""","""","""","""","""","""","""",1,4/20/2021 21:02,73.208.255.247,Mozilla/5.0 (Windows NT 10.0; Win64; x64; rv:88.0) Gecko/20100101 Firefox/88.0,,Firefox,88,Windows,10
66,1,null,"""",image-keyboard-response,282,1106751,0.0-282.0,"""",jspsych/scrambledNeutralFaces/scrambledAM32NES.JPG,"""",256,forwardMask,Test,null,250,"""",n,"""","""","""","""","""","""",1,4/20/2021 21:02,73.208.255.247,Mozilla/5.0 (Windows NT 10.0; Win64; x64; rv:88.0) Gecko/20100101 Firefox/88.0,,Firefox,88,Windows,10
66,1,null,"""",image-keyboard-response,283,1106781,0.0-283.0,"""",jspsych/neutralFaces/AM32NES.JPG,"""",256,Cue,Test,null,16,"""","""","""","""","""","""","""","""",1,4/20/2021 21:02,73.208.255.247,Mozilla/5.0 (Windows NT 10.0; Win64; x64; rv:88.0) Gecko/20100101 Firefox/88.0,,Firefox,88,Windows,10
66,1,null,"""",image-keyboard-response,284,1106891,0.0-284.0,"""",jspsych/neutralFaces/AM09NES.JPG,"""",256,backwardMask,Test,null,100,"""","""","""","""","""","""","""","""",1,4/20/2021 21:02,73.208.255.247,Mozilla/5.0 (Windows NT 10.0; Win64; x64; rv:88.0) Gecko/20100101 Firefox/88.0,,Firefox,88,Windows,10
66,1,null,"""",html-keyboard-response,285,1107896,0.0-285.0,"""","<div style=""font-size:60px;"">+</div>","""",256,fixationBtwnNeutralMaskAndPrompt,Test,null,1000,"""","""","""","""","""","""","""","""",1,4/20/2021 21:02,73.208.255.247,Mozilla/5.0 (Windows NT 10.0; Win64; x64; rv:88.0) Gecko/20100101 Firefox/88.0,,Firefox,88,Windows,10
66,1,1652,"""",html-button-response,286,1109551,0.0-286.0,"""","<img src='jspsych/CFDfaces/CFD-LM-225-130-N.jpg' height=""250px"">,</br><b>Gregory</b>",1,256,IntactOrRearranged,Test,"""","""","""","""",CFD-AM-237-154-N.jpg,Ryan,1,"""","""",1,1,4/20/2021 21:02,73.208.255.247,Mozilla/5.0 (Windows NT 10.0; Win64; x64; rv:88.0) Gecko/20100101 Firefox/88.0,,Firefox,88,Windows,10
66,1,1500,"""",html-slider-response,287,1111059,0.0-287.0,"""","<img src='jspsych/CFDfaces/CFD-LM-225-130-N.jpg' height=""250px"">,</br><b>Gregory</b>","""",256,ConfidenceQuery,Test,"""","""","""","""",CFD-AM-237-154-N.jpg,Ryan,1,0,89,"""",1,4/20/2021 21:02,73.208.255.247,Mozilla/5.0 (Windows NT 10.0; Win64; x64; rv:88.0) Gecko/20100101 Firefox/88.0,,Firefox,88,Windows,10
66,1,null,"""",html-keyboard-response,288,1112074,0.0-288.0,"""","<div style=""font-size:60px;"">+</div>","""",256,ITI,Test,null,1000,"""","""","""","""","""","""","""","""",1,4/20/2021 21:02,73.208.255.247,Mozilla/5.0 (Windows NT 10.0; Win64; x64; rv:88.0) Gecko/20100101 Firefox/88.0,,Firefox,88,Windows,10
66,1,null,"""",image-keyboard-response,289,1112341,0.0-289.0,"""",jspsych/scrambledNeutralFaces/scrambledBM12NES.JPG,"""",256,forwardMask,Test,null,250,"""",n,"""","""","""","""","""","""",1,4/20/2021 21:02,73.208.255.247,Mozilla/5.0 (Windows NT 10.0; Win64; x64; rv:88.0) Gecko/20100101 Firefox/88.0,,Firefox,88,Windows,10
66,1,null,"""",image-keyboard-response,290,1112373,0.0-290.0,"""",jspsych/neutralFaces/BM12NES.JPG,"""",256,Cue,Test,null,16,"""","""","""","""","""","""","""","""",1,4/20/2021 21:02,73.208.255.247,Mozilla/5.0 (Windows NT 10.0; Win64; x64; rv:88.0) Gecko/20100101 Firefox/88.0,,Firefox,88,Windows,10
66,1,null,"""",image-keyboard-response,291,1112485,0.0-291.0,"""",jspsych/neutralFaces/BM23NES.JPG,"""",256,backwardMask,Test,null,100,"""","""","""","""","""","""","""","""",1,4/20/2021 21:02,73.208.255.247,Mozilla/5.0 (Windows NT 10.0; Win64; x64; rv:88.0) Gecko/20100101 Firefox/88.0,,Firefox,88,Windows,10
66,1,null,"""",html-keyboard-response,292,1113496,0.0-292.0,"""","<div style=""font-size:60px;"">+</div>","""",256,fixationBtwnNeutralMaskAndPrompt,Test,null,1000,"""","""","""","""","""","""","""","""",1,4/20/2021 21:02,73.208.255.247,Mozilla/5.0 (Windows NT 10.0; Win64; x64; rv:88.0) Gecko/20100101 Firefox/88.0,,Firefox,88,Windows,10
66,1,1466,"""",html-button-response,293,1114962,0.0-293.0,"""","<img src='jspsych/CFDfaces/CFD-WF-038-021-N.jpg' height=""250px"">,</br><b>Julie</b>",0,256,IntactOrRearranged,Test,"""","""","""","""",CFD-WF-202-056-N.jpg,Melissa,0,"""","""",0,1,4/20/2021 21:02,73.208.255.247,Mozilla/5.0 (Windows NT 10.0; Win64; x64; rv:88.0) Gecko/20100101 Firefox/88.0,,Firefox,88,Windows,10
66,1,2042,"""",html-slider-response,294,1117010,0.0-294.0,"""","<img src='jspsych/CFDfaces/CFD-WF-038-021-N.jpg' height=""250px"">,</br><b>Julie</b>","""",256,ConfidenceQuery,Test,"""","""","""","""",CFD-WF-202-056-N.jpg,Melissa,0,0,100,"""",1,4/20/2021 21:02,73.208.255.247,Mozilla/5.0 (Windows NT 10.0; Win64; x64; rv:88.0) Gecko/20100101 Firefox/88.0,,Firefox,88,Windows,10
