run_id,condition,rt,responses,trial_type,trial_index,time_elapsed,internal_node_id,question_order,stimulus,button_pressed,iTrial,Phase,ExperimentPhase,key_press,StimulusDurationSetting,CharacterResponse,correctResponse,Face,Name,rearranged,didSubjectEnterRearranged,slider_start,response,Block,recorded_at,ip,user_agent,device,browser,browser_version,platform,platform_version
209,1,16741,"{""Q0"":""A1XWOQQM3EOZCR""}",survey-text,0,16742,0.0-0.0,"""","""","""","""","""","""","""","""","""","""","""","""","""","""","""","""","""",4/30/2021 21:28,98.194.177.71,Mozilla/5.0 (Windows NT 10.0; Win64; x64; rv:78.0) Gecko/20100101 Firefox/78.0,,Firefox,78,Windows,10
209,1,3273,"{""Q0"":""34""}",survey-text,1,20021,0.0-1.0,"""","""","""","""","""","""","""","""","""","""","""","""","""","""","""","""","""",4/30/2021 21:28,98.194.177.71,Mozilla/5.0 (Windows NT 10.0; Win64; x64; rv:78.0) Gecko/20100101 Firefox/78.0,,Firefox,78,Windows,10
209,1,6065,"{""Q0"":""male"",""Q1"":""Not Hispanic/Latino"",""Q2"":""White or Caucasian""}",survey-multi-choice,2,26091,0.0-2.0,"[0,1,2]","""","""","""","""","""","""","""","""","""","""","""","""","""","""","""","""",4/30/2021 21:28,98.194.177.71,Mozilla/5.0 (Windows NT 10.0; Win64; x64; rv:78.0) Gecko/20100101 Firefox/78.0,,Firefox,78,Windows,10
209,1,22662,"""",image-button-response,3,48762,0.0-3.0,"""",directionsMemoryAssociation1.JPG,0,1,IntroDirections1,break,"""","""","""","""","""","""","""","""","""","""","""",4/30/2021 21:28,98.194.177.71,Mozilla/5.0 (Windows NT 10.0; Win64; x64; rv:78.0) Gecko/20100101 Firefox/78.0,,Firefox,78,Windows,10
209,1,19839,"""",image-button-response,4,68613,0.0-4.0,"""",directionsMemoryAssociation2.JPG,0,1,IntroDirections2,break,"""","""","""","""","""","""","""","""","""","""","""",4/30/2021 21:28,98.194.177.71,Mozilla/5.0 (Windows NT 10.0; Win64; x64; rv:78.0) Gecko/20100101 Firefox/78.0,,Firefox,78,Windows,10
209,1,null,"""",html-keyboard-response,5,73626,0.0-5.0,"""","<img src='jspsych/CFDfaces/CFD-BM-027-001-N.jpg' height=""250px"">,</br><b>Carlos</b>","""",1,IntactFace,Practice,null,5000,"""","""","""","""","""","""","""","""","""",4/30/2021 21:28,98.194.177.71,Mozilla/5.0 (Windows NT 10.0; Win64; x64; rv:78.0) Gecko/20100101 Firefox/78.0,,Firefox,78,Windows,10
209,1,null,"""",html-keyboard-response,6,74130,0.0-6.0,"""","<div style=""font-size:60px;"">+</div>","""",1,ITI,Practice,null,1000,"""","""","""","""","""","""","""","""","""",4/30/2021 21:28,98.194.177.71,Mozilla/5.0 (Windows NT 10.0; Win64; x64; rv:78.0) Gecko/20100101 Firefox/78.0,,Firefox,78,Windows,10
209,1,null,"""",html-keyboard-response,7,79142,0.0-7.0,"""","<img src='jspsych/CFDfaces/CFD-AM-238-269-N.jpg' height=""250px"">,</br><b>Samuel</b>","""",2,IntactFace,Practice,null,5000,"""","""","""","""","""","""","""","""","""",4/30/2021 21:28,98.194.177.71,Mozilla/5.0 (Windows NT 10.0; Win64; x64; rv:78.0) Gecko/20100101 Firefox/78.0,,Firefox,78,Windows,10
209,1,null,"""",html-keyboard-response,8,79645,0.0-8.0,"""","<div style=""font-size:60px;"">+</div>","""",2,ITI,Practice,null,1000,"""","""","""","""","""","""","""","""","""",4/30/2021 21:28,98.194.177.71,Mozilla/5.0 (Windows NT 10.0; Win64; x64; rv:78.0) Gecko/20100101 Firefox/78.0,,Firefox,78,Windows,10
209,1,2078,"""",html-keyboard-response,9,84652,0.0-9.0,"""","<img src='jspsych/CFDfaces/CFD-WM-034-030-N.jpg' height=""250px"">,</br><b>Marcus</b>","""",3,IntactFace,Practice,70,5000,f,"""","""","""","""","""","""","""","""",4/30/2021 21:28,98.194.177.71,Mozilla/5.0 (Windows NT 10.0; Win64; x64; rv:78.0) Gecko/20100101 Firefox/78.0,,Firefox,78,Windows,10
209,1,null,"""",html-keyboard-response,10,85155,0.0-10.0,"""","<div style=""font-size:60px;"">+</div>","""",3,ITI,Practice,null,1000,"""","""","""","""","""","""","""","""","""",4/30/2021 21:28,98.194.177.71,Mozilla/5.0 (Windows NT 10.0; Win64; x64; rv:78.0) Gecko/20100101 Firefox/78.0,,Firefox,78,Windows,10
209,1,3132,"""",html-keyboard-response,11,90161,0.0-11.0,"""","<img src='jspsych/CFDfaces/CFD-LF-208-127-N.jpg' height=""250px"">,</br><b>Tara</b>","""",4,IntactFace,Practice,70,5000,f,"""","""","""","""","""","""","""","""",4/30/2021 21:28,98.194.177.71,Mozilla/5.0 (Windows NT 10.0; Win64; x64; rv:78.0) Gecko/20100101 Firefox/78.0,,Firefox,78,Windows,10
209,1,null,"""",html-keyboard-response,12,90664,0.0-12.0,"""","<div style=""font-size:60px;"">+</div>","""",4,ITI,Practice,null,1000,"""","""","""","""","""","""","""","""","""",4/30/2021 21:28,98.194.177.71,Mozilla/5.0 (Windows NT 10.0; Win64; x64; rv:78.0) Gecko/20100101 Firefox/78.0,,Firefox,78,Windows,10
209,1,2446,"""",html-keyboard-response,13,95679,0.0-13.0,"""","<img src='jspsych/CFDfaces/CFD-WF-016-015-N.jpg' height=""250px"">,</br><b>Cassandra</b>","""",5,IntactFace,Practice,70,5000,f,"""","""","""","""","""","""","""","""",4/30/2021 21:28,98.194.177.71,Mozilla/5.0 (Windows NT 10.0; Win64; x64; rv:78.0) Gecko/20100101 Firefox/78.0,,Firefox,78,Windows,10
209,1,null,"""",html-keyboard-response,14,96182,0.0-14.0,"""","<div style=""font-size:60px;"">+</div>","""",5,ITI,Practice,null,1000,"""","""","""","""","""","""","""","""","""",4/30/2021 21:28,98.194.177.71,Mozilla/5.0 (Windows NT 10.0; Win64; x64; rv:78.0) Gecko/20100101 Firefox/78.0,,Firefox,78,Windows,10
209,1,1846,"""",html-keyboard-response,15,101191,0.0-15.0,"""","<img src='jspsych/CFDfaces/CFD-LM-200-045-N.jpg' height=""250px"">,</br><b>Patrick</b>","""",6,IntactFace,Practice,70,5000,f,"""","""","""","""","""","""","""","""",4/30/2021 21:28,98.194.177.71,Mozilla/5.0 (Windows NT 10.0; Win64; x64; rv:78.0) Gecko/20100101 Firefox/78.0,,Firefox,78,Windows,10
209,1,null,"""",html-keyboard-response,16,101696,0.0-16.0,"""","<div style=""font-size:60px;"">+</div>","""",6,ITI,Practice,null,1000,"""","""","""","""","""","""","""","""","""",4/30/2021 21:28,98.194.177.71,Mozilla/5.0 (Windows NT 10.0; Win64; x64; rv:78.0) Gecko/20100101 Firefox/78.0,,Firefox,78,Windows,10
209,1,1606,"""",html-keyboard-response,17,106703,0.0-17.0,"""","<img src='jspsych/CFDfaces/CFD-WF-220-101-N.jpg' height=""250px"">,</br><b>Katelyn</b>","""",7,IntactFace,Practice,70,5000,f,"""","""","""","""","""","""","""","""",4/30/2021 21:28,98.194.177.71,Mozilla/5.0 (Windows NT 10.0; Win64; x64; rv:78.0) Gecko/20100101 Firefox/78.0,,Firefox,78,Windows,10
209,1,null,"""",html-keyboard-response,18,107204,0.0-18.0,"""","<div style=""font-size:60px;"">+</div>","""",7,ITI,Practice,null,1000,"""","""","""","""","""","""","""","""","""",4/30/2021 21:28,98.194.177.71,Mozilla/5.0 (Windows NT 10.0; Win64; x64; rv:78.0) Gecko/20100101 Firefox/78.0,,Firefox,78,Windows,10
209,1,2194,"""",html-keyboard-response,19,112209,0.0-19.0,"""","<img src='jspsych/CFDfaces/CFD-WF-023-003-N.jpg' height=""250px"">,</br><b>Shannon</b>","""",8,IntactFace,Practice,70,5000,f,"""","""","""","""","""","""","""","""",4/30/2021 21:28,98.194.177.71,Mozilla/5.0 (Windows NT 10.0; Win64; x64; rv:78.0) Gecko/20100101 Firefox/78.0,,Firefox,78,Windows,10
209,1,null,"""",html-keyboard-response,20,112711,0.0-20.0,"""","<div style=""font-size:60px;"">+</div>","""",8,ITI,Practice,null,1000,"""","""","""","""","""","""","""","""","""",4/30/2021 21:28,98.194.177.71,Mozilla/5.0 (Windows NT 10.0; Win64; x64; rv:78.0) Gecko/20100101 Firefox/78.0,,Firefox,78,Windows,10
209,1,11938,"""",image-button-response,21,124657,0.0-21.0,"""",directionsForTest.JPG,0,1,directionsForTest,break,"""","""","""","""","""","""","""","""","""","""","""",4/30/2021 21:28,98.194.177.71,Mozilla/5.0 (Windows NT 10.0; Win64; x64; rv:78.0) Gecko/20100101 Firefox/78.0,,Firefox,78,Windows,10
209,1,9016,"""",image-button-response,22,133678,0.0-22.0,"""",directionsForTest2.JPG,0,1,directionsForTest2,break,"""","""","""","""","""","""","""","""","""","""","""",4/30/2021 21:28,98.194.177.71,Mozilla/5.0 (Windows NT 10.0; Win64; x64; rv:78.0) Gecko/20100101 Firefox/78.0,,Firefox,78,Windows,10
209,1,null,"""",html-keyboard-response,23,134680,0.0-23.0,"""","<div style=""font-size:60px;"">+</div>","""",1,ITI,Practice,null,1000,"""","""","""","""","""","""","""","""","""",4/30/2021 21:28,98.194.177.71,Mozilla/5.0 (Windows NT 10.0; Win64; x64; rv:78.0) Gecko/20100101 Firefox/78.0,,Firefox,78,Windows,10
209,1,null,"""",image-keyboard-response,24,134933,0.0-24.0,"""",jspsych/scrambledDisgustFaces/scrambledAM08DIS.JPG,"""",1,forwardMask,Practice,null,250,"""",d,"""","""","""","""","""","""","""",4/30/2021 21:28,98.194.177.71,Mozilla/5.0 (Windows NT 10.0; Win64; x64; rv:78.0) Gecko/20100101 Firefox/78.0,,Firefox,78,Windows,10
209,1,null,"""",image-keyboard-response,25,134951,0.0-25.0,"""",jspsych/disgustFaces/AM08DIS.JPG,"""",1,Cue,Practice,null,16,"""","""","""","""","""","""","""","""","""",4/30/2021 21:28,98.194.177.71,Mozilla/5.0 (Windows NT 10.0; Win64; x64; rv:78.0) Gecko/20100101 Firefox/78.0,,Firefox,78,Windows,10
209,1,null,"""",image-keyboard-response,26,135052,0.0-26.0,"""",jspsych/neutralFaces/BM02NES.JPG,"""",1,backwardMask,Practice,null,100,"""","""","""","""","""","""","""","""","""",4/30/2021 21:28,98.194.177.71,Mozilla/5.0 (Windows NT 10.0; Win64; x64; rv:78.0) Gecko/20100101 Firefox/78.0,,Firefox,78,Windows,10
209,1,null,"""",html-keyboard-response,27,136053,0.0-27.0,"""","<div style=""font-size:60px;"">+</div>","""",1,fixationBtwnNeutralMaskAndPrompt,Practice,null,1000,"""","""","""","""","""","""","""","""","""",4/30/2021 21:28,98.194.177.71,Mozilla/5.0 (Windows NT 10.0; Win64; x64; rv:78.0) Gecko/20100101 Firefox/78.0,,Firefox,78,Windows,10
209,1,2718,"""",html-button-response,28,138774,0.0-28.0,"""","<img src='jspsych/CFDfaces/CFD-WF-023-003-N.jpg'height=""250px""></br><b>Shannon</b>",0,1,IntactOrRearranged,Practice,"""","""","""","""",CFD-WF-023-003-N.jpg,Shannon,0,0,"""","""","""",4/30/2021 21:28,98.194.177.71,Mozilla/5.0 (Windows NT 10.0; Win64; x64; rv:78.0) Gecko/20100101 Firefox/78.0,,Firefox,78,Windows,10
209,1,3785,"""",html-slider-response,29,142563,0.0-29.0,"""","<img src='jspsych/CFDfaces/CFD-WF-023-003-N.jpg'height=""250px""></br><b>Shannon</b>","""",1,ConfidenceQuery,Practice,"""","""","""","""",CFD-AM-220-134-N.jpg,Justin,0,"""",0,100,"""",4/30/2021 21:28,98.194.177.71,Mozilla/5.0 (Windows NT 10.0; Win64; x64; rv:78.0) Gecko/20100101 Firefox/78.0,,Firefox,78,Windows,10
209,1,2944,"""",html-button-response,30,145512,0.0-30.0,"""",You are Correct. You called an Intact Pair Intact,0,1,feedback,Practice,"""","""","""","""","""","""","""","""","""","""","""",4/30/2021 21:28,98.194.177.71,Mozilla/5.0 (Windows NT 10.0; Win64; x64; rv:78.0) Gecko/20100101 Firefox/78.0,,Firefox,78,Windows,10
209,1,null,"""",html-keyboard-response,31,146513,0.0-31.0,"""","<div style=""font-size:60px;"">+</div>","""",2,ITI,Practice,null,1000,"""","""","""","""","""","""","""","""","""",4/30/2021 21:28,98.194.177.71,Mozilla/5.0 (Windows NT 10.0; Win64; x64; rv:78.0) Gecko/20100101 Firefox/78.0,,Firefox,78,Windows,10
209,1,null,"""",image-keyboard-response,32,146765,0.0-32.0,"""",jspsych/scrambledDisgustFaces/scrambledBM10DIS.JPG,"""",2,forwardMask,Practice,null,250,"""",d,"""","""","""","""","""","""","""",4/30/2021 21:28,98.194.177.71,Mozilla/5.0 (Windows NT 10.0; Win64; x64; rv:78.0) Gecko/20100101 Firefox/78.0,,Firefox,78,Windows,10
209,1,null,"""",image-keyboard-response,33,146786,0.0-33.0,"""",jspsych/disgustFaces/BM11DIS.JPG,"""",2,Cue,Practice,null,16,"""","""","""","""","""","""","""","""","""",4/30/2021 21:28,98.194.177.71,Mozilla/5.0 (Windows NT 10.0; Win64; x64; rv:78.0) Gecko/20100101 Firefox/78.0,,Firefox,78,Windows,10
209,1,null,"""",image-keyboard-response,34,146891,0.0-34.0,"""",jspsych/neutralFaces/AM31NES.JPG,"""",2,backwardMask,Practice,null,100,"""","""","""","""","""","""","""","""","""",4/30/2021 21:28,98.194.177.71,Mozilla/5.0 (Windows NT 10.0; Win64; x64; rv:78.0) Gecko/20100101 Firefox/78.0,,Firefox,78,Windows,10
209,1,null,"""",html-keyboard-response,35,147892,0.0-35.0,"""","<div style=""font-size:60px;"">+</div>","""",2,fixationBtwnNeutralMaskAndPrompt,Practice,null,1000,"""","""","""","""","""","""","""","""","""",4/30/2021 21:28,98.194.177.71,Mozilla/5.0 (Windows NT 10.0; Win64; x64; rv:78.0) Gecko/20100101 Firefox/78.0,,Firefox,78,Windows,10
209,1,3285,"""",html-button-response,36,151182,0.0-36.0,"""","<img src='jspsych/CFDfaces/CFD-LM-200-045-N.jpg'height=""250px""></br><b>Patrick</b>",0,2,IntactOrRearranged,Practice,"""","""","""","""",CFD-LM-200-045-N.jpg,Patrick,0,0,"""","""","""",4/30/2021 21:28,98.194.177.71,Mozilla/5.0 (Windows NT 10.0; Win64; x64; rv:78.0) Gecko/20100101 Firefox/78.0,,Firefox,78,Windows,10
209,1,4300,"""",html-slider-response,37,155484,0.0-37.0,"""","<img src='jspsych/CFDfaces/CFD-LM-200-045-N.jpg'height=""250px""></br><b>Patrick</b>","""",2,ConfidenceQuery,Practice,"""","""","""","""",CFD-AM-220-134-N.jpg,Justin,0,"""",0,79,"""",4/30/2021 21:28,98.194.177.71,Mozilla/5.0 (Windows NT 10.0; Win64; x64; rv:78.0) Gecko/20100101 Firefox/78.0,,Firefox,78,Windows,10
209,1,1032,"""",html-button-response,38,156520,0.0-38.0,"""",You are Correct. You called an Intact Pair Intact,0,2,feedback,Practice,"""","""","""","""","""","""","""","""","""","""","""",4/30/2021 21:28,98.194.177.71,Mozilla/5.0 (Windows NT 10.0; Win64; x64; rv:78.0) Gecko/20100101 Firefox/78.0,,Firefox,78,Windows,10
209,1,null,"""",html-keyboard-response,39,157530,0.0-39.0,"""","<div style=""font-size:60px;"">+</div>","""",3,ITI,Practice,null,1000,"""","""","""","""","""","""","""","""","""",4/30/2021 21:28,98.194.177.71,Mozilla/5.0 (Windows NT 10.0; Win64; x64; rv:78.0) Gecko/20100101 Firefox/78.0,,Firefox,78,Windows,10
209,1,null,"""",image-keyboard-response,40,157792,0.0-40.0,"""",jspsych/scrambledDisgustFaces/scrambledBM34DIS.JPG,"""",3,forwardMask,Practice,null,250,"""",d,"""","""","""","""","""","""","""",4/30/2021 21:28,98.194.177.71,Mozilla/5.0 (Windows NT 10.0; Win64; x64; rv:78.0) Gecko/20100101 Firefox/78.0,,Firefox,78,Windows,10
209,1,null,"""",image-keyboard-response,41,157815,0.0-41.0,"""",jspsych/disgustFaces/BM35DIS.JPG,"""",3,Cue,Practice,null,16,"""","""","""","""","""","""","""","""","""",4/30/2021 21:28,98.194.177.71,Mozilla/5.0 (Windows NT 10.0; Win64; x64; rv:78.0) Gecko/20100101 Firefox/78.0,,Firefox,78,Windows,10
209,1,null,"""",image-keyboard-response,42,157918,0.0-42.0,"""",jspsych/neutralFaces/BM34NES.JPG,"""",3,backwardMask,Practice,null,100,"""","""","""","""","""","""","""","""","""",4/30/2021 21:28,98.194.177.71,Mozilla/5.0 (Windows NT 10.0; Win64; x64; rv:78.0) Gecko/20100101 Firefox/78.0,,Firefox,78,Windows,10
209,1,null,"""",html-keyboard-response,43,158922,0.0-43.0,"""","<div style=""font-size:60px;"">+</div>","""",3,fixationBtwnNeutralMaskAndPrompt,Practice,null,1000,"""","""","""","""","""","""","""","""","""",4/30/2021 21:28,98.194.177.71,Mozilla/5.0 (Windows NT 10.0; Win64; x64; rv:78.0) Gecko/20100101 Firefox/78.0,,Firefox,78,Windows,10
209,1,2438,"""",html-button-response,44,161364,0.0-44.0,"""","<img src='jspsych/CFDfaces/CFD-WM-034-030-N.jpg'height=""250px""></br><b>Carlos</b>",1,3,IntactOrRearranged,Practice,"""","""","""","""",CFD-WM-034-030-N.jpg,Carlos,1,1,"""","""","""",4/30/2021 21:28,98.194.177.71,Mozilla/5.0 (Windows NT 10.0; Win64; x64; rv:78.0) Gecko/20100101 Firefox/78.0,,Firefox,78,Windows,10
209,1,2676,"""",html-slider-response,45,164053,0.0-45.0,"""","<img src='jspsych/CFDfaces/CFD-WM-034-030-N.jpg'height=""250px""></br><b>Carlos</b>","""",3,ConfidenceQuery,Practice,"""","""","""","""",CFD-AM-220-134-N.jpg,Justin,1,"""",0,100,"""",4/30/2021 21:28,98.194.177.71,Mozilla/5.0 (Windows NT 10.0; Win64; x64; rv:78.0) Gecko/20100101 Firefox/78.0,,Firefox,78,Windows,10
209,1,2065,"""",html-button-response,46,166121,0.0-46.0,"""",You are Correct. You Called A Rearranged Pair Rearranged,0,3,feedback,Practice,"""","""","""","""","""","""","""","""","""","""","""",4/30/2021 21:28,98.194.177.71,Mozilla/5.0 (Windows NT 10.0; Win64; x64; rv:78.0) Gecko/20100101 Firefox/78.0,,Firefox,78,Windows,10
209,1,null,"""",html-keyboard-response,47,167123,0.0-47.0,"""","<div style=""font-size:60px;"">+</div>","""",4,ITI,Practice,null,1000,"""","""","""","""","""","""","""","""","""",4/30/2021 21:28,98.194.177.71,Mozilla/5.0 (Windows NT 10.0; Win64; x64; rv:78.0) Gecko/20100101 Firefox/78.0,,Firefox,78,Windows,10
209,1,null,"""",image-keyboard-response,48,167386,0.0-48.0,"""",jspsych/scrambledNeutralFaces/scrambledBF33NES.JPG,"""",4,forwardMask,Practice,null,250,"""",n,"""","""","""","""","""","""","""",4/30/2021 21:28,98.194.177.71,Mozilla/5.0 (Windows NT 10.0; Win64; x64; rv:78.0) Gecko/20100101 Firefox/78.0,,Firefox,78,Windows,10
209,1,null,"""",image-keyboard-response,49,167412,0.0-49.0,"""",jspsych/neutralFaces/BF33NES.JPG,"""",4,Cue,Practice,null,16,"""","""","""","""","""","""","""","""","""",4/30/2021 21:28,98.194.177.71,Mozilla/5.0 (Windows NT 10.0; Win64; x64; rv:78.0) Gecko/20100101 Firefox/78.0,,Firefox,78,Windows,10
209,1,null,"""",image-keyboard-response,50,167521,0.0-50.0,"""",jspsych/neutralFaces/BF21NES.JPG,"""",4,backwardMask,Practice,null,100,"""","""","""","""","""","""","""","""","""",4/30/2021 21:28,98.194.177.71,Mozilla/5.0 (Windows NT 10.0; Win64; x64; rv:78.0) Gecko/20100101 Firefox/78.0,,Firefox,78,Windows,10
209,1,null,"""",html-keyboard-response,51,168525,0.0-51.0,"""","<div style=""font-size:60px;"">+</div>","""",4,fixationBtwnNeutralMaskAndPrompt,Practice,null,1000,"""","""","""","""","""","""","""","""","""",4/30/2021 21:28,98.194.177.71,Mozilla/5.0 (Windows NT 10.0; Win64; x64; rv:78.0) Gecko/20100101 Firefox/78.0,,Firefox,78,Windows,10
209,1,2857,"""",html-button-response,52,171384,0.0-52.0,"""","<img src='jspsych/CFDfaces/CFD-LF-208-127-N.jpg'height=""250px""></br><b>Tara</b>",0,4,IntactOrRearranged,Practice,"""","""","""","""",CFD-LF-208-127-N.jpg,Tara,0,0,"""","""","""",4/30/2021 21:28,98.194.177.71,Mozilla/5.0 (Windows NT 10.0; Win64; x64; rv:78.0) Gecko/20100101 Firefox/78.0,,Firefox,78,Windows,10
209,1,3527,"""",html-slider-response,53,174914,0.0-53.0,"""","<img src='jspsych/CFDfaces/CFD-LF-208-127-N.jpg'height=""250px""></br><b>Tara</b>","""",4,ConfidenceQuery,Practice,"""","""","""","""",CFD-AM-220-134-N.jpg,Justin,0,"""",0,60,"""",4/30/2021 21:28,98.194.177.71,Mozilla/5.0 (Windows NT 10.0; Win64; x64; rv:78.0) Gecko/20100101 Firefox/78.0,,Firefox,78,Windows,10
209,1,1079,"""",html-button-response,54,175998,0.0-54.0,"""",You are Correct. You called an Intact Pair Intact,0,4,feedback,Practice,"""","""","""","""","""","""","""","""","""","""","""",4/30/2021 21:28,98.194.177.71,Mozilla/5.0 (Windows NT 10.0; Win64; x64; rv:78.0) Gecko/20100101 Firefox/78.0,,Firefox,78,Windows,10
209,1,null,"""",html-keyboard-response,55,177000,0.0-55.0,"""","<div style=""font-size:60px;"">+</div>","""",5,ITI,Practice,null,1000,"""","""","""","""","""","""","""","""","""",4/30/2021 21:28,98.194.177.71,Mozilla/5.0 (Windows NT 10.0; Win64; x64; rv:78.0) Gecko/20100101 Firefox/78.0,,Firefox,78,Windows,10
209,1,null,"""",image-keyboard-response,56,177256,0.0-56.0,"""",jspsych/scrambledDisgustFaces/scrambledAF21DIS.JPG,"""",5,forwardMask,Practice,null,250,"""",d,"""","""","""","""","""","""","""",4/30/2021 21:28,98.194.177.71,Mozilla/5.0 (Windows NT 10.0; Win64; x64; rv:78.0) Gecko/20100101 Firefox/78.0,,Firefox,78,Windows,10
209,1,null,"""",image-keyboard-response,57,177278,0.0-57.0,"""",jspsych/disgustFaces/AF21DIS.JPG,"""",5,Cue,Practice,null,16,"""","""","""","""","""","""","""","""","""",4/30/2021 21:28,98.194.177.71,Mozilla/5.0 (Windows NT 10.0; Win64; x64; rv:78.0) Gecko/20100101 Firefox/78.0,,Firefox,78,Windows,10
209,1,null,"""",image-keyboard-response,58,177383,0.0-58.0,"""",jspsych/neutralFaces/BF09NES.JPG,"""",5,backwardMask,Practice,null,100,"""","""","""","""","""","""","""","""","""",4/30/2021 21:28,98.194.177.71,Mozilla/5.0 (Windows NT 10.0; Win64; x64; rv:78.0) Gecko/20100101 Firefox/78.0,,Firefox,78,Windows,10
209,1,null,"""",html-keyboard-response,59,178385,0.0-59.0,"""","<div style=""font-size:60px;"">+</div>","""",5,fixationBtwnNeutralMaskAndPrompt,Practice,null,1000,"""","""","""","""","""","""","""","""","""",4/30/2021 21:28,98.194.177.71,Mozilla/5.0 (Windows NT 10.0; Win64; x64; rv:78.0) Gecko/20100101 Firefox/78.0,,Firefox,78,Windows,10
209,1,2268,"""",html-button-response,60,180654,0.0-60.0,"""","<img src='jspsych/CFDfaces/CFD-WF-220-101-N.jpg'height=""250px""></br><b>Cassandra</b>",0,5,IntactOrRearranged,Practice,"""","""","""","""",CFD-WF-220-101-N.jpg,Cassandra,1,0,"""","""","""",4/30/2021 21:28,98.194.177.71,Mozilla/5.0 (Windows NT 10.0; Win64; x64; rv:78.0) Gecko/20100101 Firefox/78.0,,Firefox,78,Windows,10
209,1,3108,"""",html-slider-response,61,183767,0.0-61.0,"""","<img src='jspsych/CFDfaces/CFD-WF-220-101-N.jpg'height=""250px""></br><b>Cassandra</b>","""",5,ConfidenceQuery,Practice,"""","""","""","""",CFD-AM-220-134-N.jpg,Justin,1,"""",0,59,"""",4/30/2021 21:28,98.194.177.71,Mozilla/5.0 (Windows NT 10.0; Win64; x64; rv:78.0) Gecko/20100101 Firefox/78.0,,Firefox,78,Windows,10
209,1,1815,"""",html-button-response,62,185584,0.0-62.0,"""",You are Incorrect. You called a Rearranged Pair Intact,0,5,feedback,Practice,"""","""","""","""","""","""","""","""","""","""","""",4/30/2021 21:28,98.194.177.71,Mozilla/5.0 (Windows NT 10.0; Win64; x64; rv:78.0) Gecko/20100101 Firefox/78.0,,Firefox,78,Windows,10
209,1,null,"""",html-keyboard-response,63,186586,0.0-63.0,"""","<div style=""font-size:60px;"">+</div>","""",6,ITI,Practice,null,1000,"""","""","""","""","""","""","""","""","""",4/30/2021 21:28,98.194.177.71,Mozilla/5.0 (Windows NT 10.0; Win64; x64; rv:78.0) Gecko/20100101 Firefox/78.0,,Firefox,78,Windows,10
209,1,null,"""",image-keyboard-response,64,186839,0.0-64.0,"""",jspsych/scrambledNeutralFaces/scrambledAM22NES.JPG,"""",6,forwardMask,Practice,null,250,"""",n,"""","""","""","""","""","""","""",4/30/2021 21:28,98.194.177.71,Mozilla/5.0 (Windows NT 10.0; Win64; x64; rv:78.0) Gecko/20100101 Firefox/78.0,,Firefox,78,Windows,10
209,1,null,"""",image-keyboard-response,65,186861,0.0-65.0,"""",jspsych/neutralFaces/AM22NES.JPG,"""",6,Cue,Practice,null,16,"""","""","""","""","""","""","""","""","""",4/30/2021 21:28,98.194.177.71,Mozilla/5.0 (Windows NT 10.0; Win64; x64; rv:78.0) Gecko/20100101 Firefox/78.0,,Firefox,78,Windows,10
209,1,null,"""",image-keyboard-response,66,186965,0.0-66.0,"""",jspsych/neutralFaces/AM02NES.JPG,"""",6,backwardMask,Practice,null,100,"""","""","""","""","""","""","""","""","""",4/30/2021 21:28,98.194.177.71,Mozilla/5.0 (Windows NT 10.0; Win64; x64; rv:78.0) Gecko/20100101 Firefox/78.0,,Firefox,78,Windows,10
209,1,null,"""",html-keyboard-response,67,187967,0.0-67.0,"""","<div style=""font-size:60px;"">+</div>","""",6,fixationBtwnNeutralMaskAndPrompt,Practice,null,1000,"""","""","""","""","""","""","""","""","""",4/30/2021 21:28,98.194.177.71,Mozilla/5.0 (Windows NT 10.0; Win64; x64; rv:78.0) Gecko/20100101 Firefox/78.0,,Firefox,78,Windows,10
209,1,3100,"""",html-button-response,68,191071,0.0-68.0,"""","<img src='jspsych/CFDfaces/CFD-WF-016-015-N.jpg'height=""250px""></br><b>Katelyn</b>",1,6,IntactOrRearranged,Practice,"""","""","""","""",CFD-WF-016-015-N.jpg,Katelyn,1,1,"""","""","""",4/30/2021 21:28,98.194.177.71,Mozilla/5.0 (Windows NT 10.0; Win64; x64; rv:78.0) Gecko/20100101 Firefox/78.0,,Firefox,78,Windows,10
209,1,2940,"""",html-slider-response,69,194013,0.0-69.0,"""","<img src='jspsych/CFDfaces/CFD-WF-016-015-N.jpg'height=""250px""></br><b>Katelyn</b>","""",6,ConfidenceQuery,Practice,"""","""","""","""",CFD-AM-220-134-N.jpg,Justin,1,"""",0,82,"""",4/30/2021 21:28,98.194.177.71,Mozilla/5.0 (Windows NT 10.0; Win64; x64; rv:78.0) Gecko/20100101 Firefox/78.0,,Firefox,78,Windows,10
209,1,1157,"""",html-button-response,70,195175,0.0-70.0,"""",You are Correct. You Called A Rearranged Pair Rearranged,0,6,feedback,Practice,"""","""","""","""","""","""","""","""","""","""","""",4/30/2021 21:28,98.194.177.71,Mozilla/5.0 (Windows NT 10.0; Win64; x64; rv:78.0) Gecko/20100101 Firefox/78.0,,Firefox,78,Windows,10
209,1,null,"""",html-keyboard-response,71,196179,0.0-71.0,"""","<div style=""font-size:60px;"">+</div>","""",7,ITI,Practice,null,1000,"""","""","""","""","""","""","""","""","""",4/30/2021 21:28,98.194.177.71,Mozilla/5.0 (Windows NT 10.0; Win64; x64; rv:78.0) Gecko/20100101 Firefox/78.0,,Firefox,78,Windows,10
209,1,null,"""",image-keyboard-response,72,196433,0.0-72.0,"""",jspsych/scrambledDisgustFaces/scrambledAM15DIS.JPG,"""",7,forwardMask,Practice,null,250,"""",d,"""","""","""","""","""","""","""",4/30/2021 21:28,98.194.177.71,Mozilla/5.0 (Windows NT 10.0; Win64; x64; rv:78.0) Gecko/20100101 Firefox/78.0,,Firefox,78,Windows,10
209,1,null,"""",image-keyboard-response,73,196455,0.0-73.0,"""",jspsych/disgustFaces/AM15DIS.JPG,"""",7,Cue,Practice,null,16,"""","""","""","""","""","""","""","""","""",4/30/2021 21:28,98.194.177.71,Mozilla/5.0 (Windows NT 10.0; Win64; x64; rv:78.0) Gecko/20100101 Firefox/78.0,,Firefox,78,Windows,10
209,1,null,"""",image-keyboard-response,74,196560,0.0-74.0,"""",jspsych/neutralFaces/AM33NES.JPG,"""",7,backwardMask,Practice,null,100,"""","""","""","""","""","""","""","""","""",4/30/2021 21:28,98.194.177.71,Mozilla/5.0 (Windows NT 10.0; Win64; x64; rv:78.0) Gecko/20100101 Firefox/78.0,,Firefox,78,Windows,10
209,1,null,"""",html-keyboard-response,75,197563,0.0-75.0,"""","<div style=""font-size:60px;"">+</div>","""",7,fixationBtwnNeutralMaskAndPrompt,Practice,null,1000,"""","""","""","""","""","""","""","""","""",4/30/2021 21:28,98.194.177.71,Mozilla/5.0 (Windows NT 10.0; Win64; x64; rv:78.0) Gecko/20100101 Firefox/78.0,,Firefox,78,Windows,10
209,1,3683,"""",html-button-response,76,201247,0.0-76.0,"""","<img src='jspsych/CFDfaces/CFD-BM-027-001-N.jpg'height=""250px""></br><b>Marcus</b>",1,7,IntactOrRearranged,Practice,"""","""","""","""",CFD-BM-027-001-N.jpg,Marcus,1,1,"""","""","""",4/30/2021 21:28,98.194.177.71,Mozilla/5.0 (Windows NT 10.0; Win64; x64; rv:78.0) Gecko/20100101 Firefox/78.0,,Firefox,78,Windows,10
209,1,1946,"""",html-slider-response,77,203197,0.0-77.0,"""","<img src='jspsych/CFDfaces/CFD-BM-027-001-N.jpg'height=""250px""></br><b>Marcus</b>","""",7,ConfidenceQuery,Practice,"""","""","""","""",CFD-AM-220-134-N.jpg,Justin,1,"""",0,100,"""",4/30/2021 21:28,98.194.177.71,Mozilla/5.0 (Windows NT 10.0; Win64; x64; rv:78.0) Gecko/20100101 Firefox/78.0,,Firefox,78,Windows,10
209,1,1280,"""",html-button-response,78,204478,0.0-78.0,"""",You are Correct. You Called A Rearranged Pair Rearranged,0,7,feedback,Practice,"""","""","""","""","""","""","""","""","""","""","""",4/30/2021 21:28,98.194.177.71,Mozilla/5.0 (Windows NT 10.0; Win64; x64; rv:78.0) Gecko/20100101 Firefox/78.0,,Firefox,78,Windows,10
209,1,null,"""",html-keyboard-response,79,205480,0.0-79.0,"""","<div style=""font-size:60px;"">+</div>","""",8,ITI,Practice,null,1000,"""","""","""","""","""","""","""","""","""",4/30/2021 21:28,98.194.177.71,Mozilla/5.0 (Windows NT 10.0; Win64; x64; rv:78.0) Gecko/20100101 Firefox/78.0,,Firefox,78,Windows,10
209,1,null,"""",image-keyboard-response,80,205734,0.0-80.0,"""",jspsych/scrambledNeutralFaces/scrambledBF31NES.JPG,"""",8,forwardMask,Practice,null,250,"""",n,"""","""","""","""","""","""","""",4/30/2021 21:28,98.194.177.71,Mozilla/5.0 (Windows NT 10.0; Win64; x64; rv:78.0) Gecko/20100101 Firefox/78.0,,Firefox,78,Windows,10
209,1,null,"""",image-keyboard-response,81,205752,0.0-81.0,"""",jspsych/neutralFaces/BF31NES.JPG,"""",8,Cue,Practice,null,16,"""","""","""","""","""","""","""","""","""",4/30/2021 21:28,98.194.177.71,Mozilla/5.0 (Windows NT 10.0; Win64; x64; rv:78.0) Gecko/20100101 Firefox/78.0,,Firefox,78,Windows,10
209,1,null,"""",image-keyboard-response,82,205853,0.0-82.0,"""",jspsych/neutralFaces/AF09NES.JPG,"""",8,backwardMask,Practice,null,100,"""","""","""","""","""","""","""","""","""",4/30/2021 21:28,98.194.177.71,Mozilla/5.0 (Windows NT 10.0; Win64; x64; rv:78.0) Gecko/20100101 Firefox/78.0,,Firefox,78,Windows,10
209,1,null,"""",html-keyboard-response,83,206861,0.0-83.0,"""","<div style=""font-size:60px;"">+</div>","""",8,fixationBtwnNeutralMaskAndPrompt,Practice,null,1000,"""","""","""","""","""","""","""","""","""",4/30/2021 21:28,98.194.177.71,Mozilla/5.0 (Windows NT 10.0; Win64; x64; rv:78.0) Gecko/20100101 Firefox/78.0,,Firefox,78,Windows,10
209,1,2597,"""",html-button-response,84,209471,0.0-84.0,"""","<img src='jspsych/CFDfaces/CFD-AM-238-269-N.jpg'height=""250px""></br><b>Samuel</b>",0,8,IntactOrRearranged,Practice,"""","""","""","""",CFD-AM-238-269-N.jpg,Samuel,0,0,"""","""","""",4/30/2021 21:28,98.194.177.71,Mozilla/5.0 (Windows NT 10.0; Win64; x64; rv:78.0) Gecko/20100101 Firefox/78.0,,Firefox,78,Windows,10
209,1,2428,"""",html-slider-response,85,211901,0.0-85.0,"""","<img src='jspsych/CFDfaces/CFD-AM-238-269-N.jpg'height=""250px""></br><b>Samuel</b>","""",8,ConfidenceQuery,Practice,"""","""","""","""",CFD-AM-220-134-N.jpg,Justin,0,"""",0,80,"""",4/30/2021 21:28,98.194.177.71,Mozilla/5.0 (Windows NT 10.0; Win64; x64; rv:78.0) Gecko/20100101 Firefox/78.0,,Firefox,78,Windows,10
209,1,1076,"""",html-button-response,86,212979,0.0-86.0,"""",You are Correct. You called an Intact Pair Intact,0,8,feedback,Practice,"""","""","""","""","""","""","""","""","""","""","""",4/30/2021 21:28,98.194.177.71,Mozilla/5.0 (Windows NT 10.0; Win64; x64; rv:78.0) Gecko/20100101 Firefox/78.0,,Firefox,78,Windows,10
209,1,1621,"""",image-button-response,87,214610,0.0-87.0,"""",directionsMemoryAssociation3.JPG,0,128,DirectionsBeforeActualTEst,Break,"""","""","""","""","""","""","""","""","""","""","""",4/30/2021 21:28,98.194.177.71,Mozilla/5.0 (Windows NT 10.0; Win64; x64; rv:78.0) Gecko/20100101 Firefox/78.0,,Firefox,78,Windows,10
209,1,2752,"""",image-button-response,88,217367,0.0-88.0,"""",directionsForTest2.JPG,0,1,directionsForTest2,break,"""","""","""","""","""","""","""","""","""","""","""",4/30/2021 21:28,98.194.177.71,Mozilla/5.0 (Windows NT 10.0; Win64; x64; rv:78.0) Gecko/20100101 Firefox/78.0,,Firefox,78,Windows,10
209,1,15573,"""",html-button-response,89,232946,0.0-89.0,"""","<p>You will be asked to memorize and then recall four sets of face-name pairs. </p> <p> Each set will have 32 pairs. </p> <p>After the fourth set, there will be a brief follow-up experiment (<40 min alltogether)</p>",0,"""","""","""","""","""","""","""","""","""","""","""","""","""","""",4/30/2021 21:28,98.194.177.71,Mozilla/5.0 (Windows NT 10.0; Win64; x64; rv:78.0) Gecko/20100101 Firefox/78.0,,Firefox,78,Windows,10
209,1,3918,"""",html-keyboard-response,90,237960,0.0-90.0,"""","<img src='jspsych/CFDfaces/CFD-BF-039-031-N.jpg' height=""250px""></br><b>Meghan</b>","""",256,IntactFace,Memorization,78,5000,n,"""",CFD-WF-024-003-N.jpg,Jasmine,0,"""","""","""",1,4/30/2021 21:28,98.194.177.71,Mozilla/5.0 (Windows NT 10.0; Win64; x64; rv:78.0) Gecko/20100101 Firefox/78.0,,Firefox,78,Windows,10
209,1,null,"""",html-keyboard-response,91,238466,0.0-91.0,"""","<div style=""font-size:60px;"">+</div>","""",256,fixation,Memorization,null,500,"""","""","""","""","""","""","""","""",1,4/30/2021 21:28,98.194.177.71,Mozilla/5.0 (Windows NT 10.0; Win64; x64; rv:78.0) Gecko/20100101 Firefox/78.0,,Firefox,78,Windows,10
209,1,4955,"""",html-keyboard-response,92,243491,0.0-92.0,"""","<img src='jspsych/CFDfaces/CFD-LM-252-076-N.jpg' height=""250px""></br><b>Daniel</b>","""",256,IntactFace,Memorization,70,5000,f,"""",CFD-AM-220-134-N.jpg,Justin,0,"""","""","""",1,4/30/2021 21:28,98.194.177.71,Mozilla/5.0 (Windows NT 10.0; Win64; x64; rv:78.0) Gecko/20100101 Firefox/78.0,,Firefox,78,Windows,10
209,1,null,"""",html-keyboard-response,93,243996,0.0-93.0,"""","<div style=""font-size:60px;"">+</div>","""",256,fixation,Memorization,null,500,"""","""","""","""","""","""","""","""",1,4/30/2021 21:28,98.194.177.71,Mozilla/5.0 (Windows NT 10.0; Win64; x64; rv:78.0) Gecko/20100101 Firefox/78.0,,Firefox,78,Windows,10
209,1,4572,"""",html-keyboard-response,94,248998,0.0-94.0,"""","<img src='jspsych/CFDfaces/CFD-BF-025-002-N.jpg' height=""250px""></br><b>Kimberly</b>","""",256,IntactFace,Memorization,70,5000,f,"""",CFD-AF-209-006-N.jpg,Jenna,0,"""","""","""",1,4/30/2021 21:28,98.194.177.71,Mozilla/5.0 (Windows NT 10.0; Win64; x64; rv:78.0) Gecko/20100101 Firefox/78.0,,Firefox,78,Windows,10
209,1,null,"""",html-keyboard-response,95,249501,0.0-95.0,"""","<div style=""font-size:60px;"">+</div>","""",256,fixation,Memorization,null,500,"""","""","""","""","""","""","""","""",1,4/30/2021 21:28,98.194.177.71,Mozilla/5.0 (Windows NT 10.0; Win64; x64; rv:78.0) Gecko/20100101 Firefox/78.0,,Firefox,78,Windows,10
209,1,3364,"""",html-keyboard-response,96,254512,0.0-96.0,"""","<img src='jspsych/CFDfaces/CFD-AF-242-158-N.jpg' height=""250px""></br><b>Samantha</b>","""",256,IntactFace,Memorization,70,5000,f,"""",CFD-LF-244-096-N.jpg,Erin,0,"""","""","""",1,4/30/2021 21:28,98.194.177.71,Mozilla/5.0 (Windows NT 10.0; Win64; x64; rv:78.0) Gecko/20100101 Firefox/78.0,,Firefox,78,Windows,10
209,1,null,"""",html-keyboard-response,97,255015,0.0-97.0,"""","<div style=""font-size:60px;"">+</div>","""",256,fixation,Memorization,null,500,"""","""","""","""","""","""","""","""",1,4/30/2021 21:28,98.194.177.71,Mozilla/5.0 (Windows NT 10.0; Win64; x64; rv:78.0) Gecko/20100101 Firefox/78.0,,Firefox,78,Windows,10
209,1,1590,"""",html-keyboard-response,98,260024,0.0-98.0,"""","<img src='jspsych/CFDfaces/CFD-LF-230-203-N.jpg' height=""250px""></br><b>Michelle</b>","""",256,IntactFace,Memorization,70,5000,f,"""",CFD-WF-223-133-N.jpg,Amy,0,"""","""","""",1,4/30/2021 21:28,98.194.177.71,Mozilla/5.0 (Windows NT 10.0; Win64; x64; rv:78.0) Gecko/20100101 Firefox/78.0,,Firefox,78,Windows,10
209,1,null,"""",html-keyboard-response,99,260527,0.0-99.0,"""","<div style=""font-size:60px;"">+</div>","""",256,fixation,Memorization,null,500,"""","""","""","""","""","""","""","""",1,4/30/2021 21:28,98.194.177.71,Mozilla/5.0 (Windows NT 10.0; Win64; x64; rv:78.0) Gecko/20100101 Firefox/78.0,,Firefox,78,Windows,10
209,1,3951,"""",html-keyboard-response,100,265540,0.0-100.0,"""","<img src='jspsych/CFDfaces/CFD-LM-213-061-N.jpg' height=""250px""></br><b>Robert</b>","""",256,IntactFace,Memorization,78,5000,n,"""",CFD-LM-209-111-N.jpg,Jesse,0,"""","""","""",1,4/30/2021 21:28,98.194.177.71,Mozilla/5.0 (Windows NT 10.0; Win64; x64; rv:78.0) Gecko/20100101 Firefox/78.0,,Firefox,78,Windows,10
209,1,null,"""",html-keyboard-response,101,266042,0.0-101.0,"""","<div style=""font-size:60px;"">+</div>","""",256,fixation,Memorization,null,500,"""","""","""","""","""","""","""","""",1,4/30/2021 21:28,98.194.177.71,Mozilla/5.0 (Windows NT 10.0; Win64; x64; rv:78.0) Gecko/20100101 Firefox/78.0,,Firefox,78,Windows,10
209,1,2854,"""",html-keyboard-response,102,271055,0.0-102.0,"""","<img src='jspsych/CFDfaces/CFD-BM-211-174-N.jpg' height=""250px""></br><b>Jason</b>","""",256,IntactFace,Memorization,78,5000,n,"""",CFD-AM-228-214-N.jpg,Travis,0,"""","""","""",1,4/30/2021 21:28,98.194.177.71,Mozilla/5.0 (Windows NT 10.0; Win64; x64; rv:78.0) Gecko/20100101 Firefox/78.0,,Firefox,78,Windows,10
209,1,null,"""",html-keyboard-response,103,271555,0.0-103.0,"""","<div style=""font-size:60px;"">+</div>","""",256,fixation,Memorization,null,500,"""","""","""","""","""","""","""","""",1,4/30/2021 21:28,98.194.177.71,Mozilla/5.0 (Windows NT 10.0; Win64; x64; rv:78.0) Gecko/20100101 Firefox/78.0,,Firefox,78,Windows,10
209,1,2782,"""",html-keyboard-response,104,276567,0.0-104.0,"""","<img src='jspsych/CFDfaces/CFD-BF-222-240-N.jpg' height=""250px""></br><b>Julie</b>","""",256,IntactFace,Memorization,78,5000,n,"""",CFD-BM-029-024-N.jpg,Vincent,0,"""","""","""",1,4/30/2021 21:28,98.194.177.71,Mozilla/5.0 (Windows NT 10.0; Win64; x64; rv:78.0) Gecko/20100101 Firefox/78.0,,Firefox,78,Windows,10
209,1,null,"""",html-keyboard-response,105,277070,0.0-105.0,"""","<div style=""font-size:60px;"">+</div>","""",256,fixation,Memorization,null,500,"""","""","""","""","""","""","""","""",1,4/30/2021 21:28,98.194.177.71,Mozilla/5.0 (Windows NT 10.0; Win64; x64; rv:78.0) Gecko/20100101 Firefox/78.0,,Firefox,78,Windows,10
209,1,3543,"""",html-keyboard-response,106,282078,0.0-106.0,"""","<img src='jspsych/CFDfaces/CFD-AM-234-355-N.jpg' height=""250px""></br><b>Christian</b>","""",256,IntactFace,Memorization,78,5000,n,"""",CFD-WF-019-005-N.jpg,Lindsey,0,"""","""","""",1,4/30/2021 21:28,98.194.177.71,Mozilla/5.0 (Windows NT 10.0; Win64; x64; rv:78.0) Gecko/20100101 Firefox/78.0,,Firefox,78,Windows,10
209,1,null,"""",html-keyboard-response,107,282582,0.0-107.0,"""","<div style=""font-size:60px;"">+</div>","""",256,fixation,Memorization,null,500,"""","""","""","""","""","""","""","""",1,4/30/2021 21:28,98.194.177.71,Mozilla/5.0 (Windows NT 10.0; Win64; x64; rv:78.0) Gecko/20100101 Firefox/78.0,,Firefox,78,Windows,10
209,1,2178,"""",html-keyboard-response,108,287594,0.0-108.0,"""","<img src='jspsych/CFDfaces/CFD-BF-218-207-N.jpg' height=""250px""></br><b>Victoria</b>","""",256,IntactFace,Memorization,70,5000,f,"""",CFD-LM-248-089-N.jpg,Cameron,0,"""","""","""",1,4/30/2021 21:28,98.194.177.71,Mozilla/5.0 (Windows NT 10.0; Win64; x64; rv:78.0) Gecko/20100101 Firefox/78.0,,Firefox,78,Windows,10
209,1,null,"""",html-keyboard-response,109,288096,0.0-109.0,"""","<div style=""font-size:60px;"">+</div>","""",256,fixation,Memorization,null,500,"""","""","""","""","""","""","""","""",1,4/30/2021 21:28,98.194.177.71,Mozilla/5.0 (Windows NT 10.0; Win64; x64; rv:78.0) Gecko/20100101 Firefox/78.0,,Firefox,78,Windows,10
209,1,2142,"""",html-keyboard-response,110,293112,0.0-110.0,"""","<img src='jspsych/CFDfaces/CFD-BF-001-025-N.jpg' height=""250px""></br><b>Christina</b>","""",256,IntactFace,Memorization,70,5000,f,"""",CFD-WF-006-002-N.jpg,Jordan,0,"""","""","""",1,4/30/2021 21:28,98.194.177.71,Mozilla/5.0 (Windows NT 10.0; Win64; x64; rv:78.0) Gecko/20100101 Firefox/78.0,,Firefox,78,Windows,10
209,1,null,"""",html-keyboard-response,111,293613,0.0-111.0,"""","<div style=""font-size:60px;"">+</div>","""",256,fixation,Memorization,null,500,"""","""","""","""","""","""","""","""",1,4/30/2021 21:28,98.194.177.71,Mozilla/5.0 (Windows NT 10.0; Win64; x64; rv:78.0) Gecko/20100101 Firefox/78.0,,Firefox,78,Windows,10
209,1,3362,"""",html-keyboard-response,112,298618,0.0-112.0,"""","<img src='jspsych/CFDfaces/CFD-LF-215-157-N.jpg' height=""250px""></br><b>Emily</b>","""",256,IntactFace,Memorization,78,5000,n,"""",CFD-WM-212-097-N.jpg,Mark,0,"""","""","""",1,4/30/2021 21:28,98.194.177.71,Mozilla/5.0 (Windows NT 10.0; Win64; x64; rv:78.0) Gecko/20100101 Firefox/78.0,,Firefox,78,Windows,10
209,1,null,"""",html-keyboard-response,113,299119,0.0-113.0,"""","<div style=""font-size:60px;"">+</div>","""",256,fixation,Memorization,null,500,"""","""","""","""","""","""","""","""",1,4/30/2021 21:28,98.194.177.71,Mozilla/5.0 (Windows NT 10.0; Win64; x64; rv:78.0) Gecko/20100101 Firefox/78.0,,Firefox,78,Windows,10
209,1,4869,"""",html-keyboard-response,114,304128,0.0-114.0,"""","<img src='jspsych/CFDfaces/CFD-AF-237-223-N.jpg' height=""250px""></br><b>Stephanie</b>","""",256,IntactFace,Memorization,78,5000,n,"""",CFD-LF-231-260-N.jpg,Rebecca,0,"""","""","""",1,4/30/2021 21:28,98.194.177.71,Mozilla/5.0 (Windows NT 10.0; Win64; x64; rv:78.0) Gecko/20100101 Firefox/78.0,,Firefox,78,Windows,10
209,1,null,"""",html-keyboard-response,115,304630,0.0-115.0,"""","<div style=""font-size:60px;"">+</div>","""",256,fixation,Memorization,null,500,"""","""","""","""","""","""","""","""",1,4/30/2021 21:28,98.194.177.71,Mozilla/5.0 (Windows NT 10.0; Win64; x64; rv:78.0) Gecko/20100101 Firefox/78.0,,Firefox,78,Windows,10
209,1,1697,"""",html-keyboard-response,116,309635,0.0-116.0,"""","<img src='jspsych/CFDfaces/CFD-BF-221-223-N.jpg' height=""250px""></br><b>Ashley</b>","""",256,IntactFace,Memorization,70,5000,f,"""",CFD-AM-213-056-N.jpg,Ryan,0,"""","""","""",1,4/30/2021 21:28,98.194.177.71,Mozilla/5.0 (Windows NT 10.0; Win64; x64; rv:78.0) Gecko/20100101 Firefox/78.0,,Firefox,78,Windows,10
209,1,null,"""",html-keyboard-response,117,310138,0.0-117.0,"""","<div style=""font-size:60px;"">+</div>","""",256,fixation,Memorization,null,500,"""","""","""","""","""","""","""","""",1,4/30/2021 21:28,98.194.177.71,Mozilla/5.0 (Windows NT 10.0; Win64; x64; rv:78.0) Gecko/20100101 Firefox/78.0,,Firefox,78,Windows,10
209,1,1822,"""",html-keyboard-response,118,315150,0.0-118.0,"""","<img src='jspsych/CFDfaces/CFD-BM-001-014-N.jpg' height=""250px""></br><b>Brian</b>","""",256,IntactFace,Memorization,70,5000,f,"""",CFD-AM-207-108-N.jpg,Steven,0,"""","""","""",1,4/30/2021 21:28,98.194.177.71,Mozilla/5.0 (Windows NT 10.0; Win64; x64; rv:78.0) Gecko/20100101 Firefox/78.0,,Firefox,78,Windows,10
209,1,null,"""",html-keyboard-response,119,315652,0.0-119.0,"""","<div style=""font-size:60px;"">+</div>","""",256,fixation,Memorization,null,500,"""","""","""","""","""","""","""","""",1,4/30/2021 21:28,98.194.177.71,Mozilla/5.0 (Windows NT 10.0; Win64; x64; rv:78.0) Gecko/20100101 Firefox/78.0,,Firefox,78,Windows,10
209,1,2003,"""",html-keyboard-response,120,320665,0.0-120.0,"""","<img src='jspsych/CFDfaces/CFD-LF-236-221-N.jpg' height=""250px""></br><b>Kayla</b>","""",256,IntactFace,Memorization,70,5000,f,"""",CFD-WM-017-002-N.jpg,Austin,0,"""","""","""",1,4/30/2021 21:28,98.194.177.71,Mozilla/5.0 (Windows NT 10.0; Win64; x64; rv:78.0) Gecko/20100101 Firefox/78.0,,Firefox,78,Windows,10
209,1,null,"""",html-keyboard-response,121,321167,0.0-121.0,"""","<div style=""font-size:60px;"">+</div>","""",256,fixation,Memorization,null,500,"""","""","""","""","""","""","""","""",1,4/30/2021 21:28,98.194.177.71,Mozilla/5.0 (Windows NT 10.0; Win64; x64; rv:78.0) Gecko/20100101 Firefox/78.0,,Firefox,78,Windows,10
209,1,1924,"""",html-keyboard-response,122,326176,0.0-122.0,"""","<img src='jspsych/CFDfaces/CFD-WM-022-001-N.jpg' height=""250px""></br><b>Eric</b>","""",256,IntactFace,Memorization,70,5000,f,"""",CFD-AM-229-224-N.jpg,Timothy,0,"""","""","""",1,4/30/2021 21:28,98.194.177.71,Mozilla/5.0 (Windows NT 10.0; Win64; x64; rv:78.0) Gecko/20100101 Firefox/78.0,,Firefox,78,Windows,10
209,1,null,"""",html-keyboard-response,123,326678,0.0-123.0,"""","<div style=""font-size:60px;"">+</div>","""",256,fixation,Memorization,null,500,"""","""","""","""","""","""","""","""",1,4/30/2021 21:28,98.194.177.71,Mozilla/5.0 (Windows NT 10.0; Win64; x64; rv:78.0) Gecko/20100101 Firefox/78.0,,Firefox,78,Windows,10
209,1,1896,"""",html-keyboard-response,124,331683,0.0-124.0,"""","<img src='jspsych/CFDfaces/CFD-BF-019-001-N.jpg' height=""250px""></br><b>Vanessa</b>","""",256,IntactFace,Memorization,70,5000,f,"""",CFD-BF-209-172-N.jpg,Tiffany,0,"""","""","""",1,4/30/2021 21:28,98.194.177.71,Mozilla/5.0 (Windows NT 10.0; Win64; x64; rv:78.0) Gecko/20100101 Firefox/78.0,,Firefox,78,Windows,10
209,1,null,"""",html-keyboard-response,125,332184,0.0-125.0,"""","<div style=""font-size:60px;"">+</div>","""",256,fixation,Memorization,null,500,"""","""","""","""","""","""","""","""",1,4/30/2021 21:28,98.194.177.71,Mozilla/5.0 (Windows NT 10.0; Win64; x64; rv:78.0) Gecko/20100101 Firefox/78.0,,Firefox,78,Windows,10
209,1,1815,"""",html-keyboard-response,126,337197,0.0-126.0,"""","<img src='jspsych/CFDfaces/CFD-BF-009-002-N.jpg' height=""250px""></br><b>Amanda</b>","""",256,IntactFace,Memorization,70,5000,f,"""",CFD-WF-204-038-N.jpg,Angela,0,"""","""","""",1,4/30/2021 21:28,98.194.177.71,Mozilla/5.0 (Windows NT 10.0; Win64; x64; rv:78.0) Gecko/20100101 Firefox/78.0,,Firefox,78,Windows,10
209,1,null,"""",html-keyboard-response,127,337700,0.0-127.0,"""","<div style=""font-size:60px;"">+</div>","""",256,fixation,Memorization,null,500,"""","""","""","""","""","""","""","""",1,4/30/2021 21:28,98.194.177.71,Mozilla/5.0 (Windows NT 10.0; Win64; x64; rv:78.0) Gecko/20100101 Firefox/78.0,,Firefox,78,Windows,10
209,1,2595,"""",html-keyboard-response,128,342715,0.0-128.0,"""","<img src='jspsych/CFDfaces/CFD-WM-213-076-N.jpg' height=""250px""></br><b>Brandon</b>","""",256,IntactFace,Memorization,70,5000,f,"""",CFD-WF-018-017-N.jpg,Whitney,0,"""","""","""",1,4/30/2021 21:28,98.194.177.71,Mozilla/5.0 (Windows NT 10.0; Win64; x64; rv:78.0) Gecko/20100101 Firefox/78.0,,Firefox,78,Windows,10
209,1,null,"""",html-keyboard-response,129,343218,0.0-129.0,"""","<div style=""font-size:60px;"">+</div>","""",256,fixation,Memorization,null,500,"""","""","""","""","""","""","""","""",1,4/30/2021 21:28,98.194.177.71,Mozilla/5.0 (Windows NT 10.0; Win64; x64; rv:78.0) Gecko/20100101 Firefox/78.0,,Firefox,78,Windows,10
209,1,1580,"""",html-keyboard-response,130,348241,0.0-130.0,"""","<img src='jspsych/CFDfaces/CFD-LF-218-072-N.jpg' height=""250px""></br><b>Andrea</b>","""",256,IntactFace,Memorization,70,5000,f,"""",CFD-BF-201-080-N.jpg,Sara,0,"""","""","""",1,4/30/2021 21:28,98.194.177.71,Mozilla/5.0 (Windows NT 10.0; Win64; x64; rv:78.0) Gecko/20100101 Firefox/78.0,,Firefox,78,Windows,10
209,1,null,"""",html-keyboard-response,131,348744,0.0-131.0,"""","<div style=""font-size:60px;"">+</div>","""",256,fixation,Memorization,null,500,"""","""","""","""","""","""","""","""",1,4/30/2021 21:28,98.194.177.71,Mozilla/5.0 (Windows NT 10.0; Win64; x64; rv:78.0) Gecko/20100101 Firefox/78.0,,Firefox,78,Windows,10
209,1,2247,"""",html-keyboard-response,132,353756,0.0-132.0,"""","<img src='jspsych/CFDfaces/CFD-WM-009-002-N.jpg' height=""250px""></br><b>Joshua</b>","""",256,IntactFace,Memorization,70,5000,f,"""",CFD-LM-234-176-N.jpg,Kenneth,0,"""","""","""",1,4/30/2021 21:28,98.194.177.71,Mozilla/5.0 (Windows NT 10.0; Win64; x64; rv:78.0) Gecko/20100101 Firefox/78.0,,Firefox,78,Windows,10
209,1,null,"""",html-keyboard-response,133,354258,0.0-133.0,"""","<div style=""font-size:60px;"">+</div>","""",256,fixation,Memorization,null,500,"""","""","""","""","""","""","""","""",1,4/30/2021 21:28,98.194.177.71,Mozilla/5.0 (Windows NT 10.0; Win64; x64; rv:78.0) Gecko/20100101 Firefox/78.0,,Firefox,78,Windows,10
209,1,3174,"""",html-keyboard-response,134,359263,0.0-134.0,"""","<img src='jspsych/CFDfaces/CFD-WM-020-001-N.jpg' height=""250px""></br><b>Jeffrey</b>","""",256,IntactFace,Memorization,70,5000,f,"""",CFD-WF-207-014-N.jpg,Laura,0,"""","""","""",1,4/30/2021 21:28,98.194.177.71,Mozilla/5.0 (Windows NT 10.0; Win64; x64; rv:78.0) Gecko/20100101 Firefox/78.0,,Firefox,78,Windows,10
209,1,null,"""",html-keyboard-response,135,359764,0.0-135.0,"""","<div style=""font-size:60px;"">+</div>","""",256,fixation,Memorization,null,500,"""","""","""","""","""","""","""","""",1,4/30/2021 21:28,98.194.177.71,Mozilla/5.0 (Windows NT 10.0; Win64; x64; rv:78.0) Gecko/20100101 Firefox/78.0,,Firefox,78,Windows,10
209,1,2394,"""",html-keyboard-response,136,364776,0.0-136.0,"""","<img src='jspsych/CFDfaces/CFD-AM-221-184-N.jpg' height=""250px""></br><b>Gregory</b>","""",256,IntactFace,Memorization,78,5000,n,"""",CFD-LF-205-100-N.jpg,Taylor,0,"""","""","""",1,4/30/2021 21:28,98.194.177.71,Mozilla/5.0 (Windows NT 10.0; Win64; x64; rv:78.0) Gecko/20100101 Firefox/78.0,,Firefox,78,Windows,10
209,1,null,"""",html-keyboard-response,137,365280,0.0-137.0,"""","<div style=""font-size:60px;"">+</div>","""",256,fixation,Memorization,null,500,"""","""","""","""","""","""","""","""",1,4/30/2021 21:28,98.194.177.71,Mozilla/5.0 (Windows NT 10.0; Win64; x64; rv:78.0) Gecko/20100101 Firefox/78.0,,Firefox,78,Windows,10
209,1,4017,"""",html-keyboard-response,138,370283,0.0-138.0,"""","<img src='jspsych/CFDfaces/CFD-BM-018-001-N.jpg' height=""250px""></br><b>Nicholas</b>","""",256,IntactFace,Memorization,78,5000,n,"""",CFD-WM-041-021-N.jpg,Jeremy,0,"""","""","""",1,4/30/2021 21:28,98.194.177.71,Mozilla/5.0 (Windows NT 10.0; Win64; x64; rv:78.0) Gecko/20100101 Firefox/78.0,,Firefox,78,Windows,10
209,1,null,"""",html-keyboard-response,139,370790,0.0-139.0,"""","<div style=""font-size:60px;"">+</div>","""",256,fixation,Memorization,null,500,"""","""","""","""","""","""","""","""",1,4/30/2021 21:28,98.194.177.71,Mozilla/5.0 (Windows NT 10.0; Win64; x64; rv:78.0) Gecko/20100101 Firefox/78.0,,Firefox,78,Windows,10
209,1,3197,"""",html-keyboard-response,140,375792,0.0-140.0,"""","<img src='jspsych/CFDfaces/CFD-BM-205-001-N.jpg' height=""250px""></br><b>Ian</b>","""",256,IntactFace,Memorization,78,5000,n,"""",CFD-BM-011-016-N.jpg,Sean,0,"""","""","""",1,4/30/2021 21:28,98.194.177.71,Mozilla/5.0 (Windows NT 10.0; Win64; x64; rv:78.0) Gecko/20100101 Firefox/78.0,,Firefox,78,Windows,10
209,1,null,"""",html-keyboard-response,141,376300,0.0-141.0,"""","<div style=""font-size:60px;"">+</div>","""",256,fixation,Memorization,null,500,"""","""","""","""","""","""","""","""",1,4/30/2021 21:28,98.194.177.71,Mozilla/5.0 (Windows NT 10.0; Win64; x64; rv:78.0) Gecko/20100101 Firefox/78.0,,Firefox,78,Windows,10
209,1,2603,"""",html-keyboard-response,142,381303,0.0-142.0,"""","<img src='jspsych/CFDfaces/CFD-WM-019-003-N.jpg' height=""250px""></br><b>Peter</b>","""",256,IntactFace,Memorization,78,5000,n,"""",CFD-BF-004-014-N.jpg,Melissa,0,"""","""","""",1,4/30/2021 21:28,98.194.177.71,Mozilla/5.0 (Windows NT 10.0; Win64; x64; rv:78.0) Gecko/20100101 Firefox/78.0,,Firefox,78,Windows,10
209,1,null,"""",html-keyboard-response,143,381815,0.0-143.0,"""","<div style=""font-size:60px;"">+</div>","""",256,fixation,Memorization,null,500,"""","""","""","""","""","""","""","""",1,4/30/2021 21:28,98.194.177.71,Mozilla/5.0 (Windows NT 10.0; Win64; x64; rv:78.0) Gecko/20100101 Firefox/78.0,,Firefox,78,Windows,10
209,1,2435,"""",html-keyboard-response,144,386819,0.0-144.0,"""","<img src='jspsych/CFDfaces/CFD-BF-010-001-N.jpg' height=""250px""></br><b>Elizabeth</b>","""",256,IntactFace,Memorization,70,5000,f,"""",CFD-LM-217-162-N.jpg,Jacob,0,"""","""","""",1,4/30/2021 21:28,98.194.177.71,Mozilla/5.0 (Windows NT 10.0; Win64; x64; rv:78.0) Gecko/20100101 Firefox/78.0,,Firefox,78,Windows,10
209,1,null,"""",html-keyboard-response,145,387327,0.0-145.0,"""","<div style=""font-size:60px;"">+</div>","""",256,fixation,Memorization,null,500,"""","""","""","""","""","""","""","""",1,4/30/2021 21:28,98.194.177.71,Mozilla/5.0 (Windows NT 10.0; Win64; x64; rv:78.0) Gecko/20100101 Firefox/78.0,,Firefox,78,Windows,10
209,1,1722,"""",html-keyboard-response,146,392330,0.0-146.0,"""","<img src='jspsych/CFDfaces/CFD-AM-237-154-N.jpg' height=""250px""></br><b>James</b>","""",256,IntactFace,Memorization,70,5000,f,"""",CFD-AF-235-170-N.jpg,Lauren,0,"""","""","""",1,4/30/2021 21:28,98.194.177.71,Mozilla/5.0 (Windows NT 10.0; Win64; x64; rv:78.0) Gecko/20100101 Firefox/78.0,,Firefox,78,Windows,10
209,1,null,"""",html-keyboard-response,147,392840,0.0-147.0,"""","<div style=""font-size:60px;"">+</div>","""",256,fixation,Memorization,null,500,"""","""","""","""","""","""","""","""",1,4/30/2021 21:28,98.194.177.71,Mozilla/5.0 (Windows NT 10.0; Win64; x64; rv:78.0) Gecko/20100101 Firefox/78.0,,Firefox,78,Windows,10
209,1,2720,"""",html-keyboard-response,148,397842,0.0-148.0,"""","<img src='jspsych/CFDfaces/CFD-WM-006-002-N.jpg' height=""250px""></br><b>Juan</b>","""",256,IntactFace,Memorization,78,5000,n,"""",CFD-AF-233-190-N.jpg,Heather,0,"""","""","""",1,4/30/2021 21:28,98.194.177.71,Mozilla/5.0 (Windows NT 10.0; Win64; x64; rv:78.0) Gecko/20100101 Firefox/78.0,,Firefox,78,Windows,10
209,1,null,"""",html-keyboard-response,149,398343,0.0-149.0,"""","<div style=""font-size:60px;"">+</div>","""",256,fixation,Memorization,null,500,"""","""","""","""","""","""","""","""",1,4/30/2021 21:28,98.194.177.71,Mozilla/5.0 (Windows NT 10.0; Win64; x64; rv:78.0) Gecko/20100101 Firefox/78.0,,Firefox,78,Windows,10
209,1,1856,"""",html-keyboard-response,150,403356,0.0-150.0,"""","<img src='jspsych/CFDfaces/CFD-BF-005-001-N.jpg' height=""250px""></br><b>Brittany</b>","""",256,IntactFace,Memorization,70,5000,f,"""",CFD-WM-215-041-N.jpg,Dustin,0,"""","""","""",1,4/30/2021 21:28,98.194.177.71,Mozilla/5.0 (Windows NT 10.0; Win64; x64; rv:78.0) Gecko/20100101 Firefox/78.0,,Firefox,78,Windows,10
209,1,null,"""",html-keyboard-response,151,403857,0.0-151.0,"""","<div style=""font-size:60px;"">+</div>","""",256,fixation,Memorization,null,500,"""","""","""","""","""","""","""","""",1,4/30/2021 21:28,98.194.177.71,Mozilla/5.0 (Windows NT 10.0; Win64; x64; rv:78.0) Gecko/20100101 Firefox/78.0,,Firefox,78,Windows,10
209,1,2583,"""",html-keyboard-response,152,408861,0.0-152.0,"""","<img src='jspsych/CFDfaces/CFD-LM-225-130-N.jpg' height=""250px""></br><b>Richard</b>","""",256,IntactFace,Memorization,78,5000,n,"""",CFD-WM-032-001-N.jpg,Luis,0,"""","""","""",1,4/30/2021 21:28,98.194.177.71,Mozilla/5.0 (Windows NT 10.0; Win64; x64; rv:78.0) Gecko/20100101 Firefox/78.0,,Firefox,78,Windows,10
209,1,null,"""",html-keyboard-response,153,409365,0.0-153.0,"""","<div style=""font-size:60px;"">+</div>","""",256,fixation,Memorization,null,500,"""","""","""","""","""","""","""","""",1,4/30/2021 21:28,98.194.177.71,Mozilla/5.0 (Windows NT 10.0; Win64; x64; rv:78.0) Gecko/20100101 Firefox/78.0,,Firefox,78,Windows,10
209,1,2204,"""",html-keyboard-response,154,411581,0.0-154.0,"""",Press Any Key to Begin Memory Test,"""",1,welcomeScreen,Break,32,"""","""","""","""","""","""","""","""","""",1,4/30/2021 21:28,98.194.177.71,Mozilla/5.0 (Windows NT 10.0; Win64; x64; rv:78.0) Gecko/20100101 Firefox/78.0,,Firefox,78,Windows,10
209,1,null,"""",html-keyboard-response,155,412584,0.0-155.0,"""","<div style=""font-size:60px;"">+</div>","""",256,ITI,Test,null,1000,"""","""","""","""","""","""","""","""",1,4/30/2021 21:28,98.194.177.71,Mozilla/5.0 (Windows NT 10.0; Win64; x64; rv:78.0) Gecko/20100101 Firefox/78.0,,Firefox,78,Windows,10
209,1,null,"""",image-keyboard-response,156,412842,0.0-156.0,"""",jspsych/scrambledDisgustFaces/scrambledAM08DIS.JPG,"""",256,forwardMask,Test,null,250,"""",d,"""","""","""","""","""","""",1,4/30/2021 21:28,98.194.177.71,Mozilla/5.0 (Windows NT 10.0; Win64; x64; rv:78.0) Gecko/20100101 Firefox/78.0,,Firefox,78,Windows,10
209,1,null,"""",image-keyboard-response,157,412865,0.0-157.0,"""",jspsych/disgustFaces/AM08DIS.JPG,"""",256,Cue,Test,null,16,"""","""","""","""","""","""","""","""",1,4/30/2021 21:28,98.194.177.71,Mozilla/5.0 (Windows NT 10.0; Win64; x64; rv:78.0) Gecko/20100101 Firefox/78.0,,Firefox,78,Windows,10
209,1,null,"""",image-keyboard-response,158,412970,0.0-158.0,"""",jspsych/neutralFaces/BM02NES.JPG,"""",256,backwardMask,Test,null,100,"""","""","""","""","""","""","""","""",1,4/30/2021 21:28,98.194.177.71,Mozilla/5.0 (Windows NT 10.0; Win64; x64; rv:78.0) Gecko/20100101 Firefox/78.0,,Firefox,78,Windows,10
209,1,null,"""",html-keyboard-response,159,413972,0.0-159.0,"""","<div style=""font-size:60px;"">+</div>","""",256,fixationBtwnNeutralMaskAndPrompt,Test,null,1000,"""","""","""","""","""","""","""","""",1,4/30/2021 21:28,98.194.177.71,Mozilla/5.0 (Windows NT 10.0; Win64; x64; rv:78.0) Gecko/20100101 Firefox/78.0,,Firefox,78,Windows,10
209,1,null,"""",html-button-response,160,418976,0.0-160.0,"""","<img src='jspsych/CFDfaces/CFD-BF-221-223-N.jpg' height=""250px"">,</br><b>Elizabeth</b>",null,256,IntactOrRearranged,Test,"""","""","""","""",CFD-LM-234-176-N.jpg,Jeremy,1,"""","""","""",1,4/30/2021 21:28,98.194.177.71,Mozilla/5.0 (Windows NT 10.0; Win64; x64; rv:78.0) Gecko/20100101 Firefox/78.0,,Firefox,78,Windows,10
209,1,null,"""",html-slider-response,161,423982,0.0-161.0,"""","<img src='jspsych/CFDfaces/CFD-BF-221-223-N.jpg' height=""250px"">,</br><b>Elizabeth</b>","""",256,ConfidenceQuery,Test,"""","""","""","""",CFD-LM-234-176-N.jpg,Jeremy,1,"""",0,null,1,4/30/2021 21:28,98.194.177.71,Mozilla/5.0 (Windows NT 10.0; Win64; x64; rv:78.0) Gecko/20100101 Firefox/78.0,,Firefox,78,Windows,10
209,1,null,"""",html-keyboard-response,162,424983,0.0-162.0,"""","<div style=""font-size:60px;"">+</div>","""",256,ITI,Test,null,1000,"""","""","""","""","""","""","""","""",1,4/30/2021 21:28,98.194.177.71,Mozilla/5.0 (Windows NT 10.0; Win64; x64; rv:78.0) Gecko/20100101 Firefox/78.0,,Firefox,78,Windows,10
209,1,null,"""",image-keyboard-response,163,425239,0.0-163.0,"""",jspsych/scrambledDisgustFaces/scrambledBM10DIS.JPG,"""",256,forwardMask,Test,null,250,"""",d,"""","""","""","""","""","""",1,4/30/2021 21:28,98.194.177.71,Mozilla/5.0 (Windows NT 10.0; Win64; x64; rv:78.0) Gecko/20100101 Firefox/78.0,,Firefox,78,Windows,10
209,1,null,"""",image-keyboard-response,164,425260,0.0-164.0,"""",jspsych/disgustFaces/BM11DIS.JPG,"""",256,Cue,Test,null,16,"""","""","""","""","""","""","""","""",1,4/30/2021 21:28,98.194.177.71,Mozilla/5.0 (Windows NT 10.0; Win64; x64; rv:78.0) Gecko/20100101 Firefox/78.0,,Firefox,78,Windows,10
209,1,null,"""",image-keyboard-response,165,425365,0.0-165.0,"""",jspsych/neutralFaces/AM31NES.JPG,"""",256,backwardMask,Test,null,100,"""","""","""","""","""","""","""","""",1,4/30/2021 21:28,98.194.177.71,Mozilla/5.0 (Windows NT 10.0; Win64; x64; rv:78.0) Gecko/20100101 Firefox/78.0,,Firefox,78,Windows,10
209,1,null,"""",html-keyboard-response,166,426366,0.0-166.0,"""","<div style=""font-size:60px;"">+</div>","""",256,fixationBtwnNeutralMaskAndPrompt,Test,null,1000,"""","""","""","""","""","""","""","""",1,4/30/2021 21:28,98.194.177.71,Mozilla/5.0 (Windows NT 10.0; Win64; x64; rv:78.0) Gecko/20100101 Firefox/78.0,,Firefox,78,Windows,10
209,1,3720,"""",html-button-response,167,430089,0.0-167.0,"""","<img src='jspsych/CFDfaces/CFD-BM-205-001-N.jpg' height=""250px"">,</br><b>Ian</b>",0,256,IntactOrRearranged,Test,"""","""","""","""",CFD-WM-017-002-N.jpg,Mark,0,0,"""","""",1,4/30/2021 21:28,98.194.177.71,Mozilla/5.0 (Windows NT 10.0; Win64; x64; rv:78.0) Gecko/20100101 Firefox/78.0,,Firefox,78,Windows,10
209,1,4418,"""",html-slider-response,168,434510,0.0-168.0,"""","<img src='jspsych/CFDfaces/CFD-BM-205-001-N.jpg' height=""250px"">,</br><b>Ian</b>","""",256,ConfidenceQuery,Test,"""","""","""","""",CFD-WM-017-002-N.jpg,Mark,0,"""",0,40,1,4/30/2021 21:28,98.194.177.71,Mozilla/5.0 (Windows NT 10.0; Win64; x64; rv:78.0) Gecko/20100101 Firefox/78.0,,Firefox,78,Windows,10
209,1,null,"""",html-keyboard-response,169,435516,0.0-169.0,"""","<div style=""font-size:60px;"">+</div>","""",256,ITI,Test,null,1000,"""","""","""","""","""","""","""","""",1,4/30/2021 21:28,98.194.177.71,Mozilla/5.0 (Windows NT 10.0; Win64; x64; rv:78.0) Gecko/20100101 Firefox/78.0,,Firefox,78,Windows,10
209,1,null,"""",image-keyboard-response,170,435772,0.0-170.0,"""",jspsych/scrambledDisgustFaces/scrambledBM34DIS.JPG,"""",256,forwardMask,Test,null,250,"""",d,"""","""","""","""","""","""",1,4/30/2021 21:28,98.194.177.71,Mozilla/5.0 (Windows NT 10.0; Win64; x64; rv:78.0) Gecko/20100101 Firefox/78.0,,Firefox,78,Windows,10
209,1,null,"""",image-keyboard-response,171,435794,0.0-171.0,"""",jspsych/disgustFaces/BM35DIS.JPG,"""",256,Cue,Test,null,16,"""","""","""","""","""","""","""","""",1,4/30/2021 21:28,98.194.177.71,Mozilla/5.0 (Windows NT 10.0; Win64; x64; rv:78.0) Gecko/20100101 Firefox/78.0,,Firefox,78,Windows,10
209,1,null,"""",image-keyboard-response,172,435900,0.0-172.0,"""",jspsych/neutralFaces/BM34NES.JPG,"""",256,backwardMask,Test,null,100,"""","""","""","""","""","""","""","""",1,4/30/2021 21:28,98.194.177.71,Mozilla/5.0 (Windows NT 10.0; Win64; x64; rv:78.0) Gecko/20100101 Firefox/78.0,,Firefox,78,Windows,10
209,1,null,"""",html-keyboard-response,173,436901,0.0-173.0,"""","<div style=""font-size:60px;"">+</div>","""",256,fixationBtwnNeutralMaskAndPrompt,Test,null,1000,"""","""","""","""","""","""","""","""",1,4/30/2021 21:28,98.194.177.71,Mozilla/5.0 (Windows NT 10.0; Win64; x64; rv:78.0) Gecko/20100101 Firefox/78.0,,Firefox,78,Windows,10
209,1,1978,"""",html-button-response,174,438882,0.0-174.0,"""","<img src='jspsych/CFDfaces/CFD-LF-230-203-N.jpg' height=""250px"">,</br><b>Michelle</b>",0,256,IntactOrRearranged,Test,"""","""","""","""",CFD-WF-019-005-N.jpg,Lindsey,0,0,"""","""",1,4/30/2021 21:28,98.194.177.71,Mozilla/5.0 (Windows NT 10.0; Win64; x64; rv:78.0) Gecko/20100101 Firefox/78.0,,Firefox,78,Windows,10
209,1,3190,"""",html-slider-response,175,442075,0.0-175.0,"""","<img src='jspsych/CFDfaces/CFD-LF-230-203-N.jpg' height=""250px"">,</br><b>Michelle</b>","""",256,ConfidenceQuery,Test,"""","""","""","""",CFD-WF-019-005-N.jpg,Lindsey,0,"""",0,49,1,4/30/2021 21:28,98.194.177.71,Mozilla/5.0 (Windows NT 10.0; Win64; x64; rv:78.0) Gecko/20100101 Firefox/78.0,,Firefox,78,Windows,10
209,1,null,"""",html-keyboard-response,176,443081,0.0-176.0,"""","<div style=""font-size:60px;"">+</div>","""",256,ITI,Test,null,1000,"""","""","""","""","""","""","""","""",1,4/30/2021 21:28,98.194.177.71,Mozilla/5.0 (Windows NT 10.0; Win64; x64; rv:78.0) Gecko/20100101 Firefox/78.0,,Firefox,78,Windows,10
209,1,null,"""",image-keyboard-response,177,443334,0.0-177.0,"""",jspsych/scrambledNeutralFaces/scrambledBF33NES.JPG,"""",256,forwardMask,Test,null,250,"""",n,"""","""","""","""","""","""",1,4/30/2021 21:28,98.194.177.71,Mozilla/5.0 (Windows NT 10.0; Win64; x64; rv:78.0) Gecko/20100101 Firefox/78.0,,Firefox,78,Windows,10
209,1,null,"""",image-keyboard-response,178,443357,0.0-178.0,"""",jspsych/neutralFaces/BF33NES.JPG,"""",256,Cue,Test,null,16,"""","""","""","""","""","""","""","""",1,4/30/2021 21:28,98.194.177.71,Mozilla/5.0 (Windows NT 10.0; Win64; x64; rv:78.0) Gecko/20100101 Firefox/78.0,,Firefox,78,Windows,10
209,1,null,"""",image-keyboard-response,179,443460,0.0-179.0,"""",jspsych/neutralFaces/BF21NES.JPG,"""",256,backwardMask,Test,null,100,"""","""","""","""","""","""","""","""",1,4/30/2021 21:28,98.194.177.71,Mozilla/5.0 (Windows NT 10.0; Win64; x64; rv:78.0) Gecko/20100101 Firefox/78.0,,Firefox,78,Windows,10
209,1,null,"""",html-keyboard-response,180,444461,0.0-180.0,"""","<div style=""font-size:60px;"">+</div>","""",256,fixationBtwnNeutralMaskAndPrompt,Test,null,1000,"""","""","""","""","""","""","""","""",1,4/30/2021 21:28,98.194.177.71,Mozilla/5.0 (Windows NT 10.0; Win64; x64; rv:78.0) Gecko/20100101 Firefox/78.0,,Firefox,78,Windows,10
209,1,3794,"""",html-button-response,181,448255,0.0-181.0,"""","<img src='jspsych/CFDfaces/CFD-BM-211-174-N.jpg' height=""250px"">,</br><b>Jason</b>",1,256,IntactOrRearranged,Test,"""","""","""","""",CFD-AF-209-006-N.jpg,Jasmine,0,1,"""","""",1,4/30/2021 21:28,98.194.177.71,Mozilla/5.0 (Windows NT 10.0; Win64; x64; rv:78.0) Gecko/20100101 Firefox/78.0,,Firefox,78,Windows,10
209,1,3961,"""",html-slider-response,182,452225,0.0-182.0,"""","<img src='jspsych/CFDfaces/CFD-BM-211-174-N.jpg' height=""250px"">,</br><b>Jason</b>","""",256,ConfidenceQuery,Test,"""","""","""","""",CFD-AF-209-006-N.jpg,Jasmine,0,"""",0,31,1,4/30/2021 21:28,98.194.177.71,Mozilla/5.0 (Windows NT 10.0; Win64; x64; rv:78.0) Gecko/20100101 Firefox/78.0,,Firefox,78,Windows,10
209,1,null,"""",html-keyboard-response,183,453227,0.0-183.0,"""","<div style=""font-size:60px;"">+</div>","""",256,ITI,Test,null,1000,"""","""","""","""","""","""","""","""",1,4/30/2021 21:28,98.194.177.71,Mozilla/5.0 (Windows NT 10.0; Win64; x64; rv:78.0) Gecko/20100101 Firefox/78.0,,Firefox,78,Windows,10
209,1,null,"""",image-keyboard-response,184,453480,0.0-184.0,"""",jspsych/scrambledDisgustFaces/scrambledAF21DIS.JPG,"""",256,forwardMask,Test,null,250,"""",d,"""","""","""","""","""","""",1,4/30/2021 21:28,98.194.177.71,Mozilla/5.0 (Windows NT 10.0; Win64; x64; rv:78.0) Gecko/20100101 Firefox/78.0,,Firefox,78,Windows,10
209,1,null,"""",image-keyboard-response,185,453501,0.0-185.0,"""",jspsych/disgustFaces/AF21DIS.JPG,"""",256,Cue,Test,null,16,"""","""","""","""","""","""","""","""",1,4/30/2021 21:28,98.194.177.71,Mozilla/5.0 (Windows NT 10.0; Win64; x64; rv:78.0) Gecko/20100101 Firefox/78.0,,Firefox,78,Windows,10
209,1,null,"""",image-keyboard-response,186,453603,0.0-186.0,"""",jspsych/neutralFaces/BF09NES.JPG,"""",256,backwardMask,Test,null,100,"""","""","""","""","""","""","""","""",1,4/30/2021 21:28,98.194.177.71,Mozilla/5.0 (Windows NT 10.0; Win64; x64; rv:78.0) Gecko/20100101 Firefox/78.0,,Firefox,78,Windows,10
209,1,null,"""",html-keyboard-response,187,454606,0.0-187.0,"""","<div style=""font-size:60px;"">+</div>","""",256,fixationBtwnNeutralMaskAndPrompt,Test,null,1000,"""","""","""","""","""","""","""","""",1,4/30/2021 21:28,98.194.177.71,Mozilla/5.0 (Windows NT 10.0; Win64; x64; rv:78.0) Gecko/20100101 Firefox/78.0,,Firefox,78,Windows,10
209,1,4650,"""",html-button-response,188,459271,0.0-188.0,"""","<img src='jspsych/CFDfaces/CFD-LM-252-076-N.jpg' height=""250px"">,</br><b>James</b>",0,256,IntactOrRearranged,Test,"""","""","""","""",CFD-LM-217-162-N.jpg,Jacob,1,0,"""","""",1,4/30/2021 21:28,98.194.177.71,Mozilla/5.0 (Windows NT 10.0; Win64; x64; rv:78.0) Gecko/20100101 Firefox/78.0,,Firefox,78,Windows,10
209,1,null,"""",html-slider-response,189,464277,0.0-189.0,"""","<img src='jspsych/CFDfaces/CFD-LM-252-076-N.jpg' height=""250px"">,</br><b>James</b>","""",256,ConfidenceQuery,Test,"""","""","""","""",CFD-LM-217-162-N.jpg,Jacob,1,"""",0,null,1,4/30/2021 21:28,98.194.177.71,Mozilla/5.0 (Windows NT 10.0; Win64; x64; rv:78.0) Gecko/20100101 Firefox/78.0,,Firefox,78,Windows,10
209,1,null,"""",html-keyboard-response,190,465288,0.0-190.0,"""","<div style=""font-size:60px;"">+</div>","""",256,ITI,Test,null,1000,"""","""","""","""","""","""","""","""",1,4/30/2021 21:28,98.194.177.71,Mozilla/5.0 (Windows NT 10.0; Win64; x64; rv:78.0) Gecko/20100101 Firefox/78.0,,Firefox,78,Windows,10
209,1,null,"""",image-keyboard-response,191,465543,0.0-191.0,"""",jspsych/scrambledNeutralFaces/scrambledAM22NES.JPG,"""",256,forwardMask,Test,null,250,"""",n,"""","""","""","""","""","""",1,4/30/2021 21:28,98.194.177.71,Mozilla/5.0 (Windows NT 10.0; Win64; x64; rv:78.0) Gecko/20100101 Firefox/78.0,,Firefox,78,Windows,10
209,1,null,"""",image-keyboard-response,192,465564,0.0-192.0,"""",jspsych/neutralFaces/AM22NES.JPG,"""",256,Cue,Test,null,16,"""","""","""","""","""","""","""","""",1,4/30/2021 21:28,98.194.177.71,Mozilla/5.0 (Windows NT 10.0; Win64; x64; rv:78.0) Gecko/20100101 Firefox/78.0,,Firefox,78,Windows,10
209,1,null,"""",image-keyboard-response,193,465667,0.0-193.0,"""",jspsych/neutralFaces/AM02NES.JPG,"""",256,backwardMask,Test,null,100,"""","""","""","""","""","""","""","""",1,4/30/2021 21:28,98.194.177.71,Mozilla/5.0 (Windows NT 10.0; Win64; x64; rv:78.0) Gecko/20100101 Firefox/78.0,,Firefox,78,Windows,10
209,1,null,"""",html-keyboard-response,194,466668,0.0-194.0,"""","<div style=""font-size:60px;"">+</div>","""",256,fixationBtwnNeutralMaskAndPrompt,Test,null,1000,"""","""","""","""","""","""","""","""",1,4/30/2021 21:28,98.194.177.71,Mozilla/5.0 (Windows NT 10.0; Win64; x64; rv:78.0) Gecko/20100101 Firefox/78.0,,Firefox,78,Windows,10
209,1,2949,"""",html-button-response,195,469619,0.0-195.0,"""","<img src='jspsych/CFDfaces/CFD-WM-009-002-N.jpg' height=""250px"">,</br><b>Eric</b>",0,256,IntactOrRearranged,Test,"""","""","""","""",CFD-LF-244-096-N.jpg,Laura,1,0,"""","""",1,4/30/2021 21:28,98.194.177.71,Mozilla/5.0 (Windows NT 10.0; Win64; x64; rv:78.0) Gecko/20100101 Firefox/78.0,,Firefox,78,Windows,10
209,1,3037,"""",html-slider-response,196,472662,0.0-196.0,"""","<img src='jspsych/CFDfaces/CFD-WM-009-002-N.jpg' height=""250px"">,</br><b>Eric</b>","""",256,ConfidenceQuery,Test,"""","""","""","""",CFD-LF-244-096-N.jpg,Laura,1,"""",0,50,1,4/30/2021 21:28,98.194.177.71,Mozilla/5.0 (Windows NT 10.0; Win64; x64; rv:78.0) Gecko/20100101 Firefox/78.0,,Firefox,78,Windows,10
209,1,null,"""",html-keyboard-response,197,473666,0.0-197.0,"""","<div style=""font-size:60px;"">+</div>","""",256,ITI,Test,null,1000,"""","""","""","""","""","""","""","""",1,4/30/2021 21:28,98.194.177.71,Mozilla/5.0 (Windows NT 10.0; Win64; x64; rv:78.0) Gecko/20100101 Firefox/78.0,,Firefox,78,Windows,10
209,1,null,"""",image-keyboard-response,198,473921,0.0-198.0,"""",jspsych/scrambledDisgustFaces/scrambledAM15DIS.JPG,"""",256,forwardMask,Test,null,250,"""",d,"""","""","""","""","""","""",1,4/30/2021 21:28,98.194.177.71,Mozilla/5.0 (Windows NT 10.0; Win64; x64; rv:78.0) Gecko/20100101 Firefox/78.0,,Firefox,78,Windows,10
209,1,null,"""",image-keyboard-response,199,473942,0.0-199.0,"""",jspsych/disgustFaces/AM15DIS.JPG,"""",256,Cue,Test,null,16,"""","""","""","""","""","""","""","""",1,4/30/2021 21:28,98.194.177.71,Mozilla/5.0 (Windows NT 10.0; Win64; x64; rv:78.0) Gecko/20100101 Firefox/78.0,,Firefox,78,Windows,10
209,1,null,"""",image-keyboard-response,200,474058,0.0-200.0,"""",jspsych/neutralFaces/AM33NES.JPG,"""",256,backwardMask,Test,null,100,"""","""","""","""","""","""","""","""",1,4/30/2021 21:28,98.194.177.71,Mozilla/5.0 (Windows NT 10.0; Win64; x64; rv:78.0) Gecko/20100101 Firefox/78.0,,Firefox,78,Windows,10
209,1,null,"""",html-keyboard-response,201,475064,0.0-201.0,"""","<div style=""font-size:60px;"">+</div>","""",256,fixationBtwnNeutralMaskAndPrompt,Test,null,1000,"""","""","""","""","""","""","""","""",1,4/30/2021 21:28,98.194.177.71,Mozilla/5.0 (Windows NT 10.0; Win64; x64; rv:78.0) Gecko/20100101 Firefox/78.0,,Firefox,78,Windows,10
209,1,3305,"""",html-button-response,202,478374,0.0-202.0,"""","<img src='jspsych/CFDfaces/CFD-BM-018-001-N.jpg' height=""250px"">,</br><b>Nicholas</b>",0,256,IntactOrRearranged,Test,"""","""","""","""",CFD-AF-233-190-N.jpg,Heather,0,0,"""","""",1,4/30/2021 21:28,98.194.177.71,Mozilla/5.0 (Windows NT 10.0; Win64; x64; rv:78.0) Gecko/20100101 Firefox/78.0,,Firefox,78,Windows,10
209,1,3358,"""",html-slider-response,203,481737,0.0-203.0,"""","<img src='jspsych/CFDfaces/CFD-BM-018-001-N.jpg' height=""250px"">,</br><b>Nicholas</b>","""",256,ConfidenceQuery,Test,"""","""","""","""",CFD-AF-233-190-N.jpg,Heather,0,"""",0,18,1,4/30/2021 21:28,98.194.177.71,Mozilla/5.0 (Windows NT 10.0; Win64; x64; rv:78.0) Gecko/20100101 Firefox/78.0,,Firefox,78,Windows,10
209,1,null,"""",html-keyboard-response,204,482739,0.0-204.0,"""","<div style=""font-size:60px;"">+</div>","""",256,ITI,Test,null,1000,"""","""","""","""","""","""","""","""",1,4/30/2021 21:28,98.194.177.71,Mozilla/5.0 (Windows NT 10.0; Win64; x64; rv:78.0) Gecko/20100101 Firefox/78.0,,Firefox,78,Windows,10
209,1,null,"""",image-keyboard-response,205,482995,0.0-205.0,"""",jspsych/scrambledNeutralFaces/scrambledBF31NES.JPG,"""",256,forwardMask,Test,null,250,"""",n,"""","""","""","""","""","""",1,4/30/2021 21:28,98.194.177.71,Mozilla/5.0 (Windows NT 10.0; Win64; x64; rv:78.0) Gecko/20100101 Firefox/78.0,,Firefox,78,Windows,10
209,1,null,"""",image-keyboard-response,206,483014,0.0-206.0,"""",jspsych/neutralFaces/BF31NES.JPG,"""",256,Cue,Test,null,16,"""","""","""","""","""","""","""","""",1,4/30/2021 21:28,98.194.177.71,Mozilla/5.0 (Windows NT 10.0; Win64; x64; rv:78.0) Gecko/20100101 Firefox/78.0,,Firefox,78,Windows,10
209,1,null,"""",image-keyboard-response,207,483117,0.0-207.0,"""",jspsych/neutralFaces/AF09NES.JPG,"""",256,backwardMask,Test,null,100,"""","""","""","""","""","""","""","""",1,4/30/2021 21:28,98.194.177.71,Mozilla/5.0 (Windows NT 10.0; Win64; x64; rv:78.0) Gecko/20100101 Firefox/78.0,,Firefox,78,Windows,10
209,1,null,"""",html-keyboard-response,208,484119,0.0-208.0,"""","<div style=""font-size:60px;"">+</div>","""",256,fixationBtwnNeutralMaskAndPrompt,Test,null,1000,"""","""","""","""","""","""","""","""",1,4/30/2021 21:28,98.194.177.71,Mozilla/5.0 (Windows NT 10.0; Win64; x64; rv:78.0) Gecko/20100101 Firefox/78.0,,Firefox,78,Windows,10
209,1,2530,"""",html-button-response,209,486661,0.0-209.0,"""","<img src='jspsych/CFDfaces/CFD-BF-005-001-N.jpg' height=""250px"">,</br><b>Brittany</b>",0,256,IntactOrRearranged,Test,"""","""","""","""",CFD-WM-215-041-N.jpg,Dustin,0,0,"""","""",1,4/30/2021 21:28,98.194.177.71,Mozilla/5.0 (Windows NT 10.0; Win64; x64; rv:78.0) Gecko/20100101 Firefox/78.0,,Firefox,78,Windows,10
209,1,2859,"""",html-slider-response,210,489523,0.0-210.0,"""","<img src='jspsych/CFDfaces/CFD-BF-005-001-N.jpg' height=""250px"">,</br><b>Brittany</b>","""",256,ConfidenceQuery,Test,"""","""","""","""",CFD-WM-215-041-N.jpg,Dustin,0,"""",0,60,1,4/30/2021 21:28,98.194.177.71,Mozilla/5.0 (Windows NT 10.0; Win64; x64; rv:78.0) Gecko/20100101 Firefox/78.0,,Firefox,78,Windows,10
209,1,null,"""",html-keyboard-response,211,490525,0.0-211.0,"""","<div style=""font-size:60px;"">+</div>","""",256,ITI,Test,null,1000,"""","""","""","""","""","""","""","""",1,4/30/2021 21:28,98.194.177.71,Mozilla/5.0 (Windows NT 10.0; Win64; x64; rv:78.0) Gecko/20100101 Firefox/78.0,,Firefox,78,Windows,10
209,1,null,"""",image-keyboard-response,212,490778,0.0-212.0,"""",jspsych/scrambledDisgustFaces/scrambledBM21DIS.JPG,"""",256,forwardMask,Test,null,250,"""",d,"""","""","""","""","""","""",1,4/30/2021 21:28,98.194.177.71,Mozilla/5.0 (Windows NT 10.0; Win64; x64; rv:78.0) Gecko/20100101 Firefox/78.0,,Firefox,78,Windows,10
209,1,null,"""",image-keyboard-response,213,490800,0.0-213.0,"""",jspsych/disgustFaces/BM22DIS.JPG,"""",256,Cue,Test,null,16,"""","""","""","""","""","""","""","""",1,4/30/2021 21:28,98.194.177.71,Mozilla/5.0 (Windows NT 10.0; Win64; x64; rv:78.0) Gecko/20100101 Firefox/78.0,,Firefox,78,Windows,10
209,1,null,"""",image-keyboard-response,214,490902,0.0-214.0,"""",jspsych/neutralFaces/BM05NES.JPG,"""",256,backwardMask,Test,null,100,"""","""","""","""","""","""","""","""",1,4/30/2021 21:28,98.194.177.71,Mozilla/5.0 (Windows NT 10.0; Win64; x64; rv:78.0) Gecko/20100101 Firefox/78.0,,Firefox,78,Windows,10
209,1,null,"""",html-keyboard-response,215,491904,0.0-215.0,"""","<div style=""font-size:60px;"">+</div>","""",256,fixationBtwnNeutralMaskAndPrompt,Test,null,1000,"""","""","""","""","""","""","""","""",1,4/30/2021 21:28,98.194.177.71,Mozilla/5.0 (Windows NT 10.0; Win64; x64; rv:78.0) Gecko/20100101 Firefox/78.0,,Firefox,78,Windows,10
209,1,2328,"""",html-button-response,216,494234,0.0-216.0,"""","<img src='jspsych/CFDfaces/CFD-BF-019-001-N.jpg' height=""250px"">,</br><b>Vanessa</b>",0,256,IntactOrRearranged,Test,"""","""","""","""",CFD-WM-032-001-N.jpg,Luis,0,0,"""","""",1,4/30/2021 21:28,98.194.177.71,Mozilla/5.0 (Windows NT 10.0; Win64; x64; rv:78.0) Gecko/20100101 Firefox/78.0,,Firefox,78,Windows,10
209,1,1972,"""",html-slider-response,217,496212,0.0-217.0,"""","<img src='jspsych/CFDfaces/CFD-BF-019-001-N.jpg' height=""250px"">,</br><b>Vanessa</b>","""",256,ConfidenceQuery,Test,"""","""","""","""",CFD-WM-032-001-N.jpg,Luis,0,"""",0,100,1,4/30/2021 21:28,98.194.177.71,Mozilla/5.0 (Windows NT 10.0; Win64; x64; rv:78.0) Gecko/20100101 Firefox/78.0,,Firefox,78,Windows,10
209,1,null,"""",html-keyboard-response,218,497218,0.0-218.0,"""","<div style=""font-size:60px;"">+</div>","""",256,ITI,Test,null,1000,"""","""","""","""","""","""","""","""",1,4/30/2021 21:28,98.194.177.71,Mozilla/5.0 (Windows NT 10.0; Win64; x64; rv:78.0) Gecko/20100101 Firefox/78.0,,Firefox,78,Windows,10
209,1,null,"""",image-keyboard-response,219,497476,0.0-219.0,"""",jspsych/scrambledNeutralFaces/scrambledAM34NES.JPG,"""",256,forwardMask,Test,null,250,"""",n,"""","""","""","""","""","""",1,4/30/2021 21:28,98.194.177.71,Mozilla/5.0 (Windows NT 10.0; Win64; x64; rv:78.0) Gecko/20100101 Firefox/78.0,,Firefox,78,Windows,10
209,1,null,"""",image-keyboard-response,220,497499,0.0-220.0,"""",jspsych/neutralFaces/AM34NES.JPG,"""",256,Cue,Test,null,16,"""","""","""","""","""","""","""","""",1,4/30/2021 21:28,98.194.177.71,Mozilla/5.0 (Windows NT 10.0; Win64; x64; rv:78.0) Gecko/20100101 Firefox/78.0,,Firefox,78,Windows,10
209,1,null,"""",image-keyboard-response,221,497604,0.0-221.0,"""",jspsych/neutralFaces/BM12NES.JPG,"""",256,backwardMask,Test,null,100,"""","""","""","""","""","""","""","""",1,4/30/2021 21:28,98.194.177.71,Mozilla/5.0 (Windows NT 10.0; Win64; x64; rv:78.0) Gecko/20100101 Firefox/78.0,,Firefox,78,Windows,10
209,1,null,"""",html-keyboard-response,222,498607,0.0-222.0,"""","<div style=""font-size:60px;"">+</div>","""",256,fixationBtwnNeutralMaskAndPrompt,Test,null,1000,"""","""","""","""","""","""","""","""",1,4/30/2021 21:28,98.194.177.71,Mozilla/5.0 (Windows NT 10.0; Win64; x64; rv:78.0) Gecko/20100101 Firefox/78.0,,Firefox,78,Windows,10
209,1,2181,"""",html-button-response,223,500791,0.0-223.0,"""","<img src='jspsych/CFDfaces/CFD-WM-213-076-N.jpg' height=""250px"">,</br><b>Brandon</b>",0,256,IntactOrRearranged,Test,"""","""","""","""",CFD-LF-231-260-N.jpg,Rebecca,0,0,"""","""",1,4/30/2021 21:28,98.194.177.71,Mozilla/5.0 (Windows NT 10.0; Win64; x64; rv:78.0) Gecko/20100101 Firefox/78.0,,Firefox,78,Windows,10
209,1,2408,"""",html-slider-response,224,503204,0.0-224.0,"""","<img src='jspsych/CFDfaces/CFD-WM-213-076-N.jpg' height=""250px"">,</br><b>Brandon</b>","""",256,ConfidenceQuery,Test,"""","""","""","""",CFD-LF-231-260-N.jpg,Rebecca,0,"""",0,59,1,4/30/2021 21:28,98.194.177.71,Mozilla/5.0 (Windows NT 10.0; Win64; x64; rv:78.0) Gecko/20100101 Firefox/78.0,,Firefox,78,Windows,10
209,1,null,"""",html-keyboard-response,225,504206,0.0-225.0,"""","<div style=""font-size:60px;"">+</div>","""",256,ITI,Test,null,1000,"""","""","""","""","""","""","""","""",1,4/30/2021 21:28,98.194.177.71,Mozilla/5.0 (Windows NT 10.0; Win64; x64; rv:78.0) Gecko/20100101 Firefox/78.0,,Firefox,78,Windows,10
209,1,null,"""",image-keyboard-response,226,504458,0.0-226.0,"""",jspsych/scrambledNeutralFaces/scrambledBF08NES.JPG,"""",256,forwardMask,Test,null,250,"""",n,"""","""","""","""","""","""",1,4/30/2021 21:28,98.194.177.71,Mozilla/5.0 (Windows NT 10.0; Win64; x64; rv:78.0) Gecko/20100101 Firefox/78.0,,Firefox,78,Windows,10
209,1,null,"""",image-keyboard-response,227,504479,0.0-227.0,"""",jspsych/neutralFaces/BF08NES.JPG,"""",256,Cue,Test,null,16,"""","""","""","""","""","""","""","""",1,4/30/2021 21:28,98.194.177.71,Mozilla/5.0 (Windows NT 10.0; Win64; x64; rv:78.0) Gecko/20100101 Firefox/78.0,,Firefox,78,Windows,10
209,1,null,"""",image-keyboard-response,228,504582,0.0-228.0,"""",jspsych/neutralFaces/BF29NES.JPG,"""",256,backwardMask,Test,null,100,"""","""","""","""","""","""","""","""",1,4/30/2021 21:28,98.194.177.71,Mozilla/5.0 (Windows NT 10.0; Win64; x64; rv:78.0) Gecko/20100101 Firefox/78.0,,Firefox,78,Windows,10
209,1,null,"""",html-keyboard-response,229,505583,0.0-229.0,"""","<div style=""font-size:60px;"">+</div>","""",256,fixationBtwnNeutralMaskAndPrompt,Test,null,1000,"""","""","""","""","""","""","""","""",1,4/30/2021 21:28,98.194.177.71,Mozilla/5.0 (Windows NT 10.0; Win64; x64; rv:78.0) Gecko/20100101 Firefox/78.0,,Firefox,78,Windows,10
209,1,3438,"""",html-button-response,230,509024,0.0-230.0,"""","<img src='jspsych/CFDfaces/CFD-WM-019-003-N.jpg' height=""250px"">,</br><b>Peter</b>",0,256,IntactOrRearranged,Test,"""","""","""","""",CFD-LM-248-089-N.jpg,Timothy,0,0,"""","""",1,4/30/2021 21:28,98.194.177.71,Mozilla/5.0 (Windows NT 10.0; Win64; x64; rv:78.0) Gecko/20100101 Firefox/78.0,,Firefox,78,Windows,10
209,1,2948,"""",html-slider-response,231,511979,0.0-231.0,"""","<img src='jspsych/CFDfaces/CFD-WM-019-003-N.jpg' height=""250px"">,</br><b>Peter</b>","""",256,ConfidenceQuery,Test,"""","""","""","""",CFD-LM-248-089-N.jpg,Timothy,0,"""",0,60,1,4/30/2021 21:28,98.194.177.71,Mozilla/5.0 (Windows NT 10.0; Win64; x64; rv:78.0) Gecko/20100101 Firefox/78.0,,Firefox,78,Windows,10
209,1,null,"""",html-keyboard-response,232,512981,0.0-232.0,"""","<div style=""font-size:60px;"">+</div>","""",256,ITI,Test,null,1000,"""","""","""","""","""","""","""","""",1,4/30/2021 21:28,98.194.177.71,Mozilla/5.0 (Windows NT 10.0; Win64; x64; rv:78.0) Gecko/20100101 Firefox/78.0,,Firefox,78,Windows,10
209,1,null,"""",image-keyboard-response,233,513236,0.0-233.0,"""",jspsych/scrambledNeutralFaces/scrambledAM09NES.JPG,"""",256,forwardMask,Test,null,250,"""",n,"""","""","""","""","""","""",1,4/30/2021 21:28,98.194.177.71,Mozilla/5.0 (Windows NT 10.0; Win64; x64; rv:78.0) Gecko/20100101 Firefox/78.0,,Firefox,78,Windows,10
209,1,null,"""",image-keyboard-response,234,513254,0.0-234.0,"""",jspsych/neutralFaces/AM09NES.JPG,"""",256,Cue,Test,null,16,"""","""","""","""","""","""","""","""",1,4/30/2021 21:28,98.194.177.71,Mozilla/5.0 (Windows NT 10.0; Win64; x64; rv:78.0) Gecko/20100101 Firefox/78.0,,Firefox,78,Windows,10
209,1,null,"""",image-keyboard-response,235,513356,0.0-235.0,"""",jspsych/neutralFaces/AM34NES.JPG,"""",256,backwardMask,Test,null,100,"""","""","""","""","""","""","""","""",1,4/30/2021 21:28,98.194.177.71,Mozilla/5.0 (Windows NT 10.0; Win64; x64; rv:78.0) Gecko/20100101 Firefox/78.0,,Firefox,78,Windows,10
209,1,null,"""",html-keyboard-response,236,514358,0.0-236.0,"""","<div style=""font-size:60px;"">+</div>","""",256,fixationBtwnNeutralMaskAndPrompt,Test,null,1000,"""","""","""","""","""","""","""","""",1,4/30/2021 21:28,98.194.177.71,Mozilla/5.0 (Windows NT 10.0; Win64; x64; rv:78.0) Gecko/20100101 Firefox/78.0,,Firefox,78,Windows,10
209,1,2911,"""",html-button-response,237,517271,0.0-237.0,"""","<img src='jspsych/CFDfaces/CFD-BF-009-002-N.jpg' height=""250px"">,</br><b>Christina</b>",1,256,IntactOrRearranged,Test,"""","""","""","""",CFD-LF-205-100-N.jpg,Taylor,1,1,"""","""",1,4/30/2021 21:28,98.194.177.71,Mozilla/5.0 (Windows NT 10.0; Win64; x64; rv:78.0) Gecko/20100101 Firefox/78.0,,Firefox,78,Windows,10
209,1,2737,"""",html-slider-response,238,520015,0.0-238.0,"""","<img src='jspsych/CFDfaces/CFD-BF-009-002-N.jpg' height=""250px"">,</br><b>Christina</b>","""",256,ConfidenceQuery,Test,"""","""","""","""",CFD-LF-205-100-N.jpg,Taylor,1,"""",0,28,1,4/30/2021 21:28,98.194.177.71,Mozilla/5.0 (Windows NT 10.0; Win64; x64; rv:78.0) Gecko/20100101 Firefox/78.0,,Firefox,78,Windows,10
209,1,null,"""",html-keyboard-response,239,521016,0.0-239.0,"""","<div style=""font-size:60px;"">+</div>","""",256,ITI,Test,null,1000,"""","""","""","""","""","""","""","""",1,4/30/2021 21:28,98.194.177.71,Mozilla/5.0 (Windows NT 10.0; Win64; x64; rv:78.0) Gecko/20100101 Firefox/78.0,,Firefox,78,Windows,10
209,1,null,"""",image-keyboard-response,240,521269,0.0-240.0,"""",jspsych/scrambledNeutralFaces/scrambledAM28NES.JPG,"""",256,forwardMask,Test,null,250,"""",n,"""","""","""","""","""","""",1,4/30/2021 21:28,98.194.177.71,Mozilla/5.0 (Windows NT 10.0; Win64; x64; rv:78.0) Gecko/20100101 Firefox/78.0,,Firefox,78,Windows,10
209,1,null,"""",image-keyboard-response,241,521291,0.0-241.0,"""",jspsych/neutralFaces/AM28NES.JPG,"""",256,Cue,Test,null,16,"""","""","""","""","""","""","""","""",1,4/30/2021 21:28,98.194.177.71,Mozilla/5.0 (Windows NT 10.0; Win64; x64; rv:78.0) Gecko/20100101 Firefox/78.0,,Firefox,78,Windows,10
209,1,null,"""",image-keyboard-response,242,521395,0.0-242.0,"""",jspsych/neutralFaces/AM02NES.JPG,"""",256,backwardMask,Test,null,100,"""","""","""","""","""","""","""","""",1,4/30/2021 21:28,98.194.177.71,Mozilla/5.0 (Windows NT 10.0; Win64; x64; rv:78.0) Gecko/20100101 Firefox/78.0,,Firefox,78,Windows,10
209,1,null,"""",html-keyboard-response,243,522396,0.0-243.0,"""","<div style=""font-size:60px;"">+</div>","""",256,fixationBtwnNeutralMaskAndPrompt,Test,null,1000,"""","""","""","""","""","""","""","""",1,4/30/2021 21:28,98.194.177.71,Mozilla/5.0 (Windows NT 10.0; Win64; x64; rv:78.0) Gecko/20100101 Firefox/78.0,,Firefox,78,Windows,10
209,1,3789,"""",html-button-response,244,526187,0.0-244.0,"""","<img src='jspsych/CFDfaces/CFD-AM-237-154-N.jpg' height=""250px"">,</br><b>Jeffrey</b>",0,256,IntactOrRearranged,Test,"""","""","""","""",CFD-BF-201-080-N.jpg,Lauren,1,0,"""","""",1,4/30/2021 21:28,98.194.177.71,Mozilla/5.0 (Windows NT 10.0; Win64; x64; rv:78.0) Gecko/20100101 Firefox/78.0,,Firefox,78,Windows,10
209,1,null,"""",html-slider-response,245,531195,0.0-245.0,"""","<img src='jspsych/CFDfaces/CFD-AM-237-154-N.jpg' height=""250px"">,</br><b>Jeffrey</b>","""",256,ConfidenceQuery,Test,"""","""","""","""",CFD-BF-201-080-N.jpg,Lauren,1,"""",0,null,1,4/30/2021 21:28,98.194.177.71,Mozilla/5.0 (Windows NT 10.0; Win64; x64; rv:78.0) Gecko/20100101 Firefox/78.0,,Firefox,78,Windows,10
209,1,null,"""",html-keyboard-response,246,532197,0.0-246.0,"""","<div style=""font-size:60px;"">+</div>","""",256,ITI,Test,null,1000,"""","""","""","""","""","""","""","""",1,4/30/2021 21:28,98.194.177.71,Mozilla/5.0 (Windows NT 10.0; Win64; x64; rv:78.0) Gecko/20100101 Firefox/78.0,,Firefox,78,Windows,10
209,1,null,"""",image-keyboard-response,247,532460,0.0-247.0,"""",jspsych/scrambledDisgustFaces/scrambledAM09DIS.JPG,"""",256,forwardMask,Test,null,250,"""",d,"""","""","""","""","""","""",1,4/30/2021 21:28,98.194.177.71,Mozilla/5.0 (Windows NT 10.0; Win64; x64; rv:78.0) Gecko/20100101 Firefox/78.0,,Firefox,78,Windows,10
209,1,null,"""",image-keyboard-response,248,532481,0.0-248.0,"""",jspsych/disgustFaces/AM09DIS.JPG,"""",256,Cue,Test,null,16,"""","""","""","""","""","""","""","""",1,4/30/2021 21:28,98.194.177.71,Mozilla/5.0 (Windows NT 10.0; Win64; x64; rv:78.0) Gecko/20100101 Firefox/78.0,,Firefox,78,Windows,10
209,1,null,"""",image-keyboard-response,249,532581,0.0-249.0,"""",jspsych/neutralFaces/AM09NES.JPG,"""",256,backwardMask,Test,null,100,"""","""","""","""","""","""","""","""",1,4/30/2021 21:28,98.194.177.71,Mozilla/5.0 (Windows NT 10.0; Win64; x64; rv:78.0) Gecko/20100101 Firefox/78.0,,Firefox,78,Windows,10
209,1,null,"""",html-keyboard-response,250,533582,0.0-250.0,"""","<div style=""font-size:60px;"">+</div>","""",256,fixationBtwnNeutralMaskAndPrompt,Test,null,1000,"""","""","""","""","""","""","""","""",1,4/30/2021 21:28,98.194.177.71,Mozilla/5.0 (Windows NT 10.0; Win64; x64; rv:78.0) Gecko/20100101 Firefox/78.0,,Firefox,78,Windows,10
209,1,3895,"""",html-button-response,251,537479,0.0-251.0,"""","<img src='jspsych/CFDfaces/CFD-BF-222-240-N.jpg' height=""250px"">,</br><b>Julie</b>",1,256,IntactOrRearranged,Test,"""","""","""","""",CFD-AF-235-170-N.jpg,Jordan,0,1,"""","""",1,4/30/2021 21:28,98.194.177.71,Mozilla/5.0 (Windows NT 10.0; Win64; x64; rv:78.0) Gecko/20100101 Firefox/78.0,,Firefox,78,Windows,10
209,1,3905,"""",html-slider-response,252,541388,0.0-252.0,"""","<img src='jspsych/CFDfaces/CFD-BF-222-240-N.jpg' height=""250px"">,</br><b>Julie</b>","""",256,ConfidenceQuery,Test,"""","""","""","""",CFD-AF-235-170-N.jpg,Jordan,0,"""",0,40,1,4/30/2021 21:28,98.194.177.71,Mozilla/5.0 (Windows NT 10.0; Win64; x64; rv:78.0) Gecko/20100101 Firefox/78.0,,Firefox,78,Windows,10
209,1,null,"""",html-keyboard-response,253,542393,0.0-253.0,"""","<div style=""font-size:60px;"">+</div>","""",256,ITI,Test,null,1000,"""","""","""","""","""","""","""","""",1,4/30/2021 21:28,98.194.177.71,Mozilla/5.0 (Windows NT 10.0; Win64; x64; rv:78.0) Gecko/20100101 Firefox/78.0,,Firefox,78,Windows,10
209,1,null,"""",image-keyboard-response,254,542648,0.0-254.0,"""",jspsych/scrambledNeutralFaces/scrambledBF17NES.JPG,"""",256,forwardMask,Test,null,250,"""",n,"""","""","""","""","""","""",1,4/30/2021 21:28,98.194.177.71,Mozilla/5.0 (Windows NT 10.0; Win64; x64; rv:78.0) Gecko/20100101 Firefox/78.0,,Firefox,78,Windows,10
209,1,null,"""",image-keyboard-response,255,542669,0.0-255.0,"""",jspsych/neutralFaces/BF17NES.JPG,"""",256,Cue,Test,null,16,"""","""","""","""","""","""","""","""",1,4/30/2021 21:28,98.194.177.71,Mozilla/5.0 (Windows NT 10.0; Win64; x64; rv:78.0) Gecko/20100101 Firefox/78.0,,Firefox,78,Windows,10
209,1,null,"""",image-keyboard-response,256,542771,0.0-256.0,"""",jspsych/neutralFaces/BF22NES.JPG,"""",256,backwardMask,Test,null,100,"""","""","""","""","""","""","""","""",1,4/30/2021 21:28,98.194.177.71,Mozilla/5.0 (Windows NT 10.0; Win64; x64; rv:78.0) Gecko/20100101 Firefox/78.0,,Firefox,78,Windows,10
209,1,null,"""",html-keyboard-response,257,543773,0.0-257.0,"""","<div style=""font-size:60px;"">+</div>","""",256,fixationBtwnNeutralMaskAndPrompt,Test,null,1000,"""","""","""","""","""","""","""","""",1,4/30/2021 21:28,98.194.177.71,Mozilla/5.0 (Windows NT 10.0; Win64; x64; rv:78.0) Gecko/20100101 Firefox/78.0,,Firefox,78,Windows,10
209,1,2811,"""",html-button-response,258,546585,0.0-258.0,"""","<img src='jspsych/CFDfaces/CFD-BF-218-207-N.jpg' height=""250px"">,</br><b>Ashley</b>",1,256,IntactOrRearranged,Test,"""","""","""","""",CFD-AM-228-214-N.jpg,Travis,1,1,"""","""",1,4/30/2021 21:28,98.194.177.71,Mozilla/5.0 (Windows NT 10.0; Win64; x64; rv:78.0) Gecko/20100101 Firefox/78.0,,Firefox,78,Windows,10
209,1,null,"""",html-slider-response,259,551589,0.0-259.0,"""","<img src='jspsych/CFDfaces/CFD-BF-218-207-N.jpg' height=""250px"">,</br><b>Ashley</b>","""",256,ConfidenceQuery,Test,"""","""","""","""",CFD-AM-228-214-N.jpg,Travis,1,"""",0,null,1,4/30/2021 21:28,98.194.177.71,Mozilla/5.0 (Windows NT 10.0; Win64; x64; rv:78.0) Gecko/20100101 Firefox/78.0,,Firefox,78,Windows,10
209,1,null,"""",html-keyboard-response,260,552593,0.0-260.0,"""","<div style=""font-size:60px;"">+</div>","""",256,ITI,Test,null,1000,"""","""","""","""","""","""","""","""",1,4/30/2021 21:28,98.194.177.71,Mozilla/5.0 (Windows NT 10.0; Win64; x64; rv:78.0) Gecko/20100101 Firefox/78.0,,Firefox,78,Windows,10
209,1,null,"""",image-keyboard-response,261,552845,0.0-261.0,"""",jspsych/scrambledNeutralFaces/scrambledBF19NES.JPG,"""",256,forwardMask,Test,null,250,"""",n,"""","""","""","""","""","""",1,4/30/2021 21:28,98.194.177.71,Mozilla/5.0 (Windows NT 10.0; Win64; x64; rv:78.0) Gecko/20100101 Firefox/78.0,,Firefox,78,Windows,10
209,1,null,"""",image-keyboard-response,262,552862,0.0-262.0,"""",jspsych/neutralFaces/BF19NES.JPG,"""",256,Cue,Test,null,16,"""","""","""","""","""","""","""","""",1,4/30/2021 21:28,98.194.177.71,Mozilla/5.0 (Windows NT 10.0; Win64; x64; rv:78.0) Gecko/20100101 Firefox/78.0,,Firefox,78,Windows,10
209,1,null,"""",image-keyboard-response,263,552965,0.0-263.0,"""",jspsych/neutralFaces/BF07NES.JPG,"""",256,backwardMask,Test,null,100,"""","""","""","""","""","""","""","""",1,4/30/2021 21:28,98.194.177.71,Mozilla/5.0 (Windows NT 10.0; Win64; x64; rv:78.0) Gecko/20100101 Firefox/78.0,,Firefox,78,Windows,10
209,1,null,"""",html-keyboard-response,264,553966,0.0-264.0,"""","<div style=""font-size:60px;"">+</div>","""",256,fixationBtwnNeutralMaskAndPrompt,Test,null,1000,"""","""","""","""","""","""","""","""",1,4/30/2021 21:28,98.194.177.71,Mozilla/5.0 (Windows NT 10.0; Win64; x64; rv:78.0) Gecko/20100101 Firefox/78.0,,Firefox,78,Windows,10
209,1,2784,"""",html-button-response,265,556751,0.0-265.0,"""","<img src='jspsych/CFDfaces/CFD-AM-221-184-N.jpg' height=""250px"">,</br><b>Daniel</b>",1,256,IntactOrRearranged,Test,"""","""","""","""",CFD-BF-004-014-N.jpg,Melissa,1,1,"""","""",1,4/30/2021 21:28,98.194.177.71,Mozilla/5.0 (Windows NT 10.0; Win64; x64; rv:78.0) Gecko/20100101 Firefox/78.0,,Firefox,78,Windows,10
209,1,3498,"""",html-slider-response,266,560250,0.0-266.0,"""","<img src='jspsych/CFDfaces/CFD-AM-221-184-N.jpg' height=""250px"">,</br><b>Daniel</b>","""",256,ConfidenceQuery,Test,"""","""","""","""",CFD-BF-004-014-N.jpg,Melissa,1,"""",0,80,1,4/30/2021 21:28,98.194.177.71,Mozilla/5.0 (Windows NT 10.0; Win64; x64; rv:78.0) Gecko/20100101 Firefox/78.0,,Firefox,78,Windows,10
209,1,null,"""",html-keyboard-response,267,561259,0.0-267.0,"""","<div style=""font-size:60px;"">+</div>","""",256,ITI,Test,null,1000,"""","""","""","""","""","""","""","""",1,4/30/2021 21:28,98.194.177.71,Mozilla/5.0 (Windows NT 10.0; Win64; x64; rv:78.0) Gecko/20100101 Firefox/78.0,,Firefox,78,Windows,10
209,1,null,"""",image-keyboard-response,268,561510,0.0-268.0,"""",jspsych/scrambledNeutralFaces/scrambledAF24NES.JPG,"""",256,forwardMask,Test,null,250,"""",n,"""","""","""","""","""","""",1,4/30/2021 21:28,98.194.177.71,Mozilla/5.0 (Windows NT 10.0; Win64; x64; rv:78.0) Gecko/20100101 Firefox/78.0,,Firefox,78,Windows,10
209,1,null,"""",image-keyboard-response,269,561528,0.0-269.0,"""",jspsych/neutralFaces/AF24NES.JPG,"""",256,Cue,Test,null,16,"""","""","""","""","""","""","""","""",1,4/30/2021 21:28,98.194.177.71,Mozilla/5.0 (Windows NT 10.0; Win64; x64; rv:78.0) Gecko/20100101 Firefox/78.0,,Firefox,78,Windows,10
209,1,null,"""",image-keyboard-response,270,561631,0.0-270.0,"""",jspsych/neutralFaces/BF15NES.JPG,"""",256,backwardMask,Test,null,100,"""","""","""","""","""","""","""","""",1,4/30/2021 21:28,98.194.177.71,Mozilla/5.0 (Windows NT 10.0; Win64; x64; rv:78.0) Gecko/20100101 Firefox/78.0,,Firefox,78,Windows,10
209,1,null,"""",html-keyboard-response,271,562632,0.0-271.0,"""","<div style=""font-size:60px;"">+</div>","""",256,fixationBtwnNeutralMaskAndPrompt,Test,null,1000,"""","""","""","""","""","""","""","""",1,4/30/2021 21:28,98.194.177.71,Mozilla/5.0 (Windows NT 10.0; Win64; x64; rv:78.0) Gecko/20100101 Firefox/78.0,,Firefox,78,Windows,10
209,1,2082,"""",html-button-response,272,564717,0.0-272.0,"""","<img src='jspsych/CFDfaces/CFD-LM-213-061-N.jpg' height=""250px"">,</br><b>Robert</b>",0,256,IntactOrRearranged,Test,"""","""","""","""",CFD-WM-041-021-N.jpg,Ryan,0,0,"""","""",1,4/30/2021 21:28,98.194.177.71,Mozilla/5.0 (Windows NT 10.0; Win64; x64; rv:78.0) Gecko/20100101 Firefox/78.0,,Firefox,78,Windows,10
209,1,2835,"""",html-slider-response,273,567555,0.0-273.0,"""","<img src='jspsych/CFDfaces/CFD-LM-213-061-N.jpg' height=""250px"">,</br><b>Robert</b>","""",256,ConfidenceQuery,Test,"""","""","""","""",CFD-WM-041-021-N.jpg,Ryan,0,"""",0,79,1,4/30/2021 21:28,98.194.177.71,Mozilla/5.0 (Windows NT 10.0; Win64; x64; rv:78.0) Gecko/20100101 Firefox/78.0,,Firefox,78,Windows,10
209,1,null,"""",html-keyboard-response,274,568564,0.0-274.0,"""","<div style=""font-size:60px;"">+</div>","""",256,ITI,Test,null,1000,"""","""","""","""","""","""","""","""",1,4/30/2021 21:28,98.194.177.71,Mozilla/5.0 (Windows NT 10.0; Win64; x64; rv:78.0) Gecko/20100101 Firefox/78.0,,Firefox,78,Windows,10
209,1,null,"""",image-keyboard-response,275,568816,0.0-275.0,"""",jspsych/scrambledNeutralFaces/scrambledAM14NES.JPG,"""",256,forwardMask,Test,null,250,"""",n,"""","""","""","""","""","""",1,4/30/2021 21:28,98.194.177.71,Mozilla/5.0 (Windows NT 10.0; Win64; x64; rv:78.0) Gecko/20100101 Firefox/78.0,,Firefox,78,Windows,10
209,1,null,"""",image-keyboard-response,276,568837,0.0-276.0,"""",jspsych/neutralFaces/AM14NES.JPG,"""",256,Cue,Test,null,16,"""","""","""","""","""","""","""","""",1,4/30/2021 21:28,98.194.177.71,Mozilla/5.0 (Windows NT 10.0; Win64; x64; rv:78.0) Gecko/20100101 Firefox/78.0,,Firefox,78,Windows,10
209,1,null,"""",image-keyboard-response,277,568942,0.0-277.0,"""",jspsych/neutralFaces/AM03NES.JPG,"""",256,backwardMask,Test,null,100,"""","""","""","""","""","""","""","""",1,4/30/2021 21:28,98.194.177.71,Mozilla/5.0 (Windows NT 10.0; Win64; x64; rv:78.0) Gecko/20100101 Firefox/78.0,,Firefox,78,Windows,10
209,1,null,"""",html-keyboard-response,278,569945,0.0-278.0,"""","<div style=""font-size:60px;"">+</div>","""",256,fixationBtwnNeutralMaskAndPrompt,Test,null,1000,"""","""","""","""","""","""","""","""",1,4/30/2021 21:28,98.194.177.71,Mozilla/5.0 (Windows NT 10.0; Win64; x64; rv:78.0) Gecko/20100101 Firefox/78.0,,Firefox,78,Windows,10
209,1,2139,"""",html-button-response,279,572085,0.0-279.0,"""","<img src='jspsych/CFDfaces/CFD-AF-242-158-N.jpg' height=""250px"">,</br><b>Samantha</b>",0,256,IntactOrRearranged,Test,"""","""","""","""",CFD-WF-018-017-N.jpg,Whitney,0,0,"""","""",1,4/30/2021 21:28,98.194.177.71,Mozilla/5.0 (Windows NT 10.0; Win64; x64; rv:78.0) Gecko/20100101 Firefox/78.0,,Firefox,78,Windows,10
209,1,2702,"""",html-slider-response,280,574789,0.0-280.0,"""","<img src='jspsych/CFDfaces/CFD-AF-242-158-N.jpg' height=""250px"">,</br><b>Samantha</b>","""",256,ConfidenceQuery,Test,"""","""","""","""",CFD-WF-018-017-N.jpg,Whitney,0,"""",0,80,1,4/30/2021 21:28,98.194.177.71,Mozilla/5.0 (Windows NT 10.0; Win64; x64; rv:78.0) Gecko/20100101 Firefox/78.0,,Firefox,78,Windows,10
209,1,null,"""",html-keyboard-response,281,575797,0.0-281.0,"""","<div style=""font-size:60px;"">+</div>","""",256,ITI,Test,null,1000,"""","""","""","""","""","""","""","""",1,4/30/2021 21:28,98.194.177.71,Mozilla/5.0 (Windows NT 10.0; Win64; x64; rv:78.0) Gecko/20100101 Firefox/78.0,,Firefox,78,Windows,10
209,1,null,"""",image-keyboard-response,282,576052,0.0-282.0,"""",jspsych/scrambledNeutralFaces/scrambledAF22NES.JPG,"""",256,forwardMask,Test,null,250,"""",n,"""","""","""","""","""","""",1,4/30/2021 21:28,98.194.177.71,Mozilla/5.0 (Windows NT 10.0; Win64; x64; rv:78.0) Gecko/20100101 Firefox/78.0,,Firefox,78,Windows,10
209,1,null,"""",image-keyboard-response,283,576073,0.0-283.0,"""",jspsych/neutralFaces/AF22NES.JPG,"""",256,Cue,Test,null,16,"""","""","""","""","""","""","""","""",1,4/30/2021 21:28,98.194.177.71,Mozilla/5.0 (Windows NT 10.0; Win64; x64; rv:78.0) Gecko/20100101 Firefox/78.0,,Firefox,78,Windows,10
209,1,null,"""",image-keyboard-response,284,576179,0.0-284.0,"""",jspsych/neutralFaces/AF29NES.JPG,"""",256,backwardMask,Test,null,100,"""","""","""","""","""","""","""","""",1,4/30/2021 21:28,98.194.177.71,Mozilla/5.0 (Windows NT 10.0; Win64; x64; rv:78.0) Gecko/20100101 Firefox/78.0,,Firefox,78,Windows,10
209,1,null,"""",html-keyboard-response,285,577180,0.0-285.0,"""","<div style=""font-size:60px;"">+</div>","""",256,fixationBtwnNeutralMaskAndPrompt,Test,null,1000,"""","""","""","""","""","""","""","""",1,4/30/2021 21:28,98.194.177.71,Mozilla/5.0 (Windows NT 10.0; Win64; x64; rv:78.0) Gecko/20100101 Firefox/78.0,,Firefox,78,Windows,10
209,1,3165,"""",html-button-response,286,580347,0.0-286.0,"""","<img src='jspsych/CFDfaces/CFD-LF-218-072-N.jpg' height=""250px"">,</br><b>Amanda</b>",1,256,IntactOrRearranged,Test,"""","""","""","""",CFD-WF-024-003-N.jpg,Angela,1,1,"""","""",1,4/30/2021 21:28,98.194.177.71,Mozilla/5.0 (Windows NT 10.0; Win64; x64; rv:78.0) Gecko/20100101 Firefox/78.0,,Firefox,78,Windows,10
209,1,4537,"""",html-slider-response,287,584893,0.0-287.0,"""","<img src='jspsych/CFDfaces/CFD-LF-218-072-N.jpg' height=""250px"">,</br><b>Amanda</b>","""",256,ConfidenceQuery,Test,"""","""","""","""",CFD-WF-024-003-N.jpg,Angela,1,"""",0,78,1,4/30/2021 21:28,98.194.177.71,Mozilla/5.0 (Windows NT 10.0; Win64; x64; rv:78.0) Gecko/20100101 Firefox/78.0,,Firefox,78,Windows,10
209,1,null,"""",html-keyboard-response,288,585895,0.0-288.0,"""","<div style=""font-size:60px;"">+</div>","""",256,ITI,Test,null,1000,"""","""","""","""","""","""","""","""",1,4/30/2021 21:28,98.194.177.71,Mozilla/5.0 (Windows NT 10.0; Win64; x64; rv:78.0) Gecko/20100101 Firefox/78.0,,Firefox,78,Windows,10
209,1,null,"""",image-keyboard-response,289,586148,0.0-289.0,"""",jspsych/scrambledNeutralFaces/scrambledAF15NES.JPG,"""",256,forwardMask,Test,null,250,"""",n,"""","""","""","""","""","""",1,4/30/2021 21:28,98.194.177.71,Mozilla/5.0 (Windows NT 10.0; Win64; x64; rv:78.0) Gecko/20100101 Firefox/78.0,,Firefox,78,Windows,10
209,1,null,"""",image-keyboard-response,290,586181,0.0-290.0,"""",jspsych/neutralFaces/AF15NES.JPG,"""",256,Cue,Test,null,16,"""","""","""","""","""","""","""","""",1,4/30/2021 21:28,98.194.177.71,Mozilla/5.0 (Windows NT 10.0; Win64; x64; rv:78.0) Gecko/20100101 Firefox/78.0,,Firefox,78,Windows,10
209,1,null,"""",image-keyboard-response,291,586283,0.0-291.0,"""",jspsych/neutralFaces/BF25NES.JPG,"""",256,backwardMask,Test,null,100,"""","""","""","""","""","""","""","""",1,4/30/2021 21:28,98.194.177.71,Mozilla/5.0 (Windows NT 10.0; Win64; x64; rv:78.0) Gecko/20100101 Firefox/78.0,,Firefox,78,Windows,10
209,1,null,"""",html-keyboard-response,292,587285,0.0-292.0,"""","<div style=""font-size:60px;"">+</div>","""",256,fixationBtwnNeutralMaskAndPrompt,Test,null,1000,"""","""","""","""","""","""","""","""",1,4/30/2021 21:28,98.194.177.71,Mozilla/5.0 (Windows NT 10.0; Win64; x64; rv:78.0) Gecko/20100101 Firefox/78.0,,Firefox,78,Windows,10
209,1,2654,"""",html-button-response,293,589941,0.0-293.0,"""","<img src='jspsych/CFDfaces/CFD-BF-010-001-N.jpg' height=""250px"">,</br><b>Kimberly</b>",1,256,IntactOrRearranged,Test,"""","""","""","""",CFD-WF-204-038-N.jpg,Erin,1,1,"""","""",1,4/30/2021 21:28,98.194.177.71,Mozilla/5.0 (Windows NT 10.0; Win64; x64; rv:78.0) Gecko/20100101 Firefox/78.0,,Firefox,78,Windows,10
209,1,2725,"""",html-slider-response,294,592669,0.0-294.0,"""","<img src='jspsych/CFDfaces/CFD-BF-010-001-N.jpg' height=""250px"">,</br><b>Kimberly</b>","""",256,ConfidenceQuery,Test,"""","""","""","""",CFD-WF-204-038-N.jpg,Erin,1,"""",0,40,1,4/30/2021 21:28,98.194.177.71,Mozilla/5.0 (Windows NT 10.0; Win64; x64; rv:78.0) Gecko/20100101 Firefox/78.0,,Firefox,78,Windows,10
209,1,null,"""",html-keyboard-response,295,593677,0.0-295.0,"""","<div style=""font-size:60px;"">+</div>","""",256,ITI,Test,null,1000,"""","""","""","""","""","""","""","""",1,4/30/2021 21:28,98.194.177.71,Mozilla/5.0 (Windows NT 10.0; Win64; x64; rv:78.0) Gecko/20100101 Firefox/78.0,,Firefox,78,Windows,10
