run_id,condition,rt,responses,trial_type,trial_index,time_elapsed,internal_node_id,question_order,stimulus,button_pressed,iTrial,Phase,ExperimentPhase,key_press,StimulusDurationSetting,CharacterResponse,correctResponse,Face,Name,rearranged,slider_start,response,didSubjectEnterRearranged,Block,recorded_at,ip,user_agent,device,browser,browser_version,platform,platform_version
79,1,22221,"{""Q0"":""A3JSIGFT6QX2NL""}",survey-text,0,22226,0.0-0.0,"""","""","""","""","""","""","""","""","""","""","""","""","""","""","""","""","""",4/21/2021 4:08,76.255.155.139,Mozilla/5.0 (Windows NT 10.0; Win64; x64; rv:87.0) Gecko/20100101 Firefox/87.0,,Firefox,87,Windows,10
79,1,6756,"{""Q0"":""38""}",survey-text,1,28998,0.0-1.0,"""","""","""","""","""","""","""","""","""","""","""","""","""","""","""","""","""",4/21/2021 4:08,76.255.155.139,Mozilla/5.0 (Windows NT 10.0; Win64; x64; rv:87.0) Gecko/20100101 Firefox/87.0,,Firefox,87,Windows,10
79,1,13361,"{""Q0"":""male"",""Q1"":""Not Hispanic/Latino"",""Q2"":""White or Caucasian""}",survey-multi-choice,2,42366,0.0-2.0,"[0,1,2]","""","""","""","""","""","""","""","""","""","""","""","""","""","""","""","""",4/21/2021 4:08,76.255.155.139,Mozilla/5.0 (Windows NT 10.0; Win64; x64; rv:87.0) Gecko/20100101 Firefox/87.0,,Firefox,87,Windows,10
79,1,47431,"""",image-button-response,3,89823,0.0-3.0,"""",directionsMemoryAssociation1.JPG,0,1,IntroDirections1,break,"""","""","""","""","""","""","""","""","""","""","""",4/21/2021 4:08,76.255.155.139,Mozilla/5.0 (Windows NT 10.0; Win64; x64; rv:87.0) Gecko/20100101 Firefox/87.0,,Firefox,87,Windows,10
79,1,115229,"""",image-button-response,4,205077,0.0-4.0,"""",directionsMemoryAssociation2.JPG,0,1,IntroDirections2,break,"""","""","""","""","""","""","""","""","""","""","""",4/21/2021 4:08,76.255.155.139,Mozilla/5.0 (Windows NT 10.0; Win64; x64; rv:87.0) Gecko/20100101 Firefox/87.0,,Firefox,87,Windows,10
79,1,null,"""",html-keyboard-response,5,210104,0.0-5.0,"""","<img src='jspsych/CFDfaces/CFD-WF-220-101-N.jpg' height=""250px"">,</br><b>Shannon</b>","""",1,IntactFace,Practice,null,5000,"""","""","""","""","""","""","""","""","""",4/21/2021 4:08,76.255.155.139,Mozilla/5.0 (Windows NT 10.0; Win64; x64; rv:87.0) Gecko/20100101 Firefox/87.0,,Firefox,87,Windows,10
79,1,null,"""",html-keyboard-response,6,210608,0.0-6.0,"""","<div style=""font-size:60px;"">+</div>","""",1,ITI,Practice,null,1000,"""","""","""","""","""","""","""","""","""",4/21/2021 4:08,76.255.155.139,Mozilla/5.0 (Windows NT 10.0; Win64; x64; rv:87.0) Gecko/20100101 Firefox/87.0,,Firefox,87,Windows,10
79,1,3630,"""",html-keyboard-response,7,215617,0.0-7.0,"""","<img src='jspsych/CFDfaces/CFD-AM-243-212-N.jpg' height=""250px"">,</br><b>Patrick</b>","""",2,IntactFace,Practice,70,5000,f,"""","""","""","""","""","""","""","""",4/21/2021 4:08,76.255.155.139,Mozilla/5.0 (Windows NT 10.0; Win64; x64; rv:87.0) Gecko/20100101 Firefox/87.0,,Firefox,87,Windows,10
79,1,null,"""",html-keyboard-response,8,216125,0.0-8.0,"""","<div style=""font-size:60px;"">+</div>","""",2,ITI,Practice,null,1000,"""","""","""","""","""","""","""","""","""",4/21/2021 4:08,76.255.155.139,Mozilla/5.0 (Windows NT 10.0; Win64; x64; rv:87.0) Gecko/20100101 Firefox/87.0,,Firefox,87,Windows,10
79,1,2809,"""",html-keyboard-response,9,221135,0.0-9.0,"""","<img src='jspsych/CFDfaces/CFD-BM-205-001-N.jpg' height=""250px"">,</br><b>Marcus</b>","""",3,IntactFace,Practice,70,5000,f,"""","""","""","""","""","""","""","""",4/21/2021 4:08,76.255.155.139,Mozilla/5.0 (Windows NT 10.0; Win64; x64; rv:87.0) Gecko/20100101 Firefox/87.0,,Firefox,87,Windows,10
79,1,null,"""",html-keyboard-response,10,221640,0.0-10.0,"""","<div style=""font-size:60px;"">+</div>","""",3,ITI,Practice,null,1000,"""","""","""","""","""","""","""","""","""",4/21/2021 4:08,76.255.155.139,Mozilla/5.0 (Windows NT 10.0; Win64; x64; rv:87.0) Gecko/20100101 Firefox/87.0,,Firefox,87,Windows,10
79,1,3379,"""",html-keyboard-response,11,226659,0.0-11.0,"""","<img src='jspsych/CFDfaces/CFD-WF-024-003-N.jpg' height=""250px"">,</br><b>Katelyn</b>","""",4,IntactFace,Practice,70,5000,f,"""","""","""","""","""","""","""","""",4/21/2021 4:08,76.255.155.139,Mozilla/5.0 (Windows NT 10.0; Win64; x64; rv:87.0) Gecko/20100101 Firefox/87.0,,Firefox,87,Windows,10
79,1,null,"""",html-keyboard-response,12,227166,0.0-12.0,"""","<div style=""font-size:60px;"">+</div>","""",4,ITI,Practice,null,1000,"""","""","""","""","""","""","""","""","""",4/21/2021 4:08,76.255.155.139,Mozilla/5.0 (Windows NT 10.0; Win64; x64; rv:87.0) Gecko/20100101 Firefox/87.0,,Firefox,87,Windows,10
79,1,2921,"""",html-keyboard-response,13,232175,0.0-13.0,"""","<img src='jspsych/CFDfaces/CFD-WM-003-002-N.jpg' height=""250px"">,</br><b>Samuel</b>","""",5,IntactFace,Practice,70,5000,f,"""","""","""","""","""","""","""","""",4/21/2021 4:08,76.255.155.139,Mozilla/5.0 (Windows NT 10.0; Win64; x64; rv:87.0) Gecko/20100101 Firefox/87.0,,Firefox,87,Windows,10
79,1,null,"""",html-keyboard-response,14,232681,0.0-14.0,"""","<div style=""font-size:60px;"">+</div>","""",5,ITI,Practice,null,1000,"""","""","""","""","""","""","""","""","""",4/21/2021 4:08,76.255.155.139,Mozilla/5.0 (Windows NT 10.0; Win64; x64; rv:87.0) Gecko/20100101 Firefox/87.0,,Firefox,87,Windows,10
79,1,2710,"""",html-keyboard-response,15,237691,0.0-15.0,"""","<img src='jspsych/CFDfaces/CFD-BM-207-024-N.jpg' height=""250px"">,</br><b>Carlos</b>","""",6,IntactFace,Practice,78,5000,n,"""","""","""","""","""","""","""","""",4/21/2021 4:08,76.255.155.139,Mozilla/5.0 (Windows NT 10.0; Win64; x64; rv:87.0) Gecko/20100101 Firefox/87.0,,Firefox,87,Windows,10
79,1,null,"""",html-keyboard-response,16,238194,0.0-16.0,"""","<div style=""font-size:60px;"">+</div>","""",6,ITI,Practice,null,1000,"""","""","""","""","""","""","""","""","""",4/21/2021 4:08,76.255.155.139,Mozilla/5.0 (Windows NT 10.0; Win64; x64; rv:87.0) Gecko/20100101 Firefox/87.0,,Firefox,87,Windows,10
79,1,2098,"""",html-keyboard-response,17,243211,0.0-17.0,"""","<img src='jspsych/CFDfaces/CFD-AF-209-006-N.jpg' height=""250px"">,</br><b>Cassandra</b>","""",7,IntactFace,Practice,78,5000,n,"""","""","""","""","""","""","""","""",4/21/2021 4:08,76.255.155.139,Mozilla/5.0 (Windows NT 10.0; Win64; x64; rv:87.0) Gecko/20100101 Firefox/87.0,,Firefox,87,Windows,10
79,1,null,"""",html-keyboard-response,18,243716,0.0-18.0,"""","<div style=""font-size:60px;"">+</div>","""",7,ITI,Practice,null,1000,"""","""","""","""","""","""","""","""","""",4/21/2021 4:08,76.255.155.139,Mozilla/5.0 (Windows NT 10.0; Win64; x64; rv:87.0) Gecko/20100101 Firefox/87.0,,Firefox,87,Windows,10
79,1,3658,"""",html-keyboard-response,19,248724,0.0-19.0,"""","<img src='jspsych/CFDfaces/CFD-LF-244-096-N.jpg' height=""250px"">,</br><b>Tara</b>","""",8,IntactFace,Practice,78,5000,n,"""","""","""","""","""","""","""","""",4/21/2021 4:08,76.255.155.139,Mozilla/5.0 (Windows NT 10.0; Win64; x64; rv:87.0) Gecko/20100101 Firefox/87.0,,Firefox,87,Windows,10
79,1,null,"""",html-keyboard-response,20,249229,0.0-20.0,"""","<div style=""font-size:60px;"">+</div>","""",8,ITI,Practice,null,1000,"""","""","""","""","""","""","""","""","""",4/21/2021 4:08,76.255.155.139,Mozilla/5.0 (Windows NT 10.0; Win64; x64; rv:87.0) Gecko/20100101 Firefox/87.0,,Firefox,87,Windows,10
79,1,57938,"""",image-button-response,21,307179,0.0-21.0,"""",directionsForTest.JPG,0,1,directionsForTest,break,"""","""","""","""","""","""","""","""","""","""","""",4/21/2021 4:08,76.255.155.139,Mozilla/5.0 (Windows NT 10.0; Win64; x64; rv:87.0) Gecko/20100101 Firefox/87.0,,Firefox,87,Windows,10
79,1,30622,"""",image-button-response,22,337812,0.0-22.0,"""",directionsForTest2.JPG,0,1,directionsForTest2,break,"""","""","""","""","""","""","""","""","""","""","""",4/21/2021 4:08,76.255.155.139,Mozilla/5.0 (Windows NT 10.0; Win64; x64; rv:87.0) Gecko/20100101 Firefox/87.0,,Firefox,87,Windows,10
79,1,null,"""",html-keyboard-response,23,338829,0.0-23.0,"""","<div style=""font-size:60px;"">+</div>","""",1,ITI,Practice,null,1000,"""","""","""","""","""","""","""","""","""",4/21/2021 4:08,76.255.155.139,Mozilla/5.0 (Windows NT 10.0; Win64; x64; rv:87.0) Gecko/20100101 Firefox/87.0,,Firefox,87,Windows,10
79,1,null,"""",image-keyboard-response,24,339096,0.0-24.0,"""",jspsych/scrambledNeutralFaces/scrambledBF06NES.JPG,"""",1,forwardMask,Practice,null,250,"""",n,"""","""","""","""","""","""","""",4/21/2021 4:08,76.255.155.139,Mozilla/5.0 (Windows NT 10.0; Win64; x64; rv:87.0) Gecko/20100101 Firefox/87.0,,Firefox,87,Windows,10
79,1,null,"""",image-keyboard-response,25,339129,0.0-25.0,"""",jspsych/neutralFaces/BF06NES.JPG,"""",1,Cue,Practice,null,16,"""","""","""","""","""","""","""","""","""",4/21/2021 4:08,76.255.155.139,Mozilla/5.0 (Windows NT 10.0; Win64; x64; rv:87.0) Gecko/20100101 Firefox/87.0,,Firefox,87,Windows,10
79,1,null,"""",image-keyboard-response,26,339238,0.0-26.0,"""",jspsych/neutralFaces/BF04NES.JPG,"""",1,backwardMask,Practice,null,100,"""","""","""","""","""","""","""","""","""",4/21/2021 4:08,76.255.155.139,Mozilla/5.0 (Windows NT 10.0; Win64; x64; rv:87.0) Gecko/20100101 Firefox/87.0,,Firefox,87,Windows,10
79,1,null,"""",html-keyboard-response,27,340246,0.0-27.0,"""","<div style=""font-size:60px;"">+</div>","""",1,fixationBtwnNeutralMaskAndPrompt,Practice,null,1000,"""","""","""","""","""","""","""","""","""",4/21/2021 4:08,76.255.155.139,Mozilla/5.0 (Windows NT 10.0; Win64; x64; rv:87.0) Gecko/20100101 Firefox/87.0,,Firefox,87,Windows,10
79,1,null,"""",html-button-response,28,345256,0.0-28.0,"""","<img src='jspsych/CFDfaces/CFD-WF-024-003-N.jpg'height=""250px""></br><b>Cassandra</b>",null,1,IntactOrRearranged,Practice,"""","""","""","""",CFD-WF-024-003-N.jpg,Cassandra,1,"""","""","""","""",4/21/2021 4:08,76.255.155.139,Mozilla/5.0 (Windows NT 10.0; Win64; x64; rv:87.0) Gecko/20100101 Firefox/87.0,,Firefox,87,Windows,10
79,1,null,"""",html-slider-response,29,350275,0.0-29.0,"""","<img src='jspsych/CFDfaces/CFD-WF-024-003-N.jpg'height=""250px""></br><b>Cassandra</b>","""",1,ConfidenceQuery,Practice,"""","""","""","""",CFD-BF-009-002-N.jpg,Tiffany,1,0,null,"""","""",4/21/2021 4:08,76.255.155.139,Mozilla/5.0 (Windows NT 10.0; Win64; x64; rv:87.0) Gecko/20100101 Firefox/87.0,,Firefox,87,Windows,10
79,1,15395,"""",html-button-response,30,365677,0.0-30.0,"""",<p>Please click either button: REARRANGED or INTACT before the 5-second time limit.</p>,0,1,feedback,Practice,"""","""","""","""","""","""","""","""","""","""","""",4/21/2021 4:08,76.255.155.139,Mozilla/5.0 (Windows NT 10.0; Win64; x64; rv:87.0) Gecko/20100101 Firefox/87.0,,Firefox,87,Windows,10
79,1,null,"""",html-keyboard-response,31,366685,0.0-31.0,"""","<div style=""font-size:60px;"">+</div>","""",2,ITI,Practice,null,1000,"""","""","""","""","""","""","""","""","""",4/21/2021 4:08,76.255.155.139,Mozilla/5.0 (Windows NT 10.0; Win64; x64; rv:87.0) Gecko/20100101 Firefox/87.0,,Firefox,87,Windows,10
79,1,null,"""",image-keyboard-response,32,366955,0.0-32.0,"""",jspsych/scrambledNeutralFaces/scrambledAM08NES.JPG,"""",2,forwardMask,Practice,null,250,"""",n,"""","""","""","""","""","""","""",4/21/2021 4:08,76.255.155.139,Mozilla/5.0 (Windows NT 10.0; Win64; x64; rv:87.0) Gecko/20100101 Firefox/87.0,,Firefox,87,Windows,10
79,1,null,"""",image-keyboard-response,33,366985,0.0-33.0,"""",jspsych/neutralFaces/AM08NES.JPG,"""",2,Cue,Practice,null,16,"""","""","""","""","""","""","""","""","""",4/21/2021 4:08,76.255.155.139,Mozilla/5.0 (Windows NT 10.0; Win64; x64; rv:87.0) Gecko/20100101 Firefox/87.0,,Firefox,87,Windows,10
79,1,null,"""",image-keyboard-response,34,367096,0.0-34.0,"""",jspsych/neutralFaces/BM11NES.JPG,"""",2,backwardMask,Practice,null,100,"""","""","""","""","""","""","""","""","""",4/21/2021 4:08,76.255.155.139,Mozilla/5.0 (Windows NT 10.0; Win64; x64; rv:87.0) Gecko/20100101 Firefox/87.0,,Firefox,87,Windows,10
79,1,null,"""",html-keyboard-response,35,368098,0.0-35.0,"""","<div style=""font-size:60px;"">+</div>","""",2,fixationBtwnNeutralMaskAndPrompt,Practice,null,1000,"""","""","""","""","""","""","""","""","""",4/21/2021 4:08,76.255.155.139,Mozilla/5.0 (Windows NT 10.0; Win64; x64; rv:87.0) Gecko/20100101 Firefox/87.0,,Firefox,87,Windows,10
79,1,2496,"""",html-button-response,36,370595,0.0-36.0,"""","<img src='jspsych/CFDfaces/CFD-AF-209-006-N.jpg'height=""250px""></br><b>Katelyn</b>",1,2,IntactOrRearranged,Practice,"""","""","""","""",CFD-AF-209-006-N.jpg,Katelyn,1,"""","""",1,"""",4/21/2021 4:08,76.255.155.139,Mozilla/5.0 (Windows NT 10.0; Win64; x64; rv:87.0) Gecko/20100101 Firefox/87.0,,Firefox,87,Windows,10
79,1,null,"""",html-slider-response,37,375615,0.0-37.0,"""","<img src='jspsych/CFDfaces/CFD-AF-209-006-N.jpg'height=""250px""></br><b>Katelyn</b>","""",2,ConfidenceQuery,Practice,"""","""","""","""",CFD-BF-009-002-N.jpg,Tiffany,1,0,null,"""","""",4/21/2021 4:08,76.255.155.139,Mozilla/5.0 (Windows NT 10.0; Win64; x64; rv:87.0) Gecko/20100101 Firefox/87.0,,Firefox,87,Windows,10
79,1,6757,"""",html-button-response,38,382380,0.0-38.0,"""",You are Correct. You Called A Rearranged Pair Rearranged,0,2,feedback,Practice,"""","""","""","""","""","""","""","""","""","""","""",4/21/2021 4:08,76.255.155.139,Mozilla/5.0 (Windows NT 10.0; Win64; x64; rv:87.0) Gecko/20100101 Firefox/87.0,,Firefox,87,Windows,10
79,1,null,"""",html-keyboard-response,39,383389,0.0-39.0,"""","<div style=""font-size:60px;"">+</div>","""",3,ITI,Practice,null,1000,"""","""","""","""","""","""","""","""","""",4/21/2021 4:08,76.255.155.139,Mozilla/5.0 (Windows NT 10.0; Win64; x64; rv:87.0) Gecko/20100101 Firefox/87.0,,Firefox,87,Windows,10
79,1,null,"""",image-keyboard-response,40,383651,0.0-40.0,"""",jspsych/scrambledNeutralFaces/scrambledAM08NES.JPG,"""",3,forwardMask,Practice,null,250,"""",n,"""","""","""","""","""","""","""",4/21/2021 4:08,76.255.155.139,Mozilla/5.0 (Windows NT 10.0; Win64; x64; rv:87.0) Gecko/20100101 Firefox/87.0,,Firefox,87,Windows,10
79,1,null,"""",image-keyboard-response,41,383672,0.0-41.0,"""",jspsych/neutralFaces/AM08NES.JPG,"""",3,Cue,Practice,null,16,"""","""","""","""","""","""","""","""","""",4/21/2021 4:08,76.255.155.139,Mozilla/5.0 (Windows NT 10.0; Win64; x64; rv:87.0) Gecko/20100101 Firefox/87.0,,Firefox,87,Windows,10
79,1,null,"""",image-keyboard-response,42,383782,0.0-42.0,"""",jspsych/neutralFaces/AM06NES.JPG,"""",3,backwardMask,Practice,null,100,"""","""","""","""","""","""","""","""","""",4/21/2021 4:08,76.255.155.139,Mozilla/5.0 (Windows NT 10.0; Win64; x64; rv:87.0) Gecko/20100101 Firefox/87.0,,Firefox,87,Windows,10
79,1,null,"""",html-keyboard-response,43,384793,0.0-43.0,"""","<div style=""font-size:60px;"">+</div>","""",3,fixationBtwnNeutralMaskAndPrompt,Practice,null,1000,"""","""","""","""","""","""","""","""","""",4/21/2021 4:08,76.255.155.139,Mozilla/5.0 (Windows NT 10.0; Win64; x64; rv:87.0) Gecko/20100101 Firefox/87.0,,Firefox,87,Windows,10
79,1,3177,"""",html-button-response,44,387973,0.0-44.0,"""","<img src='jspsych/CFDfaces/CFD-LF-244-096-N.jpg'height=""250px""></br><b>Tara</b>",0,3,IntactOrRearranged,Practice,"""","""","""","""",CFD-LF-244-096-N.jpg,Tara,0,"""","""",0,"""",4/21/2021 4:08,76.255.155.139,Mozilla/5.0 (Windows NT 10.0; Win64; x64; rv:87.0) Gecko/20100101 Firefox/87.0,,Firefox,87,Windows,10
79,1,3897,"""",html-slider-response,45,391875,0.0-45.0,"""","<img src='jspsych/CFDfaces/CFD-LF-244-096-N.jpg'height=""250px""></br><b>Tara</b>","""",3,ConfidenceQuery,Practice,"""","""","""","""",CFD-BF-009-002-N.jpg,Tiffany,0,0,93,"""","""",4/21/2021 4:08,76.255.155.139,Mozilla/5.0 (Windows NT 10.0; Win64; x64; rv:87.0) Gecko/20100101 Firefox/87.0,,Firefox,87,Windows,10
79,1,1834,"""",html-button-response,46,393715,0.0-46.0,"""",You are Correct. You called an Intact Pair Intact,0,3,feedback,Practice,"""","""","""","""","""","""","""","""","""","""","""",4/21/2021 4:08,76.255.155.139,Mozilla/5.0 (Windows NT 10.0; Win64; x64; rv:87.0) Gecko/20100101 Firefox/87.0,,Firefox,87,Windows,10
79,1,null,"""",html-keyboard-response,47,394722,0.0-47.0,"""","<div style=""font-size:60px;"">+</div>","""",4,ITI,Practice,null,1000,"""","""","""","""","""","""","""","""","""",4/21/2021 4:08,76.255.155.139,Mozilla/5.0 (Windows NT 10.0; Win64; x64; rv:87.0) Gecko/20100101 Firefox/87.0,,Firefox,87,Windows,10
79,1,null,"""",image-keyboard-response,48,394991,0.0-48.0,"""",jspsych/scrambledNeutralFaces/scrambledBF24NES.JPG,"""",4,forwardMask,Practice,null,250,"""",n,"""","""","""","""","""","""","""",4/21/2021 4:08,76.255.155.139,Mozilla/5.0 (Windows NT 10.0; Win64; x64; rv:87.0) Gecko/20100101 Firefox/87.0,,Firefox,87,Windows,10
79,1,null,"""",image-keyboard-response,49,395023,0.0-49.0,"""",jspsych/neutralFaces/BF24NES.JPG,"""",4,Cue,Practice,null,16,"""","""","""","""","""","""","""","""","""",4/21/2021 4:08,76.255.155.139,Mozilla/5.0 (Windows NT 10.0; Win64; x64; rv:87.0) Gecko/20100101 Firefox/87.0,,Firefox,87,Windows,10
79,1,null,"""",image-keyboard-response,50,395134,0.0-50.0,"""",jspsych/neutralFaces/AF13NES.JPG,"""",4,backwardMask,Practice,null,100,"""","""","""","""","""","""","""","""","""",4/21/2021 4:08,76.255.155.139,Mozilla/5.0 (Windows NT 10.0; Win64; x64; rv:87.0) Gecko/20100101 Firefox/87.0,,Firefox,87,Windows,10
79,1,null,"""",html-keyboard-response,51,396140,0.0-51.0,"""","<div style=""font-size:60px;"">+</div>","""",4,fixationBtwnNeutralMaskAndPrompt,Practice,null,1000,"""","""","""","""","""","""","""","""","""",4/21/2021 4:08,76.255.155.139,Mozilla/5.0 (Windows NT 10.0; Win64; x64; rv:87.0) Gecko/20100101 Firefox/87.0,,Firefox,87,Windows,10
79,1,1942,"""",html-button-response,52,398083,0.0-52.0,"""","<img src='jspsych/CFDfaces/CFD-WM-003-002-N.jpg'height=""250px""></br><b>Samuel</b>",0,4,IntactOrRearranged,Practice,"""","""","""","""",CFD-WM-003-002-N.jpg,Samuel,0,"""","""",0,"""",4/21/2021 4:08,76.255.155.139,Mozilla/5.0 (Windows NT 10.0; Win64; x64; rv:87.0) Gecko/20100101 Firefox/87.0,,Firefox,87,Windows,10
79,1,2703,"""",html-slider-response,53,400796,0.0-53.0,"""","<img src='jspsych/CFDfaces/CFD-WM-003-002-N.jpg'height=""250px""></br><b>Samuel</b>","""",4,ConfidenceQuery,Practice,"""","""","""","""",CFD-BF-009-002-N.jpg,Tiffany,0,0,92,"""","""",4/21/2021 4:08,76.255.155.139,Mozilla/5.0 (Windows NT 10.0; Win64; x64; rv:87.0) Gecko/20100101 Firefox/87.0,,Firefox,87,Windows,10
79,1,1620,"""",html-button-response,54,402419,0.0-54.0,"""",You are Correct. You called an Intact Pair Intact,0,4,feedback,Practice,"""","""","""","""","""","""","""","""","""","""","""",4/21/2021 4:08,76.255.155.139,Mozilla/5.0 (Windows NT 10.0; Win64; x64; rv:87.0) Gecko/20100101 Firefox/87.0,,Firefox,87,Windows,10
79,1,null,"""",html-keyboard-response,55,403430,0.0-55.0,"""","<div style=""font-size:60px;"">+</div>","""",5,ITI,Practice,null,1000,"""","""","""","""","""","""","""","""","""",4/21/2021 4:08,76.255.155.139,Mozilla/5.0 (Windows NT 10.0; Win64; x64; rv:87.0) Gecko/20100101 Firefox/87.0,,Firefox,87,Windows,10
79,1,null,"""",image-keyboard-response,56,403698,0.0-56.0,"""",jspsych/scrambledDisgustFaces/scrambledAM03DIS.JPG,"""",5,forwardMask,Practice,null,250,"""",d,"""","""","""","""","""","""","""",4/21/2021 4:08,76.255.155.139,Mozilla/5.0 (Windows NT 10.0; Win64; x64; rv:87.0) Gecko/20100101 Firefox/87.0,,Firefox,87,Windows,10
79,1,null,"""",image-keyboard-response,57,403730,0.0-57.0,"""",jspsych/disgustFaces/AM03DIS.JPG,"""",5,Cue,Practice,null,16,"""","""","""","""","""","""","""","""","""",4/21/2021 4:08,76.255.155.139,Mozilla/5.0 (Windows NT 10.0; Win64; x64; rv:87.0) Gecko/20100101 Firefox/87.0,,Firefox,87,Windows,10
79,1,null,"""",image-keyboard-response,58,403835,0.0-58.0,"""",jspsych/neutralFaces/AM08NES.JPG,"""",5,backwardMask,Practice,null,100,"""","""","""","""","""","""","""","""","""",4/21/2021 4:08,76.255.155.139,Mozilla/5.0 (Windows NT 10.0; Win64; x64; rv:87.0) Gecko/20100101 Firefox/87.0,,Firefox,87,Windows,10
79,1,null,"""",html-keyboard-response,59,404850,0.0-59.0,"""","<div style=""font-size:60px;"">+</div>","""",5,fixationBtwnNeutralMaskAndPrompt,Practice,null,1000,"""","""","""","""","""","""","""","""","""",4/21/2021 4:08,76.255.155.139,Mozilla/5.0 (Windows NT 10.0; Win64; x64; rv:87.0) Gecko/20100101 Firefox/87.0,,Firefox,87,Windows,10
79,1,1727,"""",html-button-response,60,406579,0.0-60.0,"""","<img src='jspsych/CFDfaces/CFD-BM-205-001-N.jpg'height=""250px""></br><b>Carlos</b>",0,5,IntactOrRearranged,Practice,"""","""","""","""",CFD-BM-205-001-N.jpg,Carlos,1,"""","""",0,"""",4/21/2021 4:08,76.255.155.139,Mozilla/5.0 (Windows NT 10.0; Win64; x64; rv:87.0) Gecko/20100101 Firefox/87.0,,Firefox,87,Windows,10
79,1,null,"""",html-slider-response,61,411587,0.0-61.0,"""","<img src='jspsych/CFDfaces/CFD-BM-205-001-N.jpg'height=""250px""></br><b>Carlos</b>","""",5,ConfidenceQuery,Practice,"""","""","""","""",CFD-BF-009-002-N.jpg,Tiffany,1,0,null,"""","""",4/21/2021 4:08,76.255.155.139,Mozilla/5.0 (Windows NT 10.0; Win64; x64; rv:87.0) Gecko/20100101 Firefox/87.0,,Firefox,87,Windows,10
79,1,1836,"""",html-button-response,62,413428,0.0-62.0,"""",You are Incorrect. You called a Rearranged Pair Intact,0,5,feedback,Practice,"""","""","""","""","""","""","""","""","""","""","""",4/21/2021 4:08,76.255.155.139,Mozilla/5.0 (Windows NT 10.0; Win64; x64; rv:87.0) Gecko/20100101 Firefox/87.0,,Firefox,87,Windows,10
79,1,null,"""",html-keyboard-response,63,414437,0.0-63.0,"""","<div style=""font-size:60px;"">+</div>","""",6,ITI,Practice,null,1000,"""","""","""","""","""","""","""","""","""",4/21/2021 4:08,76.255.155.139,Mozilla/5.0 (Windows NT 10.0; Win64; x64; rv:87.0) Gecko/20100101 Firefox/87.0,,Firefox,87,Windows,10
79,1,null,"""",image-keyboard-response,64,414706,0.0-64.0,"""",jspsych/scrambledNeutralFaces/scrambledAF17NES.JPG,"""",6,forwardMask,Practice,null,250,"""",n,"""","""","""","""","""","""","""",4/21/2021 4:08,76.255.155.139,Mozilla/5.0 (Windows NT 10.0; Win64; x64; rv:87.0) Gecko/20100101 Firefox/87.0,,Firefox,87,Windows,10
79,1,null,"""",image-keyboard-response,65,414737,0.0-65.0,"""",jspsych/neutralFaces/AF17NES.JPG,"""",6,Cue,Practice,null,16,"""","""","""","""","""","""","""","""","""",4/21/2021 4:08,76.255.155.139,Mozilla/5.0 (Windows NT 10.0; Win64; x64; rv:87.0) Gecko/20100101 Firefox/87.0,,Firefox,87,Windows,10
79,1,null,"""",image-keyboard-response,66,414848,0.0-66.0,"""",jspsych/neutralFaces/BF22NES.JPG,"""",6,backwardMask,Practice,null,100,"""","""","""","""","""","""","""","""","""",4/21/2021 4:08,76.255.155.139,Mozilla/5.0 (Windows NT 10.0; Win64; x64; rv:87.0) Gecko/20100101 Firefox/87.0,,Firefox,87,Windows,10
79,1,null,"""",html-keyboard-response,67,415859,0.0-67.0,"""","<div style=""font-size:60px;"">+</div>","""",6,fixationBtwnNeutralMaskAndPrompt,Practice,null,1000,"""","""","""","""","""","""","""","""","""",4/21/2021 4:08,76.255.155.139,Mozilla/5.0 (Windows NT 10.0; Win64; x64; rv:87.0) Gecko/20100101 Firefox/87.0,,Firefox,87,Windows,10
79,1,2294,"""",html-button-response,68,418156,0.0-68.0,"""","<img src='jspsych/CFDfaces/CFD-BM-207-024-N.jpg'height=""250px""></br><b>Marcus</b>",1,6,IntactOrRearranged,Practice,"""","""","""","""",CFD-BM-207-024-N.jpg,Marcus,1,"""","""",1,"""",4/21/2021 4:08,76.255.155.139,Mozilla/5.0 (Windows NT 10.0; Win64; x64; rv:87.0) Gecko/20100101 Firefox/87.0,,Firefox,87,Windows,10
79,1,null,"""",html-slider-response,69,423179,0.0-69.0,"""","<img src='jspsych/CFDfaces/CFD-BM-207-024-N.jpg'height=""250px""></br><b>Marcus</b>","""",6,ConfidenceQuery,Practice,"""","""","""","""",CFD-BF-009-002-N.jpg,Tiffany,1,0,null,"""","""",4/21/2021 4:08,76.255.155.139,Mozilla/5.0 (Windows NT 10.0; Win64; x64; rv:87.0) Gecko/20100101 Firefox/87.0,,Firefox,87,Windows,10
79,1,2286,"""",html-button-response,70,425467,0.0-70.0,"""",You are Correct. You Called A Rearranged Pair Rearranged,0,6,feedback,Practice,"""","""","""","""","""","""","""","""","""","""","""",4/21/2021 4:08,76.255.155.139,Mozilla/5.0 (Windows NT 10.0; Win64; x64; rv:87.0) Gecko/20100101 Firefox/87.0,,Firefox,87,Windows,10
79,1,null,"""",html-keyboard-response,71,426475,0.0-71.0,"""","<div style=""font-size:60px;"">+</div>","""",7,ITI,Practice,null,1000,"""","""","""","""","""","""","""","""","""",4/21/2021 4:08,76.255.155.139,Mozilla/5.0 (Windows NT 10.0; Win64; x64; rv:87.0) Gecko/20100101 Firefox/87.0,,Firefox,87,Windows,10
79,1,null,"""",image-keyboard-response,72,426744,0.0-72.0,"""",jspsych/scrambledNeutralFaces/scrambledAM04NES.JPG,"""",7,forwardMask,Practice,null,250,"""",n,"""","""","""","""","""","""","""",4/21/2021 4:08,76.255.155.139,Mozilla/5.0 (Windows NT 10.0; Win64; x64; rv:87.0) Gecko/20100101 Firefox/87.0,,Firefox,87,Windows,10
79,1,null,"""",image-keyboard-response,73,426775,0.0-73.0,"""",jspsych/neutralFaces/AM04NES.JPG,"""",7,Cue,Practice,null,16,"""","""","""","""","""","""","""","""","""",4/21/2021 4:08,76.255.155.139,Mozilla/5.0 (Windows NT 10.0; Win64; x64; rv:87.0) Gecko/20100101 Firefox/87.0,,Firefox,87,Windows,10
79,1,null,"""",image-keyboard-response,74,426885,0.0-74.0,"""",jspsych/neutralFaces/AM06NES.JPG,"""",7,backwardMask,Practice,null,100,"""","""","""","""","""","""","""","""","""",4/21/2021 4:08,76.255.155.139,Mozilla/5.0 (Windows NT 10.0; Win64; x64; rv:87.0) Gecko/20100101 Firefox/87.0,,Firefox,87,Windows,10
79,1,null,"""",html-keyboard-response,75,427897,0.0-75.0,"""","<div style=""font-size:60px;"">+</div>","""",7,fixationBtwnNeutralMaskAndPrompt,Practice,null,1000,"""","""","""","""","""","""","""","""","""",4/21/2021 4:08,76.255.155.139,Mozilla/5.0 (Windows NT 10.0; Win64; x64; rv:87.0) Gecko/20100101 Firefox/87.0,,Firefox,87,Windows,10
79,1,2440,"""",html-button-response,76,430339,0.0-76.0,"""","<img src='jspsych/CFDfaces/CFD-AM-243-212-N.jpg'height=""250px""></br><b>Patrick</b>",1,7,IntactOrRearranged,Practice,"""","""","""","""",CFD-AM-243-212-N.jpg,Patrick,0,"""","""",1,"""",4/21/2021 4:08,76.255.155.139,Mozilla/5.0 (Windows NT 10.0; Win64; x64; rv:87.0) Gecko/20100101 Firefox/87.0,,Firefox,87,Windows,10
79,1,4628,"""",html-slider-response,77,434972,0.0-77.0,"""","<img src='jspsych/CFDfaces/CFD-AM-243-212-N.jpg'height=""250px""></br><b>Patrick</b>","""",7,ConfidenceQuery,Practice,"""","""","""","""",CFD-BF-009-002-N.jpg,Tiffany,0,0,98,"""","""",4/21/2021 4:08,76.255.155.139,Mozilla/5.0 (Windows NT 10.0; Win64; x64; rv:87.0) Gecko/20100101 Firefox/87.0,,Firefox,87,Windows,10
79,1,3079,"""",html-button-response,78,438059,0.0-78.0,"""",You are Incorrect. You Called an Intact Pair Rearranged,0,7,feedback,Practice,"""","""","""","""","""","""","""","""","""","""","""",4/21/2021 4:08,76.255.155.139,Mozilla/5.0 (Windows NT 10.0; Win64; x64; rv:87.0) Gecko/20100101 Firefox/87.0,,Firefox,87,Windows,10
79,1,null,"""",html-keyboard-response,79,439074,0.0-79.0,"""","<div style=""font-size:60px;"">+</div>","""",8,ITI,Practice,null,1000,"""","""","""","""","""","""","""","""","""",4/21/2021 4:08,76.255.155.139,Mozilla/5.0 (Windows NT 10.0; Win64; x64; rv:87.0) Gecko/20100101 Firefox/87.0,,Firefox,87,Windows,10
79,1,null,"""",image-keyboard-response,80,439331,0.0-80.0,"""",jspsych/scrambledDisgustFaces/scrambledBM29DIS.JPG,"""",8,forwardMask,Practice,null,250,"""",d,"""","""","""","""","""","""","""",4/21/2021 4:08,76.255.155.139,Mozilla/5.0 (Windows NT 10.0; Win64; x64; rv:87.0) Gecko/20100101 Firefox/87.0,,Firefox,87,Windows,10
79,1,null,"""",image-keyboard-response,81,439356,0.0-81.0,"""",jspsych/disgustFaces/BM30DIS.JPG,"""",8,Cue,Practice,null,16,"""","""","""","""","""","""","""","""","""",4/21/2021 4:08,76.255.155.139,Mozilla/5.0 (Windows NT 10.0; Win64; x64; rv:87.0) Gecko/20100101 Firefox/87.0,,Firefox,87,Windows,10
79,1,null,"""",image-keyboard-response,82,439465,0.0-82.0,"""",jspsych/neutralFaces/AM07NES.JPG,"""",8,backwardMask,Practice,null,100,"""","""","""","""","""","""","""","""","""",4/21/2021 4:08,76.255.155.139,Mozilla/5.0 (Windows NT 10.0; Win64; x64; rv:87.0) Gecko/20100101 Firefox/87.0,,Firefox,87,Windows,10
79,1,null,"""",html-keyboard-response,83,440470,0.0-83.0,"""","<div style=""font-size:60px;"">+</div>","""",8,fixationBtwnNeutralMaskAndPrompt,Practice,null,1000,"""","""","""","""","""","""","""","""","""",4/21/2021 4:08,76.255.155.139,Mozilla/5.0 (Windows NT 10.0; Win64; x64; rv:87.0) Gecko/20100101 Firefox/87.0,,Firefox,87,Windows,10
79,1,2431,"""",html-button-response,84,442908,0.0-84.0,"""","<img src='jspsych/CFDfaces/CFD-WF-220-101-N.jpg'height=""250px""></br><b>Shannon</b>",1,8,IntactOrRearranged,Practice,"""","""","""","""",CFD-WF-220-101-N.jpg,Shannon,0,"""","""",1,"""",4/21/2021 4:08,76.255.155.139,Mozilla/5.0 (Windows NT 10.0; Win64; x64; rv:87.0) Gecko/20100101 Firefox/87.0,,Firefox,87,Windows,10
79,1,2931,"""",html-slider-response,85,445844,0.0-85.0,"""","<img src='jspsych/CFDfaces/CFD-WF-220-101-N.jpg'height=""250px""></br><b>Shannon</b>","""",8,ConfidenceQuery,Practice,"""","""","""","""",CFD-BF-009-002-N.jpg,Tiffany,0,0,90,"""","""",4/21/2021 4:08,76.255.155.139,Mozilla/5.0 (Windows NT 10.0; Win64; x64; rv:87.0) Gecko/20100101 Firefox/87.0,,Firefox,87,Windows,10
79,1,2445,"""",html-button-response,86,448291,0.0-86.0,"""",You are Incorrect. You Called an Intact Pair Rearranged,0,8,feedback,Practice,"""","""","""","""","""","""","""","""","""","""","""",4/21/2021 4:08,76.255.155.139,Mozilla/5.0 (Windows NT 10.0; Win64; x64; rv:87.0) Gecko/20100101 Firefox/87.0,,Firefox,87,Windows,10
79,1,24431,"""",image-button-response,87,472740,0.0-87.0,"""",directionsMemoryAssociation3.JPG,0,128,DirectionsBeforeActualTEst,Break,"""","""","""","""","""","""","""","""","""","""","""",4/21/2021 4:08,76.255.155.139,Mozilla/5.0 (Windows NT 10.0; Win64; x64; rv:87.0) Gecko/20100101 Firefox/87.0,,Firefox,87,Windows,10
79,1,3275,"""",image-button-response,88,476027,0.0-88.0,"""",directionsForTest2.JPG,0,1,directionsForTest2,break,"""","""","""","""","""","""","""","""","""","""","""",4/21/2021 4:08,76.255.155.139,Mozilla/5.0 (Windows NT 10.0; Win64; x64; rv:87.0) Gecko/20100101 Firefox/87.0,,Firefox,87,Windows,10
79,1,19049,"""",html-button-response,89,495083,0.0-89.0,"""","<p>You will be asked to memorize and then recall four sets of face-name pairs. </p> <p> Each set will have 32 pairs. </p> <p>After the fourth set, there will be a brief follow-up experiment (<40 min alltogether)</p>",0,"""","""","""","""","""","""","""","""","""","""","""","""","""","""",4/21/2021 4:08,76.255.155.139,Mozilla/5.0 (Windows NT 10.0; Win64; x64; rv:87.0) Gecko/20100101 Firefox/87.0,,Firefox,87,Windows,10
79,1,3972,"""",html-keyboard-response,90,500101,0.0-90.0,"""","<img src='jspsych/CFDfaces/CFD-BF-221-223-N.jpg' height=""250px""></br><b>Amanda</b>","""",256,IntactFace,Memorization,78,5000,n,"""",CFD-WF-006-002-N.jpg,Laura,0,"""","""","""",1,4/21/2021 4:08,76.255.155.139,Mozilla/5.0 (Windows NT 10.0; Win64; x64; rv:87.0) Gecko/20100101 Firefox/87.0,,Firefox,87,Windows,10
79,1,null,"""",html-keyboard-response,91,500623,0.0-91.0,"""","<div style=""font-size:60px;"">+</div>","""",256,fixation,Memorization,null,500,"""","""","""","""","""","""","""","""",1,4/21/2021 4:08,76.255.155.139,Mozilla/5.0 (Windows NT 10.0; Win64; x64; rv:87.0) Gecko/20100101 Firefox/87.0,,Firefox,87,Windows,10
79,1,2410,"""",html-keyboard-response,92,505637,0.0-92.0,"""","<img src='jspsych/CFDfaces/CFD-LM-239-075-N.jpg' height=""250px""></br><b>Robert</b>","""",256,IntactFace,Memorization,78,5000,n,"""",CFD-AF-228-173-N.jpg,Taylor,0,"""","""","""",1,4/21/2021 4:08,76.255.155.139,Mozilla/5.0 (Windows NT 10.0; Win64; x64; rv:87.0) Gecko/20100101 Firefox/87.0,,Firefox,87,Windows,10
79,1,null,"""",html-keyboard-response,93,506140,0.0-93.0,"""","<div style=""font-size:60px;"">+</div>","""",256,fixation,Memorization,null,500,"""","""","""","""","""","""","""","""",1,4/21/2021 4:08,76.255.155.139,Mozilla/5.0 (Windows NT 10.0; Win64; x64; rv:87.0) Gecko/20100101 Firefox/87.0,,Firefox,87,Windows,10
79,1,2009,"""",html-keyboard-response,94,511161,0.0-94.0,"""","<img src='jspsych/CFDfaces/CFD-BF-021-013-N.jpg' height=""250px""></br><b>Brittany</b>","""",256,IntactFace,Memorization,78,5000,n,"""",CFD-LF-201-035-N.jpg,Rebecca,0,"""","""","""",1,4/21/2021 4:08,76.255.155.139,Mozilla/5.0 (Windows NT 10.0; Win64; x64; rv:87.0) Gecko/20100101 Firefox/87.0,,Firefox,87,Windows,10
79,1,null,"""",html-keyboard-response,95,511665,0.0-95.0,"""","<div style=""font-size:60px;"">+</div>","""",256,fixation,Memorization,null,500,"""","""","""","""","""","""","""","""",1,4/21/2021 4:08,76.255.155.139,Mozilla/5.0 (Windows NT 10.0; Win64; x64; rv:87.0) Gecko/20100101 Firefox/87.0,,Firefox,87,Windows,10
79,1,2750,"""",html-keyboard-response,96,516691,0.0-96.0,"""","<img src='jspsych/CFDfaces/CFD-AM-248-104-N.jpg' height=""250px""></br><b>Peter</b>","""",256,IntactFace,Memorization,78,5000,n,"""",CFD-AF-214-139-N.jpg,Erin,0,"""","""","""",1,4/21/2021 4:08,76.255.155.139,Mozilla/5.0 (Windows NT 10.0; Win64; x64; rv:87.0) Gecko/20100101 Firefox/87.0,,Firefox,87,Windows,10
79,1,null,"""",html-keyboard-response,97,517195,0.0-97.0,"""","<div style=""font-size:60px;"">+</div>","""",256,fixation,Memorization,null,500,"""","""","""","""","""","""","""","""",1,4/21/2021 4:08,76.255.155.139,Mozilla/5.0 (Windows NT 10.0; Win64; x64; rv:87.0) Gecko/20100101 Firefox/87.0,,Firefox,87,Windows,10
79,1,2334,"""",html-keyboard-response,98,522213,0.0-98.0,"""","<img src='jspsych/CFDfaces/CFD-LF-208-127-N.jpg' height=""250px""></br><b>Emily</b>","""",256,IntactFace,Memorization,70,5000,f,"""",CFD-BM-208-065-N.jpg,Ryan,0,"""","""","""",1,4/21/2021 4:08,76.255.155.139,Mozilla/5.0 (Windows NT 10.0; Win64; x64; rv:87.0) Gecko/20100101 Firefox/87.0,,Firefox,87,Windows,10
79,1,null,"""",html-keyboard-response,99,522732,0.0-99.0,"""","<div style=""font-size:60px;"">+</div>","""",256,fixation,Memorization,null,500,"""","""","""","""","""","""","""","""",1,4/21/2021 4:08,76.255.155.139,Mozilla/5.0 (Windows NT 10.0; Win64; x64; rv:87.0) Gecko/20100101 Firefox/87.0,,Firefox,87,Windows,10
79,1,2262,"""",html-keyboard-response,100,527743,0.0-100.0,"""","<img src='jspsych/CFDfaces/CFD-AM-212-050-N.jpg' height=""250px""></br><b>Jeffrey</b>","""",256,IntactFace,Memorization,78,5000,n,"""",CFD-WF-018-017-N.jpg,Lauren,0,"""","""","""",1,4/21/2021 4:08,76.255.155.139,Mozilla/5.0 (Windows NT 10.0; Win64; x64; rv:87.0) Gecko/20100101 Firefox/87.0,,Firefox,87,Windows,10
79,1,null,"""",html-keyboard-response,101,528250,0.0-101.0,"""","<div style=""font-size:60px;"">+</div>","""",256,fixation,Memorization,null,500,"""","""","""","""","""","""","""","""",1,4/21/2021 4:08,76.255.155.139,Mozilla/5.0 (Windows NT 10.0; Win64; x64; rv:87.0) Gecko/20100101 Firefox/87.0,,Firefox,87,Windows,10
79,1,2482,"""",html-keyboard-response,102,533261,0.0-102.0,"""","<img src='jspsych/CFDfaces/CFD-LM-217-162-N.jpg' height=""250px""></br><b>Nicholas</b>","""",256,IntactFace,Memorization,70,5000,f,"""",CFD-BM-001-014-N.jpg,Jeremy,0,"""","""","""",1,4/21/2021 4:08,76.255.155.139,Mozilla/5.0 (Windows NT 10.0; Win64; x64; rv:87.0) Gecko/20100101 Firefox/87.0,,Firefox,87,Windows,10
79,1,null,"""",html-keyboard-response,103,533766,0.0-103.0,"""","<div style=""font-size:60px;"">+</div>","""",256,fixation,Memorization,null,500,"""","""","""","""","""","""","""","""",1,4/21/2021 4:08,76.255.155.139,Mozilla/5.0 (Windows NT 10.0; Win64; x64; rv:87.0) Gecko/20100101 Firefox/87.0,,Firefox,87,Windows,10
79,1,2658,"""",html-keyboard-response,104,538771,0.0-104.0,"""","<img src='jspsych/CFDfaces/CFD-BF-025-002-N.jpg' height=""250px""></br><b>Kayla</b>","""",256,IntactFace,Memorization,70,5000,f,"""",CFD-BF-004-014-N.jpg,Amy,0,"""","""","""",1,4/21/2021 4:08,76.255.155.139,Mozilla/5.0 (Windows NT 10.0; Win64; x64; rv:87.0) Gecko/20100101 Firefox/87.0,,Firefox,87,Windows,10
79,1,null,"""",html-keyboard-response,105,539289,0.0-105.0,"""","<div style=""font-size:60px;"">+</div>","""",256,fixation,Memorization,null,500,"""","""","""","""","""","""","""","""",1,4/21/2021 4:08,76.255.155.139,Mozilla/5.0 (Windows NT 10.0; Win64; x64; rv:87.0) Gecko/20100101 Firefox/87.0,,Firefox,87,Windows,10
79,1,2192,"""",html-keyboard-response,106,544293,0.0-106.0,"""","<img src='jspsych/CFDfaces/CFD-LM-224-162-N.jpg' height=""250px""></br><b>Richard</b>","""",256,IntactFace,Memorization,78,5000,n,"""",CFD-WF-218-087-N.jpg,Melissa,0,"""","""","""",1,4/21/2021 4:08,76.255.155.139,Mozilla/5.0 (Windows NT 10.0; Win64; x64; rv:87.0) Gecko/20100101 Firefox/87.0,,Firefox,87,Windows,10
79,1,null,"""",html-keyboard-response,107,544798,0.0-107.0,"""","<div style=""font-size:60px;"">+</div>","""",256,fixation,Memorization,null,500,"""","""","""","""","""","""","""","""",1,4/21/2021 4:08,76.255.155.139,Mozilla/5.0 (Windows NT 10.0; Win64; x64; rv:87.0) Gecko/20100101 Firefox/87.0,,Firefox,87,Windows,10
79,1,4135,"""",html-keyboard-response,108,549812,0.0-108.0,"""","<img src='jspsych/CFDfaces/CFD-BM-022-022-N.jpg' height=""250px""></br><b>Christian</b>","""",256,IntactFace,Memorization,70,5000,f,"""",CFD-AM-214-168-N.jpg,Vincent,0,"""","""","""",1,4/21/2021 4:08,76.255.155.139,Mozilla/5.0 (Windows NT 10.0; Win64; x64; rv:87.0) Gecko/20100101 Firefox/87.0,,Firefox,87,Windows,10
79,1,null,"""",html-keyboard-response,109,550329,0.0-109.0,"""","<div style=""font-size:60px;"">+</div>","""",256,fixation,Memorization,null,500,"""","""","""","""","""","""","""","""",1,4/21/2021 4:08,76.255.155.139,Mozilla/5.0 (Windows NT 10.0; Win64; x64; rv:87.0) Gecko/20100101 Firefox/87.0,,Firefox,87,Windows,10
79,1,1672,"""",html-keyboard-response,110,555339,0.0-110.0,"""","<img src='jspsych/CFDfaces/CFD-AM-213-056-N.jpg' height=""250px""></br><b>Jason</b>","""",256,IntactFace,Memorization,78,5000,n,"""",CFD-LF-202-065-N.jpg,Jordan,0,"""","""","""",1,4/21/2021 4:08,76.255.155.139,Mozilla/5.0 (Windows NT 10.0; Win64; x64; rv:87.0) Gecko/20100101 Firefox/87.0,,Firefox,87,Windows,10
79,1,null,"""",html-keyboard-response,111,555857,0.0-111.0,"""","<div style=""font-size:60px;"">+</div>","""",256,fixation,Memorization,null,500,"""","""","""","""","""","""","""","""",1,4/21/2021 4:08,76.255.155.139,Mozilla/5.0 (Windows NT 10.0; Win64; x64; rv:87.0) Gecko/20100101 Firefox/87.0,,Firefox,87,Windows,10
79,1,2384,"""",html-keyboard-response,112,560865,0.0-112.0,"""","<img src='jspsych/CFDfaces/CFD-LF-213-079-N.jpg' height=""250px""></br><b>Elizabeth</b>","""",256,IntactFace,Memorization,70,5000,f,"""",CFD-BM-027-001-N.jpg,Dustin,0,"""","""","""",1,4/21/2021 4:08,76.255.155.139,Mozilla/5.0 (Windows NT 10.0; Win64; x64; rv:87.0) Gecko/20100101 Firefox/87.0,,Firefox,87,Windows,10
79,1,null,"""",html-keyboard-response,113,561372,0.0-113.0,"""","<div style=""font-size:60px;"">+</div>","""",256,fixation,Memorization,null,500,"""","""","""","""","""","""","""","""",1,4/21/2021 4:08,76.255.155.139,Mozilla/5.0 (Windows NT 10.0; Win64; x64; rv:87.0) Gecko/20100101 Firefox/87.0,,Firefox,87,Windows,10
79,1,3296,"""",html-keyboard-response,114,566385,0.0-114.0,"""","<img src='jspsych/CFDfaces/CFD-AF-239-171-N.jpg' height=""250px""></br><b>Christina</b>","""",256,IntactFace,Memorization,70,5000,f,"""",CFD-LF-200-058-N.jpg,Heather,0,"""","""","""",1,4/21/2021 4:08,76.255.155.139,Mozilla/5.0 (Windows NT 10.0; Win64; x64; rv:87.0) Gecko/20100101 Firefox/87.0,,Firefox,87,Windows,10
79,1,null,"""",html-keyboard-response,115,566889,0.0-115.0,"""","<div style=""font-size:60px;"">+</div>","""",256,fixation,Memorization,null,500,"""","""","""","""","""","""","""","""",1,4/21/2021 4:08,76.255.155.139,Mozilla/5.0 (Windows NT 10.0; Win64; x64; rv:87.0) Gecko/20100101 Firefox/87.0,,Firefox,87,Windows,10
79,1,2591,"""",html-keyboard-response,116,571892,0.0-116.0,"""","<img src='jspsych/CFDfaces/CFD-WF-038-021-N.jpg' height=""250px""></br><b>Stephanie</b>","""",256,IntactFace,Memorization,78,5000,n,"""",CFD-BF-218-207-N.jpg,Sara,0,"""","""","""",1,4/21/2021 4:08,76.255.155.139,Mozilla/5.0 (Windows NT 10.0; Win64; x64; rv:87.0) Gecko/20100101 Firefox/87.0,,Firefox,87,Windows,10
79,1,null,"""",html-keyboard-response,117,572414,0.0-117.0,"""","<div style=""font-size:60px;"">+</div>","""",256,fixation,Memorization,null,500,"""","""","""","""","""","""","""","""",1,4/21/2021 4:08,76.255.155.139,Mozilla/5.0 (Windows NT 10.0; Win64; x64; rv:87.0) Gecko/20100101 Firefox/87.0,,Firefox,87,Windows,10
79,1,2539,"""",html-keyboard-response,118,577422,0.0-118.0,"""","<img src='jspsych/CFDfaces/CFD-BM-210-148-N.jpg' height=""250px""></br><b>Joshua</b>","""",256,IntactFace,Memorization,70,5000,f,"""",CFD-AF-243-170-N.jpg,Jenna,0,"""","""","""",1,4/21/2021 4:08,76.255.155.139,Mozilla/5.0 (Windows NT 10.0; Win64; x64; rv:87.0) Gecko/20100101 Firefox/87.0,,Firefox,87,Windows,10
79,1,null,"""",html-keyboard-response,119,577924,0.0-119.0,"""","<div style=""font-size:60px;"">+</div>","""",256,fixation,Memorization,null,500,"""","""","""","""","""","""","""","""",1,4/21/2021 4:08,76.255.155.139,Mozilla/5.0 (Windows NT 10.0; Win64; x64; rv:87.0) Gecko/20100101 Firefox/87.0,,Firefox,87,Windows,10
79,1,2863,"""",html-keyboard-response,120,582937,0.0-120.0,"""","<img src='jspsych/CFDfaces/CFD-LF-230-203-N.jpg' height=""250px""></br><b>Kimberly</b>","""",256,IntactFace,Memorization,78,5000,n,"""",CFD-WM-216-061-N.jpg,Jesse,0,"""","""","""",1,4/21/2021 4:08,76.255.155.139,Mozilla/5.0 (Windows NT 10.0; Win64; x64; rv:87.0) Gecko/20100101 Firefox/87.0,,Firefox,87,Windows,10
79,1,null,"""",html-keyboard-response,121,583441,0.0-121.0,"""","<div style=""font-size:60px;"">+</div>","""",256,fixation,Memorization,null,500,"""","""","""","""","""","""","""","""",1,4/21/2021 4:08,76.255.155.139,Mozilla/5.0 (Windows NT 10.0; Win64; x64; rv:87.0) Gecko/20100101 Firefox/87.0,,Firefox,87,Windows,10
79,1,1841,"""",html-keyboard-response,122,588444,0.0-122.0,"""","<img src='jspsych/CFDfaces/CFD-WM-022-001-N.jpg' height=""250px""></br><b>James</b>","""",256,IntactFace,Memorization,70,5000,f,"""",CFD-BF-009-002-N.jpg,Tiffany,0,"""","""","""",1,4/21/2021 4:08,76.255.155.139,Mozilla/5.0 (Windows NT 10.0; Win64; x64; rv:87.0) Gecko/20100101 Firefox/87.0,,Firefox,87,Windows,10
79,1,null,"""",html-keyboard-response,123,588965,0.0-123.0,"""","<div style=""font-size:60px;"">+</div>","""",256,fixation,Memorization,null,500,"""","""","""","""","""","""","""","""",1,4/21/2021 4:08,76.255.155.139,Mozilla/5.0 (Windows NT 10.0; Win64; x64; rv:87.0) Gecko/20100101 Firefox/87.0,,Firefox,87,Windows,10
79,1,2875,"""",html-keyboard-response,124,593978,0.0-124.0,"""","<img src='jspsych/CFDfaces/CFD-AF-222-134-N.jpg' height=""250px""></br><b>Victoria</b>","""",256,IntactFace,Memorization,70,5000,f,"""",CFD-WM-020-001-N.jpg,Kenneth,0,"""","""","""",1,4/21/2021 4:08,76.255.155.139,Mozilla/5.0 (Windows NT 10.0; Win64; x64; rv:87.0) Gecko/20100101 Firefox/87.0,,Firefox,87,Windows,10
79,1,null,"""",html-keyboard-response,125,594484,0.0-125.0,"""","<div style=""font-size:60px;"">+</div>","""",256,fixation,Memorization,null,500,"""","""","""","""","""","""","""","""",1,4/21/2021 4:08,76.255.155.139,Mozilla/5.0 (Windows NT 10.0; Win64; x64; rv:87.0) Gecko/20100101 Firefox/87.0,,Firefox,87,Windows,10
79,1,3535,"""",html-keyboard-response,126,599500,0.0-126.0,"""","<img src='jspsych/CFDfaces/CFD-WM-032-001-N.jpg' height=""250px""></br><b>Gregory</b>","""",256,IntactFace,Memorization,70,5000,f,"""",CFD-WF-019-005-N.jpg,Whitney,0,"""","""","""",1,4/21/2021 4:08,76.255.155.139,Mozilla/5.0 (Windows NT 10.0; Win64; x64; rv:87.0) Gecko/20100101 Firefox/87.0,,Firefox,87,Windows,10
79,1,null,"""",html-keyboard-response,127,600006,0.0-127.0,"""","<div style=""font-size:60px;"">+</div>","""",256,fixation,Memorization,null,500,"""","""","""","""","""","""","""","""",1,4/21/2021 4:08,76.255.155.139,Mozilla/5.0 (Windows NT 10.0; Win64; x64; rv:87.0) Gecko/20100101 Firefox/87.0,,Firefox,87,Windows,10
79,1,2140,"""",html-keyboard-response,128,605022,0.0-128.0,"""","<img src='jspsych/CFDfaces/CFD-BF-005-001-N.jpg' height=""250px""></br><b>Meghan</b>","""",256,IntactFace,Memorization,78,5000,n,"""",CFD-BM-002-013-N.jpg,Jacob,0,"""","""","""",1,4/21/2021 4:08,76.255.155.139,Mozilla/5.0 (Windows NT 10.0; Win64; x64; rv:87.0) Gecko/20100101 Firefox/87.0,,Firefox,87,Windows,10
79,1,null,"""",html-keyboard-response,129,605543,0.0-129.0,"""","<div style=""font-size:60px;"">+</div>","""",256,fixation,Memorization,null,500,"""","""","""","""","""","""","""","""",1,4/21/2021 4:08,76.255.155.139,Mozilla/5.0 (Windows NT 10.0; Win64; x64; rv:87.0) Gecko/20100101 Firefox/87.0,,Firefox,87,Windows,10
79,1,2361,"""",html-keyboard-response,130,610549,0.0-130.0,"""","<img src='jspsych/CFDfaces/CFD-BF-019-001-N.jpg' height=""250px""></br><b>Vanessa</b>","""",256,IntactFace,Memorization,70,5000,f,"""",CFD-LM-246-087-N.jpg,Steven,0,"""","""","""",1,4/21/2021 4:08,76.255.155.139,Mozilla/5.0 (Windows NT 10.0; Win64; x64; rv:87.0) Gecko/20100101 Firefox/87.0,,Firefox,87,Windows,10
79,1,null,"""",html-keyboard-response,131,611065,0.0-131.0,"""","<div style=""font-size:60px;"">+</div>","""",256,fixation,Memorization,null,500,"""","""","""","""","""","""","""","""",1,4/21/2021 4:08,76.255.155.139,Mozilla/5.0 (Windows NT 10.0; Win64; x64; rv:87.0) Gecko/20100101 Firefox/87.0,,Firefox,87,Windows,10
79,1,2178,"""",html-keyboard-response,132,616084,0.0-132.0,"""","<img src='jspsych/CFDfaces/CFD-LF-206-078-N.jpg' height=""250px""></br><b>Michelle</b>","""",256,IntactFace,Memorization,70,5000,f,"""",CFD-WM-215-041-N.jpg,Sean,0,"""","""","""",1,4/21/2021 4:08,76.255.155.139,Mozilla/5.0 (Windows NT 10.0; Win64; x64; rv:87.0) Gecko/20100101 Firefox/87.0,,Firefox,87,Windows,10
79,1,null,"""",html-keyboard-response,133,616588,0.0-133.0,"""","<div style=""font-size:60px;"">+</div>","""",256,fixation,Memorization,null,500,"""","""","""","""","""","""","""","""",1,4/21/2021 4:08,76.255.155.139,Mozilla/5.0 (Windows NT 10.0; Win64; x64; rv:87.0) Gecko/20100101 Firefox/87.0,,Firefox,87,Windows,10
79,1,2157,"""",html-keyboard-response,134,621603,0.0-134.0,"""","<img src='jspsych/CFDfaces/CFD-BM-039-029-N.jpg' height=""250px""></br><b>Ian</b>","""",256,IntactFace,Memorization,70,5000,f,"""",CFD-AM-230-150-N.jpg,Timothy,0,"""","""","""",1,4/21/2021 4:08,76.255.155.139,Mozilla/5.0 (Windows NT 10.0; Win64; x64; rv:87.0) Gecko/20100101 Firefox/87.0,,Firefox,87,Windows,10
79,1,null,"""",html-keyboard-response,135,622123,0.0-135.0,"""","<div style=""font-size:60px;"">+</div>","""",256,fixation,Memorization,null,500,"""","""","""","""","""","""","""","""",1,4/21/2021 4:08,76.255.155.139,Mozilla/5.0 (Windows NT 10.0; Win64; x64; rv:87.0) Gecko/20100101 Firefox/87.0,,Firefox,87,Windows,10
79,1,2759,"""",html-keyboard-response,136,627130,0.0-136.0,"""","<img src='jspsych/CFDfaces/CFD-LF-239-148-N.jpg' height=""250px""></br><b>Andrea</b>","""",256,IntactFace,Memorization,70,5000,f,"""",CFD-LF-203-066-N.jpg,Jasmine,0,"""","""","""",1,4/21/2021 4:08,76.255.155.139,Mozilla/5.0 (Windows NT 10.0; Win64; x64; rv:87.0) Gecko/20100101 Firefox/87.0,,Firefox,87,Windows,10
79,1,null,"""",html-keyboard-response,137,627633,0.0-137.0,"""","<div style=""font-size:60px;"">+</div>","""",256,fixation,Memorization,null,500,"""","""","""","""","""","""","""","""",1,4/21/2021 4:08,76.255.155.139,Mozilla/5.0 (Windows NT 10.0; Win64; x64; rv:87.0) Gecko/20100101 Firefox/87.0,,Firefox,87,Windows,10
79,1,1642,"""",html-keyboard-response,138,632642,0.0-138.0,"""","<img src='jspsych/CFDfaces/CFD-BF-201-080-N.jpg' height=""250px""></br><b>Julie</b>","""",256,IntactFace,Memorization,78,5000,n,"""",CFD-WM-019-003-N.jpg,Mark,0,"""","""","""",1,4/21/2021 4:08,76.255.155.139,Mozilla/5.0 (Windows NT 10.0; Win64; x64; rv:87.0) Gecko/20100101 Firefox/87.0,,Firefox,87,Windows,10
79,1,null,"""",html-keyboard-response,139,633145,0.0-139.0,"""","<div style=""font-size:60px;"">+</div>","""",256,fixation,Memorization,null,500,"""","""","""","""","""","""","""","""",1,4/21/2021 4:08,76.255.155.139,Mozilla/5.0 (Windows NT 10.0; Win64; x64; rv:87.0) Gecko/20100101 Firefox/87.0,,Firefox,87,Windows,10
79,1,2792,"""",html-keyboard-response,140,638150,0.0-140.0,"""","<img src='jspsych/CFDfaces/CFD-AF-203-077-N.jpg' height=""250px""></br><b>Samantha</b>","""",256,IntactFace,Memorization,78,5000,n,"""",CFD-WM-034-030-N.jpg,Cameron,0,"""","""","""",1,4/21/2021 4:08,76.255.155.139,Mozilla/5.0 (Windows NT 10.0; Win64; x64; rv:87.0) Gecko/20100101 Firefox/87.0,,Firefox,87,Windows,10
79,1,null,"""",html-keyboard-response,141,638672,0.0-141.0,"""","<div style=""font-size:60px;"">+</div>","""",256,fixation,Memorization,null,500,"""","""","""","""","""","""","""","""",1,4/21/2021 4:08,76.255.155.139,Mozilla/5.0 (Windows NT 10.0; Win64; x64; rv:87.0) Gecko/20100101 Firefox/87.0,,Firefox,87,Windows,10
79,1,3121,"""",html-keyboard-response,142,643675,0.0-142.0,"""","<img src='jspsych/CFDfaces/CFD-BM-211-174-N.jpg' height=""250px""></br><b>Eric</b>","""",256,IntactFace,Memorization,70,5000,f,"""",CFD-AF-200-228-N.jpg,Angela,0,"""","""","""",1,4/21/2021 4:08,76.255.155.139,Mozilla/5.0 (Windows NT 10.0; Win64; x64; rv:87.0) Gecko/20100101 Firefox/87.0,,Firefox,87,Windows,10
79,1,null,"""",html-keyboard-response,143,644179,0.0-143.0,"""","<div style=""font-size:60px;"">+</div>","""",256,fixation,Memorization,null,500,"""","""","""","""","""","""","""","""",1,4/21/2021 4:08,76.255.155.139,Mozilla/5.0 (Windows NT 10.0; Win64; x64; rv:87.0) Gecko/20100101 Firefox/87.0,,Firefox,87,Windows,10
79,1,2151,"""",html-keyboard-response,144,649190,0.0-144.0,"""","<img src='jspsych/CFDfaces/CFD-WM-207-048-N.jpg' height=""250px""></br><b>Juan</b>","""",256,IntactFace,Memorization,78,5000,n,"""",CFD-BM-026-002-N.jpg,Travis,0,"""","""","""",1,4/21/2021 4:08,76.255.155.139,Mozilla/5.0 (Windows NT 10.0; Win64; x64; rv:87.0) Gecko/20100101 Firefox/87.0,,Firefox,87,Windows,10
79,1,null,"""",html-keyboard-response,145,649697,0.0-145.0,"""","<div style=""font-size:60px;"">+</div>","""",256,fixation,Memorization,null,500,"""","""","""","""","""","""","""","""",1,4/21/2021 4:08,76.255.155.139,Mozilla/5.0 (Windows NT 10.0; Win64; x64; rv:87.0) Gecko/20100101 Firefox/87.0,,Firefox,87,Windows,10
79,1,2729,"""",html-keyboard-response,146,654705,0.0-146.0,"""","<img src='jspsych/CFDfaces/CFD-AF-208-003-N.jpg' height=""250px""></br><b>Ashley</b>","""",256,IntactFace,Memorization,78,5000,n,"""",CFD-LM-201-057-N.jpg,Justin,0,"""","""","""",1,4/21/2021 4:08,76.255.155.139,Mozilla/5.0 (Windows NT 10.0; Win64; x64; rv:87.0) Gecko/20100101 Firefox/87.0,,Firefox,87,Windows,10
79,1,null,"""",html-keyboard-response,147,655218,0.0-147.0,"""","<div style=""font-size:60px;"">+</div>","""",256,fixation,Memorization,null,500,"""","""","""","""","""","""","""","""",1,4/21/2021 4:08,76.255.155.139,Mozilla/5.0 (Windows NT 10.0; Win64; x64; rv:87.0) Gecko/20100101 Firefox/87.0,,Firefox,87,Windows,10
79,1,2869,"""",html-keyboard-response,148,660229,0.0-148.0,"""","<img src='jspsych/CFDfaces/CFD-BM-041-035-N.jpg' height=""250px""></br><b>Brian</b>","""",256,IntactFace,Memorization,78,5000,n,"""",CFD-LF-205-100-N.jpg,Lindsey,0,"""","""","""",1,4/21/2021 4:08,76.255.155.139,Mozilla/5.0 (Windows NT 10.0; Win64; x64; rv:87.0) Gecko/20100101 Firefox/87.0,,Firefox,87,Windows,10
79,1,null,"""",html-keyboard-response,149,660733,0.0-149.0,"""","<div style=""font-size:60px;"">+</div>","""",256,fixation,Memorization,null,500,"""","""","""","""","""","""","""","""",1,4/21/2021 4:08,76.255.155.139,Mozilla/5.0 (Windows NT 10.0; Win64; x64; rv:87.0) Gecko/20100101 Firefox/87.0,,Firefox,87,Windows,10
79,1,2108,"""",html-keyboard-response,150,665749,0.0-150.0,"""","<img src='jspsych/CFDfaces/CFD-LM-223-175-N.jpg' height=""250px""></br><b>Brandon</b>","""",256,IntactFace,Memorization,78,5000,n,"""",CFD-AM-246-184-N.jpg,Luis,0,"""","""","""",1,4/21/2021 4:08,76.255.155.139,Mozilla/5.0 (Windows NT 10.0; Win64; x64; rv:87.0) Gecko/20100101 Firefox/87.0,,Firefox,87,Windows,10
79,1,null,"""",html-keyboard-response,151,666256,0.0-151.0,"""","<div style=""font-size:60px;"">+</div>","""",256,fixation,Memorization,null,500,"""","""","""","""","""","""","""","""",1,4/21/2021 4:08,76.255.155.139,Mozilla/5.0 (Windows NT 10.0; Win64; x64; rv:87.0) Gecko/20100101 Firefox/87.0,,Firefox,87,Windows,10
79,1,2649,"""",html-keyboard-response,152,671267,0.0-152.0,"""","<img src='jspsych/CFDfaces/CFD-LM-221-216-N.jpg' height=""250px""></br><b>Daniel</b>","""",256,IntactFace,Memorization,78,5000,n,"""",CFD-WM-212-097-N.jpg,Austin,0,"""","""","""",1,4/21/2021 4:08,76.255.155.139,Mozilla/5.0 (Windows NT 10.0; Win64; x64; rv:87.0) Gecko/20100101 Firefox/87.0,,Firefox,87,Windows,10
79,1,null,"""",html-keyboard-response,153,671789,0.0-153.0,"""","<div style=""font-size:60px;"">+</div>","""",256,fixation,Memorization,null,500,"""","""","""","""","""","""","""","""",1,4/21/2021 4:08,76.255.155.139,Mozilla/5.0 (Windows NT 10.0; Win64; x64; rv:87.0) Gecko/20100101 Firefox/87.0,,Firefox,87,Windows,10
79,1,6166,"""",html-keyboard-response,154,677955,0.0-154.0,"""",Press Any Key to Begin Memory Test,"""",1,welcomeScreen,Break,71,"""","""","""","""","""","""","""","""","""",1,4/21/2021 4:08,76.255.155.139,Mozilla/5.0 (Windows NT 10.0; Win64; x64; rv:87.0) Gecko/20100101 Firefox/87.0,,Firefox,87,Windows,10
79,1,null,"""",html-keyboard-response,155,678972,0.0-155.0,"""","<div style=""font-size:60px;"">+</div>","""",256,ITI,Test,null,1000,"""","""","""","""","""","""","""","""",1,4/21/2021 4:08,76.255.155.139,Mozilla/5.0 (Windows NT 10.0; Win64; x64; rv:87.0) Gecko/20100101 Firefox/87.0,,Firefox,87,Windows,10
79,1,null,"""",image-keyboard-response,156,679241,0.0-156.0,"""",jspsych/scrambledNeutralFaces/scrambledBF06NES.JPG,"""",256,forwardMask,Test,null,250,"""",n,"""","""","""","""","""","""",1,4/21/2021 4:08,76.255.155.139,Mozilla/5.0 (Windows NT 10.0; Win64; x64; rv:87.0) Gecko/20100101 Firefox/87.0,,Firefox,87,Windows,10
79,1,null,"""",image-keyboard-response,157,679273,0.0-157.0,"""",jspsych/neutralFaces/BF06NES.JPG,"""",256,Cue,Test,null,16,"""","""","""","""","""","""","""","""",1,4/21/2021 4:08,76.255.155.139,Mozilla/5.0 (Windows NT 10.0; Win64; x64; rv:87.0) Gecko/20100101 Firefox/87.0,,Firefox,87,Windows,10
79,1,null,"""",image-keyboard-response,158,679386,0.0-158.0,"""",jspsych/neutralFaces/BF04NES.JPG,"""",256,backwardMask,Test,null,100,"""","""","""","""","""","""","""","""",1,4/21/2021 4:08,76.255.155.139,Mozilla/5.0 (Windows NT 10.0; Win64; x64; rv:87.0) Gecko/20100101 Firefox/87.0,,Firefox,87,Windows,10
79,1,null,"""",html-keyboard-response,159,680393,0.0-159.0,"""","<div style=""font-size:60px;"">+</div>","""",256,fixationBtwnNeutralMaskAndPrompt,Test,null,1000,"""","""","""","""","""","""","""","""",1,4/21/2021 4:08,76.255.155.139,Mozilla/5.0 (Windows NT 10.0; Win64; x64; rv:87.0) Gecko/20100101 Firefox/87.0,,Firefox,87,Windows,10
79,1,4184,"""",html-button-response,160,684580,0.0-160.0,"""","<img src='jspsych/CFDfaces/CFD-BF-221-223-N.jpg' height=""250px"">,</br><b>Christina</b>",0,256,IntactOrRearranged,Test,"""","""","""","""",CFD-WM-019-003-N.jpg,Jesse,1,"""","""",0,1,4/21/2021 4:08,76.255.155.139,Mozilla/5.0 (Windows NT 10.0; Win64; x64; rv:87.0) Gecko/20100101 Firefox/87.0,,Firefox,87,Windows,10
79,1,2888,"""",html-slider-response,161,687484,0.0-161.0,"""","<img src='jspsych/CFDfaces/CFD-BF-221-223-N.jpg' height=""250px"">,</br><b>Christina</b>","""",256,ConfidenceQuery,Test,"""","""","""","""",CFD-WM-019-003-N.jpg,Jesse,1,0,30,"""",1,4/21/2021 4:08,76.255.155.139,Mozilla/5.0 (Windows NT 10.0; Win64; x64; rv:87.0) Gecko/20100101 Firefox/87.0,,Firefox,87,Windows,10
79,1,null,"""",html-keyboard-response,162,688498,0.0-162.0,"""","<div style=""font-size:60px;"">+</div>","""",256,ITI,Test,null,1000,"""","""","""","""","""","""","""","""",1,4/21/2021 4:08,76.255.155.139,Mozilla/5.0 (Windows NT 10.0; Win64; x64; rv:87.0) Gecko/20100101 Firefox/87.0,,Firefox,87,Windows,10
79,1,null,"""",image-keyboard-response,163,688767,0.0-163.0,"""",jspsych/scrambledNeutralFaces/scrambledAM08NES.JPG,"""",256,forwardMask,Test,null,250,"""",n,"""","""","""","""","""","""",1,4/21/2021 4:08,76.255.155.139,Mozilla/5.0 (Windows NT 10.0; Win64; x64; rv:87.0) Gecko/20100101 Firefox/87.0,,Firefox,87,Windows,10
79,1,null,"""",image-keyboard-response,164,688797,0.0-164.0,"""",jspsych/neutralFaces/AM08NES.JPG,"""",256,Cue,Test,null,16,"""","""","""","""","""","""","""","""",1,4/21/2021 4:08,76.255.155.139,Mozilla/5.0 (Windows NT 10.0; Win64; x64; rv:87.0) Gecko/20100101 Firefox/87.0,,Firefox,87,Windows,10
79,1,null,"""",image-keyboard-response,165,688908,0.0-165.0,"""",jspsych/neutralFaces/BM11NES.JPG,"""",256,backwardMask,Test,null,100,"""","""","""","""","""","""","""","""",1,4/21/2021 4:08,76.255.155.139,Mozilla/5.0 (Windows NT 10.0; Win64; x64; rv:87.0) Gecko/20100101 Firefox/87.0,,Firefox,87,Windows,10
79,1,null,"""",html-keyboard-response,166,689917,0.0-166.0,"""","<div style=""font-size:60px;"">+</div>","""",256,fixationBtwnNeutralMaskAndPrompt,Test,null,1000,"""","""","""","""","""","""","""","""",1,4/21/2021 4:08,76.255.155.139,Mozilla/5.0 (Windows NT 10.0; Win64; x64; rv:87.0) Gecko/20100101 Firefox/87.0,,Firefox,87,Windows,10
79,1,3669,"""",html-button-response,167,693588,0.0-167.0,"""","<img src='jspsych/CFDfaces/CFD-LM-221-216-N.jpg' height=""250px"">,</br><b>James</b>",1,256,IntactOrRearranged,Test,"""","""","""","""",CFD-WM-020-001-N.jpg,Jeremy,1,"""","""",1,1,4/21/2021 4:08,76.255.155.139,Mozilla/5.0 (Windows NT 10.0; Win64; x64; rv:87.0) Gecko/20100101 Firefox/87.0,,Firefox,87,Windows,10
79,1,null,"""",html-slider-response,168,698616,0.0-168.0,"""","<img src='jspsych/CFDfaces/CFD-LM-221-216-N.jpg' height=""250px"">,</br><b>James</b>","""",256,ConfidenceQuery,Test,"""","""","""","""",CFD-WM-020-001-N.jpg,Jeremy,1,0,null,"""",1,4/21/2021 4:08,76.255.155.139,Mozilla/5.0 (Windows NT 10.0; Win64; x64; rv:87.0) Gecko/20100101 Firefox/87.0,,Firefox,87,Windows,10
79,1,null,"""",html-keyboard-response,169,699628,0.0-169.0,"""","<div style=""font-size:60px;"">+</div>","""",256,ITI,Test,null,1000,"""","""","""","""","""","""","""","""",1,4/21/2021 4:08,76.255.155.139,Mozilla/5.0 (Windows NT 10.0; Win64; x64; rv:87.0) Gecko/20100101 Firefox/87.0,,Firefox,87,Windows,10
79,1,null,"""",image-keyboard-response,170,699895,0.0-170.0,"""",jspsych/scrambledNeutralFaces/scrambledAM08NES.JPG,"""",256,forwardMask,Test,null,250,"""",n,"""","""","""","""","""","""",1,4/21/2021 4:08,76.255.155.139,Mozilla/5.0 (Windows NT 10.0; Win64; x64; rv:87.0) Gecko/20100101 Firefox/87.0,,Firefox,87,Windows,10
79,1,null,"""",image-keyboard-response,171,699922,0.0-171.0,"""",jspsych/neutralFaces/AM08NES.JPG,"""",256,Cue,Test,null,16,"""","""","""","""","""","""","""","""",1,4/21/2021 4:08,76.255.155.139,Mozilla/5.0 (Windows NT 10.0; Win64; x64; rv:87.0) Gecko/20100101 Firefox/87.0,,Firefox,87,Windows,10
79,1,null,"""",image-keyboard-response,172,700039,0.0-172.0,"""",jspsych/neutralFaces/AM06NES.JPG,"""",256,backwardMask,Test,null,100,"""","""","""","""","""","""","""","""",1,4/21/2021 4:08,76.255.155.139,Mozilla/5.0 (Windows NT 10.0; Win64; x64; rv:87.0) Gecko/20100101 Firefox/87.0,,Firefox,87,Windows,10
79,1,null,"""",html-keyboard-response,173,701046,0.0-173.0,"""","<div style=""font-size:60px;"">+</div>","""",256,fixationBtwnNeutralMaskAndPrompt,Test,null,1000,"""","""","""","""","""","""","""","""",1,4/21/2021 4:08,76.255.155.139,Mozilla/5.0 (Windows NT 10.0; Win64; x64; rv:87.0) Gecko/20100101 Firefox/87.0,,Firefox,87,Windows,10
79,1,3436,"""",html-button-response,174,704484,0.0-174.0,"""","<img src='jspsych/CFDfaces/CFD-BF-025-002-N.jpg' height=""250px"">,</br><b>Kayla</b>",0,256,IntactOrRearranged,Test,"""","""","""","""",CFD-LM-246-087-N.jpg,Steven,0,"""","""",0,1,4/21/2021 4:08,76.255.155.139,Mozilla/5.0 (Windows NT 10.0; Win64; x64; rv:87.0) Gecko/20100101 Firefox/87.0,,Firefox,87,Windows,10
79,1,3922,"""",html-slider-response,175,708412,0.0-175.0,"""","<img src='jspsych/CFDfaces/CFD-BF-025-002-N.jpg' height=""250px"">,</br><b>Kayla</b>","""",256,ConfidenceQuery,Test,"""","""","""","""",CFD-LM-246-087-N.jpg,Steven,0,0,70,"""",1,4/21/2021 4:08,76.255.155.139,Mozilla/5.0 (Windows NT 10.0; Win64; x64; rv:87.0) Gecko/20100101 Firefox/87.0,,Firefox,87,Windows,10
79,1,null,"""",html-keyboard-response,176,709427,0.0-176.0,"""","<div style=""font-size:60px;"">+</div>","""",256,ITI,Test,null,1000,"""","""","""","""","""","""","""","""",1,4/21/2021 4:08,76.255.155.139,Mozilla/5.0 (Windows NT 10.0; Win64; x64; rv:87.0) Gecko/20100101 Firefox/87.0,,Firefox,87,Windows,10
79,1,null,"""",image-keyboard-response,177,709697,0.0-177.0,"""",jspsych/scrambledNeutralFaces/scrambledBF24NES.JPG,"""",256,forwardMask,Test,null,250,"""",n,"""","""","""","""","""","""",1,4/21/2021 4:08,76.255.155.139,Mozilla/5.0 (Windows NT 10.0; Win64; x64; rv:87.0) Gecko/20100101 Firefox/87.0,,Firefox,87,Windows,10
79,1,null,"""",image-keyboard-response,178,709729,0.0-178.0,"""",jspsych/neutralFaces/BF24NES.JPG,"""",256,Cue,Test,null,16,"""","""","""","""","""","""","""","""",1,4/21/2021 4:08,76.255.155.139,Mozilla/5.0 (Windows NT 10.0; Win64; x64; rv:87.0) Gecko/20100101 Firefox/87.0,,Firefox,87,Windows,10
79,1,null,"""",image-keyboard-response,179,709840,0.0-179.0,"""",jspsych/neutralFaces/AF13NES.JPG,"""",256,backwardMask,Test,null,100,"""","""","""","""","""","""","""","""",1,4/21/2021 4:08,76.255.155.139,Mozilla/5.0 (Windows NT 10.0; Win64; x64; rv:87.0) Gecko/20100101 Firefox/87.0,,Firefox,87,Windows,10
79,1,null,"""",html-keyboard-response,180,710850,0.0-180.0,"""","<div style=""font-size:60px;"">+</div>","""",256,fixationBtwnNeutralMaskAndPrompt,Test,null,1000,"""","""","""","""","""","""","""","""",1,4/21/2021 4:08,76.255.155.139,Mozilla/5.0 (Windows NT 10.0; Win64; x64; rv:87.0) Gecko/20100101 Firefox/87.0,,Firefox,87,Windows,10
79,1,2359,"""",html-button-response,181,713211,0.0-181.0,"""","<img src='jspsych/CFDfaces/CFD-WM-022-001-N.jpg' height=""250px"">,</br><b>Jeffrey</b>",1,256,IntactOrRearranged,Test,"""","""","""","""",CFD-WF-018-017-N.jpg,Jordan,1,"""","""",1,1,4/21/2021 4:08,76.255.155.139,Mozilla/5.0 (Windows NT 10.0; Win64; x64; rv:87.0) Gecko/20100101 Firefox/87.0,,Firefox,87,Windows,10
79,1,2941,"""",html-slider-response,182,716155,0.0-182.0,"""","<img src='jspsych/CFDfaces/CFD-WM-022-001-N.jpg' height=""250px"">,</br><b>Jeffrey</b>","""",256,ConfidenceQuery,Test,"""","""","""","""",CFD-WF-018-017-N.jpg,Jordan,1,0,100,"""",1,4/21/2021 4:08,76.255.155.139,Mozilla/5.0 (Windows NT 10.0; Win64; x64; rv:87.0) Gecko/20100101 Firefox/87.0,,Firefox,87,Windows,10
79,1,null,"""",html-keyboard-response,183,717167,0.0-183.0,"""","<div style=""font-size:60px;"">+</div>","""",256,ITI,Test,null,1000,"""","""","""","""","""","""","""","""",1,4/21/2021 4:08,76.255.155.139,Mozilla/5.0 (Windows NT 10.0; Win64; x64; rv:87.0) Gecko/20100101 Firefox/87.0,,Firefox,87,Windows,10
79,1,null,"""",image-keyboard-response,184,717431,0.0-184.0,"""",jspsych/scrambledDisgustFaces/scrambledAM03DIS.JPG,"""",256,forwardMask,Test,null,250,"""",d,"""","""","""","""","""","""",1,4/21/2021 4:08,76.255.155.139,Mozilla/5.0 (Windows NT 10.0; Win64; x64; rv:87.0) Gecko/20100101 Firefox/87.0,,Firefox,87,Windows,10
79,1,null,"""",image-keyboard-response,185,717463,0.0-185.0,"""",jspsych/disgustFaces/AM03DIS.JPG,"""",256,Cue,Test,null,16,"""","""","""","""","""","""","""","""",1,4/21/2021 4:08,76.255.155.139,Mozilla/5.0 (Windows NT 10.0; Win64; x64; rv:87.0) Gecko/20100101 Firefox/87.0,,Firefox,87,Windows,10
79,1,null,"""",image-keyboard-response,186,717572,0.0-186.0,"""",jspsych/neutralFaces/AM08NES.JPG,"""",256,backwardMask,Test,null,100,"""","""","""","""","""","""","""","""",1,4/21/2021 4:08,76.255.155.139,Mozilla/5.0 (Windows NT 10.0; Win64; x64; rv:87.0) Gecko/20100101 Firefox/87.0,,Firefox,87,Windows,10
79,1,null,"""",html-keyboard-response,187,718581,0.0-187.0,"""","<div style=""font-size:60px;"">+</div>","""",256,fixationBtwnNeutralMaskAndPrompt,Test,null,1000,"""","""","""","""","""","""","""","""",1,4/21/2021 4:08,76.255.155.139,Mozilla/5.0 (Windows NT 10.0; Win64; x64; rv:87.0) Gecko/20100101 Firefox/87.0,,Firefox,87,Windows,10
79,1,3421,"""",html-button-response,188,722004,0.0-188.0,"""","<img src='jspsych/CFDfaces/CFD-WF-038-021-N.jpg' height=""250px"">,</br><b>Stephanie</b>",0,256,IntactOrRearranged,Test,"""","""","""","""",CFD-WM-212-097-N.jpg,Mark,0,"""","""",0,1,4/21/2021 4:08,76.255.155.139,Mozilla/5.0 (Windows NT 10.0; Win64; x64; rv:87.0) Gecko/20100101 Firefox/87.0,,Firefox,87,Windows,10
79,1,3239,"""",html-slider-response,189,725260,0.0-189.0,"""","<img src='jspsych/CFDfaces/CFD-WF-038-021-N.jpg' height=""250px"">,</br><b>Stephanie</b>","""",256,ConfidenceQuery,Test,"""","""","""","""",CFD-WM-212-097-N.jpg,Mark,0,0,81,"""",1,4/21/2021 4:08,76.255.155.139,Mozilla/5.0 (Windows NT 10.0; Win64; x64; rv:87.0) Gecko/20100101 Firefox/87.0,,Firefox,87,Windows,10
79,1,null,"""",html-keyboard-response,190,726264,0.0-190.0,"""","<div style=""font-size:60px;"">+</div>","""",256,ITI,Test,null,1000,"""","""","""","""","""","""","""","""",1,4/21/2021 4:08,76.255.155.139,Mozilla/5.0 (Windows NT 10.0; Win64; x64; rv:87.0) Gecko/20100101 Firefox/87.0,,Firefox,87,Windows,10
79,1,null,"""",image-keyboard-response,191,726533,0.0-191.0,"""",jspsych/scrambledNeutralFaces/scrambledAF17NES.JPG,"""",256,forwardMask,Test,null,250,"""",n,"""","""","""","""","""","""",1,4/21/2021 4:08,76.255.155.139,Mozilla/5.0 (Windows NT 10.0; Win64; x64; rv:87.0) Gecko/20100101 Firefox/87.0,,Firefox,87,Windows,10
79,1,null,"""",image-keyboard-response,192,726564,0.0-192.0,"""",jspsych/neutralFaces/AF17NES.JPG,"""",256,Cue,Test,null,16,"""","""","""","""","""","""","""","""",1,4/21/2021 4:08,76.255.155.139,Mozilla/5.0 (Windows NT 10.0; Win64; x64; rv:87.0) Gecko/20100101 Firefox/87.0,,Firefox,87,Windows,10
79,1,null,"""",image-keyboard-response,193,726675,0.0-193.0,"""",jspsych/neutralFaces/BF22NES.JPG,"""",256,backwardMask,Test,null,100,"""","""","""","""","""","""","""","""",1,4/21/2021 4:08,76.255.155.139,Mozilla/5.0 (Windows NT 10.0; Win64; x64; rv:87.0) Gecko/20100101 Firefox/87.0,,Firefox,87,Windows,10
79,1,null,"""",html-keyboard-response,194,727685,0.0-194.0,"""","<div style=""font-size:60px;"">+</div>","""",256,fixationBtwnNeutralMaskAndPrompt,Test,null,1000,"""","""","""","""","""","""","""","""",1,4/21/2021 4:08,76.255.155.139,Mozilla/5.0 (Windows NT 10.0; Win64; x64; rv:87.0) Gecko/20100101 Firefox/87.0,,Firefox,87,Windows,10
79,1,1732,"""",html-button-response,195,729420,0.0-195.0,"""","<img src='jspsych/CFDfaces/CFD-AF-208-003-N.jpg' height=""250px"">,</br><b>Elizabeth</b>",1,256,IntactOrRearranged,Test,"""","""","""","""",CFD-LF-202-065-N.jpg,Jenna,1,"""","""",1,1,4/21/2021 4:08,76.255.155.139,Mozilla/5.0 (Windows NT 10.0; Win64; x64; rv:87.0) Gecko/20100101 Firefox/87.0,,Firefox,87,Windows,10
79,1,4744,"""",html-slider-response,196,734180,0.0-196.0,"""","<img src='jspsych/CFDfaces/CFD-AF-208-003-N.jpg' height=""250px"">,</br><b>Elizabeth</b>","""",256,ConfidenceQuery,Test,"""","""","""","""",CFD-LF-202-065-N.jpg,Jenna,1,0,93,"""",1,4/21/2021 4:08,76.255.155.139,Mozilla/5.0 (Windows NT 10.0; Win64; x64; rv:87.0) Gecko/20100101 Firefox/87.0,,Firefox,87,Windows,10
79,1,null,"""",html-keyboard-response,197,735188,0.0-197.0,"""","<div style=""font-size:60px;"">+</div>","""",256,ITI,Test,null,1000,"""","""","""","""","""","""","""","""",1,4/21/2021 4:08,76.255.155.139,Mozilla/5.0 (Windows NT 10.0; Win64; x64; rv:87.0) Gecko/20100101 Firefox/87.0,,Firefox,87,Windows,10
79,1,null,"""",image-keyboard-response,198,735450,0.0-198.0,"""",jspsych/scrambledNeutralFaces/scrambledAM04NES.JPG,"""",256,forwardMask,Test,null,250,"""",n,"""","""","""","""","""","""",1,4/21/2021 4:08,76.255.155.139,Mozilla/5.0 (Windows NT 10.0; Win64; x64; rv:87.0) Gecko/20100101 Firefox/87.0,,Firefox,87,Windows,10
79,1,null,"""",image-keyboard-response,199,735486,0.0-199.0,"""",jspsych/neutralFaces/AM04NES.JPG,"""",256,Cue,Test,null,16,"""","""","""","""","""","""","""","""",1,4/21/2021 4:08,76.255.155.139,Mozilla/5.0 (Windows NT 10.0; Win64; x64; rv:87.0) Gecko/20100101 Firefox/87.0,,Firefox,87,Windows,10
79,1,null,"""",image-keyboard-response,200,735592,0.0-200.0,"""",jspsych/neutralFaces/AM06NES.JPG,"""",256,backwardMask,Test,null,100,"""","""","""","""","""","""","""","""",1,4/21/2021 4:08,76.255.155.139,Mozilla/5.0 (Windows NT 10.0; Win64; x64; rv:87.0) Gecko/20100101 Firefox/87.0,,Firefox,87,Windows,10
79,1,null,"""",html-keyboard-response,201,736604,0.0-201.0,"""","<div style=""font-size:60px;"">+</div>","""",256,fixationBtwnNeutralMaskAndPrompt,Test,null,1000,"""","""","""","""","""","""","""","""",1,4/21/2021 4:08,76.255.155.139,Mozilla/5.0 (Windows NT 10.0; Win64; x64; rv:87.0) Gecko/20100101 Firefox/87.0,,Firefox,87,Windows,10
79,1,2087,"""",html-button-response,202,738692,0.0-202.0,"""","<img src='jspsych/CFDfaces/CFD-LM-239-075-N.jpg' height=""250px"">,</br><b>Robert</b>",0,256,IntactOrRearranged,Test,"""","""","""","""",CFD-AF-214-139-N.jpg,Laura,0,"""","""",0,1,4/21/2021 4:08,76.255.155.139,Mozilla/5.0 (Windows NT 10.0; Win64; x64; rv:87.0) Gecko/20100101 Firefox/87.0,,Firefox,87,Windows,10
79,1,2246,"""",html-slider-response,203,740940,0.0-203.0,"""","<img src='jspsych/CFDfaces/CFD-LM-239-075-N.jpg' height=""250px"">,</br><b>Robert</b>","""",256,ConfidenceQuery,Test,"""","""","""","""",CFD-AF-214-139-N.jpg,Laura,0,0,100,"""",1,4/21/2021 4:08,76.255.155.139,Mozilla/5.0 (Windows NT 10.0; Win64; x64; rv:87.0) Gecko/20100101 Firefox/87.0,,Firefox,87,Windows,10
79,1,null,"""",html-keyboard-response,204,741945,0.0-204.0,"""","<div style=""font-size:60px;"">+</div>","""",256,ITI,Test,null,1000,"""","""","""","""","""","""","""","""",1,4/21/2021 4:08,76.255.155.139,Mozilla/5.0 (Windows NT 10.0; Win64; x64; rv:87.0) Gecko/20100101 Firefox/87.0,,Firefox,87,Windows,10
79,1,null,"""",image-keyboard-response,205,742214,0.0-205.0,"""",jspsych/scrambledDisgustFaces/scrambledBM29DIS.JPG,"""",256,forwardMask,Test,null,250,"""",d,"""","""","""","""","""","""",1,4/21/2021 4:08,76.255.155.139,Mozilla/5.0 (Windows NT 10.0; Win64; x64; rv:87.0) Gecko/20100101 Firefox/87.0,,Firefox,87,Windows,10
79,1,null,"""",image-keyboard-response,206,742245,0.0-206.0,"""",jspsych/disgustFaces/BM30DIS.JPG,"""",256,Cue,Test,null,16,"""","""","""","""","""","""","""","""",1,4/21/2021 4:08,76.255.155.139,Mozilla/5.0 (Windows NT 10.0; Win64; x64; rv:87.0) Gecko/20100101 Firefox/87.0,,Firefox,87,Windows,10
79,1,null,"""",image-keyboard-response,207,742358,0.0-207.0,"""",jspsych/neutralFaces/AM07NES.JPG,"""",256,backwardMask,Test,null,100,"""","""","""","""","""","""","""","""",1,4/21/2021 4:08,76.255.155.139,Mozilla/5.0 (Windows NT 10.0; Win64; x64; rv:87.0) Gecko/20100101 Firefox/87.0,,Firefox,87,Windows,10
79,1,null,"""",html-keyboard-response,208,743367,0.0-208.0,"""","<div style=""font-size:60px;"">+</div>","""",256,fixationBtwnNeutralMaskAndPrompt,Test,null,1000,"""","""","""","""","""","""","""","""",1,4/21/2021 4:08,76.255.155.139,Mozilla/5.0 (Windows NT 10.0; Win64; x64; rv:87.0) Gecko/20100101 Firefox/87.0,,Firefox,87,Windows,10
79,1,1963,"""",html-button-response,209,745332,0.0-209.0,"""","<img src='jspsych/CFDfaces/CFD-BM-041-035-N.jpg' height=""250px"">,</br><b>Brian</b>",0,256,IntactOrRearranged,Test,"""","""","""","""",CFD-BF-218-207-N.jpg,Lauren,0,"""","""",0,1,4/21/2021 4:08,76.255.155.139,Mozilla/5.0 (Windows NT 10.0; Win64; x64; rv:87.0) Gecko/20100101 Firefox/87.0,,Firefox,87,Windows,10
79,1,2876,"""",html-slider-response,210,748211,0.0-210.0,"""","<img src='jspsych/CFDfaces/CFD-BM-041-035-N.jpg' height=""250px"">,</br><b>Brian</b>","""",256,ConfidenceQuery,Test,"""","""","""","""",CFD-BF-218-207-N.jpg,Lauren,0,0,70,"""",1,4/21/2021 4:08,76.255.155.139,Mozilla/5.0 (Windows NT 10.0; Win64; x64; rv:87.0) Gecko/20100101 Firefox/87.0,,Firefox,87,Windows,10
79,1,null,"""",html-keyboard-response,211,749232,0.0-211.0,"""","<div style=""font-size:60px;"">+</div>","""",256,ITI,Test,null,1000,"""","""","""","""","""","""","""","""",1,4/21/2021 4:08,76.255.155.139,Mozilla/5.0 (Windows NT 10.0; Win64; x64; rv:87.0) Gecko/20100101 Firefox/87.0,,Firefox,87,Windows,10
79,1,null,"""",image-keyboard-response,212,749498,0.0-212.0,"""",jspsych/scrambledNeutralFaces/scrambledBM35NES.JPG,"""",256,forwardMask,Test,null,250,"""",n,"""","""","""","""","""","""",1,4/21/2021 4:08,76.255.155.139,Mozilla/5.0 (Windows NT 10.0; Win64; x64; rv:87.0) Gecko/20100101 Firefox/87.0,,Firefox,87,Windows,10
79,1,null,"""",image-keyboard-response,213,749531,0.0-213.0,"""",jspsych/neutralFaces/BM35NES.JPG,"""",256,Cue,Test,null,16,"""","""","""","""","""","""","""","""",1,4/21/2021 4:08,76.255.155.139,Mozilla/5.0 (Windows NT 10.0; Win64; x64; rv:87.0) Gecko/20100101 Firefox/87.0,,Firefox,87,Windows,10
79,1,null,"""",image-keyboard-response,214,749639,0.0-214.0,"""",jspsych/neutralFaces/AM03NES.JPG,"""",256,backwardMask,Test,null,100,"""","""","""","""","""","""","""","""",1,4/21/2021 4:08,76.255.155.139,Mozilla/5.0 (Windows NT 10.0; Win64; x64; rv:87.0) Gecko/20100101 Firefox/87.0,,Firefox,87,Windows,10
79,1,null,"""",html-keyboard-response,215,750650,0.0-215.0,"""","<div style=""font-size:60px;"">+</div>","""",256,fixationBtwnNeutralMaskAndPrompt,Test,null,1000,"""","""","""","""","""","""","""","""",1,4/21/2021 4:08,76.255.155.139,Mozilla/5.0 (Windows NT 10.0; Win64; x64; rv:87.0) Gecko/20100101 Firefox/87.0,,Firefox,87,Windows,10
79,1,4337,"""",html-button-response,216,754989,0.0-216.0,"""","<img src='jspsych/CFDfaces/CFD-LF-239-148-N.jpg' height=""250px"">,</br><b>Amanda</b>",1,256,IntactOrRearranged,Test,"""","""","""","""",CFD-LF-201-035-N.jpg,Rebecca,1,"""","""",1,1,4/21/2021 4:08,76.255.155.139,Mozilla/5.0 (Windows NT 10.0; Win64; x64; rv:87.0) Gecko/20100101 Firefox/87.0,,Firefox,87,Windows,10
79,1,2868,"""",html-slider-response,217,757876,0.0-217.0,"""","<img src='jspsych/CFDfaces/CFD-LF-239-148-N.jpg' height=""250px"">,</br><b>Amanda</b>","""",256,ConfidenceQuery,Test,"""","""","""","""",CFD-LF-201-035-N.jpg,Rebecca,1,0,59,"""",1,4/21/2021 4:08,76.255.155.139,Mozilla/5.0 (Windows NT 10.0; Win64; x64; rv:87.0) Gecko/20100101 Firefox/87.0,,Firefox,87,Windows,10
79,1,null,"""",html-keyboard-response,218,758886,0.0-218.0,"""","<div style=""font-size:60px;"">+</div>","""",256,ITI,Test,null,1000,"""","""","""","""","""","""","""","""",1,4/21/2021 4:08,76.255.155.139,Mozilla/5.0 (Windows NT 10.0; Win64; x64; rv:87.0) Gecko/20100101 Firefox/87.0,,Firefox,87,Windows,10
79,1,null,"""",image-keyboard-response,219,759152,0.0-219.0,"""",jspsych/scrambledDisgustFaces/scrambledAM28DIS.JPG,"""",256,forwardMask,Test,null,250,"""",d,"""","""","""","""","""","""",1,4/21/2021 4:08,76.255.155.139,Mozilla/5.0 (Windows NT 10.0; Win64; x64; rv:87.0) Gecko/20100101 Firefox/87.0,,Firefox,87,Windows,10
79,1,null,"""",image-keyboard-response,220,759183,0.0-220.0,"""",jspsych/disgustFaces/AM28DIS.JPG,"""",256,Cue,Test,null,16,"""","""","""","""","""","""","""","""",1,4/21/2021 4:08,76.255.155.139,Mozilla/5.0 (Windows NT 10.0; Win64; x64; rv:87.0) Gecko/20100101 Firefox/87.0,,Firefox,87,Windows,10
79,1,null,"""",image-keyboard-response,221,759293,0.0-221.0,"""",jspsych/neutralFaces/AM34NES.JPG,"""",256,backwardMask,Test,null,100,"""","""","""","""","""","""","""","""",1,4/21/2021 4:08,76.255.155.139,Mozilla/5.0 (Windows NT 10.0; Win64; x64; rv:87.0) Gecko/20100101 Firefox/87.0,,Firefox,87,Windows,10
79,1,null,"""",html-keyboard-response,222,760306,0.0-222.0,"""","<div style=""font-size:60px;"">+</div>","""",256,fixationBtwnNeutralMaskAndPrompt,Test,null,1000,"""","""","""","""","""","""","""","""",1,4/21/2021 4:08,76.255.155.139,Mozilla/5.0 (Windows NT 10.0; Win64; x64; rv:87.0) Gecko/20100101 Firefox/87.0,,Firefox,87,Windows,10
79,1,2296,"""",html-button-response,223,762604,0.0-223.0,"""","<img src='jspsych/CFDfaces/CFD-WM-032-001-N.jpg' height=""250px"">,</br><b>Daniel</b>",1,256,IntactOrRearranged,Test,"""","""","""","""",CFD-LF-200-058-N.jpg,Heather,1,"""","""",1,1,4/21/2021 4:08,76.255.155.139,Mozilla/5.0 (Windows NT 10.0; Win64; x64; rv:87.0) Gecko/20100101 Firefox/87.0,,Firefox,87,Windows,10
79,1,3779,"""",html-slider-response,224,766396,0.0-224.0,"""","<img src='jspsych/CFDfaces/CFD-WM-032-001-N.jpg' height=""250px"">,</br><b>Daniel</b>","""",256,ConfidenceQuery,Test,"""","""","""","""",CFD-LF-200-058-N.jpg,Heather,1,0,96,"""",1,4/21/2021 4:08,76.255.155.139,Mozilla/5.0 (Windows NT 10.0; Win64; x64; rv:87.0) Gecko/20100101 Firefox/87.0,,Firefox,87,Windows,10
79,1,null,"""",html-keyboard-response,225,767402,0.0-225.0,"""","<div style=""font-size:60px;"">+</div>","""",256,ITI,Test,null,1000,"""","""","""","""","""","""","""","""",1,4/21/2021 4:08,76.255.155.139,Mozilla/5.0 (Windows NT 10.0; Win64; x64; rv:87.0) Gecko/20100101 Firefox/87.0,,Firefox,87,Windows,10
79,1,null,"""",image-keyboard-response,226,767669,0.0-226.0,"""",jspsych/scrambledNeutralFaces/scrambledAF10NES.JPG,"""",256,forwardMask,Test,null,250,"""",n,"""","""","""","""","""","""",1,4/21/2021 4:08,76.255.155.139,Mozilla/5.0 (Windows NT 10.0; Win64; x64; rv:87.0) Gecko/20100101 Firefox/87.0,,Firefox,87,Windows,10
79,1,null,"""",image-keyboard-response,227,767701,0.0-227.0,"""",jspsych/neutralFaces/AF10NES.JPG,"""",256,Cue,Test,null,16,"""","""","""","""","""","""","""","""",1,4/21/2021 4:08,76.255.155.139,Mozilla/5.0 (Windows NT 10.0; Win64; x64; rv:87.0) Gecko/20100101 Firefox/87.0,,Firefox,87,Windows,10
79,1,null,"""",image-keyboard-response,228,767813,0.0-228.0,"""",jspsych/neutralFaces/AF13NES.JPG,"""",256,backwardMask,Test,null,100,"""","""","""","""","""","""","""","""",1,4/21/2021 4:08,76.255.155.139,Mozilla/5.0 (Windows NT 10.0; Win64; x64; rv:87.0) Gecko/20100101 Firefox/87.0,,Firefox,87,Windows,10
79,1,null,"""",html-keyboard-response,229,768825,0.0-229.0,"""","<div style=""font-size:60px;"">+</div>","""",256,fixationBtwnNeutralMaskAndPrompt,Test,null,1000,"""","""","""","""","""","""","""","""",1,4/21/2021 4:08,76.255.155.139,Mozilla/5.0 (Windows NT 10.0; Win64; x64; rv:87.0) Gecko/20100101 Firefox/87.0,,Firefox,87,Windows,10
79,1,null,"""",html-button-response,230,773842,0.0-230.0,"""","<img src='jspsych/CFDfaces/CFD-AM-248-104-N.jpg' height=""250px"">,</br><b>Peter</b>",null,256,IntactOrRearranged,Test,"""","""","""","""",CFD-AM-230-150-N.jpg,Austin,0,"""","""","""",1,4/21/2021 4:08,76.255.155.139,Mozilla/5.0 (Windows NT 10.0; Win64; x64; rv:87.0) Gecko/20100101 Firefox/87.0,,Firefox,87,Windows,10
79,1,4845,"""",html-slider-response,231,778691,0.0-231.0,"""","<img src='jspsych/CFDfaces/CFD-AM-248-104-N.jpg' height=""250px"">,</br><b>Peter</b>","""",256,ConfidenceQuery,Test,"""","""","""","""",CFD-AM-230-150-N.jpg,Austin,0,0,48,"""",1,4/21/2021 4:08,76.255.155.139,Mozilla/5.0 (Windows NT 10.0; Win64; x64; rv:87.0) Gecko/20100101 Firefox/87.0,,Firefox,87,Windows,10
79,1,null,"""",html-keyboard-response,232,779707,0.0-232.0,"""","<div style=""font-size:60px;"">+</div>","""",256,ITI,Test,null,1000,"""","""","""","""","""","""","""","""",1,4/21/2021 4:08,76.255.155.139,Mozilla/5.0 (Windows NT 10.0; Win64; x64; rv:87.0) Gecko/20100101 Firefox/87.0,,Firefox,87,Windows,10
79,1,null,"""",image-keyboard-response,233,779973,0.0-233.0,"""",jspsych/scrambledDisgustFaces/scrambledAF09DIS.JPG,"""",256,forwardMask,Test,null,250,"""",d,"""","""","""","""","""","""",1,4/21/2021 4:08,76.255.155.139,Mozilla/5.0 (Windows NT 10.0; Win64; x64; rv:87.0) Gecko/20100101 Firefox/87.0,,Firefox,87,Windows,10
79,1,null,"""",image-keyboard-response,234,780007,0.0-234.0,"""",jspsych/disgustFaces/AF09DIS.JPG,"""",256,Cue,Test,null,16,"""","""","""","""","""","""","""","""",1,4/21/2021 4:08,76.255.155.139,Mozilla/5.0 (Windows NT 10.0; Win64; x64; rv:87.0) Gecko/20100101 Firefox/87.0,,Firefox,87,Windows,10
79,1,null,"""",image-keyboard-response,235,780117,0.0-235.0,"""",jspsych/neutralFaces/AF22NES.JPG,"""",256,backwardMask,Test,null,100,"""","""","""","""","""","""","""","""",1,4/21/2021 4:08,76.255.155.139,Mozilla/5.0 (Windows NT 10.0; Win64; x64; rv:87.0) Gecko/20100101 Firefox/87.0,,Firefox,87,Windows,10
79,1,null,"""",html-keyboard-response,236,781127,0.0-236.0,"""","<div style=""font-size:60px;"">+</div>","""",256,fixationBtwnNeutralMaskAndPrompt,Test,null,1000,"""","""","""","""","""","""","""","""",1,4/21/2021 4:08,76.255.155.139,Mozilla/5.0 (Windows NT 10.0; Win64; x64; rv:87.0) Gecko/20100101 Firefox/87.0,,Firefox,87,Windows,10
79,1,4251,"""",html-button-response,237,785380,0.0-237.0,"""","<img src='jspsych/CFDfaces/CFD-BF-005-001-N.jpg' height=""250px"">,</br><b>Meghan</b>",0,256,IntactOrRearranged,Test,"""","""","""","""",CFD-AM-246-184-N.jpg,Luis,0,"""","""",0,1,4/21/2021 4:08,76.255.155.139,Mozilla/5.0 (Windows NT 10.0; Win64; x64; rv:87.0) Gecko/20100101 Firefox/87.0,,Firefox,87,Windows,10
79,1,2426,"""",html-slider-response,238,787820,0.0-238.0,"""","<img src='jspsych/CFDfaces/CFD-BF-005-001-N.jpg' height=""250px"">,</br><b>Meghan</b>","""",256,ConfidenceQuery,Test,"""","""","""","""",CFD-AM-246-184-N.jpg,Luis,0,0,29,"""",1,4/21/2021 4:08,76.255.155.139,Mozilla/5.0 (Windows NT 10.0; Win64; x64; rv:87.0) Gecko/20100101 Firefox/87.0,,Firefox,87,Windows,10
79,1,null,"""",html-keyboard-response,239,788824,0.0-239.0,"""","<div style=""font-size:60px;"">+</div>","""",256,ITI,Test,null,1000,"""","""","""","""","""","""","""","""",1,4/21/2021 4:08,76.255.155.139,Mozilla/5.0 (Windows NT 10.0; Win64; x64; rv:87.0) Gecko/20100101 Firefox/87.0,,Firefox,87,Windows,10
79,1,null,"""",image-keyboard-response,240,789093,0.0-240.0,"""",jspsych/scrambledDisgustFaces/scrambledAM14DIS.JPG,"""",256,forwardMask,Test,null,250,"""",d,"""","""","""","""","""","""",1,4/21/2021 4:08,76.255.155.139,Mozilla/5.0 (Windows NT 10.0; Win64; x64; rv:87.0) Gecko/20100101 Firefox/87.0,,Firefox,87,Windows,10
79,1,null,"""",image-keyboard-response,241,789125,0.0-241.0,"""",jspsych/disgustFaces/AM14DIS.JPG,"""",256,Cue,Test,null,16,"""","""","""","""","""","""","""","""",1,4/21/2021 4:08,76.255.155.139,Mozilla/5.0 (Windows NT 10.0; Win64; x64; rv:87.0) Gecko/20100101 Firefox/87.0,,Firefox,87,Windows,10
79,1,null,"""",image-keyboard-response,242,789232,0.0-242.0,"""",jspsych/neutralFaces/BM22NES.JPG,"""",256,backwardMask,Test,null,100,"""","""","""","""","""","""","""","""",1,4/21/2021 4:08,76.255.155.139,Mozilla/5.0 (Windows NT 10.0; Win64; x64; rv:87.0) Gecko/20100101 Firefox/87.0,,Firefox,87,Windows,10
79,1,null,"""",html-keyboard-response,243,790244,0.0-243.0,"""","<div style=""font-size:60px;"">+</div>","""",256,fixationBtwnNeutralMaskAndPrompt,Test,null,1000,"""","""","""","""","""","""","""","""",1,4/21/2021 4:08,76.255.155.139,Mozilla/5.0 (Windows NT 10.0; Win64; x64; rv:87.0) Gecko/20100101 Firefox/87.0,,Firefox,87,Windows,10
79,1,2711,"""",html-button-response,244,792956,0.0-244.0,"""","<img src='jspsych/CFDfaces/CFD-LM-223-175-N.jpg' height=""250px"">,</br><b>Brandon</b>",1,256,IntactOrRearranged,Test,"""","""","""","""",CFD-AM-214-168-N.jpg,Vincent,0,"""","""",1,1,4/21/2021 4:08,76.255.155.139,Mozilla/5.0 (Windows NT 10.0; Win64; x64; rv:87.0) Gecko/20100101 Firefox/87.0,,Firefox,87,Windows,10
79,1,2894,"""",html-slider-response,245,795868,0.0-245.0,"""","<img src='jspsych/CFDfaces/CFD-LM-223-175-N.jpg' height=""250px"">,</br><b>Brandon</b>","""",256,ConfidenceQuery,Test,"""","""","""","""",CFD-AM-214-168-N.jpg,Vincent,0,0,39,"""",1,4/21/2021 4:08,76.255.155.139,Mozilla/5.0 (Windows NT 10.0; Win64; x64; rv:87.0) Gecko/20100101 Firefox/87.0,,Firefox,87,Windows,10
79,1,null,"""",html-keyboard-response,246,796878,0.0-246.0,"""","<div style=""font-size:60px;"">+</div>","""",256,ITI,Test,null,1000,"""","""","""","""","""","""","""","""",1,4/21/2021 4:08,76.255.155.139,Mozilla/5.0 (Windows NT 10.0; Win64; x64; rv:87.0) Gecko/20100101 Firefox/87.0,,Firefox,87,Windows,10
79,1,null,"""",image-keyboard-response,247,797133,0.0-247.0,"""",jspsych/scrambledNeutralFaces/scrambledAF34NES.JPG,"""",256,forwardMask,Test,null,250,"""",n,"""","""","""","""","""","""",1,4/21/2021 4:08,76.255.155.139,Mozilla/5.0 (Windows NT 10.0; Win64; x64; rv:87.0) Gecko/20100101 Firefox/87.0,,Firefox,87,Windows,10
79,1,null,"""",image-keyboard-response,248,797160,0.0-248.0,"""",jspsych/neutralFaces/AF34NES.JPG,"""",256,Cue,Test,null,16,"""","""","""","""","""","""","""","""",1,4/21/2021 4:08,76.255.155.139,Mozilla/5.0 (Windows NT 10.0; Win64; x64; rv:87.0) Gecko/20100101 Firefox/87.0,,Firefox,87,Windows,10
79,1,null,"""",image-keyboard-response,249,797271,0.0-249.0,"""",jspsych/neutralFaces/BF12NES.JPG,"""",256,backwardMask,Test,null,100,"""","""","""","""","""","""","""","""",1,4/21/2021 4:08,76.255.155.139,Mozilla/5.0 (Windows NT 10.0; Win64; x64; rv:87.0) Gecko/20100101 Firefox/87.0,,Firefox,87,Windows,10
79,1,null,"""",html-keyboard-response,250,798279,0.0-250.0,"""","<div style=""font-size:60px;"">+</div>","""",256,fixationBtwnNeutralMaskAndPrompt,Test,null,1000,"""","""","""","""","""","""","""","""",1,4/21/2021 4:08,76.255.155.139,Mozilla/5.0 (Windows NT 10.0; Win64; x64; rv:87.0) Gecko/20100101 Firefox/87.0,,Firefox,87,Windows,10
79,1,1762,"""",html-button-response,251,800044,0.0-251.0,"""","<img src='jspsych/CFDfaces/CFD-AM-213-056-N.jpg' height=""250px"">,</br><b>Jason</b>",0,256,IntactOrRearranged,Test,"""","""","""","""",CFD-AF-228-173-N.jpg,Taylor,0,"""","""",0,1,4/21/2021 4:08,76.255.155.139,Mozilla/5.0 (Windows NT 10.0; Win64; x64; rv:87.0) Gecko/20100101 Firefox/87.0,,Firefox,87,Windows,10
79,1,4348,"""",html-slider-response,252,804403,0.0-252.0,"""","<img src='jspsych/CFDfaces/CFD-AM-213-056-N.jpg' height=""250px"">,</br><b>Jason</b>","""",256,ConfidenceQuery,Test,"""","""","""","""",CFD-AF-228-173-N.jpg,Taylor,0,0,70,"""",1,4/21/2021 4:08,76.255.155.139,Mozilla/5.0 (Windows NT 10.0; Win64; x64; rv:87.0) Gecko/20100101 Firefox/87.0,,Firefox,87,Windows,10
79,1,null,"""",html-keyboard-response,253,805407,0.0-253.0,"""","<div style=""font-size:60px;"">+</div>","""",256,ITI,Test,null,1000,"""","""","""","""","""","""","""","""",1,4/21/2021 4:08,76.255.155.139,Mozilla/5.0 (Windows NT 10.0; Win64; x64; rv:87.0) Gecko/20100101 Firefox/87.0,,Firefox,87,Windows,10
79,1,null,"""",image-keyboard-response,254,805663,0.0-254.0,"""",jspsych/scrambledDisgustFaces/scrambledBM03DIS.JPG,"""",256,forwardMask,Test,null,250,"""",d,"""","""","""","""","""","""",1,4/21/2021 4:08,76.255.155.139,Mozilla/5.0 (Windows NT 10.0; Win64; x64; rv:87.0) Gecko/20100101 Firefox/87.0,,Firefox,87,Windows,10
79,1,null,"""",image-keyboard-response,255,805690,0.0-255.0,"""",jspsych/disgustFaces/BM04DIS.JPG,"""",256,Cue,Test,null,16,"""","""","""","""","""","""","""","""",1,4/21/2021 4:08,76.255.155.139,Mozilla/5.0 (Windows NT 10.0; Win64; x64; rv:87.0) Gecko/20100101 Firefox/87.0,,Firefox,87,Windows,10
79,1,null,"""",image-keyboard-response,256,805801,0.0-256.0,"""",jspsych/neutralFaces/BM01NES.JPG,"""",256,backwardMask,Test,null,100,"""","""","""","""","""","""","""","""",1,4/21/2021 4:08,76.255.155.139,Mozilla/5.0 (Windows NT 10.0; Win64; x64; rv:87.0) Gecko/20100101 Firefox/87.0,,Firefox,87,Windows,10
79,1,null,"""",html-keyboard-response,257,806812,0.0-257.0,"""","<div style=""font-size:60px;"">+</div>","""",256,fixationBtwnNeutralMaskAndPrompt,Test,null,1000,"""","""","""","""","""","""","""","""",1,4/21/2021 4:08,76.255.155.139,Mozilla/5.0 (Windows NT 10.0; Win64; x64; rv:87.0) Gecko/20100101 Firefox/87.0,,Firefox,87,Windows,10
79,1,1909,"""",html-button-response,258,808732,0.0-258.0,"""","<img src='jspsych/CFDfaces/CFD-BF-201-080-N.jpg' height=""250px"">,</br><b>Julie</b>",0,256,IntactOrRearranged,Test,"""","""","""","""",CFD-AF-200-228-N.jpg,Erin,0,"""","""",0,1,4/21/2021 4:08,76.255.155.139,Mozilla/5.0 (Windows NT 10.0; Win64; x64; rv:87.0) Gecko/20100101 Firefox/87.0,,Firefox,87,Windows,10
79,1,4898,"""",html-slider-response,259,813636,0.0-259.0,"""","<img src='jspsych/CFDfaces/CFD-BF-201-080-N.jpg' height=""250px"">,</br><b>Julie</b>","""",256,ConfidenceQuery,Test,"""","""","""","""",CFD-AF-200-228-N.jpg,Erin,0,0,58,"""",1,4/21/2021 4:08,76.255.155.139,Mozilla/5.0 (Windows NT 10.0; Win64; x64; rv:87.0) Gecko/20100101 Firefox/87.0,,Firefox,87,Windows,10
79,1,null,"""",html-keyboard-response,260,814657,0.0-260.0,"""","<div style=""font-size:60px;"">+</div>","""",256,ITI,Test,null,1000,"""","""","""","""","""","""","""","""",1,4/21/2021 4:08,76.255.155.139,Mozilla/5.0 (Windows NT 10.0; Win64; x64; rv:87.0) Gecko/20100101 Firefox/87.0,,Firefox,87,Windows,10
79,1,null,"""",image-keyboard-response,261,814926,0.0-261.0,"""",jspsych/scrambledDisgustFaces/scrambledAM29DIS.JPG,"""",256,forwardMask,Test,null,250,"""",d,"""","""","""","""","""","""",1,4/21/2021 4:08,76.255.155.139,Mozilla/5.0 (Windows NT 10.0; Win64; x64; rv:87.0) Gecko/20100101 Firefox/87.0,,Firefox,87,Windows,10
79,1,null,"""",image-keyboard-response,262,814959,0.0-262.0,"""",jspsych/disgustFaces/AM29DIS.JPG,"""",256,Cue,Test,null,16,"""","""","""","""","""","""","""","""",1,4/21/2021 4:08,76.255.155.139,Mozilla/5.0 (Windows NT 10.0; Win64; x64; rv:87.0) Gecko/20100101 Firefox/87.0,,Firefox,87,Windows,10
79,1,null,"""",image-keyboard-response,263,815069,0.0-263.0,"""",jspsych/neutralFaces/BM09NES.JPG,"""",256,backwardMask,Test,null,100,"""","""","""","""","""","""","""","""",1,4/21/2021 4:08,76.255.155.139,Mozilla/5.0 (Windows NT 10.0; Win64; x64; rv:87.0) Gecko/20100101 Firefox/87.0,,Firefox,87,Windows,10
79,1,null,"""",html-keyboard-response,264,816081,0.0-264.0,"""","<div style=""font-size:60px;"">+</div>","""",256,fixationBtwnNeutralMaskAndPrompt,Test,null,1000,"""","""","""","""","""","""","""","""",1,4/21/2021 4:08,76.255.155.139,Mozilla/5.0 (Windows NT 10.0; Win64; x64; rv:87.0) Gecko/20100101 Firefox/87.0,,Firefox,87,Windows,10
79,1,4241,"""",html-button-response,265,820323,0.0-265.0,"""","<img src='jspsych/CFDfaces/CFD-WM-207-048-N.jpg' height=""250px"">,</br><b>Juan</b>",0,256,IntactOrRearranged,Test,"""","""","""","""",CFD-BM-002-013-N.jpg,Jacob,0,"""","""",0,1,4/21/2021 4:08,76.255.155.139,Mozilla/5.0 (Windows NT 10.0; Win64; x64; rv:87.0) Gecko/20100101 Firefox/87.0,,Firefox,87,Windows,10
79,1,2762,"""",html-slider-response,266,823099,0.0-266.0,"""","<img src='jspsych/CFDfaces/CFD-WM-207-048-N.jpg' height=""250px"">,</br><b>Juan</b>","""",256,ConfidenceQuery,Test,"""","""","""","""",CFD-BM-002-013-N.jpg,Jacob,0,0,79,"""",1,4/21/2021 4:08,76.255.155.139,Mozilla/5.0 (Windows NT 10.0; Win64; x64; rv:87.0) Gecko/20100101 Firefox/87.0,,Firefox,87,Windows,10
79,1,null,"""",html-keyboard-response,267,824105,0.0-267.0,"""","<div style=""font-size:60px;"">+</div>","""",256,ITI,Test,null,1000,"""","""","""","""","""","""","""","""",1,4/21/2021 4:08,76.255.155.139,Mozilla/5.0 (Windows NT 10.0; Win64; x64; rv:87.0) Gecko/20100101 Firefox/87.0,,Firefox,87,Windows,10
79,1,null,"""",image-keyboard-response,268,824362,0.0-268.0,"""",jspsych/scrambledNeutralFaces/scrambledAF17NES.JPG,"""",256,forwardMask,Test,null,250,"""",n,"""","""","""","""","""","""",1,4/21/2021 4:08,76.255.155.139,Mozilla/5.0 (Windows NT 10.0; Win64; x64; rv:87.0) Gecko/20100101 Firefox/87.0,,Firefox,87,Windows,10
79,1,null,"""",image-keyboard-response,269,824390,0.0-269.0,"""",jspsych/neutralFaces/AF17NES.JPG,"""",256,Cue,Test,null,16,"""","""","""","""","""","""","""","""",1,4/21/2021 4:08,76.255.155.139,Mozilla/5.0 (Windows NT 10.0; Win64; x64; rv:87.0) Gecko/20100101 Firefox/87.0,,Firefox,87,Windows,10
79,1,null,"""",image-keyboard-response,270,824502,0.0-270.0,"""",jspsych/neutralFaces/BF26NES.JPG,"""",256,backwardMask,Test,null,100,"""","""","""","""","""","""","""","""",1,4/21/2021 4:08,76.255.155.139,Mozilla/5.0 (Windows NT 10.0; Win64; x64; rv:87.0) Gecko/20100101 Firefox/87.0,,Firefox,87,Windows,10
79,1,null,"""",html-keyboard-response,271,825513,0.0-271.0,"""","<div style=""font-size:60px;"">+</div>","""",256,fixationBtwnNeutralMaskAndPrompt,Test,null,1000,"""","""","""","""","""","""","""","""",1,4/21/2021 4:08,76.255.155.139,Mozilla/5.0 (Windows NT 10.0; Win64; x64; rv:87.0) Gecko/20100101 Firefox/87.0,,Firefox,87,Windows,10
79,1,1817,"""",html-button-response,272,827332,0.0-272.0,"""","<img src='jspsych/CFDfaces/CFD-BM-039-029-N.jpg' height=""250px"">,</br><b>Ian</b>",0,256,IntactOrRearranged,Test,"""","""","""","""",CFD-BM-026-002-N.jpg,Travis,0,"""","""",0,1,4/21/2021 4:08,76.255.155.139,Mozilla/5.0 (Windows NT 10.0; Win64; x64; rv:87.0) Gecko/20100101 Firefox/87.0,,Firefox,87,Windows,10
79,1,2875,"""",html-slider-response,273,830228,0.0-273.0,"""","<img src='jspsych/CFDfaces/CFD-BM-039-029-N.jpg' height=""250px"">,</br><b>Ian</b>","""",256,ConfidenceQuery,Test,"""","""","""","""",CFD-BM-026-002-N.jpg,Travis,0,0,87,"""",1,4/21/2021 4:08,76.255.155.139,Mozilla/5.0 (Windows NT 10.0; Win64; x64; rv:87.0) Gecko/20100101 Firefox/87.0,,Firefox,87,Windows,10
79,1,null,"""",html-keyboard-response,274,831236,0.0-274.0,"""","<div style=""font-size:60px;"">+</div>","""",256,ITI,Test,null,1000,"""","""","""","""","""","""","""","""",1,4/21/2021 4:08,76.255.155.139,Mozilla/5.0 (Windows NT 10.0; Win64; x64; rv:87.0) Gecko/20100101 Firefox/87.0,,Firefox,87,Windows,10
79,1,null,"""",image-keyboard-response,275,831500,0.0-275.0,"""",jspsych/scrambledDisgustFaces/scrambledAF12DIS.JPG,"""",256,forwardMask,Test,null,250,"""",d,"""","""","""","""","""","""",1,4/21/2021 4:08,76.255.155.139,Mozilla/5.0 (Windows NT 10.0; Win64; x64; rv:87.0) Gecko/20100101 Firefox/87.0,,Firefox,87,Windows,10
79,1,null,"""",image-keyboard-response,276,831533,0.0-276.0,"""",jspsych/disgustFaces/AF12DIS.JPG,"""",256,Cue,Test,null,16,"""","""","""","""","""","""","""","""",1,4/21/2021 4:08,76.255.155.139,Mozilla/5.0 (Windows NT 10.0; Win64; x64; rv:87.0) Gecko/20100101 Firefox/87.0,,Firefox,87,Windows,10
79,1,null,"""",image-keyboard-response,277,831642,0.0-277.0,"""",jspsych/neutralFaces/AF15NES.JPG,"""",256,backwardMask,Test,null,100,"""","""","""","""","""","""","""","""",1,4/21/2021 4:08,76.255.155.139,Mozilla/5.0 (Windows NT 10.0; Win64; x64; rv:87.0) Gecko/20100101 Firefox/87.0,,Firefox,87,Windows,10
79,1,null,"""",html-keyboard-response,278,832653,0.0-278.0,"""","<div style=""font-size:60px;"">+</div>","""",256,fixationBtwnNeutralMaskAndPrompt,Test,null,1000,"""","""","""","""","""","""","""","""",1,4/21/2021 4:08,76.255.155.139,Mozilla/5.0 (Windows NT 10.0; Win64; x64; rv:87.0) Gecko/20100101 Firefox/87.0,,Firefox,87,Windows,10
79,1,3700,"""",html-button-response,279,836355,0.0-279.0,"""","<img src='jspsych/CFDfaces/CFD-AF-222-134-N.jpg' height=""250px"">,</br><b>Ashley</b>",1,256,IntactOrRearranged,Test,"""","""","""","""",CFD-BM-001-014-N.jpg,Ryan,1,"""","""",1,1,4/21/2021 4:08,76.255.155.139,Mozilla/5.0 (Windows NT 10.0; Win64; x64; rv:87.0) Gecko/20100101 Firefox/87.0,,Firefox,87,Windows,10
79,1,4465,"""",html-slider-response,280,840836,0.0-280.0,"""","<img src='jspsych/CFDfaces/CFD-AF-222-134-N.jpg' height=""250px"">,</br><b>Ashley</b>","""",256,ConfidenceQuery,Test,"""","""","""","""",CFD-BM-001-014-N.jpg,Ryan,1,0,89,"""",1,4/21/2021 4:08,76.255.155.139,Mozilla/5.0 (Windows NT 10.0; Win64; x64; rv:87.0) Gecko/20100101 Firefox/87.0,,Firefox,87,Windows,10
79,1,null,"""",html-keyboard-response,281,841844,0.0-281.0,"""","<div style=""font-size:60px;"">+</div>","""",256,ITI,Test,null,1000,"""","""","""","""","""","""","""","""",1,4/21/2021 4:08,76.255.155.139,Mozilla/5.0 (Windows NT 10.0; Win64; x64; rv:87.0) Gecko/20100101 Firefox/87.0,,Firefox,87,Windows,10
79,1,null,"""",image-keyboard-response,282,842111,0.0-282.0,"""",jspsych/scrambledNeutralFaces/scrambledBF02NES.JPG,"""",256,forwardMask,Test,null,250,"""",n,"""","""","""","""","""","""",1,4/21/2021 4:08,76.255.155.139,Mozilla/5.0 (Windows NT 10.0; Win64; x64; rv:87.0) Gecko/20100101 Firefox/87.0,,Firefox,87,Windows,10
79,1,null,"""",image-keyboard-response,283,842142,0.0-283.0,"""",jspsych/neutralFaces/BF02NES.JPG,"""",256,Cue,Test,null,16,"""","""","""","""","""","""","""","""",1,4/21/2021 4:08,76.255.155.139,Mozilla/5.0 (Windows NT 10.0; Win64; x64; rv:87.0) Gecko/20100101 Firefox/87.0,,Firefox,87,Windows,10
79,1,null,"""",image-keyboard-response,284,842254,0.0-284.0,"""",jspsych/neutralFaces/BF31NES.JPG,"""",256,backwardMask,Test,null,100,"""","""","""","""","""","""","""","""",1,4/21/2021 4:08,76.255.155.139,Mozilla/5.0 (Windows NT 10.0; Win64; x64; rv:87.0) Gecko/20100101 Firefox/87.0,,Firefox,87,Windows,10
79,1,null,"""",html-keyboard-response,285,843266,0.0-285.0,"""","<div style=""font-size:60px;"">+</div>","""",256,fixationBtwnNeutralMaskAndPrompt,Test,null,1000,"""","""","""","""","""","""","""","""",1,4/21/2021 4:08,76.255.155.139,Mozilla/5.0 (Windows NT 10.0; Win64; x64; rv:87.0) Gecko/20100101 Firefox/87.0,,Firefox,87,Windows,10
79,1,1893,"""",html-button-response,286,845171,0.0-286.0,"""","<img src='jspsych/CFDfaces/CFD-LF-206-078-N.jpg' height=""250px"">,</br><b>Michelle</b>",0,256,IntactOrRearranged,Test,"""","""","""","""",CFD-BM-208-065-N.jpg,Cameron,0,"""","""",0,1,4/21/2021 4:08,76.255.155.139,Mozilla/5.0 (Windows NT 10.0; Win64; x64; rv:87.0) Gecko/20100101 Firefox/87.0,,Firefox,87,Windows,10
79,1,4019,"""",html-slider-response,287,849200,0.0-287.0,"""","<img src='jspsych/CFDfaces/CFD-LF-206-078-N.jpg' height=""250px"">,</br><b>Michelle</b>","""",256,ConfidenceQuery,Test,"""","""","""","""",CFD-BM-208-065-N.jpg,Cameron,0,0,90,"""",1,4/21/2021 4:08,76.255.155.139,Mozilla/5.0 (Windows NT 10.0; Win64; x64; rv:87.0) Gecko/20100101 Firefox/87.0,,Firefox,87,Windows,10
79,1,null,"""",html-keyboard-response,288,850213,0.0-288.0,"""","<div style=""font-size:60px;"">+</div>","""",256,ITI,Test,null,1000,"""","""","""","""","""","""","""","""",1,4/21/2021 4:08,76.255.155.139,Mozilla/5.0 (Windows NT 10.0; Win64; x64; rv:87.0) Gecko/20100101 Firefox/87.0,,Firefox,87,Windows,10
79,1,null,"""",image-keyboard-response,289,850497,0.0-289.0,"""",jspsych/scrambledNeutralFaces/scrambledAF28NES.JPG,"""",256,forwardMask,Test,null,250,"""",n,"""","""","""","""","""","""",1,4/21/2021 4:08,76.255.155.139,Mozilla/5.0 (Windows NT 10.0; Win64; x64; rv:87.0) Gecko/20100101 Firefox/87.0,,Firefox,87,Windows,10
79,1,null,"""",image-keyboard-response,290,850528,0.0-290.0,"""",jspsych/neutralFaces/AF28NES.JPG,"""",256,Cue,Test,null,16,"""","""","""","""","""","""","""","""",1,4/21/2021 4:08,76.255.155.139,Mozilla/5.0 (Windows NT 10.0; Win64; x64; rv:87.0) Gecko/20100101 Firefox/87.0,,Firefox,87,Windows,10
79,1,null,"""",image-keyboard-response,291,850638,0.0-291.0,"""",jspsych/neutralFaces/BF35NES.JPG,"""",256,backwardMask,Test,null,100,"""","""","""","""","""","""","""","""",1,4/21/2021 4:08,76.255.155.139,Mozilla/5.0 (Windows NT 10.0; Win64; x64; rv:87.0) Gecko/20100101 Firefox/87.0,,Firefox,87,Windows,10
79,1,null,"""",html-keyboard-response,292,851648,0.0-292.0,"""","<div style=""font-size:60px;"">+</div>","""",256,fixationBtwnNeutralMaskAndPrompt,Test,null,1000,"""","""","""","""","""","""","""","""",1,4/21/2021 4:08,76.255.155.139,Mozilla/5.0 (Windows NT 10.0; Win64; x64; rv:87.0) Gecko/20100101 Firefox/87.0,,Firefox,87,Windows,10
79,1,3545,"""",html-button-response,293,855196,0.0-293.0,"""","<img src='jspsych/CFDfaces/CFD-BM-022-022-N.jpg' height=""250px"">,</br><b>Joshua</b>",0,256,IntactOrRearranged,Test,"""","""","""","""",CFD-BF-004-014-N.jpg,Amy,1,"""","""",0,1,4/21/2021 4:08,76.255.155.139,Mozilla/5.0 (Windows NT 10.0; Win64; x64; rv:87.0) Gecko/20100101 Firefox/87.0,,Firefox,87,Windows,10
79,1,4283,"""",html-slider-response,294,859484,0.0-294.0,"""","<img src='jspsych/CFDfaces/CFD-BM-022-022-N.jpg' height=""250px"">,</br><b>Joshua</b>","""",256,ConfidenceQuery,Test,"""","""","""","""",CFD-BF-004-014-N.jpg,Amy,1,0,69,"""",1,4/21/2021 4:08,76.255.155.139,Mozilla/5.0 (Windows NT 10.0; Win64; x64; rv:87.0) Gecko/20100101 Firefox/87.0,,Firefox,87,Windows,10
79,1,null,"""",html-keyboard-response,295,860512,0.0-295.0,"""","<div style=""font-size:60px;"">+</div>","""",256,ITI,Test,null,1000,"""","""","""","""","""","""","""","""",1,4/21/2021 4:08,76.255.155.139,Mozilla/5.0 (Windows NT 10.0; Win64; x64; rv:87.0) Gecko/20100101 Firefox/87.0,,Firefox,87,Windows,10
79,1,null,"""",image-keyboard-response,296,860780,0.0-296.0,"""",jspsych/scrambledNeutralFaces/scrambledAF12NES.JPG,"""",256,forwardMask,Test,null,250,"""",n,"""","""","""","""","""","""",1,4/21/2021 4:08,76.255.155.139,Mozilla/5.0 (Windows NT 10.0; Win64; x64; rv:87.0) Gecko/20100101 Firefox/87.0,,Firefox,87,Windows,10
