run_id,condition,rt,responses,trial_type,trial_index,time_elapsed,internal_node_id,question_order,stimulus,button_pressed,iTrial,Phase,ExperimentPhase,key_press,StimulusDurationSetting,CharacterResponse,correctResponse,Face,Name,rearranged,slider_start,response,didSubjectEnterRearranged,Block,recorded_at,ip,user_agent,device,browser,browser_version,platform,platform_version
29,1,11365,"{""Q0"":""A2KBATQUTW8J5G""}",survey-text,0,11366,0.0-0.0,"""","""","""","""","""","""","""","""","""","""","""","""","""","""","""","""","""",4/19/2021 20:04,64.237.91.215,Mozilla/5.0 (Windows NT 10.0; Win64; x64; rv:87.0) Gecko/20100101 Firefox/87.0,,Firefox,87,Windows,10
29,1,2477,"{""Q0"":""24""}",survey-text,1,13845,0.0-1.0,"""","""","""","""","""","""","""","""","""","""","""","""","""","""","""","""","""",4/19/2021 20:04,64.237.91.215,Mozilla/5.0 (Windows NT 10.0; Win64; x64; rv:87.0) Gecko/20100101 Firefox/87.0,,Firefox,87,Windows,10
29,1,14410,"{""Q0"":""female"",""Q1"":""Hispanic/Latino"",""Q2"":""Other""}",survey-multi-choice,2,28256,0.0-2.0,"[0,1,2]","""","""","""","""","""","""","""","""","""","""","""","""","""","""","""","""",4/19/2021 20:04,64.237.91.215,Mozilla/5.0 (Windows NT 10.0; Win64; x64; rv:87.0) Gecko/20100101 Firefox/87.0,,Firefox,87,Windows,10
29,1,16360,"""",image-button-response,3,44719,0.0-3.0,"""",directionsMemoryAssociation1.JPG,0,1,IntroDirections1,break,"""","""","""","""","""","""","""","""","""","""","""",4/19/2021 20:04,64.237.91.215,Mozilla/5.0 (Windows NT 10.0; Win64; x64; rv:87.0) Gecko/20100101 Firefox/87.0,,Firefox,87,Windows,10
29,1,16857,"""",image-button-response,4,61581,0.0-4.0,"""",directionsMemoryAssociation2.JPG,0,1,IntroDirections2,break,"""","""","""","""","""","""","""","""","""","""","""",4/19/2021 20:04,64.237.91.215,Mozilla/5.0 (Windows NT 10.0; Win64; x64; rv:87.0) Gecko/20100101 Firefox/87.0,,Firefox,87,Windows,10
29,1,null,"""",html-keyboard-response,5,66592,0.0-5.0,"""","<img src='jspsych/CFDfaces/CFD-BF-025-002-N.jpg' height=""250px"">,</br><b>Shannon</b>","""",1,IntactFace,Practice,null,5000,"""","""","""","""","""","""","""","""","""",4/19/2021 20:04,64.237.91.215,Mozilla/5.0 (Windows NT 10.0; Win64; x64; rv:87.0) Gecko/20100101 Firefox/87.0,,Firefox,87,Windows,10
29,1,null,"""",html-keyboard-response,6,67099,0.0-6.0,"""","<div style=""font-size:60px;"">+</div>","""",1,ITI,Practice,null,1000,"""","""","""","""","""","""","""","""","""",4/19/2021 20:04,64.237.91.215,Mozilla/5.0 (Windows NT 10.0; Win64; x64; rv:87.0) Gecko/20100101 Firefox/87.0,,Firefox,87,Windows,10
29,1,3146,"""",html-keyboard-response,7,72106,0.0-7.0,"""","<img src='jspsych/CFDfaces/CFD-LF-239-148-N.jpg' height=""250px"">,</br><b>Tara</b>","""",2,IntactFace,Practice,70,5000,f,"""","""","""","""","""","""","""","""",4/19/2021 20:04,64.237.91.215,Mozilla/5.0 (Windows NT 10.0; Win64; x64; rv:87.0) Gecko/20100101 Firefox/87.0,,Firefox,87,Windows,10
29,1,null,"""",html-keyboard-response,8,72620,0.0-8.0,"""","<div style=""font-size:60px;"">+</div>","""",2,ITI,Practice,null,1000,"""","""","""","""","""","""","""","""","""",4/19/2021 20:04,64.237.91.215,Mozilla/5.0 (Windows NT 10.0; Win64; x64; rv:87.0) Gecko/20100101 Firefox/87.0,,Firefox,87,Windows,10
29,1,2171,"""",html-keyboard-response,9,77630,0.0-9.0,"""","<img src='jspsych/CFDfaces/CFD-AM-229-224-N.jpg' height=""250px"">,</br><b>Carlos</b>","""",3,IntactFace,Practice,78,5000,n,"""","""","""","""","""","""","""","""",4/19/2021 20:04,64.237.91.215,Mozilla/5.0 (Windows NT 10.0; Win64; x64; rv:87.0) Gecko/20100101 Firefox/87.0,,Firefox,87,Windows,10
29,1,null,"""",html-keyboard-response,10,78131,0.0-10.0,"""","<div style=""font-size:60px;"">+</div>","""",3,ITI,Practice,null,1000,"""","""","""","""","""","""","""","""","""",4/19/2021 20:04,64.237.91.215,Mozilla/5.0 (Windows NT 10.0; Win64; x64; rv:87.0) Gecko/20100101 Firefox/87.0,,Firefox,87,Windows,10
29,1,3318,"""",html-keyboard-response,11,83135,0.0-11.0,"""","<img src='jspsych/CFDfaces/CFD-LM-221-216-N.jpg' height=""250px"">,</br><b>Samuel</b>","""",4,IntactFace,Practice,70,5000,f,"""","""","""","""","""","""","""","""",4/19/2021 20:04,64.237.91.215,Mozilla/5.0 (Windows NT 10.0; Win64; x64; rv:87.0) Gecko/20100101 Firefox/87.0,,Firefox,87,Windows,10
29,1,null,"""",html-keyboard-response,12,83642,0.0-12.0,"""","<div style=""font-size:60px;"">+</div>","""",4,ITI,Practice,null,1000,"""","""","""","""","""","""","""","""","""",4/19/2021 20:04,64.237.91.215,Mozilla/5.0 (Windows NT 10.0; Win64; x64; rv:87.0) Gecko/20100101 Firefox/87.0,,Firefox,87,Windows,10
29,1,1325,"""",html-keyboard-response,13,88651,0.0-13.0,"""","<img src='jspsych/CFDfaces/CFD-AM-213-056-N.jpg' height=""250px"">,</br><b>Marcus</b>","""",5,IntactFace,Practice,78,5000,n,"""","""","""","""","""","""","""","""",4/19/2021 20:04,64.237.91.215,Mozilla/5.0 (Windows NT 10.0; Win64; x64; rv:87.0) Gecko/20100101 Firefox/87.0,,Firefox,87,Windows,10
29,1,null,"""",html-keyboard-response,14,89166,0.0-14.0,"""","<div style=""font-size:60px;"">+</div>","""",5,ITI,Practice,null,1000,"""","""","""","""","""","""","""","""","""",4/19/2021 20:04,64.237.91.215,Mozilla/5.0 (Windows NT 10.0; Win64; x64; rv:87.0) Gecko/20100101 Firefox/87.0,,Firefox,87,Windows,10
29,1,2279,"""",html-keyboard-response,15,94183,0.0-15.0,"""","<img src='jspsych/CFDfaces/CFD-LF-204-133-N.jpg' height=""250px"">,</br><b>Cassandra</b>","""",6,IntactFace,Practice,70,5000,f,"""","""","""","""","""","""","""","""",4/19/2021 20:04,64.237.91.215,Mozilla/5.0 (Windows NT 10.0; Win64; x64; rv:87.0) Gecko/20100101 Firefox/87.0,,Firefox,87,Windows,10
29,1,null,"""",html-keyboard-response,16,94692,0.0-16.0,"""","<div style=""font-size:60px;"">+</div>","""",6,ITI,Practice,null,1000,"""","""","""","""","""","""","""","""","""",4/19/2021 20:04,64.237.91.215,Mozilla/5.0 (Windows NT 10.0; Win64; x64; rv:87.0) Gecko/20100101 Firefox/87.0,,Firefox,87,Windows,10
29,1,2187,"""",html-keyboard-response,17,99697,0.0-17.0,"""","<img src='jspsych/CFDfaces/CFD-LM-225-130-N.jpg' height=""250px"">,</br><b>Patrick</b>","""",7,IntactFace,Practice,78,5000,n,"""","""","""","""","""","""","""","""",4/19/2021 20:04,64.237.91.215,Mozilla/5.0 (Windows NT 10.0; Win64; x64; rv:87.0) Gecko/20100101 Firefox/87.0,,Firefox,87,Windows,10
29,1,null,"""",html-keyboard-response,18,100198,0.0-18.0,"""","<div style=""font-size:60px;"">+</div>","""",7,ITI,Practice,null,1000,"""","""","""","""","""","""","""","""","""",4/19/2021 20:04,64.237.91.215,Mozilla/5.0 (Windows NT 10.0; Win64; x64; rv:87.0) Gecko/20100101 Firefox/87.0,,Firefox,87,Windows,10
29,1,2003,"""",html-keyboard-response,19,105214,0.0-19.0,"""","<img src='jspsych/CFDfaces/CFD-BF-209-172-N.jpg' height=""250px"">,</br><b>Katelyn</b>","""",8,IntactFace,Practice,70,5000,f,"""","""","""","""","""","""","""","""",4/19/2021 20:04,64.237.91.215,Mozilla/5.0 (Windows NT 10.0; Win64; x64; rv:87.0) Gecko/20100101 Firefox/87.0,,Firefox,87,Windows,10
29,1,null,"""",html-keyboard-response,20,105716,0.0-20.0,"""","<div style=""font-size:60px;"">+</div>","""",8,ITI,Practice,null,1000,"""","""","""","""","""","""","""","""","""",4/19/2021 20:04,64.237.91.215,Mozilla/5.0 (Windows NT 10.0; Win64; x64; rv:87.0) Gecko/20100101 Firefox/87.0,,Firefox,87,Windows,10
29,1,5916,"""",image-button-response,21,111636,0.0-21.0,"""",directionsForTest.JPG,0,1,directionsForTest,break,"""","""","""","""","""","""","""","""","""","""","""",4/19/2021 20:04,64.237.91.215,Mozilla/5.0 (Windows NT 10.0; Win64; x64; rv:87.0) Gecko/20100101 Firefox/87.0,,Firefox,87,Windows,10
29,1,8434,"""",image-button-response,22,120075,0.0-22.0,"""",directionsForTest2.JPG,0,1,directionsForTest2,break,"""","""","""","""","""","""","""","""","""","""","""",4/19/2021 20:04,64.237.91.215,Mozilla/5.0 (Windows NT 10.0; Win64; x64; rv:87.0) Gecko/20100101 Firefox/87.0,,Firefox,87,Windows,10
29,1,null,"""",html-keyboard-response,23,121084,0.0-23.0,"""","<div style=""font-size:60px;"">+</div>","""",1,ITI,Practice,null,1000,"""","""","""","""","""","""","""","""","""",4/19/2021 20:04,64.237.91.215,Mozilla/5.0 (Windows NT 10.0; Win64; x64; rv:87.0) Gecko/20100101 Firefox/87.0,,Firefox,87,Windows,10
29,1,null,"""",image-keyboard-response,24,121337,0.0-24.0,"""",jspsych/scrambledDisgustFaces/scrambledBF19DIS.JPG,"""",1,forwardMask,Practice,null,250,"""",d,"""","""","""","""","""","""","""",4/19/2021 20:04,64.237.91.215,Mozilla/5.0 (Windows NT 10.0; Win64; x64; rv:87.0) Gecko/20100101 Firefox/87.0,,Firefox,87,Windows,10
29,1,null,"""",image-keyboard-response,25,121368,0.0-25.0,"""",jspsych/disgustFaces/BF19DIS.JPG,"""",1,Cue,Practice,null,16,"""","""","""","""","""","""","""","""","""",4/19/2021 20:04,64.237.91.215,Mozilla/5.0 (Windows NT 10.0; Win64; x64; rv:87.0) Gecko/20100101 Firefox/87.0,,Firefox,87,Windows,10
29,1,null,"""",image-keyboard-response,26,121476,0.0-26.0,"""",jspsych/neutralFaces/AF17NES.JPG,"""",1,backwardMask,Practice,null,100,"""","""","""","""","""","""","""","""","""",4/19/2021 20:04,64.237.91.215,Mozilla/5.0 (Windows NT 10.0; Win64; x64; rv:87.0) Gecko/20100101 Firefox/87.0,,Firefox,87,Windows,10
29,1,null,"""",html-keyboard-response,27,122486,0.0-27.0,"""","<div style=""font-size:60px;"">+</div>","""",1,fixationBtwnNeutralMaskAndPrompt,Practice,null,1000,"""","""","""","""","""","""","""","""","""",4/19/2021 20:04,64.237.91.215,Mozilla/5.0 (Windows NT 10.0; Win64; x64; rv:87.0) Gecko/20100101 Firefox/87.0,,Firefox,87,Windows,10
29,1,null,"""",html-button-response,28,127492,0.0-28.0,"""","<img src='jspsych/CFDfaces/CFD-LF-204-133-N.jpg'height=""250px""></br><b>Katelyn</b>",null,1,IntactOrRearranged,Practice,"""","""","""","""",CFD-LF-204-133-N.jpg,Katelyn,1,"""","""","""","""",4/19/2021 20:04,64.237.91.215,Mozilla/5.0 (Windows NT 10.0; Win64; x64; rv:87.0) Gecko/20100101 Firefox/87.0,,Firefox,87,Windows,10
29,1,null,"""",html-slider-response,29,132506,0.0-29.0,"""","<img src='jspsych/CFDfaces/CFD-LF-204-133-N.jpg'height=""250px""></br><b>Katelyn</b>","""",1,ConfidenceQuery,Practice,"""","""","""","""",CFD-WM-006-002-N.jpg,Jesse,1,0,null,"""","""",4/19/2021 20:04,64.237.91.215,Mozilla/5.0 (Windows NT 10.0; Win64; x64; rv:87.0) Gecko/20100101 Firefox/87.0,,Firefox,87,Windows,10
29,1,3826,"""",html-button-response,30,136334,0.0-30.0,"""",<p>Please click either button: REARRANGED or INTACT before the 5-second time limit.</p>,0,1,feedback,Practice,"""","""","""","""","""","""","""","""","""","""","""",4/19/2021 20:04,64.237.91.215,Mozilla/5.0 (Windows NT 10.0; Win64; x64; rv:87.0) Gecko/20100101 Firefox/87.0,,Firefox,87,Windows,10
29,1,null,"""",html-keyboard-response,31,137339,0.0-31.0,"""","<div style=""font-size:60px;"">+</div>","""",2,ITI,Practice,null,1000,"""","""","""","""","""","""","""","""","""",4/19/2021 20:04,64.237.91.215,Mozilla/5.0 (Windows NT 10.0; Win64; x64; rv:87.0) Gecko/20100101 Firefox/87.0,,Firefox,87,Windows,10
29,1,null,"""",image-keyboard-response,32,137590,0.0-32.0,"""",jspsych/scrambledNeutralFaces/scrambledAF26NES.JPG,"""",2,forwardMask,Practice,null,250,"""",n,"""","""","""","""","""","""","""",4/19/2021 20:04,64.237.91.215,Mozilla/5.0 (Windows NT 10.0; Win64; x64; rv:87.0) Gecko/20100101 Firefox/87.0,,Firefox,87,Windows,10
29,1,null,"""",image-keyboard-response,33,137622,0.0-33.0,"""",jspsych/neutralFaces/AF26NES.JPG,"""",2,Cue,Practice,null,16,"""","""","""","""","""","""","""","""","""",4/19/2021 20:04,64.237.91.215,Mozilla/5.0 (Windows NT 10.0; Win64; x64; rv:87.0) Gecko/20100101 Firefox/87.0,,Firefox,87,Windows,10
29,1,null,"""",image-keyboard-response,34,137731,0.0-34.0,"""",jspsych/neutralFaces/BF26NES.JPG,"""",2,backwardMask,Practice,null,100,"""","""","""","""","""","""","""","""","""",4/19/2021 20:04,64.237.91.215,Mozilla/5.0 (Windows NT 10.0; Win64; x64; rv:87.0) Gecko/20100101 Firefox/87.0,,Firefox,87,Windows,10
29,1,null,"""",html-keyboard-response,35,138743,0.0-35.0,"""","<div style=""font-size:60px;"">+</div>","""",2,fixationBtwnNeutralMaskAndPrompt,Practice,null,1000,"""","""","""","""","""","""","""","""","""",4/19/2021 20:04,64.237.91.215,Mozilla/5.0 (Windows NT 10.0; Win64; x64; rv:87.0) Gecko/20100101 Firefox/87.0,,Firefox,87,Windows,10
29,1,2238,"""",html-button-response,36,140981,0.0-36.0,"""","<img src='jspsych/CFDfaces/CFD-BF-025-002-N.jpg'height=""250px""></br><b>Shannon</b>",0,2,IntactOrRearranged,Practice,"""","""","""","""",CFD-BF-025-002-N.jpg,Shannon,0,"""","""",0,"""",4/19/2021 20:04,64.237.91.215,Mozilla/5.0 (Windows NT 10.0; Win64; x64; rv:87.0) Gecko/20100101 Firefox/87.0,,Firefox,87,Windows,10
29,1,2272,"""",html-slider-response,37,143254,0.0-37.0,"""","<img src='jspsych/CFDfaces/CFD-BF-025-002-N.jpg'height=""250px""></br><b>Shannon</b>","""",2,ConfidenceQuery,Practice,"""","""","""","""",CFD-WM-006-002-N.jpg,Jesse,0,0,100,"""","""",4/19/2021 20:04,64.237.91.215,Mozilla/5.0 (Windows NT 10.0; Win64; x64; rv:87.0) Gecko/20100101 Firefox/87.0,,Firefox,87,Windows,10
29,1,1528,"""",html-button-response,38,144782,0.0-38.0,"""",You are Correct. You called an Intact Pair Intact,0,2,feedback,Practice,"""","""","""","""","""","""","""","""","""","""","""",4/19/2021 20:04,64.237.91.215,Mozilla/5.0 (Windows NT 10.0; Win64; x64; rv:87.0) Gecko/20100101 Firefox/87.0,,Firefox,87,Windows,10
29,1,null,"""",html-keyboard-response,39,145787,0.0-39.0,"""","<div style=""font-size:60px;"">+</div>","""",3,ITI,Practice,null,1000,"""","""","""","""","""","""","""","""","""",4/19/2021 20:04,64.237.91.215,Mozilla/5.0 (Windows NT 10.0; Win64; x64; rv:87.0) Gecko/20100101 Firefox/87.0,,Firefox,87,Windows,10
29,1,null,"""",image-keyboard-response,40,146041,0.0-40.0,"""",jspsych/scrambledNeutralFaces/scrambledAF05NES.JPG,"""",3,forwardMask,Practice,null,250,"""",n,"""","""","""","""","""","""","""",4/19/2021 20:04,64.237.91.215,Mozilla/5.0 (Windows NT 10.0; Win64; x64; rv:87.0) Gecko/20100101 Firefox/87.0,,Firefox,87,Windows,10
29,1,null,"""",image-keyboard-response,41,146057,0.0-41.0,"""",jspsych/neutralFaces/AF05NES.JPG,"""",3,Cue,Practice,null,16,"""","""","""","""","""","""","""","""","""",4/19/2021 20:04,64.237.91.215,Mozilla/5.0 (Windows NT 10.0; Win64; x64; rv:87.0) Gecko/20100101 Firefox/87.0,,Firefox,87,Windows,10
29,1,null,"""",image-keyboard-response,42,146161,0.0-42.0,"""",jspsych/neutralFaces/BF23NES.JPG,"""",3,backwardMask,Practice,null,100,"""","""","""","""","""","""","""","""","""",4/19/2021 20:04,64.237.91.215,Mozilla/5.0 (Windows NT 10.0; Win64; x64; rv:87.0) Gecko/20100101 Firefox/87.0,,Firefox,87,Windows,10
29,1,null,"""",html-keyboard-response,43,147162,0.0-43.0,"""","<div style=""font-size:60px;"">+</div>","""",3,fixationBtwnNeutralMaskAndPrompt,Practice,null,1000,"""","""","""","""","""","""","""","""","""",4/19/2021 20:04,64.237.91.215,Mozilla/5.0 (Windows NT 10.0; Win64; x64; rv:87.0) Gecko/20100101 Firefox/87.0,,Firefox,87,Windows,10
29,1,1961,"""",html-button-response,44,149124,0.0-44.0,"""","<img src='jspsych/CFDfaces/CFD-LM-221-216-N.jpg'height=""250px""></br><b>Samuel</b>",0,3,IntactOrRearranged,Practice,"""","""","""","""",CFD-LM-221-216-N.jpg,Samuel,0,"""","""",0,"""",4/19/2021 20:04,64.237.91.215,Mozilla/5.0 (Windows NT 10.0; Win64; x64; rv:87.0) Gecko/20100101 Firefox/87.0,,Firefox,87,Windows,10
29,1,2212,"""",html-slider-response,45,151339,0.0-45.0,"""","<img src='jspsych/CFDfaces/CFD-LM-221-216-N.jpg'height=""250px""></br><b>Samuel</b>","""",3,ConfidenceQuery,Practice,"""","""","""","""",CFD-WM-006-002-N.jpg,Jesse,0,0,67,"""","""",4/19/2021 20:04,64.237.91.215,Mozilla/5.0 (Windows NT 10.0; Win64; x64; rv:87.0) Gecko/20100101 Firefox/87.0,,Firefox,87,Windows,10
29,1,881,"""",html-button-response,46,152221,0.0-46.0,"""",You are Correct. You called an Intact Pair Intact,0,3,feedback,Practice,"""","""","""","""","""","""","""","""","""","""","""",4/19/2021 20:04,64.237.91.215,Mozilla/5.0 (Windows NT 10.0; Win64; x64; rv:87.0) Gecko/20100101 Firefox/87.0,,Firefox,87,Windows,10
29,1,null,"""",html-keyboard-response,47,153235,0.0-47.0,"""","<div style=""font-size:60px;"">+</div>","""",4,ITI,Practice,null,1000,"""","""","""","""","""","""","""","""","""",4/19/2021 20:04,64.237.91.215,Mozilla/5.0 (Windows NT 10.0; Win64; x64; rv:87.0) Gecko/20100101 Firefox/87.0,,Firefox,87,Windows,10
29,1,null,"""",image-keyboard-response,48,153501,0.0-48.0,"""",jspsych/scrambledNeutralFaces/scrambledBM31NES.JPG,"""",4,forwardMask,Practice,null,250,"""",n,"""","""","""","""","""","""","""",4/19/2021 20:04,64.237.91.215,Mozilla/5.0 (Windows NT 10.0; Win64; x64; rv:87.0) Gecko/20100101 Firefox/87.0,,Firefox,87,Windows,10
29,1,null,"""",image-keyboard-response,49,153532,0.0-49.0,"""",jspsych/neutralFaces/BM31NES.JPG,"""",4,Cue,Practice,null,16,"""","""","""","""","""","""","""","""","""",4/19/2021 20:04,64.237.91.215,Mozilla/5.0 (Windows NT 10.0; Win64; x64; rv:87.0) Gecko/20100101 Firefox/87.0,,Firefox,87,Windows,10
29,1,null,"""",image-keyboard-response,50,153641,0.0-50.0,"""",jspsych/neutralFaces/AM32NES.JPG,"""",4,backwardMask,Practice,null,100,"""","""","""","""","""","""","""","""","""",4/19/2021 20:04,64.237.91.215,Mozilla/5.0 (Windows NT 10.0; Win64; x64; rv:87.0) Gecko/20100101 Firefox/87.0,,Firefox,87,Windows,10
29,1,null,"""",html-keyboard-response,51,154652,0.0-51.0,"""","<div style=""font-size:60px;"">+</div>","""",4,fixationBtwnNeutralMaskAndPrompt,Practice,null,1000,"""","""","""","""","""","""","""","""","""",4/19/2021 20:04,64.237.91.215,Mozilla/5.0 (Windows NT 10.0; Win64; x64; rv:87.0) Gecko/20100101 Firefox/87.0,,Firefox,87,Windows,10
29,1,1725,"""",html-button-response,52,156379,0.0-52.0,"""","<img src='jspsych/CFDfaces/CFD-AM-229-224-N.jpg'height=""250px""></br><b>Marcus</b>",1,4,IntactOrRearranged,Practice,"""","""","""","""",CFD-AM-229-224-N.jpg,Marcus,1,"""","""",1,"""",4/19/2021 20:04,64.237.91.215,Mozilla/5.0 (Windows NT 10.0; Win64; x64; rv:87.0) Gecko/20100101 Firefox/87.0,,Firefox,87,Windows,10
29,1,2997,"""",html-slider-response,53,159377,0.0-53.0,"""","<img src='jspsych/CFDfaces/CFD-AM-229-224-N.jpg'height=""250px""></br><b>Marcus</b>","""",4,ConfidenceQuery,Practice,"""","""","""","""",CFD-WM-006-002-N.jpg,Jesse,1,0,92,"""","""",4/19/2021 20:04,64.237.91.215,Mozilla/5.0 (Windows NT 10.0; Win64; x64; rv:87.0) Gecko/20100101 Firefox/87.0,,Firefox,87,Windows,10
29,1,963,"""",html-button-response,54,160339,0.0-54.0,"""",You are Correct. You Called A Rearranged Pair Rearranged,0,4,feedback,Practice,"""","""","""","""","""","""","""","""","""","""","""",4/19/2021 20:04,64.237.91.215,Mozilla/5.0 (Windows NT 10.0; Win64; x64; rv:87.0) Gecko/20100101 Firefox/87.0,,Firefox,87,Windows,10
29,1,null,"""",html-keyboard-response,55,161344,0.0-55.0,"""","<div style=""font-size:60px;"">+</div>","""",5,ITI,Practice,null,1000,"""","""","""","""","""","""","""","""","""",4/19/2021 20:04,64.237.91.215,Mozilla/5.0 (Windows NT 10.0; Win64; x64; rv:87.0) Gecko/20100101 Firefox/87.0,,Firefox,87,Windows,10
29,1,null,"""",image-keyboard-response,56,161595,0.0-56.0,"""",jspsych/scrambledNeutralFaces/scrambledBM09NES.JPG,"""",5,forwardMask,Practice,null,250,"""",n,"""","""","""","""","""","""","""",4/19/2021 20:04,64.237.91.215,Mozilla/5.0 (Windows NT 10.0; Win64; x64; rv:87.0) Gecko/20100101 Firefox/87.0,,Firefox,87,Windows,10
29,1,null,"""",image-keyboard-response,57,161627,0.0-57.0,"""",jspsych/neutralFaces/BM09NES.JPG,"""",5,Cue,Practice,null,16,"""","""","""","""","""","""","""","""","""",4/19/2021 20:04,64.237.91.215,Mozilla/5.0 (Windows NT 10.0; Win64; x64; rv:87.0) Gecko/20100101 Firefox/87.0,,Firefox,87,Windows,10
29,1,null,"""",image-keyboard-response,58,161736,0.0-58.0,"""",jspsych/neutralFaces/BM25NES.JPG,"""",5,backwardMask,Practice,null,100,"""","""","""","""","""","""","""","""","""",4/19/2021 20:04,64.237.91.215,Mozilla/5.0 (Windows NT 10.0; Win64; x64; rv:87.0) Gecko/20100101 Firefox/87.0,,Firefox,87,Windows,10
29,1,null,"""",html-keyboard-response,59,162745,0.0-59.0,"""","<div style=""font-size:60px;"">+</div>","""",5,fixationBtwnNeutralMaskAndPrompt,Practice,null,1000,"""","""","""","""","""","""","""","""","""",4/19/2021 20:04,64.237.91.215,Mozilla/5.0 (Windows NT 10.0; Win64; x64; rv:87.0) Gecko/20100101 Firefox/87.0,,Firefox,87,Windows,10
29,1,1697,"""",html-button-response,60,164442,0.0-60.0,"""","<img src='jspsych/CFDfaces/CFD-BF-209-172-N.jpg'height=""250px""></br><b>Cassandra</b>",1,5,IntactOrRearranged,Practice,"""","""","""","""",CFD-BF-209-172-N.jpg,Cassandra,1,"""","""",1,"""",4/19/2021 20:04,64.237.91.215,Mozilla/5.0 (Windows NT 10.0; Win64; x64; rv:87.0) Gecko/20100101 Firefox/87.0,,Firefox,87,Windows,10
29,1,1995,"""",html-slider-response,61,166438,0.0-61.0,"""","<img src='jspsych/CFDfaces/CFD-BF-209-172-N.jpg'height=""250px""></br><b>Cassandra</b>","""",5,ConfidenceQuery,Practice,"""","""","""","""",CFD-WM-006-002-N.jpg,Jesse,1,0,98,"""","""",4/19/2021 20:04,64.237.91.215,Mozilla/5.0 (Windows NT 10.0; Win64; x64; rv:87.0) Gecko/20100101 Firefox/87.0,,Firefox,87,Windows,10
29,1,917,"""",html-button-response,62,167356,0.0-62.0,"""",You are Correct. You Called A Rearranged Pair Rearranged,0,5,feedback,Practice,"""","""","""","""","""","""","""","""","""","""","""",4/19/2021 20:04,64.237.91.215,Mozilla/5.0 (Windows NT 10.0; Win64; x64; rv:87.0) Gecko/20100101 Firefox/87.0,,Firefox,87,Windows,10
29,1,null,"""",html-keyboard-response,63,168369,0.0-63.0,"""","<div style=""font-size:60px;"">+</div>","""",6,ITI,Practice,null,1000,"""","""","""","""","""","""","""","""","""",4/19/2021 20:04,64.237.91.215,Mozilla/5.0 (Windows NT 10.0; Win64; x64; rv:87.0) Gecko/20100101 Firefox/87.0,,Firefox,87,Windows,10
29,1,null,"""",image-keyboard-response,64,168620,0.0-64.0,"""",jspsych/scrambledDisgustFaces/scrambledBM25DIS.JPG,"""",6,forwardMask,Practice,null,250,"""",d,"""","""","""","""","""","""","""",4/19/2021 20:04,64.237.91.215,Mozilla/5.0 (Windows NT 10.0; Win64; x64; rv:87.0) Gecko/20100101 Firefox/87.0,,Firefox,87,Windows,10
29,1,null,"""",image-keyboard-response,65,168652,0.0-65.0,"""",jspsych/disgustFaces/BM26DIS.JPG,"""",6,Cue,Practice,null,16,"""","""","""","""","""","""","""","""","""",4/19/2021 20:04,64.237.91.215,Mozilla/5.0 (Windows NT 10.0; Win64; x64; rv:87.0) Gecko/20100101 Firefox/87.0,,Firefox,87,Windows,10
29,1,null,"""",image-keyboard-response,66,168762,0.0-66.0,"""",jspsych/neutralFaces/BM32NES.JPG,"""",6,backwardMask,Practice,null,100,"""","""","""","""","""","""","""","""","""",4/19/2021 20:04,64.237.91.215,Mozilla/5.0 (Windows NT 10.0; Win64; x64; rv:87.0) Gecko/20100101 Firefox/87.0,,Firefox,87,Windows,10
29,1,null,"""",html-keyboard-response,67,169769,0.0-67.0,"""","<div style=""font-size:60px;"">+</div>","""",6,fixationBtwnNeutralMaskAndPrompt,Practice,null,1000,"""","""","""","""","""","""","""","""","""",4/19/2021 20:04,64.237.91.215,Mozilla/5.0 (Windows NT 10.0; Win64; x64; rv:87.0) Gecko/20100101 Firefox/87.0,,Firefox,87,Windows,10
29,1,2295,"""",html-button-response,68,172065,0.0-68.0,"""","<img src='jspsych/CFDfaces/CFD-LF-239-148-N.jpg'height=""250px""></br><b>Tara</b>",0,6,IntactOrRearranged,Practice,"""","""","""","""",CFD-LF-239-148-N.jpg,Tara,0,"""","""",0,"""",4/19/2021 20:04,64.237.91.215,Mozilla/5.0 (Windows NT 10.0; Win64; x64; rv:87.0) Gecko/20100101 Firefox/87.0,,Firefox,87,Windows,10
29,1,1583,"""",html-slider-response,69,173649,0.0-69.0,"""","<img src='jspsych/CFDfaces/CFD-LF-239-148-N.jpg'height=""250px""></br><b>Tara</b>","""",6,ConfidenceQuery,Practice,"""","""","""","""",CFD-WM-006-002-N.jpg,Jesse,0,0,67,"""","""",4/19/2021 20:04,64.237.91.215,Mozilla/5.0 (Windows NT 10.0; Win64; x64; rv:87.0) Gecko/20100101 Firefox/87.0,,Firefox,87,Windows,10
29,1,1439,"""",html-button-response,70,175090,0.0-70.0,"""",You are Correct. You called an Intact Pair Intact,0,6,feedback,Practice,"""","""","""","""","""","""","""","""","""","""","""",4/19/2021 20:04,64.237.91.215,Mozilla/5.0 (Windows NT 10.0; Win64; x64; rv:87.0) Gecko/20100101 Firefox/87.0,,Firefox,87,Windows,10
29,1,null,"""",html-keyboard-response,71,176092,0.0-71.0,"""","<div style=""font-size:60px;"">+</div>","""",7,ITI,Practice,null,1000,"""","""","""","""","""","""","""","""","""",4/19/2021 20:04,64.237.91.215,Mozilla/5.0 (Windows NT 10.0; Win64; x64; rv:87.0) Gecko/20100101 Firefox/87.0,,Firefox,87,Windows,10
29,1,null,"""",image-keyboard-response,72,176355,0.0-72.0,"""",jspsych/scrambledDisgustFaces/scrambledAF31DIS.JPG,"""",7,forwardMask,Practice,null,250,"""",d,"""","""","""","""","""","""","""",4/19/2021 20:04,64.237.91.215,Mozilla/5.0 (Windows NT 10.0; Win64; x64; rv:87.0) Gecko/20100101 Firefox/87.0,,Firefox,87,Windows,10
29,1,null,"""",image-keyboard-response,73,176387,0.0-73.0,"""",jspsych/disgustFaces/AF31DIS.JPG,"""",7,Cue,Practice,null,16,"""","""","""","""","""","""","""","""","""",4/19/2021 20:04,64.237.91.215,Mozilla/5.0 (Windows NT 10.0; Win64; x64; rv:87.0) Gecko/20100101 Firefox/87.0,,Firefox,87,Windows,10
29,1,null,"""",image-keyboard-response,74,176493,0.0-74.0,"""",jspsych/neutralFaces/AF02NES.JPG,"""",7,backwardMask,Practice,null,100,"""","""","""","""","""","""","""","""","""",4/19/2021 20:04,64.237.91.215,Mozilla/5.0 (Windows NT 10.0; Win64; x64; rv:87.0) Gecko/20100101 Firefox/87.0,,Firefox,87,Windows,10
29,1,null,"""",html-keyboard-response,75,177503,0.0-75.0,"""","<div style=""font-size:60px;"">+</div>","""",7,fixationBtwnNeutralMaskAndPrompt,Practice,null,1000,"""","""","""","""","""","""","""","""","""",4/19/2021 20:04,64.237.91.215,Mozilla/5.0 (Windows NT 10.0; Win64; x64; rv:87.0) Gecko/20100101 Firefox/87.0,,Firefox,87,Windows,10
29,1,1361,"""",html-button-response,76,178866,0.0-76.0,"""","<img src='jspsych/CFDfaces/CFD-LM-225-130-N.jpg'height=""250px""></br><b>Patrick</b>",0,7,IntactOrRearranged,Practice,"""","""","""","""",CFD-LM-225-130-N.jpg,Patrick,0,"""","""",0,"""",4/19/2021 20:04,64.237.91.215,Mozilla/5.0 (Windows NT 10.0; Win64; x64; rv:87.0) Gecko/20100101 Firefox/87.0,,Firefox,87,Windows,10
29,1,2101,"""",html-slider-response,77,180968,0.0-77.0,"""","<img src='jspsych/CFDfaces/CFD-LM-225-130-N.jpg'height=""250px""></br><b>Patrick</b>","""",7,ConfidenceQuery,Practice,"""","""","""","""",CFD-WM-006-002-N.jpg,Jesse,0,0,100,"""","""",4/19/2021 20:04,64.237.91.215,Mozilla/5.0 (Windows NT 10.0; Win64; x64; rv:87.0) Gecko/20100101 Firefox/87.0,,Firefox,87,Windows,10
29,1,910,"""",html-button-response,78,181879,0.0-78.0,"""",You are Correct. You called an Intact Pair Intact,0,7,feedback,Practice,"""","""","""","""","""","""","""","""","""","""","""",4/19/2021 20:04,64.237.91.215,Mozilla/5.0 (Windows NT 10.0; Win64; x64; rv:87.0) Gecko/20100101 Firefox/87.0,,Firefox,87,Windows,10
29,1,null,"""",html-keyboard-response,79,182888,0.0-79.0,"""","<div style=""font-size:60px;"">+</div>","""",8,ITI,Practice,null,1000,"""","""","""","""","""","""","""","""","""",4/19/2021 20:04,64.237.91.215,Mozilla/5.0 (Windows NT 10.0; Win64; x64; rv:87.0) Gecko/20100101 Firefox/87.0,,Firefox,87,Windows,10
29,1,null,"""",image-keyboard-response,80,183155,0.0-80.0,"""",jspsych/scrambledDisgustFaces/scrambledBM13DIS.JPG,"""",8,forwardMask,Practice,null,250,"""",d,"""","""","""","""","""","""","""",4/19/2021 20:04,64.237.91.215,Mozilla/5.0 (Windows NT 10.0; Win64; x64; rv:87.0) Gecko/20100101 Firefox/87.0,,Firefox,87,Windows,10
29,1,null,"""",image-keyboard-response,81,183186,0.0-81.0,"""",jspsych/disgustFaces/BM14DIS.JPG,"""",8,Cue,Practice,null,16,"""","""","""","""","""","""","""","""","""",4/19/2021 20:04,64.237.91.215,Mozilla/5.0 (Windows NT 10.0; Win64; x64; rv:87.0) Gecko/20100101 Firefox/87.0,,Firefox,87,Windows,10
29,1,null,"""",image-keyboard-response,82,183297,0.0-82.0,"""",jspsych/neutralFaces/AM26NES.JPG,"""",8,backwardMask,Practice,null,100,"""","""","""","""","""","""","""","""","""",4/19/2021 20:04,64.237.91.215,Mozilla/5.0 (Windows NT 10.0; Win64; x64; rv:87.0) Gecko/20100101 Firefox/87.0,,Firefox,87,Windows,10
29,1,null,"""",html-keyboard-response,83,184303,0.0-83.0,"""","<div style=""font-size:60px;"">+</div>","""",8,fixationBtwnNeutralMaskAndPrompt,Practice,null,1000,"""","""","""","""","""","""","""","""","""",4/19/2021 20:04,64.237.91.215,Mozilla/5.0 (Windows NT 10.0; Win64; x64; rv:87.0) Gecko/20100101 Firefox/87.0,,Firefox,87,Windows,10
29,1,1613,"""",html-button-response,84,185916,0.0-84.0,"""","<img src='jspsych/CFDfaces/CFD-AM-213-056-N.jpg'height=""250px""></br><b>Carlos</b>",0,8,IntactOrRearranged,Practice,"""","""","""","""",CFD-AM-213-056-N.jpg,Carlos,1,"""","""",0,"""",4/19/2021 20:04,64.237.91.215,Mozilla/5.0 (Windows NT 10.0; Win64; x64; rv:87.0) Gecko/20100101 Firefox/87.0,,Firefox,87,Windows,10
29,1,2497,"""",html-slider-response,85,188414,0.0-85.0,"""","<img src='jspsych/CFDfaces/CFD-AM-213-056-N.jpg'height=""250px""></br><b>Carlos</b>","""",8,ConfidenceQuery,Practice,"""","""","""","""",CFD-WM-006-002-N.jpg,Jesse,1,0,73,"""","""",4/19/2021 20:04,64.237.91.215,Mozilla/5.0 (Windows NT 10.0; Win64; x64; rv:87.0) Gecko/20100101 Firefox/87.0,,Firefox,87,Windows,10
29,1,1706,"""",html-button-response,86,190122,0.0-86.0,"""",You are Incorrect. You called a Rearranged Pair Intact,0,8,feedback,Practice,"""","""","""","""","""","""","""","""","""","""","""",4/19/2021 20:04,64.237.91.215,Mozilla/5.0 (Windows NT 10.0; Win64; x64; rv:87.0) Gecko/20100101 Firefox/87.0,,Firefox,87,Windows,10
29,1,2891,"""",image-button-response,87,193016,0.0-87.0,"""",directionsMemoryAssociation3.JPG,0,128,DirectionsBeforeActualTEst,Break,"""","""","""","""","""","""","""","""","""","""","""",4/19/2021 20:04,64.237.91.215,Mozilla/5.0 (Windows NT 10.0; Win64; x64; rv:87.0) Gecko/20100101 Firefox/87.0,,Firefox,87,Windows,10
29,1,58041,"""",image-button-response,88,251058,0.0-88.0,"""",directionsForTest2.JPG,0,1,directionsForTest2,break,"""","""","""","""","""","""","""","""","""","""","""",4/19/2021 20:04,64.237.91.215,Mozilla/5.0 (Windows NT 10.0; Win64; x64; rv:87.0) Gecko/20100101 Firefox/87.0,,Firefox,87,Windows,10
29,1,28114,"""",html-button-response,89,279177,0.0-89.0,"""","<p>You will be asked to memorize and then recall four sets of face-name pairs. </p> <p> Each set will have 32 pairs. </p> <p>After the fourth set, there will be a brief follow-up experiment (<40 min alltogether)</p>",0,"""","""","""","""","""","""","""","""","""","""","""","""","""","""",4/19/2021 20:04,64.237.91.215,Mozilla/5.0 (Windows NT 10.0; Win64; x64; rv:87.0) Gecko/20100101 Firefox/87.0,,Firefox,87,Windows,10
29,1,2381,"""",html-keyboard-response,90,284187,0.0-90.0,"""","<img src='jspsych/CFDfaces/CFD-WM-003-002-N.jpg' height=""250px""></br><b>Richard</b>","""",256,IntactFace,Memorization,78,5000,n,"""",CFD-AM-221-184-N.jpg,Travis,0,"""","""","""",1,4/19/2021 20:04,64.237.91.215,Mozilla/5.0 (Windows NT 10.0; Win64; x64; rv:87.0) Gecko/20100101 Firefox/87.0,,Firefox,87,Windows,10
29,1,null,"""",html-keyboard-response,91,284690,0.0-91.0,"""","<div style=""font-size:60px;"">+</div>","""",256,fixation,Memorization,null,500,"""","""","""","""","""","""","""","""",1,4/19/2021 20:04,64.237.91.215,Mozilla/5.0 (Windows NT 10.0; Win64; x64; rv:87.0) Gecko/20100101 Firefox/87.0,,Firefox,87,Windows,10
29,1,1137,"""",html-keyboard-response,92,289691,0.0-92.0,"""","<img src='jspsych/CFDfaces/CFD-BF-021-013-N.jpg' height=""250px""></br><b>Elizabeth</b>","""",256,IntactFace,Memorization,78,5000,n,"""",CFD-LM-233-171-N.jpg,Jacob,0,"""","""","""",1,4/19/2021 20:04,64.237.91.215,Mozilla/5.0 (Windows NT 10.0; Win64; x64; rv:87.0) Gecko/20100101 Firefox/87.0,,Firefox,87,Windows,10
29,1,null,"""",html-keyboard-response,93,290196,0.0-93.0,"""","<div style=""font-size:60px;"">+</div>","""",256,fixation,Memorization,null,500,"""","""","""","""","""","""","""","""",1,4/19/2021 20:04,64.237.91.215,Mozilla/5.0 (Windows NT 10.0; Win64; x64; rv:87.0) Gecko/20100101 Firefox/87.0,,Firefox,87,Windows,10
29,1,1809,"""",html-keyboard-response,94,295200,0.0-94.0,"""","<img src='jspsych/CFDfaces/CFD-AM-220-134-N.jpg' height=""250px""></br><b>Christian</b>","""",256,IntactFace,Memorization,70,5000,f,"""",CFD-AM-211-052-N.jpg,Jeremy,0,"""","""","""",1,4/19/2021 20:04,64.237.91.215,Mozilla/5.0 (Windows NT 10.0; Win64; x64; rv:87.0) Gecko/20100101 Firefox/87.0,,Firefox,87,Windows,10
29,1,null,"""",html-keyboard-response,95,295714,0.0-95.0,"""","<div style=""font-size:60px;"">+</div>","""",256,fixation,Memorization,null,500,"""","""","""","""","""","""","""","""",1,4/19/2021 20:04,64.237.91.215,Mozilla/5.0 (Windows NT 10.0; Win64; x64; rv:87.0) Gecko/20100101 Firefox/87.0,,Firefox,87,Windows,10
29,1,1378,"""",html-keyboard-response,96,300723,0.0-96.0,"""","<img src='jspsych/CFDfaces/CFD-AM-248-104-N.jpg' height=""250px""></br><b>Robert</b>","""",256,IntactFace,Memorization,78,5000,n,"""",CFD-BM-002-013-N.jpg,Cameron,0,"""","""","""",1,4/19/2021 20:04,64.237.91.215,Mozilla/5.0 (Windows NT 10.0; Win64; x64; rv:87.0) Gecko/20100101 Firefox/87.0,,Firefox,87,Windows,10
29,1,null,"""",html-keyboard-response,97,301228,0.0-97.0,"""","<div style=""font-size:60px;"">+</div>","""",256,fixation,Memorization,null,500,"""","""","""","""","""","""","""","""",1,4/19/2021 20:04,64.237.91.215,Mozilla/5.0 (Windows NT 10.0; Win64; x64; rv:87.0) Gecko/20100101 Firefox/87.0,,Firefox,87,Windows,10
29,1,1268,"""",html-keyboard-response,98,306240,0.0-98.0,"""","<img src='jspsych/CFDfaces/CFD-AF-237-223-N.jpg' height=""250px""></br><b>Vanessa</b>","""",256,IntactFace,Memorization,70,5000,f,"""",CFD-AM-214-168-N.jpg,Vincent,0,"""","""","""",1,4/19/2021 20:04,64.237.91.215,Mozilla/5.0 (Windows NT 10.0; Win64; x64; rv:87.0) Gecko/20100101 Firefox/87.0,,Firefox,87,Windows,10
29,1,null,"""",html-keyboard-response,99,306746,0.0-99.0,"""","<div style=""font-size:60px;"">+</div>","""",256,fixation,Memorization,null,500,"""","""","""","""","""","""","""","""",1,4/19/2021 20:04,64.237.91.215,Mozilla/5.0 (Windows NT 10.0; Win64; x64; rv:87.0) Gecko/20100101 Firefox/87.0,,Firefox,87,Windows,10
29,1,1333,"""",html-keyboard-response,100,311753,0.0-100.0,"""","<img src='jspsych/CFDfaces/CFD-AF-239-171-N.jpg' height=""250px""></br><b>Meghan</b>","""",256,IntactFace,Memorization,70,5000,f,"""",CFD-AM-230-150-N.jpg,Austin,0,"""","""","""",1,4/19/2021 20:04,64.237.91.215,Mozilla/5.0 (Windows NT 10.0; Win64; x64; rv:87.0) Gecko/20100101 Firefox/87.0,,Firefox,87,Windows,10
29,1,null,"""",html-keyboard-response,101,312262,0.0-101.0,"""","<div style=""font-size:60px;"">+</div>","""",256,fixation,Memorization,null,500,"""","""","""","""","""","""","""","""",1,4/19/2021 20:04,64.237.91.215,Mozilla/5.0 (Windows NT 10.0; Win64; x64; rv:87.0) Gecko/20100101 Firefox/87.0,,Firefox,87,Windows,10
29,1,1231,"""",html-keyboard-response,102,317272,0.0-102.0,"""","<img src='jspsych/CFDfaces/CFD-BF-201-080-N.jpg' height=""250px""></br><b>Kimberly</b>","""",256,IntactFace,Memorization,78,5000,n,"""",CFD-BF-009-002-N.jpg,Erin,0,"""","""","""",1,4/19/2021 20:04,64.237.91.215,Mozilla/5.0 (Windows NT 10.0; Win64; x64; rv:87.0) Gecko/20100101 Firefox/87.0,,Firefox,87,Windows,10
29,1,null,"""",html-keyboard-response,103,317773,0.0-103.0,"""","<div style=""font-size:60px;"">+</div>","""",256,fixation,Memorization,null,500,"""","""","""","""","""","""","""","""",1,4/19/2021 20:04,64.237.91.215,Mozilla/5.0 (Windows NT 10.0; Win64; x64; rv:87.0) Gecko/20100101 Firefox/87.0,,Firefox,87,Windows,10
29,1,1426,"""",html-keyboard-response,104,322788,0.0-104.0,"""","<img src='jspsych/CFDfaces/CFD-BM-018-001-N.jpg' height=""250px""></br><b>Nicholas</b>","""",256,IntactFace,Memorization,78,5000,n,"""",CFD-BF-019-001-N.jpg,Tiffany,0,"""","""","""",1,4/19/2021 20:04,64.237.91.215,Mozilla/5.0 (Windows NT 10.0; Win64; x64; rv:87.0) Gecko/20100101 Firefox/87.0,,Firefox,87,Windows,10
29,1,null,"""",html-keyboard-response,105,323292,0.0-105.0,"""","<div style=""font-size:60px;"">+</div>","""",256,fixation,Memorization,null,500,"""","""","""","""","""","""","""","""",1,4/19/2021 20:04,64.237.91.215,Mozilla/5.0 (Windows NT 10.0; Win64; x64; rv:87.0) Gecko/20100101 Firefox/87.0,,Firefox,87,Windows,10
29,1,1060,"""",html-keyboard-response,106,328294,0.0-106.0,"""","<img src='jspsych/CFDfaces/CFD-WF-018-017-N.jpg' height=""250px""></br><b>Christina</b>","""",256,IntactFace,Memorization,70,5000,f,"""",CFD-WF-006-002-N.jpg,Whitney,0,"""","""","""",1,4/19/2021 20:04,64.237.91.215,Mozilla/5.0 (Windows NT 10.0; Win64; x64; rv:87.0) Gecko/20100101 Firefox/87.0,,Firefox,87,Windows,10
29,1,null,"""",html-keyboard-response,107,328797,0.0-107.0,"""","<div style=""font-size:60px;"">+</div>","""",256,fixation,Memorization,null,500,"""","""","""","""","""","""","""","""",1,4/19/2021 20:04,64.237.91.215,Mozilla/5.0 (Windows NT 10.0; Win64; x64; rv:87.0) Gecko/20100101 Firefox/87.0,,Firefox,87,Windows,10
29,1,918,"""",html-keyboard-response,108,333812,0.0-108.0,"""","<img src='jspsych/CFDfaces/CFD-BM-032-024-N.jpg' height=""250px""></br><b>Brandon</b>","""",256,IntactFace,Memorization,78,5000,n,"""",CFD-WF-204-038-N.jpg,Laura,0,"""","""","""",1,4/19/2021 20:04,64.237.91.215,Mozilla/5.0 (Windows NT 10.0; Win64; x64; rv:87.0) Gecko/20100101 Firefox/87.0,,Firefox,87,Windows,10
29,1,null,"""",html-keyboard-response,109,334315,0.0-109.0,"""","<div style=""font-size:60px;"">+</div>","""",256,fixation,Memorization,null,500,"""","""","""","""","""","""","""","""",1,4/19/2021 20:04,64.237.91.215,Mozilla/5.0 (Windows NT 10.0; Win64; x64; rv:87.0) Gecko/20100101 Firefox/87.0,,Firefox,87,Windows,10
29,1,2227,"""",html-keyboard-response,110,339329,0.0-110.0,"""","<img src='jspsych/CFDfaces/CFD-WF-205-006-N.jpg' height=""250px""></br><b>Andrea</b>","""",256,IntactFace,Memorization,78,5000,n,"""",CFD-WM-213-076-N.jpg,Steven,0,"""","""","""",1,4/19/2021 20:04,64.237.91.215,Mozilla/5.0 (Windows NT 10.0; Win64; x64; rv:87.0) Gecko/20100101 Firefox/87.0,,Firefox,87,Windows,10
29,1,null,"""",html-keyboard-response,111,339834,0.0-111.0,"""","<div style=""font-size:60px;"">+</div>","""",256,fixation,Memorization,null,500,"""","""","""","""","""","""","""","""",1,4/19/2021 20:04,64.237.91.215,Mozilla/5.0 (Windows NT 10.0; Win64; x64; rv:87.0) Gecko/20100101 Firefox/87.0,,Firefox,87,Windows,10
29,1,2197,"""",html-keyboard-response,112,344838,0.0-112.0,"""","<img src='jspsych/CFDfaces/CFD-WM-207-048-N.jpg' height=""250px""></br><b>Ian</b>","""",256,IntactFace,Memorization,78,5000,n,"""",CFD-LF-213-079-N.jpg,Lauren,0,"""","""","""",1,4/19/2021 20:04,64.237.91.215,Mozilla/5.0 (Windows NT 10.0; Win64; x64; rv:87.0) Gecko/20100101 Firefox/87.0,,Firefox,87,Windows,10
29,1,null,"""",html-keyboard-response,113,345355,0.0-113.0,"""","<div style=""font-size:60px;"">+</div>","""",256,fixation,Memorization,null,500,"""","""","""","""","""","""","""","""",1,4/19/2021 20:04,64.237.91.215,Mozilla/5.0 (Windows NT 10.0; Win64; x64; rv:87.0) Gecko/20100101 Firefox/87.0,,Firefox,87,Windows,10
29,1,2477,"""",html-keyboard-response,114,350370,0.0-114.0,"""","<img src='jspsych/CFDfaces/CFD-AF-226-251-N.jpg' height=""250px""></br><b>Victoria</b>","""",256,IntactFace,Memorization,70,5000,f,"""",CFD-BM-026-002-N.jpg,Kenneth,0,"""","""","""",1,4/19/2021 20:04,64.237.91.215,Mozilla/5.0 (Windows NT 10.0; Win64; x64; rv:87.0) Gecko/20100101 Firefox/87.0,,Firefox,87,Windows,10
29,1,null,"""",html-keyboard-response,115,350885,0.0-115.0,"""","<div style=""font-size:60px;"">+</div>","""",256,fixation,Memorization,null,500,"""","""","""","""","""","""","""","""",1,4/19/2021 20:04,64.237.91.215,Mozilla/5.0 (Windows NT 10.0; Win64; x64; rv:87.0) Gecko/20100101 Firefox/87.0,,Firefox,87,Windows,10
29,1,1089,"""",html-keyboard-response,116,355886,0.0-116.0,"""","<img src='jspsych/CFDfaces/CFD-BF-001-025-N.jpg' height=""250px""></br><b>Julie</b>","""",256,IntactFace,Memorization,78,5000,n,"""",CFD-LF-218-072-N.jpg,Melissa,0,"""","""","""",1,4/19/2021 20:04,64.237.91.215,Mozilla/5.0 (Windows NT 10.0; Win64; x64; rv:87.0) Gecko/20100101 Firefox/87.0,,Firefox,87,Windows,10
29,1,null,"""",html-keyboard-response,117,356402,0.0-117.0,"""","<div style=""font-size:60px;"">+</div>","""",256,fixation,Memorization,null,500,"""","""","""","""","""","""","""","""",1,4/19/2021 20:04,64.237.91.215,Mozilla/5.0 (Windows NT 10.0; Win64; x64; rv:87.0) Gecko/20100101 Firefox/87.0,,Firefox,87,Windows,10
29,1,1510,"""",html-keyboard-response,118,361412,0.0-118.0,"""","<img src='jspsych/CFDfaces/CFD-AF-241-141-N.jpg' height=""250px""></br><b>Samantha</b>","""",256,IntactFace,Memorization,78,5000,n,"""",CFD-BM-029-024-N.jpg,Justin,0,"""","""","""",1,4/19/2021 20:04,64.237.91.215,Mozilla/5.0 (Windows NT 10.0; Win64; x64; rv:87.0) Gecko/20100101 Firefox/87.0,,Firefox,87,Windows,10
29,1,null,"""",html-keyboard-response,119,361918,0.0-119.0,"""","<div style=""font-size:60px;"">+</div>","""",256,fixation,Memorization,null,500,"""","""","""","""","""","""","""","""",1,4/19/2021 20:04,64.237.91.215,Mozilla/5.0 (Windows NT 10.0; Win64; x64; rv:87.0) Gecko/20100101 Firefox/87.0,,Firefox,87,Windows,10
29,1,1222,"""",html-keyboard-response,120,366922,0.0-120.0,"""","<img src='jspsych/CFDfaces/CFD-LF-215-157-N.jpg' height=""250px""></br><b>Kayla</b>","""",256,IntactFace,Memorization,70,5000,f,"""",CFD-LF-232-199-N.jpg,Jasmine,0,"""","""","""",1,4/19/2021 20:04,64.237.91.215,Mozilla/5.0 (Windows NT 10.0; Win64; x64; rv:87.0) Gecko/20100101 Firefox/87.0,,Firefox,87,Windows,10
29,1,null,"""",html-keyboard-response,121,367427,0.0-121.0,"""","<div style=""font-size:60px;"">+</div>","""",256,fixation,Memorization,null,500,"""","""","""","""","""","""","""","""",1,4/19/2021 20:04,64.237.91.215,Mozilla/5.0 (Windows NT 10.0; Win64; x64; rv:87.0) Gecko/20100101 Firefox/87.0,,Firefox,87,Windows,10
29,1,1906,"""",html-keyboard-response,122,372427,0.0-122.0,"""","<img src='jspsych/CFDfaces/CFD-LF-243-175-N.jpg' height=""250px""></br><b>Amanda</b>","""",256,IntactFace,Memorization,78,5000,n,"""",CFD-LF-205-100-N.jpg,Amy,0,"""","""","""",1,4/19/2021 20:04,64.237.91.215,Mozilla/5.0 (Windows NT 10.0; Win64; x64; rv:87.0) Gecko/20100101 Firefox/87.0,,Firefox,87,Windows,10
29,1,null,"""",html-keyboard-response,123,372932,0.0-123.0,"""","<div style=""font-size:60px;"">+</div>","""",256,fixation,Memorization,null,500,"""","""","""","""","""","""","""","""",1,4/19/2021 20:04,64.237.91.215,Mozilla/5.0 (Windows NT 10.0; Win64; x64; rv:87.0) Gecko/20100101 Firefox/87.0,,Firefox,87,Windows,10
29,1,3344,"""",html-keyboard-response,124,377934,0.0-124.0,"""","<img src='jspsych/CFDfaces/CFD-LM-248-089-N.jpg' height=""250px""></br><b>Daniel</b>","""",256,IntactFace,Memorization,70,5000,f,"""",CFD-BM-010-003-N.jpg,Sean,0,"""","""","""",1,4/19/2021 20:04,64.237.91.215,Mozilla/5.0 (Windows NT 10.0; Win64; x64; rv:87.0) Gecko/20100101 Firefox/87.0,,Firefox,87,Windows,10
29,1,null,"""",html-keyboard-response,125,378439,0.0-125.0,"""","<div style=""font-size:60px;"">+</div>","""",256,fixation,Memorization,null,500,"""","""","""","""","""","""","""","""",1,4/19/2021 20:04,64.237.91.215,Mozilla/5.0 (Windows NT 10.0; Win64; x64; rv:87.0) Gecko/20100101 Firefox/87.0,,Firefox,87,Windows,10
29,1,1186,"""",html-keyboard-response,126,383450,0.0-126.0,"""","<img src='jspsych/CFDfaces/CFD-AF-233-190-N.jpg' height=""250px""></br><b>Emily</b>","""",256,IntactFace,Memorization,70,5000,f,"""",CFD-BM-041-035-N.jpg,Jesse,0,"""","""","""",1,4/19/2021 20:04,64.237.91.215,Mozilla/5.0 (Windows NT 10.0; Win64; x64; rv:87.0) Gecko/20100101 Firefox/87.0,,Firefox,87,Windows,10
29,1,null,"""",html-keyboard-response,127,383956,0.0-127.0,"""","<div style=""font-size:60px;"">+</div>","""",256,fixation,Memorization,null,500,"""","""","""","""","""","""","""","""",1,4/19/2021 20:04,64.237.91.215,Mozilla/5.0 (Windows NT 10.0; Win64; x64; rv:87.0) Gecko/20100101 Firefox/87.0,,Firefox,87,Windows,10
29,1,1466,"""",html-keyboard-response,128,388965,0.0-128.0,"""","<img src='jspsych/CFDfaces/CFD-WF-220-101-N.jpg' height=""250px""></br><b>Stephanie</b>","""",256,IntactFace,Memorization,70,5000,f,"""",CFD-AF-243-170-N.jpg,Sara,0,"""","""","""",1,4/19/2021 20:04,64.237.91.215,Mozilla/5.0 (Windows NT 10.0; Win64; x64; rv:87.0) Gecko/20100101 Firefox/87.0,,Firefox,87,Windows,10
29,1,null,"""",html-keyboard-response,129,389469,0.0-129.0,"""","<div style=""font-size:60px;"">+</div>","""",256,fixation,Memorization,null,500,"""","""","""","""","""","""","""","""",1,4/19/2021 20:04,64.237.91.215,Mozilla/5.0 (Windows NT 10.0; Win64; x64; rv:87.0) Gecko/20100101 Firefox/87.0,,Firefox,87,Windows,10
29,1,1686,"""",html-keyboard-response,130,394481,0.0-130.0,"""","<img src='jspsych/CFDfaces/CFD-AF-235-170-N.jpg' height=""250px""></br><b>Brittany</b>","""",256,IntactFace,Memorization,70,5000,f,"""",CFD-WM-022-001-N.jpg,Ryan,0,"""","""","""",1,4/19/2021 20:04,64.237.91.215,Mozilla/5.0 (Windows NT 10.0; Win64; x64; rv:87.0) Gecko/20100101 Firefox/87.0,,Firefox,87,Windows,10
29,1,null,"""",html-keyboard-response,131,394983,0.0-131.0,"""","<div style=""font-size:60px;"">+</div>","""",256,fixation,Memorization,null,500,"""","""","""","""","""","""","""","""",1,4/19/2021 20:04,64.237.91.215,Mozilla/5.0 (Windows NT 10.0; Win64; x64; rv:87.0) Gecko/20100101 Firefox/87.0,,Firefox,87,Windows,10
29,1,1781,"""",html-keyboard-response,132,399996,0.0-132.0,"""","<img src='jspsych/CFDfaces/CFD-BM-208-065-N.jpg' height=""250px""></br><b>Jason</b>","""",256,IntactFace,Memorization,78,5000,n,"""",CFD-WF-207-014-N.jpg,Lindsey,0,"""","""","""",1,4/19/2021 20:04,64.237.91.215,Mozilla/5.0 (Windows NT 10.0; Win64; x64; rv:87.0) Gecko/20100101 Firefox/87.0,,Firefox,87,Windows,10
29,1,null,"""",html-keyboard-response,133,400514,0.0-133.0,"""","<div style=""font-size:60px;"">+</div>","""",256,fixation,Memorization,null,500,"""","""","""","""","""","""","""","""",1,4/19/2021 20:04,64.237.91.215,Mozilla/5.0 (Windows NT 10.0; Win64; x64; rv:87.0) Gecko/20100101 Firefox/87.0,,Firefox,87,Windows,10
29,1,2278,"""",html-keyboard-response,134,405529,0.0-134.0,"""","<img src='jspsych/CFDfaces/CFD-WM-237-052-N.jpg' height=""250px""></br><b>Jeffrey</b>","""",256,IntactFace,Memorization,70,5000,f,"""",CFD-BF-016-017-N.jpg,Jenna,0,"""","""","""",1,4/19/2021 20:04,64.237.91.215,Mozilla/5.0 (Windows NT 10.0; Win64; x64; rv:87.0) Gecko/20100101 Firefox/87.0,,Firefox,87,Windows,10
29,1,null,"""",html-keyboard-response,135,406031,0.0-135.0,"""","<div style=""font-size:60px;"">+</div>","""",256,fixation,Memorization,null,500,"""","""","""","""","""","""","""","""",1,4/19/2021 20:04,64.237.91.215,Mozilla/5.0 (Windows NT 10.0; Win64; x64; rv:87.0) Gecko/20100101 Firefox/87.0,,Firefox,87,Windows,10
29,1,1402,"""",html-keyboard-response,136,411040,0.0-136.0,"""","<img src='jspsych/CFDfaces/CFD-LM-239-075-N.jpg' height=""250px""></br><b>Eric</b>","""",256,IntactFace,Memorization,70,5000,f,"""",CFD-LF-201-035-N.jpg,Rebecca,0,"""","""","""",1,4/19/2021 20:04,64.237.91.215,Mozilla/5.0 (Windows NT 10.0; Win64; x64; rv:87.0) Gecko/20100101 Firefox/87.0,,Firefox,87,Windows,10
29,1,null,"""",html-keyboard-response,137,411545,0.0-137.0,"""","<div style=""font-size:60px;"">+</div>","""",256,fixation,Memorization,null,500,"""","""","""","""","""","""","""","""",1,4/19/2021 20:04,64.237.91.215,Mozilla/5.0 (Windows NT 10.0; Win64; x64; rv:87.0) Gecko/20100101 Firefox/87.0,,Firefox,87,Windows,10
29,1,2580,"""",html-keyboard-response,138,416546,0.0-138.0,"""","<img src='jspsych/CFDfaces/CFD-BF-023-010-N.jpg' height=""250px""></br><b>Michelle</b>","""",256,IntactFace,Memorization,70,5000,f,"""",CFD-WM-015-002-N.jpg,Dustin,0,"""","""","""",1,4/19/2021 20:04,64.237.91.215,Mozilla/5.0 (Windows NT 10.0; Win64; x64; rv:87.0) Gecko/20100101 Firefox/87.0,,Firefox,87,Windows,10
29,1,null,"""",html-keyboard-response,139,417060,0.0-139.0,"""","<div style=""font-size:60px;"">+</div>","""",256,fixation,Memorization,null,500,"""","""","""","""","""","""","""","""",1,4/19/2021 20:04,64.237.91.215,Mozilla/5.0 (Windows NT 10.0; Win64; x64; rv:87.0) Gecko/20100101 Firefox/87.0,,Firefox,87,Windows,10
29,1,1422,"""",html-keyboard-response,140,422070,0.0-140.0,"""","<img src='jspsych/CFDfaces/CFD-BM-210-148-N.jpg' height=""250px""></br><b>Peter</b>","""",256,IntactFace,Memorization,78,5000,n,"""",CFD-AF-240-206-N.jpg,Jordan,0,"""","""","""",1,4/19/2021 20:04,64.237.91.215,Mozilla/5.0 (Windows NT 10.0; Win64; x64; rv:87.0) Gecko/20100101 Firefox/87.0,,Firefox,87,Windows,10
29,1,null,"""",html-keyboard-response,141,422574,0.0-141.0,"""","<div style=""font-size:60px;"">+</div>","""",256,fixation,Memorization,null,500,"""","""","""","""","""","""","""","""",1,4/19/2021 20:04,64.237.91.215,Mozilla/5.0 (Windows NT 10.0; Win64; x64; rv:87.0) Gecko/20100101 Firefox/87.0,,Firefox,87,Windows,10
29,1,1794,"""",html-keyboard-response,142,427579,0.0-142.0,"""","<img src='jspsych/CFDfaces/CFD-BM-207-024-N.jpg' height=""250px""></br><b>Brian</b>","""",256,IntactFace,Memorization,78,5000,n,"""",CFD-BF-047-003-N.jpg,Taylor,0,"""","""","""",1,4/19/2021 20:04,64.237.91.215,Mozilla/5.0 (Windows NT 10.0; Win64; x64; rv:87.0) Gecko/20100101 Firefox/87.0,,Firefox,87,Windows,10
29,1,null,"""",html-keyboard-response,143,428085,0.0-143.0,"""","<div style=""font-size:60px;"">+</div>","""",256,fixation,Memorization,null,500,"""","""","""","""","""","""","""","""",1,4/19/2021 20:04,64.237.91.215,Mozilla/5.0 (Windows NT 10.0; Win64; x64; rv:87.0) Gecko/20100101 Firefox/87.0,,Firefox,87,Windows,10
29,1,2921,"""",html-keyboard-response,144,433090,0.0-144.0,"""","<img src='jspsych/CFDfaces/CFD-AM-202-079-N.jpg' height=""250px""></br><b>Juan</b>","""",256,IntactFace,Memorization,70,5000,f,"""",CFD-WM-006-002-N.jpg,Mark,0,"""","""","""",1,4/19/2021 20:04,64.237.91.215,Mozilla/5.0 (Windows NT 10.0; Win64; x64; rv:87.0) Gecko/20100101 Firefox/87.0,,Firefox,87,Windows,10
29,1,null,"""",html-keyboard-response,145,433604,0.0-145.0,"""","<div style=""font-size:60px;"">+</div>","""",256,fixation,Memorization,null,500,"""","""","""","""","""","""","""","""",1,4/19/2021 20:04,64.237.91.215,Mozilla/5.0 (Windows NT 10.0; Win64; x64; rv:87.0) Gecko/20100101 Firefox/87.0,,Firefox,87,Windows,10
29,1,1406,"""",html-keyboard-response,146,438611,0.0-146.0,"""","<img src='jspsych/CFDfaces/CFD-BM-039-029-N.jpg' height=""250px""></br><b>Joshua</b>","""",256,IntactFace,Memorization,78,5000,n,"""",CFD-WF-223-133-N.jpg,Angela,0,"""","""","""",1,4/19/2021 20:04,64.237.91.215,Mozilla/5.0 (Windows NT 10.0; Win64; x64; rv:87.0) Gecko/20100101 Firefox/87.0,,Firefox,87,Windows,10
29,1,null,"""",html-keyboard-response,147,439114,0.0-147.0,"""","<div style=""font-size:60px;"">+</div>","""",256,fixation,Memorization,null,500,"""","""","""","""","""","""","""","""",1,4/19/2021 20:04,64.237.91.215,Mozilla/5.0 (Windows NT 10.0; Win64; x64; rv:87.0) Gecko/20100101 Firefox/87.0,,Firefox,87,Windows,10
29,1,2385,"""",html-keyboard-response,148,444122,0.0-148.0,"""","<img src='jspsych/CFDfaces/CFD-WM-041-021-N.jpg' height=""250px""></br><b>James</b>","""",256,IntactFace,Memorization,70,5000,f,"""",CFD-AM-212-050-N.jpg,Timothy,0,"""","""","""",1,4/19/2021 20:04,64.237.91.215,Mozilla/5.0 (Windows NT 10.0; Win64; x64; rv:87.0) Gecko/20100101 Firefox/87.0,,Firefox,87,Windows,10
29,1,null,"""",html-keyboard-response,149,444628,0.0-149.0,"""","<div style=""font-size:60px;"">+</div>","""",256,fixation,Memorization,null,500,"""","""","""","""","""","""","""","""",1,4/19/2021 20:04,64.237.91.215,Mozilla/5.0 (Windows NT 10.0; Win64; x64; rv:87.0) Gecko/20100101 Firefox/87.0,,Firefox,87,Windows,10
29,1,1620,"""",html-keyboard-response,150,449635,0.0-150.0,"""","<img src='jspsych/CFDfaces/CFD-WM-212-097-N.jpg' height=""250px""></br><b>Gregory</b>","""",256,IntactFace,Memorization,70,5000,f,"""",CFD-AM-246-184-N.jpg,Luis,0,"""","""","""",1,4/19/2021 20:04,64.237.91.215,Mozilla/5.0 (Windows NT 10.0; Win64; x64; rv:87.0) Gecko/20100101 Firefox/87.0,,Firefox,87,Windows,10
29,1,null,"""",html-keyboard-response,151,450151,0.0-151.0,"""","<div style=""font-size:60px;"">+</div>","""",256,fixation,Memorization,null,500,"""","""","""","""","""","""","""","""",1,4/19/2021 20:04,64.237.91.215,Mozilla/5.0 (Windows NT 10.0; Win64; x64; rv:87.0) Gecko/20100101 Firefox/87.0,,Firefox,87,Windows,10
29,1,2572,"""",html-keyboard-response,152,455162,0.0-152.0,"""","<img src='jspsych/CFDfaces/CFD-BF-218-207-N.jpg' height=""250px""></br><b>Ashley</b>","""",256,IntactFace,Memorization,78,5000,n,"""",CFD-WF-217-085-N.jpg,Heather,0,"""","""","""",1,4/19/2021 20:04,64.237.91.215,Mozilla/5.0 (Windows NT 10.0; Win64; x64; rv:87.0) Gecko/20100101 Firefox/87.0,,Firefox,87,Windows,10
29,1,null,"""",html-keyboard-response,153,455666,0.0-153.0,"""","<div style=""font-size:60px;"">+</div>","""",256,fixation,Memorization,null,500,"""","""","""","""","""","""","""","""",1,4/19/2021 20:04,64.237.91.215,Mozilla/5.0 (Windows NT 10.0; Win64; x64; rv:87.0) Gecko/20100101 Firefox/87.0,,Firefox,87,Windows,10
29,1,2310,"""",html-keyboard-response,154,457975,0.0-154.0,"""",Press Any Key to Begin Memory Test,"""",1,welcomeScreen,Break,32,"""","""","""","""","""","""","""","""","""",1,4/19/2021 20:04,64.237.91.215,Mozilla/5.0 (Windows NT 10.0; Win64; x64; rv:87.0) Gecko/20100101 Firefox/87.0,,Firefox,87,Windows,10
29,1,null,"""",html-keyboard-response,155,458981,0.0-155.0,"""","<div style=""font-size:60px;"">+</div>","""",256,ITI,Test,null,1000,"""","""","""","""","""","""","""","""",1,4/19/2021 20:04,64.237.91.215,Mozilla/5.0 (Windows NT 10.0; Win64; x64; rv:87.0) Gecko/20100101 Firefox/87.0,,Firefox,87,Windows,10
29,1,null,"""",image-keyboard-response,156,459234,0.0-156.0,"""",jspsych/scrambledDisgustFaces/scrambledBF19DIS.JPG,"""",256,forwardMask,Test,null,250,"""",d,"""","""","""","""","""","""",1,4/19/2021 20:04,64.237.91.215,Mozilla/5.0 (Windows NT 10.0; Win64; x64; rv:87.0) Gecko/20100101 Firefox/87.0,,Firefox,87,Windows,10
29,1,null,"""",image-keyboard-response,157,459265,0.0-157.0,"""",jspsych/disgustFaces/BF19DIS.JPG,"""",256,Cue,Test,null,16,"""","""","""","""","""","""","""","""",1,4/19/2021 20:04,64.237.91.215,Mozilla/5.0 (Windows NT 10.0; Win64; x64; rv:87.0) Gecko/20100101 Firefox/87.0,,Firefox,87,Windows,10
29,1,null,"""",image-keyboard-response,158,459375,0.0-158.0,"""",jspsych/neutralFaces/AF17NES.JPG,"""",256,backwardMask,Test,null,100,"""","""","""","""","""","""","""","""",1,4/19/2021 20:04,64.237.91.215,Mozilla/5.0 (Windows NT 10.0; Win64; x64; rv:87.0) Gecko/20100101 Firefox/87.0,,Firefox,87,Windows,10
29,1,null,"""",html-keyboard-response,159,460377,0.0-159.0,"""","<div style=""font-size:60px;"">+</div>","""",256,fixationBtwnNeutralMaskAndPrompt,Test,null,1000,"""","""","""","""","""","""","""","""",1,4/19/2021 20:04,64.237.91.215,Mozilla/5.0 (Windows NT 10.0; Win64; x64; rv:87.0) Gecko/20100101 Firefox/87.0,,Firefox,87,Windows,10
29,1,2157,"""",html-button-response,160,462535,0.0-160.0,"""","<img src='jspsych/CFDfaces/CFD-BM-032-024-N.jpg' height=""250px"">,</br><b>Brandon</b>",0,256,IntactOrRearranged,Test,"""","""","""","""",CFD-WF-006-002-N.jpg,Whitney,0,"""","""",0,1,4/19/2021 20:04,64.237.91.215,Mozilla/5.0 (Windows NT 10.0; Win64; x64; rv:87.0) Gecko/20100101 Firefox/87.0,,Firefox,87,Windows,10
29,1,2985,"""",html-slider-response,161,465524,0.0-161.0,"""","<img src='jspsych/CFDfaces/CFD-BM-032-024-N.jpg' height=""250px"">,</br><b>Brandon</b>","""",256,ConfidenceQuery,Test,"""","""","""","""",CFD-WF-006-002-N.jpg,Whitney,0,0,76,"""",1,4/19/2021 20:04,64.237.91.215,Mozilla/5.0 (Windows NT 10.0; Win64; x64; rv:87.0) Gecko/20100101 Firefox/87.0,,Firefox,87,Windows,10
29,1,null,"""",html-keyboard-response,162,466526,0.0-162.0,"""","<div style=""font-size:60px;"">+</div>","""",256,ITI,Test,null,1000,"""","""","""","""","""","""","""","""",1,4/19/2021 20:04,64.237.91.215,Mozilla/5.0 (Windows NT 10.0; Win64; x64; rv:87.0) Gecko/20100101 Firefox/87.0,,Firefox,87,Windows,10
29,1,null,"""",image-keyboard-response,163,466781,0.0-163.0,"""",jspsych/scrambledNeutralFaces/scrambledAF26NES.JPG,"""",256,forwardMask,Test,null,250,"""",n,"""","""","""","""","""","""",1,4/19/2021 20:04,64.237.91.215,Mozilla/5.0 (Windows NT 10.0; Win64; x64; rv:87.0) Gecko/20100101 Firefox/87.0,,Firefox,87,Windows,10
29,1,null,"""",image-keyboard-response,164,466802,0.0-164.0,"""",jspsych/neutralFaces/AF26NES.JPG,"""",256,Cue,Test,null,16,"""","""","""","""","""","""","""","""",1,4/19/2021 20:04,64.237.91.215,Mozilla/5.0 (Windows NT 10.0; Win64; x64; rv:87.0) Gecko/20100101 Firefox/87.0,,Firefox,87,Windows,10
29,1,null,"""",image-keyboard-response,165,466918,0.0-165.0,"""",jspsych/neutralFaces/BF26NES.JPG,"""",256,backwardMask,Test,null,100,"""","""","""","""","""","""","""","""",1,4/19/2021 20:04,64.237.91.215,Mozilla/5.0 (Windows NT 10.0; Win64; x64; rv:87.0) Gecko/20100101 Firefox/87.0,,Firefox,87,Windows,10
29,1,null,"""",html-keyboard-response,166,467921,0.0-166.0,"""","<div style=""font-size:60px;"">+</div>","""",256,fixationBtwnNeutralMaskAndPrompt,Test,null,1000,"""","""","""","""","""","""","""","""",1,4/19/2021 20:04,64.237.91.215,Mozilla/5.0 (Windows NT 10.0; Win64; x64; rv:87.0) Gecko/20100101 Firefox/87.0,,Firefox,87,Windows,10
29,1,2787,"""",html-button-response,167,470712,0.0-167.0,"""","<img src='jspsych/CFDfaces/CFD-AF-239-171-N.jpg' height=""250px"">,</br><b>Meghan</b>",0,256,IntactOrRearranged,Test,"""","""","""","""",CFD-AF-243-170-N.jpg,Lauren,0,"""","""",0,1,4/19/2021 20:04,64.237.91.215,Mozilla/5.0 (Windows NT 10.0; Win64; x64; rv:87.0) Gecko/20100101 Firefox/87.0,,Firefox,87,Windows,10
29,1,2201,"""",html-slider-response,168,472914,0.0-168.0,"""","<img src='jspsych/CFDfaces/CFD-AF-239-171-N.jpg' height=""250px"">,</br><b>Meghan</b>","""",256,ConfidenceQuery,Test,"""","""","""","""",CFD-AF-243-170-N.jpg,Lauren,0,0,18,"""",1,4/19/2021 20:04,64.237.91.215,Mozilla/5.0 (Windows NT 10.0; Win64; x64; rv:87.0) Gecko/20100101 Firefox/87.0,,Firefox,87,Windows,10
29,1,null,"""",html-keyboard-response,169,473916,0.0-169.0,"""","<div style=""font-size:60px;"">+</div>","""",256,ITI,Test,null,1000,"""","""","""","""","""","""","""","""",1,4/19/2021 20:04,64.237.91.215,Mozilla/5.0 (Windows NT 10.0; Win64; x64; rv:87.0) Gecko/20100101 Firefox/87.0,,Firefox,87,Windows,10
29,1,null,"""",image-keyboard-response,170,474176,0.0-170.0,"""",jspsych/scrambledNeutralFaces/scrambledAF05NES.JPG,"""",256,forwardMask,Test,null,250,"""",n,"""","""","""","""","""","""",1,4/19/2021 20:04,64.237.91.215,Mozilla/5.0 (Windows NT 10.0; Win64; x64; rv:87.0) Gecko/20100101 Firefox/87.0,,Firefox,87,Windows,10
29,1,null,"""",image-keyboard-response,171,474207,0.0-171.0,"""",jspsych/neutralFaces/AF05NES.JPG,"""",256,Cue,Test,null,16,"""","""","""","""","""","""","""","""",1,4/19/2021 20:04,64.237.91.215,Mozilla/5.0 (Windows NT 10.0; Win64; x64; rv:87.0) Gecko/20100101 Firefox/87.0,,Firefox,87,Windows,10
29,1,null,"""",image-keyboard-response,172,474315,0.0-172.0,"""",jspsych/neutralFaces/BF23NES.JPG,"""",256,backwardMask,Test,null,100,"""","""","""","""","""","""","""","""",1,4/19/2021 20:04,64.237.91.215,Mozilla/5.0 (Windows NT 10.0; Win64; x64; rv:87.0) Gecko/20100101 Firefox/87.0,,Firefox,87,Windows,10
29,1,null,"""",html-keyboard-response,173,475329,0.0-173.0,"""","<div style=""font-size:60px;"">+</div>","""",256,fixationBtwnNeutralMaskAndPrompt,Test,null,1000,"""","""","""","""","""","""","""","""",1,4/19/2021 20:04,64.237.91.215,Mozilla/5.0 (Windows NT 10.0; Win64; x64; rv:87.0) Gecko/20100101 Firefox/87.0,,Firefox,87,Windows,10
29,1,2355,"""",html-button-response,174,477685,0.0-174.0,"""","<img src='jspsych/CFDfaces/CFD-WM-212-097-N.jpg' height=""250px"">,</br><b>Daniel</b>",1,256,IntactOrRearranged,Test,"""","""","""","""",CFD-AM-221-184-N.jpg,Travis,1,"""","""",1,1,4/19/2021 20:04,64.237.91.215,Mozilla/5.0 (Windows NT 10.0; Win64; x64; rv:87.0) Gecko/20100101 Firefox/87.0,,Firefox,87,Windows,10
29,1,1931,"""",html-slider-response,175,479618,0.0-175.0,"""","<img src='jspsych/CFDfaces/CFD-WM-212-097-N.jpg' height=""250px"">,</br><b>Daniel</b>","""",256,ConfidenceQuery,Test,"""","""","""","""",CFD-AM-221-184-N.jpg,Travis,1,0,70,"""",1,4/19/2021 20:04,64.237.91.215,Mozilla/5.0 (Windows NT 10.0; Win64; x64; rv:87.0) Gecko/20100101 Firefox/87.0,,Firefox,87,Windows,10
29,1,null,"""",html-keyboard-response,176,480624,0.0-176.0,"""","<div style=""font-size:60px;"">+</div>","""",256,ITI,Test,null,1000,"""","""","""","""","""","""","""","""",1,4/19/2021 20:04,64.237.91.215,Mozilla/5.0 (Windows NT 10.0; Win64; x64; rv:87.0) Gecko/20100101 Firefox/87.0,,Firefox,87,Windows,10
29,1,null,"""",image-keyboard-response,177,480876,0.0-177.0,"""",jspsych/scrambledNeutralFaces/scrambledBM31NES.JPG,"""",256,forwardMask,Test,null,250,"""",n,"""","""","""","""","""","""",1,4/19/2021 20:04,64.237.91.215,Mozilla/5.0 (Windows NT 10.0; Win64; x64; rv:87.0) Gecko/20100101 Firefox/87.0,,Firefox,87,Windows,10
29,1,null,"""",image-keyboard-response,178,480907,0.0-178.0,"""",jspsych/neutralFaces/BM31NES.JPG,"""",256,Cue,Test,null,16,"""","""","""","""","""","""","""","""",1,4/19/2021 20:04,64.237.91.215,Mozilla/5.0 (Windows NT 10.0; Win64; x64; rv:87.0) Gecko/20100101 Firefox/87.0,,Firefox,87,Windows,10
29,1,null,"""",image-keyboard-response,179,481015,0.0-179.0,"""",jspsych/neutralFaces/AM32NES.JPG,"""",256,backwardMask,Test,null,100,"""","""","""","""","""","""","""","""",1,4/19/2021 20:04,64.237.91.215,Mozilla/5.0 (Windows NT 10.0; Win64; x64; rv:87.0) Gecko/20100101 Firefox/87.0,,Firefox,87,Windows,10
29,1,null,"""",html-keyboard-response,180,482030,0.0-180.0,"""","<div style=""font-size:60px;"">+</div>","""",256,fixationBtwnNeutralMaskAndPrompt,Test,null,1000,"""","""","""","""","""","""","""","""",1,4/19/2021 20:04,64.237.91.215,Mozilla/5.0 (Windows NT 10.0; Win64; x64; rv:87.0) Gecko/20100101 Firefox/87.0,,Firefox,87,Windows,10
29,1,2232,"""",html-button-response,181,484262,0.0-181.0,"""","<img src='jspsych/CFDfaces/CFD-WM-003-002-N.jpg' height=""250px"">,</br><b>Christian</b>",1,256,IntactOrRearranged,Test,"""","""","""","""",CFD-LF-232-199-N.jpg,Angela,1,"""","""",1,1,4/19/2021 20:04,64.237.91.215,Mozilla/5.0 (Windows NT 10.0; Win64; x64; rv:87.0) Gecko/20100101 Firefox/87.0,,Firefox,87,Windows,10
29,1,1807,"""",html-slider-response,182,486070,0.0-182.0,"""","<img src='jspsych/CFDfaces/CFD-WM-003-002-N.jpg' height=""250px"">,</br><b>Christian</b>","""",256,ConfidenceQuery,Test,"""","""","""","""",CFD-LF-232-199-N.jpg,Angela,1,0,71,"""",1,4/19/2021 20:04,64.237.91.215,Mozilla/5.0 (Windows NT 10.0; Win64; x64; rv:87.0) Gecko/20100101 Firefox/87.0,,Firefox,87,Windows,10
29,1,null,"""",html-keyboard-response,183,487086,0.0-183.0,"""","<div style=""font-size:60px;"">+</div>","""",256,ITI,Test,null,1000,"""","""","""","""","""","""","""","""",1,4/19/2021 20:04,64.237.91.215,Mozilla/5.0 (Windows NT 10.0; Win64; x64; rv:87.0) Gecko/20100101 Firefox/87.0,,Firefox,87,Windows,10
29,1,null,"""",image-keyboard-response,184,487339,0.0-184.0,"""",jspsych/scrambledNeutralFaces/scrambledBM09NES.JPG,"""",256,forwardMask,Test,null,250,"""",n,"""","""","""","""","""","""",1,4/19/2021 20:04,64.237.91.215,Mozilla/5.0 (Windows NT 10.0; Win64; x64; rv:87.0) Gecko/20100101 Firefox/87.0,,Firefox,87,Windows,10
29,1,null,"""",image-keyboard-response,185,487370,0.0-185.0,"""",jspsych/neutralFaces/BM09NES.JPG,"""",256,Cue,Test,null,16,"""","""","""","""","""","""","""","""",1,4/19/2021 20:04,64.237.91.215,Mozilla/5.0 (Windows NT 10.0; Win64; x64; rv:87.0) Gecko/20100101 Firefox/87.0,,Firefox,87,Windows,10
29,1,null,"""",image-keyboard-response,186,487480,0.0-186.0,"""",jspsych/neutralFaces/BM25NES.JPG,"""",256,backwardMask,Test,null,100,"""","""","""","""","""","""","""","""",1,4/19/2021 20:04,64.237.91.215,Mozilla/5.0 (Windows NT 10.0; Win64; x64; rv:87.0) Gecko/20100101 Firefox/87.0,,Firefox,87,Windows,10
29,1,null,"""",html-keyboard-response,187,488490,0.0-187.0,"""","<div style=""font-size:60px;"">+</div>","""",256,fixationBtwnNeutralMaskAndPrompt,Test,null,1000,"""","""","""","""","""","""","""","""",1,4/19/2021 20:04,64.237.91.215,Mozilla/5.0 (Windows NT 10.0; Win64; x64; rv:87.0) Gecko/20100101 Firefox/87.0,,Firefox,87,Windows,10
29,1,3143,"""",html-button-response,188,491633,0.0-188.0,"""","<img src='jspsych/CFDfaces/CFD-WM-237-052-N.jpg' height=""250px"">,</br><b>Richard</b>",1,256,IntactOrRearranged,Test,"""","""","""","""",CFD-BM-002-013-N.jpg,Timothy,1,"""","""",1,1,4/19/2021 20:04,64.237.91.215,Mozilla/5.0 (Windows NT 10.0; Win64; x64; rv:87.0) Gecko/20100101 Firefox/87.0,,Firefox,87,Windows,10
29,1,3691,"""",html-slider-response,189,495328,0.0-189.0,"""","<img src='jspsych/CFDfaces/CFD-WM-237-052-N.jpg' height=""250px"">,</br><b>Richard</b>","""",256,ConfidenceQuery,Test,"""","""","""","""",CFD-BM-002-013-N.jpg,Timothy,1,0,9,"""",1,4/19/2021 20:04,64.237.91.215,Mozilla/5.0 (Windows NT 10.0; Win64; x64; rv:87.0) Gecko/20100101 Firefox/87.0,,Firefox,87,Windows,10
29,1,null,"""",html-keyboard-response,190,496333,0.0-190.0,"""","<div style=""font-size:60px;"">+</div>","""",256,ITI,Test,null,1000,"""","""","""","""","""","""","""","""",1,4/19/2021 20:04,64.237.91.215,Mozilla/5.0 (Windows NT 10.0; Win64; x64; rv:87.0) Gecko/20100101 Firefox/87.0,,Firefox,87,Windows,10
29,1,null,"""",image-keyboard-response,191,496598,0.0-191.0,"""",jspsych/scrambledDisgustFaces/scrambledBM25DIS.JPG,"""",256,forwardMask,Test,null,250,"""",d,"""","""","""","""","""","""",1,4/19/2021 20:04,64.237.91.215,Mozilla/5.0 (Windows NT 10.0; Win64; x64; rv:87.0) Gecko/20100101 Firefox/87.0,,Firefox,87,Windows,10
29,1,null,"""",image-keyboard-response,192,496629,0.0-192.0,"""",jspsych/disgustFaces/BM26DIS.JPG,"""",256,Cue,Test,null,16,"""","""","""","""","""","""","""","""",1,4/19/2021 20:04,64.237.91.215,Mozilla/5.0 (Windows NT 10.0; Win64; x64; rv:87.0) Gecko/20100101 Firefox/87.0,,Firefox,87,Windows,10
29,1,null,"""",image-keyboard-response,193,496730,0.0-193.0,"""",jspsych/neutralFaces/BM32NES.JPG,"""",256,backwardMask,Test,null,100,"""","""","""","""","""","""","""","""",1,4/19/2021 20:04,64.237.91.215,Mozilla/5.0 (Windows NT 10.0; Win64; x64; rv:87.0) Gecko/20100101 Firefox/87.0,,Firefox,87,Windows,10
29,1,null,"""",html-keyboard-response,194,497739,0.0-194.0,"""","<div style=""font-size:60px;"">+</div>","""",256,fixationBtwnNeutralMaskAndPrompt,Test,null,1000,"""","""","""","""","""","""","""","""",1,4/19/2021 20:04,64.237.91.215,Mozilla/5.0 (Windows NT 10.0; Win64; x64; rv:87.0) Gecko/20100101 Firefox/87.0,,Firefox,87,Windows,10
29,1,2906,"""",html-button-response,195,500648,0.0-195.0,"""","<img src='jspsych/CFDfaces/CFD-WF-018-017-N.jpg' height=""250px"">,</br><b>Victoria</b>",1,256,IntactOrRearranged,Test,"""","""","""","""",CFD-WF-204-038-N.jpg,Sara,1,"""","""",1,1,4/19/2021 20:04,64.237.91.215,Mozilla/5.0 (Windows NT 10.0; Win64; x64; rv:87.0) Gecko/20100101 Firefox/87.0,,Firefox,87,Windows,10
29,1,2006,"""",html-slider-response,196,502656,0.0-196.0,"""","<img src='jspsych/CFDfaces/CFD-WF-018-017-N.jpg' height=""250px"">,</br><b>Victoria</b>","""",256,ConfidenceQuery,Test,"""","""","""","""",CFD-WF-204-038-N.jpg,Sara,1,0,64,"""",1,4/19/2021 20:04,64.237.91.215,Mozilla/5.0 (Windows NT 10.0; Win64; x64; rv:87.0) Gecko/20100101 Firefox/87.0,,Firefox,87,Windows,10
29,1,null,"""",html-keyboard-response,197,503663,0.0-197.0,"""","<div style=""font-size:60px;"">+</div>","""",256,ITI,Test,null,1000,"""","""","""","""","""","""","""","""",1,4/19/2021 20:04,64.237.91.215,Mozilla/5.0 (Windows NT 10.0; Win64; x64; rv:87.0) Gecko/20100101 Firefox/87.0,,Firefox,87,Windows,10
29,1,null,"""",image-keyboard-response,198,503919,0.0-198.0,"""",jspsych/scrambledDisgustFaces/scrambledAF31DIS.JPG,"""",256,forwardMask,Test,null,250,"""",d,"""","""","""","""","""","""",1,4/19/2021 20:04,64.237.91.215,Mozilla/5.0 (Windows NT 10.0; Win64; x64; rv:87.0) Gecko/20100101 Firefox/87.0,,Firefox,87,Windows,10
29,1,null,"""",image-keyboard-response,199,503948,0.0-199.0,"""",jspsych/disgustFaces/AF31DIS.JPG,"""",256,Cue,Test,null,16,"""","""","""","""","""","""","""","""",1,4/19/2021 20:04,64.237.91.215,Mozilla/5.0 (Windows NT 10.0; Win64; x64; rv:87.0) Gecko/20100101 Firefox/87.0,,Firefox,87,Windows,10
29,1,null,"""",image-keyboard-response,200,504056,0.0-200.0,"""",jspsych/neutralFaces/AF02NES.JPG,"""",256,backwardMask,Test,null,100,"""","""","""","""","""","""","""","""",1,4/19/2021 20:04,64.237.91.215,Mozilla/5.0 (Windows NT 10.0; Win64; x64; rv:87.0) Gecko/20100101 Firefox/87.0,,Firefox,87,Windows,10
29,1,null,"""",html-keyboard-response,201,505056,0.0-201.0,"""","<div style=""font-size:60px;"">+</div>","""",256,fixationBtwnNeutralMaskAndPrompt,Test,null,1000,"""","""","""","""","""","""","""","""",1,4/19/2021 20:04,64.237.91.215,Mozilla/5.0 (Windows NT 10.0; Win64; x64; rv:87.0) Gecko/20100101 Firefox/87.0,,Firefox,87,Windows,10
29,1,1295,"""",html-button-response,202,506353,0.0-202.0,"""","<img src='jspsych/CFDfaces/CFD-AM-202-079-N.jpg' height=""250px"">,</br><b>Juan</b>",0,256,IntactOrRearranged,Test,"""","""","""","""",CFD-WF-217-085-N.jpg,Heather,0,"""","""",0,1,4/19/2021 20:04,64.237.91.215,Mozilla/5.0 (Windows NT 10.0; Win64; x64; rv:87.0) Gecko/20100101 Firefox/87.0,,Firefox,87,Windows,10
29,1,3836,"""",html-slider-response,203,510190,0.0-203.0,"""","<img src='jspsych/CFDfaces/CFD-AM-202-079-N.jpg' height=""250px"">,</br><b>Juan</b>","""",256,ConfidenceQuery,Test,"""","""","""","""",CFD-WF-217-085-N.jpg,Heather,0,0,100,"""",1,4/19/2021 20:04,64.237.91.215,Mozilla/5.0 (Windows NT 10.0; Win64; x64; rv:87.0) Gecko/20100101 Firefox/87.0,,Firefox,87,Windows,10
29,1,null,"""",html-keyboard-response,204,511198,0.0-204.0,"""","<div style=""font-size:60px;"">+</div>","""",256,ITI,Test,null,1000,"""","""","""","""","""","""","""","""",1,4/19/2021 20:04,64.237.91.215,Mozilla/5.0 (Windows NT 10.0; Win64; x64; rv:87.0) Gecko/20100101 Firefox/87.0,,Firefox,87,Windows,10
29,1,null,"""",image-keyboard-response,205,511465,0.0-205.0,"""",jspsych/scrambledDisgustFaces/scrambledBM13DIS.JPG,"""",256,forwardMask,Test,null,250,"""",d,"""","""","""","""","""","""",1,4/19/2021 20:04,64.237.91.215,Mozilla/5.0 (Windows NT 10.0; Win64; x64; rv:87.0) Gecko/20100101 Firefox/87.0,,Firefox,87,Windows,10
29,1,null,"""",image-keyboard-response,206,511496,0.0-206.0,"""",jspsych/disgustFaces/BM14DIS.JPG,"""",256,Cue,Test,null,16,"""","""","""","""","""","""","""","""",1,4/19/2021 20:04,64.237.91.215,Mozilla/5.0 (Windows NT 10.0; Win64; x64; rv:87.0) Gecko/20100101 Firefox/87.0,,Firefox,87,Windows,10
29,1,null,"""",image-keyboard-response,207,511606,0.0-207.0,"""",jspsych/neutralFaces/AM26NES.JPG,"""",256,backwardMask,Test,null,100,"""","""","""","""","""","""","""","""",1,4/19/2021 20:04,64.237.91.215,Mozilla/5.0 (Windows NT 10.0; Win64; x64; rv:87.0) Gecko/20100101 Firefox/87.0,,Firefox,87,Windows,10
29,1,null,"""",html-keyboard-response,208,512616,0.0-208.0,"""","<div style=""font-size:60px;"">+</div>","""",256,fixationBtwnNeutralMaskAndPrompt,Test,null,1000,"""","""","""","""","""","""","""","""",1,4/19/2021 20:04,64.237.91.215,Mozilla/5.0 (Windows NT 10.0; Win64; x64; rv:87.0) Gecko/20100101 Firefox/87.0,,Firefox,87,Windows,10
29,1,2258,"""",html-button-response,209,514875,0.0-209.0,"""","<img src='jspsych/CFDfaces/CFD-BM-039-029-N.jpg' height=""250px"">,</br><b>Eric</b>",1,256,IntactOrRearranged,Test,"""","""","""","""",CFD-AM-246-184-N.jpg,Luis,1,"""","""",1,1,4/19/2021 20:04,64.237.91.215,Mozilla/5.0 (Windows NT 10.0; Win64; x64; rv:87.0) Gecko/20100101 Firefox/87.0,,Firefox,87,Windows,10
29,1,2034,"""",html-slider-response,210,516911,0.0-210.0,"""","<img src='jspsych/CFDfaces/CFD-BM-039-029-N.jpg' height=""250px"">,</br><b>Eric</b>","""",256,ConfidenceQuery,Test,"""","""","""","""",CFD-AM-246-184-N.jpg,Luis,1,0,100,"""",1,4/19/2021 20:04,64.237.91.215,Mozilla/5.0 (Windows NT 10.0; Win64; x64; rv:87.0) Gecko/20100101 Firefox/87.0,,Firefox,87,Windows,10
29,1,null,"""",html-keyboard-response,211,517920,0.0-211.0,"""","<div style=""font-size:60px;"">+</div>","""",256,ITI,Test,null,1000,"""","""","""","""","""","""","""","""",1,4/19/2021 20:04,64.237.91.215,Mozilla/5.0 (Windows NT 10.0; Win64; x64; rv:87.0) Gecko/20100101 Firefox/87.0,,Firefox,87,Windows,10
29,1,null,"""",image-keyboard-response,212,518175,0.0-212.0,"""",jspsych/scrambledDisgustFaces/scrambledBM33DIS.JPG,"""",256,forwardMask,Test,null,250,"""",d,"""","""","""","""","""","""",1,4/19/2021 20:04,64.237.91.215,Mozilla/5.0 (Windows NT 10.0; Win64; x64; rv:87.0) Gecko/20100101 Firefox/87.0,,Firefox,87,Windows,10
29,1,null,"""",image-keyboard-response,213,518199,0.0-213.0,"""",jspsych/disgustFaces/BM34DIS.JPG,"""",256,Cue,Test,null,16,"""","""","""","""","""","""","""","""",1,4/19/2021 20:04,64.237.91.215,Mozilla/5.0 (Windows NT 10.0; Win64; x64; rv:87.0) Gecko/20100101 Firefox/87.0,,Firefox,87,Windows,10
29,1,null,"""",image-keyboard-response,214,518309,0.0-214.0,"""",jspsych/neutralFaces/BM25NES.JPG,"""",256,backwardMask,Test,null,100,"""","""","""","""","""","""","""","""",1,4/19/2021 20:04,64.237.91.215,Mozilla/5.0 (Windows NT 10.0; Win64; x64; rv:87.0) Gecko/20100101 Firefox/87.0,,Firefox,87,Windows,10
29,1,null,"""",html-keyboard-response,215,519323,0.0-215.0,"""","<div style=""font-size:60px;"">+</div>","""",256,fixationBtwnNeutralMaskAndPrompt,Test,null,1000,"""","""","""","""","""","""","""","""",1,4/19/2021 20:04,64.237.91.215,Mozilla/5.0 (Windows NT 10.0; Win64; x64; rv:87.0) Gecko/20100101 Firefox/87.0,,Firefox,87,Windows,10
29,1,1688,"""",html-button-response,216,521012,0.0-216.0,"""","<img src='jspsych/CFDfaces/CFD-WF-205-006-N.jpg' height=""250px"">,</br><b>Amanda</b>",1,256,IntactOrRearranged,Test,"""","""","""","""",CFD-AM-212-050-N.jpg,Austin,1,"""","""",1,1,4/19/2021 20:04,64.237.91.215,Mozilla/5.0 (Windows NT 10.0; Win64; x64; rv:87.0) Gecko/20100101 Firefox/87.0,,Firefox,87,Windows,10
29,1,1170,"""",html-slider-response,217,522183,0.0-217.0,"""","<img src='jspsych/CFDfaces/CFD-WF-205-006-N.jpg' height=""250px"">,</br><b>Amanda</b>","""",256,ConfidenceQuery,Test,"""","""","""","""",CFD-AM-212-050-N.jpg,Austin,1,0,100,"""",1,4/19/2021 20:04,64.237.91.215,Mozilla/5.0 (Windows NT 10.0; Win64; x64; rv:87.0) Gecko/20100101 Firefox/87.0,,Firefox,87,Windows,10
29,1,null,"""",html-keyboard-response,218,523191,0.0-218.0,"""","<div style=""font-size:60px;"">+</div>","""",256,ITI,Test,null,1000,"""","""","""","""","""","""","""","""",1,4/19/2021 20:04,64.237.91.215,Mozilla/5.0 (Windows NT 10.0; Win64; x64; rv:87.0) Gecko/20100101 Firefox/87.0,,Firefox,87,Windows,10
29,1,null,"""",image-keyboard-response,219,523456,0.0-219.0,"""",jspsych/scrambledNeutralFaces/scrambledBM02NES.JPG,"""",256,forwardMask,Test,null,250,"""",n,"""","""","""","""","""","""",1,4/19/2021 20:04,64.237.91.215,Mozilla/5.0 (Windows NT 10.0; Win64; x64; rv:87.0) Gecko/20100101 Firefox/87.0,,Firefox,87,Windows,10
29,1,null,"""",image-keyboard-response,220,523486,0.0-220.0,"""",jspsych/neutralFaces/BM02NES.JPG,"""",256,Cue,Test,null,16,"""","""","""","""","""","""","""","""",1,4/19/2021 20:04,64.237.91.215,Mozilla/5.0 (Windows NT 10.0; Win64; x64; rv:87.0) Gecko/20100101 Firefox/87.0,,Firefox,87,Windows,10
29,1,null,"""",image-keyboard-response,221,523596,0.0-221.0,"""",jspsych/neutralFaces/AM30NES.JPG,"""",256,backwardMask,Test,null,100,"""","""","""","""","""","""","""","""",1,4/19/2021 20:04,64.237.91.215,Mozilla/5.0 (Windows NT 10.0; Win64; x64; rv:87.0) Gecko/20100101 Firefox/87.0,,Firefox,87,Windows,10
29,1,null,"""",html-keyboard-response,222,524603,0.0-222.0,"""","<div style=""font-size:60px;"">+</div>","""",256,fixationBtwnNeutralMaskAndPrompt,Test,null,1000,"""","""","""","""","""","""","""","""",1,4/19/2021 20:04,64.237.91.215,Mozilla/5.0 (Windows NT 10.0; Win64; x64; rv:87.0) Gecko/20100101 Firefox/87.0,,Firefox,87,Windows,10
29,1,2364,"""",html-button-response,223,526966,0.0-223.0,"""","<img src='jspsych/CFDfaces/CFD-BM-210-148-N.jpg' height=""250px"">,</br><b>Peter</b>",0,256,IntactOrRearranged,Test,"""","""","""","""",CFD-WF-207-014-N.jpg,Lindsey,0,"""","""",0,1,4/19/2021 20:04,64.237.91.215,Mozilla/5.0 (Windows NT 10.0; Win64; x64; rv:87.0) Gecko/20100101 Firefox/87.0,,Firefox,87,Windows,10
29,1,2136,"""",html-slider-response,224,529103,0.0-224.0,"""","<img src='jspsych/CFDfaces/CFD-BM-210-148-N.jpg' height=""250px"">,</br><b>Peter</b>","""",256,ConfidenceQuery,Test,"""","""","""","""",CFD-WF-207-014-N.jpg,Lindsey,0,0,74,"""",1,4/19/2021 20:04,64.237.91.215,Mozilla/5.0 (Windows NT 10.0; Win64; x64; rv:87.0) Gecko/20100101 Firefox/87.0,,Firefox,87,Windows,10
29,1,null,"""",html-keyboard-response,225,530122,0.0-225.0,"""","<div style=""font-size:60px;"">+</div>","""",256,ITI,Test,null,1000,"""","""","""","""","""","""","""","""",1,4/19/2021 20:04,64.237.91.215,Mozilla/5.0 (Windows NT 10.0; Win64; x64; rv:87.0) Gecko/20100101 Firefox/87.0,,Firefox,87,Windows,10
29,1,null,"""",image-keyboard-response,226,530375,0.0-226.0,"""",jspsych/scrambledNeutralFaces/scrambledBM22NES.JPG,"""",256,forwardMask,Test,null,250,"""",n,"""","""","""","""","""","""",1,4/19/2021 20:04,64.237.91.215,Mozilla/5.0 (Windows NT 10.0; Win64; x64; rv:87.0) Gecko/20100101 Firefox/87.0,,Firefox,87,Windows,10
29,1,null,"""",image-keyboard-response,227,530406,0.0-227.0,"""",jspsych/neutralFaces/BM22NES.JPG,"""",256,Cue,Test,null,16,"""","""","""","""","""","""","""","""",1,4/19/2021 20:04,64.237.91.215,Mozilla/5.0 (Windows NT 10.0; Win64; x64; rv:87.0) Gecko/20100101 Firefox/87.0,,Firefox,87,Windows,10
29,1,null,"""",image-keyboard-response,228,530517,0.0-228.0,"""",jspsych/neutralFaces/AM35NES.JPG,"""",256,backwardMask,Test,null,100,"""","""","""","""","""","""","""","""",1,4/19/2021 20:04,64.237.91.215,Mozilla/5.0 (Windows NT 10.0; Win64; x64; rv:87.0) Gecko/20100101 Firefox/87.0,,Firefox,87,Windows,10
29,1,null,"""",html-keyboard-response,229,531524,0.0-229.0,"""","<div style=""font-size:60px;"">+</div>","""",256,fixationBtwnNeutralMaskAndPrompt,Test,null,1000,"""","""","""","""","""","""","""","""",1,4/19/2021 20:04,64.237.91.215,Mozilla/5.0 (Windows NT 10.0; Win64; x64; rv:87.0) Gecko/20100101 Firefox/87.0,,Firefox,87,Windows,10
29,1,1928,"""",html-button-response,230,533453,0.0-230.0,"""","<img src='jspsych/CFDfaces/CFD-BF-201-080-N.jpg' height=""250px"">,</br><b>Emily</b>",1,256,IntactOrRearranged,Test,"""","""","""","""",CFD-BM-026-002-N.jpg,Jeremy,1,"""","""",1,1,4/19/2021 20:04,64.237.91.215,Mozilla/5.0 (Windows NT 10.0; Win64; x64; rv:87.0) Gecko/20100101 Firefox/87.0,,Firefox,87,Windows,10
29,1,2248,"""",html-slider-response,231,535701,0.0-231.0,"""","<img src='jspsych/CFDfaces/CFD-BF-201-080-N.jpg' height=""250px"">,</br><b>Emily</b>","""",256,ConfidenceQuery,Test,"""","""","""","""",CFD-BM-026-002-N.jpg,Jeremy,1,0,29,"""",1,4/19/2021 20:04,64.237.91.215,Mozilla/5.0 (Windows NT 10.0; Win64; x64; rv:87.0) Gecko/20100101 Firefox/87.0,,Firefox,87,Windows,10
29,1,null,"""",html-keyboard-response,232,536707,0.0-232.0,"""","<div style=""font-size:60px;"">+</div>","""",256,ITI,Test,null,1000,"""","""","""","""","""","""","""","""",1,4/19/2021 20:04,64.237.91.215,Mozilla/5.0 (Windows NT 10.0; Win64; x64; rv:87.0) Gecko/20100101 Firefox/87.0,,Firefox,87,Windows,10
29,1,null,"""",image-keyboard-response,233,536959,0.0-233.0,"""",jspsych/scrambledNeutralFaces/scrambledAM31NES.JPG,"""",256,forwardMask,Test,null,250,"""",n,"""","""","""","""","""","""",1,4/19/2021 20:04,64.237.91.215,Mozilla/5.0 (Windows NT 10.0; Win64; x64; rv:87.0) Gecko/20100101 Firefox/87.0,,Firefox,87,Windows,10
29,1,null,"""",image-keyboard-response,234,536990,0.0-234.0,"""",jspsych/neutralFaces/AM31NES.JPG,"""",256,Cue,Test,null,16,"""","""","""","""","""","""","""","""",1,4/19/2021 20:04,64.237.91.215,Mozilla/5.0 (Windows NT 10.0; Win64; x64; rv:87.0) Gecko/20100101 Firefox/87.0,,Firefox,87,Windows,10
29,1,null,"""",image-keyboard-response,235,537100,0.0-235.0,"""",jspsych/neutralFaces/BM03NES.JPG,"""",256,backwardMask,Test,null,100,"""","""","""","""","""","""","""","""",1,4/19/2021 20:04,64.237.91.215,Mozilla/5.0 (Windows NT 10.0; Win64; x64; rv:87.0) Gecko/20100101 Firefox/87.0,,Firefox,87,Windows,10
29,1,null,"""",html-keyboard-response,236,538104,0.0-236.0,"""","<div style=""font-size:60px;"">+</div>","""",256,fixationBtwnNeutralMaskAndPrompt,Test,null,1000,"""","""","""","""","""","""","""","""",1,4/19/2021 20:04,64.237.91.215,Mozilla/5.0 (Windows NT 10.0; Win64; x64; rv:87.0) Gecko/20100101 Firefox/87.0,,Firefox,87,Windows,10
29,1,1730,"""",html-button-response,237,539835,0.0-237.0,"""","<img src='jspsych/CFDfaces/CFD-BM-207-024-N.jpg' height=""250px"">,</br><b>Brian</b>",0,256,IntactOrRearranged,Test,"""","""","""","""",CFD-WM-015-002-N.jpg,Dustin,0,"""","""",0,1,4/19/2021 20:04,64.237.91.215,Mozilla/5.0 (Windows NT 10.0; Win64; x64; rv:87.0) Gecko/20100101 Firefox/87.0,,Firefox,87,Windows,10
29,1,1198,"""",html-slider-response,238,541034,0.0-238.0,"""","<img src='jspsych/CFDfaces/CFD-BM-207-024-N.jpg' height=""250px"">,</br><b>Brian</b>","""",256,ConfidenceQuery,Test,"""","""","""","""",CFD-WM-015-002-N.jpg,Dustin,0,0,100,"""",1,4/19/2021 20:04,64.237.91.215,Mozilla/5.0 (Windows NT 10.0; Win64; x64; rv:87.0) Gecko/20100101 Firefox/87.0,,Firefox,87,Windows,10
29,1,null,"""",html-keyboard-response,239,542037,0.0-239.0,"""","<div style=""font-size:60px;"">+</div>","""",256,ITI,Test,null,1000,"""","""","""","""","""","""","""","""",1,4/19/2021 20:04,64.237.91.215,Mozilla/5.0 (Windows NT 10.0; Win64; x64; rv:87.0) Gecko/20100101 Firefox/87.0,,Firefox,87,Windows,10
29,1,null,"""",image-keyboard-response,240,542303,0.0-240.0,"""",jspsych/scrambledDisgustFaces/scrambledAF34DIS.JPG,"""",256,forwardMask,Test,null,250,"""",d,"""","""","""","""","""","""",1,4/19/2021 20:04,64.237.91.215,Mozilla/5.0 (Windows NT 10.0; Win64; x64; rv:87.0) Gecko/20100101 Firefox/87.0,,Firefox,87,Windows,10
29,1,null,"""",image-keyboard-response,241,542333,0.0-241.0,"""",jspsych/disgustFaces/AF34DIS.JPG,"""",256,Cue,Test,null,16,"""","""","""","""","""","""","""","""",1,4/19/2021 20:04,64.237.91.215,Mozilla/5.0 (Windows NT 10.0; Win64; x64; rv:87.0) Gecko/20100101 Firefox/87.0,,Firefox,87,Windows,10
29,1,null,"""",image-keyboard-response,242,542443,0.0-242.0,"""",jspsych/neutralFaces/AF04NES.JPG,"""",256,backwardMask,Test,null,100,"""","""","""","""","""","""","""","""",1,4/19/2021 20:04,64.237.91.215,Mozilla/5.0 (Windows NT 10.0; Win64; x64; rv:87.0) Gecko/20100101 Firefox/87.0,,Firefox,87,Windows,10
29,1,null,"""",html-keyboard-response,243,543449,0.0-243.0,"""","<div style=""font-size:60px;"">+</div>","""",256,fixationBtwnNeutralMaskAndPrompt,Test,null,1000,"""","""","""","""","""","""","""","""",1,4/19/2021 20:04,64.237.91.215,Mozilla/5.0 (Windows NT 10.0; Win64; x64; rv:87.0) Gecko/20100101 Firefox/87.0,,Firefox,87,Windows,10
29,1,1953,"""",html-button-response,244,545403,0.0-244.0,"""","<img src='jspsych/CFDfaces/CFD-WM-041-021-N.jpg' height=""250px"">,</br><b>Jeffrey</b>",0,256,IntactOrRearranged,Test,"""","""","""","""",CFD-LF-205-100-N.jpg,Amy,1,"""","""",0,1,4/19/2021 20:04,64.237.91.215,Mozilla/5.0 (Windows NT 10.0; Win64; x64; rv:87.0) Gecko/20100101 Firefox/87.0,,Firefox,87,Windows,10
29,1,3373,"""",html-slider-response,245,548777,0.0-245.0,"""","<img src='jspsych/CFDfaces/CFD-WM-041-021-N.jpg' height=""250px"">,</br><b>Jeffrey</b>","""",256,ConfidenceQuery,Test,"""","""","""","""",CFD-LF-205-100-N.jpg,Amy,1,0,80,"""",1,4/19/2021 20:04,64.237.91.215,Mozilla/5.0 (Windows NT 10.0; Win64; x64; rv:87.0) Gecko/20100101 Firefox/87.0,,Firefox,87,Windows,10
29,1,null,"""",html-keyboard-response,246,549790,0.0-246.0,"""","<div style=""font-size:60px;"">+</div>","""",256,ITI,Test,null,1000,"""","""","""","""","""","""","""","""",1,4/19/2021 20:04,64.237.91.215,Mozilla/5.0 (Windows NT 10.0; Win64; x64; rv:87.0) Gecko/20100101 Firefox/87.0,,Firefox,87,Windows,10
29,1,null,"""",image-keyboard-response,247,550054,0.0-247.0,"""",jspsych/scrambledDisgustFaces/scrambledBF12DIS.JPG,"""",256,forwardMask,Test,null,250,"""",d,"""","""","""","""","""","""",1,4/19/2021 20:04,64.237.91.215,Mozilla/5.0 (Windows NT 10.0; Win64; x64; rv:87.0) Gecko/20100101 Firefox/87.0,,Firefox,87,Windows,10
29,1,null,"""",image-keyboard-response,248,550086,0.0-248.0,"""",jspsych/disgustFaces/BF12DIS.JPG,"""",256,Cue,Test,null,16,"""","""","""","""","""","""","""","""",1,4/19/2021 20:04,64.237.91.215,Mozilla/5.0 (Windows NT 10.0; Win64; x64; rv:87.0) Gecko/20100101 Firefox/87.0,,Firefox,87,Windows,10
29,1,null,"""",image-keyboard-response,249,550196,0.0-249.0,"""",jspsych/neutralFaces/AF35NES.JPG,"""",256,backwardMask,Test,null,100,"""","""","""","""","""","""","""","""",1,4/19/2021 20:04,64.237.91.215,Mozilla/5.0 (Windows NT 10.0; Win64; x64; rv:87.0) Gecko/20100101 Firefox/87.0,,Firefox,87,Windows,10
29,1,null,"""",html-keyboard-response,250,551199,0.0-250.0,"""","<div style=""font-size:60px;"">+</div>","""",256,fixationBtwnNeutralMaskAndPrompt,Test,null,1000,"""","""","""","""","""","""","""","""",1,4/19/2021 20:04,64.237.91.215,Mozilla/5.0 (Windows NT 10.0; Win64; x64; rv:87.0) Gecko/20100101 Firefox/87.0,,Firefox,87,Windows,10
29,1,2018,"""",html-button-response,251,553218,0.0-251.0,"""","<img src='jspsych/CFDfaces/CFD-BM-208-065-N.jpg' height=""250px"">,</br><b>Jason</b>",1,256,IntactOrRearranged,Test,"""","""","""","""",CFD-AF-240-206-N.jpg,Jenna,0,"""","""",1,1,4/19/2021 20:04,64.237.91.215,Mozilla/5.0 (Windows NT 10.0; Win64; x64; rv:87.0) Gecko/20100101 Firefox/87.0,,Firefox,87,Windows,10
29,1,2761,"""",html-slider-response,252,555981,0.0-252.0,"""","<img src='jspsych/CFDfaces/CFD-BM-208-065-N.jpg' height=""250px"">,</br><b>Jason</b>","""",256,ConfidenceQuery,Test,"""","""","""","""",CFD-AF-240-206-N.jpg,Jenna,0,0,92,"""",1,4/19/2021 20:04,64.237.91.215,Mozilla/5.0 (Windows NT 10.0; Win64; x64; rv:87.0) Gecko/20100101 Firefox/87.0,,Firefox,87,Windows,10
29,1,null,"""",html-keyboard-response,253,556993,0.0-253.0,"""","<div style=""font-size:60px;"">+</div>","""",256,ITI,Test,null,1000,"""","""","""","""","""","""","""","""",1,4/19/2021 20:04,64.237.91.215,Mozilla/5.0 (Windows NT 10.0; Win64; x64; rv:87.0) Gecko/20100101 Firefox/87.0,,Firefox,87,Windows,10
29,1,null,"""",image-keyboard-response,254,557244,0.0-254.0,"""",jspsych/scrambledNeutralFaces/scrambledBF34NES.JPG,"""",256,forwardMask,Test,null,250,"""",n,"""","""","""","""","""","""",1,4/19/2021 20:04,64.237.91.215,Mozilla/5.0 (Windows NT 10.0; Win64; x64; rv:87.0) Gecko/20100101 Firefox/87.0,,Firefox,87,Windows,10
29,1,null,"""",image-keyboard-response,255,557276,0.0-255.0,"""",jspsych/neutralFaces/BF34NES.JPG,"""",256,Cue,Test,null,16,"""","""","""","""","""","""","""","""",1,4/19/2021 20:04,64.237.91.215,Mozilla/5.0 (Windows NT 10.0; Win64; x64; rv:87.0) Gecko/20100101 Firefox/87.0,,Firefox,87,Windows,10
29,1,null,"""",image-keyboard-response,256,557384,0.0-256.0,"""",jspsych/neutralFaces/AF23NES.JPG,"""",256,backwardMask,Test,null,100,"""","""","""","""","""","""","""","""",1,4/19/2021 20:04,64.237.91.215,Mozilla/5.0 (Windows NT 10.0; Win64; x64; rv:87.0) Gecko/20100101 Firefox/87.0,,Firefox,87,Windows,10
29,1,null,"""",html-keyboard-response,257,558393,0.0-257.0,"""","<div style=""font-size:60px;"">+</div>","""",256,fixationBtwnNeutralMaskAndPrompt,Test,null,1000,"""","""","""","""","""","""","""","""",1,4/19/2021 20:04,64.237.91.215,Mozilla/5.0 (Windows NT 10.0; Win64; x64; rv:87.0) Gecko/20100101 Firefox/87.0,,Firefox,87,Windows,10
29,1,2985,"""",html-button-response,258,561378,0.0-258.0,"""","<img src='jspsych/CFDfaces/CFD-AF-241-141-N.jpg' height=""250px"">,</br><b>Samantha</b>",1,256,IntactOrRearranged,Test,"""","""","""","""",CFD-LM-233-171-N.jpg,Jacob,0,"""","""",1,1,4/19/2021 20:04,64.237.91.215,Mozilla/5.0 (Windows NT 10.0; Win64; x64; rv:87.0) Gecko/20100101 Firefox/87.0,,Firefox,87,Windows,10
29,1,null,"""",html-slider-response,259,566382,0.0-259.0,"""","<img src='jspsych/CFDfaces/CFD-AF-241-141-N.jpg' height=""250px"">,</br><b>Samantha</b>","""",256,ConfidenceQuery,Test,"""","""","""","""",CFD-LM-233-171-N.jpg,Jacob,0,0,null,"""",1,4/19/2021 20:04,64.237.91.215,Mozilla/5.0 (Windows NT 10.0; Win64; x64; rv:87.0) Gecko/20100101 Firefox/87.0,,Firefox,87,Windows,10
29,1,null,"""",html-keyboard-response,260,567385,0.0-260.0,"""","<div style=""font-size:60px;"">+</div>","""",256,ITI,Test,null,1000,"""","""","""","""","""","""","""","""",1,4/19/2021 20:04,64.237.91.215,Mozilla/5.0 (Windows NT 10.0; Win64; x64; rv:87.0) Gecko/20100101 Firefox/87.0,,Firefox,87,Windows,10
29,1,null,"""",image-keyboard-response,261,567643,0.0-261.0,"""",jspsych/scrambledDisgustFaces/scrambledBM08DIS.JPG,"""",256,forwardMask,Test,null,250,"""",d,"""","""","""","""","""","""",1,4/19/2021 20:04,64.237.91.215,Mozilla/5.0 (Windows NT 10.0; Win64; x64; rv:87.0) Gecko/20100101 Firefox/87.0,,Firefox,87,Windows,10
29,1,null,"""",image-keyboard-response,262,567663,0.0-262.0,"""",jspsych/disgustFaces/BM09DIS.JPG,"""",256,Cue,Test,null,16,"""","""","""","""","""","""","""","""",1,4/19/2021 20:04,64.237.91.215,Mozilla/5.0 (Windows NT 10.0; Win64; x64; rv:87.0) Gecko/20100101 Firefox/87.0,,Firefox,87,Windows,10
29,1,null,"""",image-keyboard-response,263,567777,0.0-263.0,"""",jspsych/neutralFaces/AM07NES.JPG,"""",256,backwardMask,Test,null,100,"""","""","""","""","""","""","""","""",1,4/19/2021 20:04,64.237.91.215,Mozilla/5.0 (Windows NT 10.0; Win64; x64; rv:87.0) Gecko/20100101 Firefox/87.0,,Firefox,87,Windows,10
29,1,null,"""",html-keyboard-response,264,568781,0.0-264.0,"""","<div style=""font-size:60px;"">+</div>","""",256,fixationBtwnNeutralMaskAndPrompt,Test,null,1000,"""","""","""","""","""","""","""","""",1,4/19/2021 20:04,64.237.91.215,Mozilla/5.0 (Windows NT 10.0; Win64; x64; rv:87.0) Gecko/20100101 Firefox/87.0,,Firefox,87,Windows,10
29,1,2862,"""",html-button-response,265,571643,0.0-265.0,"""","<img src='jspsych/CFDfaces/CFD-LF-243-175-N.jpg' height=""250px"">,</br><b>Christina</b>",1,256,IntactOrRearranged,Test,"""","""","""","""",CFD-LF-213-079-N.jpg,Jordan,1,"""","""",1,1,4/19/2021 20:04,64.237.91.215,Mozilla/5.0 (Windows NT 10.0; Win64; x64; rv:87.0) Gecko/20100101 Firefox/87.0,,Firefox,87,Windows,10
29,1,2893,"""",html-slider-response,266,574537,0.0-266.0,"""","<img src='jspsych/CFDfaces/CFD-LF-243-175-N.jpg' height=""250px"">,</br><b>Christina</b>","""",256,ConfidenceQuery,Test,"""","""","""","""",CFD-LF-213-079-N.jpg,Jordan,1,0,15,"""",1,4/19/2021 20:04,64.237.91.215,Mozilla/5.0 (Windows NT 10.0; Win64; x64; rv:87.0) Gecko/20100101 Firefox/87.0,,Firefox,87,Windows,10
29,1,null,"""",html-keyboard-response,267,575553,0.0-267.0,"""","<div style=""font-size:60px;"">+</div>","""",256,ITI,Test,null,1000,"""","""","""","""","""","""","""","""",1,4/19/2021 20:04,64.237.91.215,Mozilla/5.0 (Windows NT 10.0; Win64; x64; rv:87.0) Gecko/20100101 Firefox/87.0,,Firefox,87,Windows,10
29,1,null,"""",image-keyboard-response,268,575813,0.0-268.0,"""",jspsych/scrambledDisgustFaces/scrambledAM10DIS.JPG,"""",256,forwardMask,Test,null,250,"""",d,"""","""","""","""","""","""",1,4/19/2021 20:04,64.237.91.215,Mozilla/5.0 (Windows NT 10.0; Win64; x64; rv:87.0) Gecko/20100101 Firefox/87.0,,Firefox,87,Windows,10
29,1,null,"""",image-keyboard-response,269,575833,0.0-269.0,"""",jspsych/disgustFaces/AM10DIS.JPG,"""",256,Cue,Test,null,16,"""","""","""","""","""","""","""","""",1,4/19/2021 20:04,64.237.91.215,Mozilla/5.0 (Windows NT 10.0; Win64; x64; rv:87.0) Gecko/20100101 Firefox/87.0,,Firefox,87,Windows,10
29,1,null,"""",image-keyboard-response,270,575940,0.0-270.0,"""",jspsych/neutralFaces/BM02NES.JPG,"""",256,backwardMask,Test,null,100,"""","""","""","""","""","""","""","""",1,4/19/2021 20:04,64.237.91.215,Mozilla/5.0 (Windows NT 10.0; Win64; x64; rv:87.0) Gecko/20100101 Firefox/87.0,,Firefox,87,Windows,10
29,1,null,"""",html-keyboard-response,271,576951,0.0-271.0,"""","<div style=""font-size:60px;"">+</div>","""",256,fixationBtwnNeutralMaskAndPrompt,Test,null,1000,"""","""","""","""","""","""","""","""",1,4/19/2021 20:04,64.237.91.215,Mozilla/5.0 (Windows NT 10.0; Win64; x64; rv:87.0) Gecko/20100101 Firefox/87.0,,Firefox,87,Windows,10
29,1,2426,"""",html-button-response,272,579379,0.0-272.0,"""","<img src='jspsych/CFDfaces/CFD-LM-239-075-N.jpg' height=""250px"">,</br><b>Gregory</b>",1,256,IntactOrRearranged,Test,"""","""","""","""",CFD-AM-211-052-N.jpg,Ryan,1,"""","""",1,1,4/19/2021 20:04,64.237.91.215,Mozilla/5.0 (Windows NT 10.0; Win64; x64; rv:87.0) Gecko/20100101 Firefox/87.0,,Firefox,87,Windows,10
29,1,2410,"""",html-slider-response,273,581789,0.0-273.0,"""","<img src='jspsych/CFDfaces/CFD-LM-239-075-N.jpg' height=""250px"">,</br><b>Gregory</b>","""",256,ConfidenceQuery,Test,"""","""","""","""",CFD-AM-211-052-N.jpg,Ryan,1,0,55,"""",1,4/19/2021 20:04,64.237.91.215,Mozilla/5.0 (Windows NT 10.0; Win64; x64; rv:87.0) Gecko/20100101 Firefox/87.0,,Firefox,87,Windows,10
29,1,null,"""",html-keyboard-response,274,582805,0.0-274.0,"""","<div style=""font-size:60px;"">+</div>","""",256,ITI,Test,null,1000,"""","""","""","""","""","""","""","""",1,4/19/2021 20:04,64.237.91.215,Mozilla/5.0 (Windows NT 10.0; Win64; x64; rv:87.0) Gecko/20100101 Firefox/87.0,,Firefox,87,Windows,10
29,1,null,"""",image-keyboard-response,275,583070,0.0-275.0,"""",jspsych/scrambledNeutralFaces/scrambledAM08NES.JPG,"""",256,forwardMask,Test,null,250,"""",n,"""","""","""","""","""","""",1,4/19/2021 20:04,64.237.91.215,Mozilla/5.0 (Windows NT 10.0; Win64; x64; rv:87.0) Gecko/20100101 Firefox/87.0,,Firefox,87,Windows,10
29,1,null,"""",image-keyboard-response,276,583101,0.0-276.0,"""",jspsych/neutralFaces/AM08NES.JPG,"""",256,Cue,Test,null,16,"""","""","""","""","""","""","""","""",1,4/19/2021 20:04,64.237.91.215,Mozilla/5.0 (Windows NT 10.0; Win64; x64; rv:87.0) Gecko/20100101 Firefox/87.0,,Firefox,87,Windows,10
29,1,null,"""",image-keyboard-response,277,583212,0.0-277.0,"""",jspsych/neutralFaces/AM29NES.JPG,"""",256,backwardMask,Test,null,100,"""","""","""","""","""","""","""","""",1,4/19/2021 20:04,64.237.91.215,Mozilla/5.0 (Windows NT 10.0; Win64; x64; rv:87.0) Gecko/20100101 Firefox/87.0,,Firefox,87,Windows,10
29,1,null,"""",html-keyboard-response,278,584214,0.0-278.0,"""","<div style=""font-size:60px;"">+</div>","""",256,fixationBtwnNeutralMaskAndPrompt,Test,null,1000,"""","""","""","""","""","""","""","""",1,4/19/2021 20:04,64.237.91.215,Mozilla/5.0 (Windows NT 10.0; Win64; x64; rv:87.0) Gecko/20100101 Firefox/87.0,,Firefox,87,Windows,10
29,1,2938,"""",html-button-response,279,587152,0.0-279.0,"""","<img src='jspsych/CFDfaces/CFD-BF-218-207-N.jpg' height=""250px"">,</br><b>Elizabeth</b>",0,256,IntactOrRearranged,Test,"""","""","""","""",CFD-BM-041-035-N.jpg,Kenneth,1,"""","""",0,1,4/19/2021 20:04,64.237.91.215,Mozilla/5.0 (Windows NT 10.0; Win64; x64; rv:87.0) Gecko/20100101 Firefox/87.0,,Firefox,87,Windows,10
29,1,1412,"""",html-slider-response,280,588566,0.0-280.0,"""","<img src='jspsych/CFDfaces/CFD-BF-218-207-N.jpg' height=""250px"">,</br><b>Elizabeth</b>","""",256,ConfidenceQuery,Test,"""","""","""","""",CFD-BM-041-035-N.jpg,Kenneth,1,0,38,"""",1,4/19/2021 20:04,64.237.91.215,Mozilla/5.0 (Windows NT 10.0; Win64; x64; rv:87.0) Gecko/20100101 Firefox/87.0,,Firefox,87,Windows,10
29,1,null,"""",html-keyboard-response,281,589570,0.0-281.0,"""","<div style=""font-size:60px;"">+</div>","""",256,ITI,Test,null,1000,"""","""","""","""","""","""","""","""",1,4/19/2021 20:04,64.237.91.215,Mozilla/5.0 (Windows NT 10.0; Win64; x64; rv:87.0) Gecko/20100101 Firefox/87.0,,Firefox,87,Windows,10
29,1,null,"""",image-keyboard-response,282,589830,0.0-282.0,"""",jspsych/scrambledDisgustFaces/scrambledBF23DIS.JPG,"""",256,forwardMask,Test,null,250,"""",d,"""","""","""","""","""","""",1,4/19/2021 20:04,64.237.91.215,Mozilla/5.0 (Windows NT 10.0; Win64; x64; rv:87.0) Gecko/20100101 Firefox/87.0,,Firefox,87,Windows,10
29,1,null,"""",image-keyboard-response,283,589851,0.0-283.0,"""",jspsych/disgustFaces/BF23DIS.JPG,"""",256,Cue,Test,null,16,"""","""","""","""","""","""","""","""",1,4/19/2021 20:04,64.237.91.215,Mozilla/5.0 (Windows NT 10.0; Win64; x64; rv:87.0) Gecko/20100101 Firefox/87.0,,Firefox,87,Windows,10
29,1,null,"""",image-keyboard-response,284,589961,0.0-284.0,"""",jspsych/neutralFaces/BF24NES.JPG,"""",256,backwardMask,Test,null,100,"""","""","""","""","""","""","""","""",1,4/19/2021 20:04,64.237.91.215,Mozilla/5.0 (Windows NT 10.0; Win64; x64; rv:87.0) Gecko/20100101 Firefox/87.0,,Firefox,87,Windows,10
29,1,null,"""",html-keyboard-response,285,590964,0.0-285.0,"""","<div style=""font-size:60px;"">+</div>","""",256,fixationBtwnNeutralMaskAndPrompt,Test,null,1000,"""","""","""","""","""","""","""","""",1,4/19/2021 20:04,64.237.91.215,Mozilla/5.0 (Windows NT 10.0; Win64; x64; rv:87.0) Gecko/20100101 Firefox/87.0,,Firefox,87,Windows,10
29,1,3961,"""",html-button-response,286,594925,0.0-286.0,"""","<img src='jspsych/CFDfaces/CFD-BF-023-010-N.jpg' height=""250px"">,</br><b>Michelle</b>",1,256,IntactOrRearranged,Test,"""","""","""","""",CFD-WM-022-001-N.jpg,Cameron,0,"""","""",1,1,4/19/2021 20:04,64.237.91.215,Mozilla/5.0 (Windows NT 10.0; Win64; x64; rv:87.0) Gecko/20100101 Firefox/87.0,,Firefox,87,Windows,10
29,1,2610,"""",html-slider-response,287,597538,0.0-287.0,"""","<img src='jspsych/CFDfaces/CFD-BF-023-010-N.jpg' height=""250px"">,</br><b>Michelle</b>","""",256,ConfidenceQuery,Test,"""","""","""","""",CFD-WM-022-001-N.jpg,Cameron,0,0,1,"""",1,4/19/2021 20:04,64.237.91.215,Mozilla/5.0 (Windows NT 10.0; Win64; x64; rv:87.0) Gecko/20100101 Firefox/87.0,,Firefox,87,Windows,10
29,1,null,"""",html-keyboard-response,288,598544,0.0-288.0,"""","<div style=""font-size:60px;"">+</div>","""",256,ITI,Test,null,1000,"""","""","""","""","""","""","""","""",1,4/19/2021 20:04,64.237.91.215,Mozilla/5.0 (Windows NT 10.0; Win64; x64; rv:87.0) Gecko/20100101 Firefox/87.0,,Firefox,87,Windows,10
29,1,null,"""",image-keyboard-response,289,598795,0.0-289.0,"""",jspsych/scrambledDisgustFaces/scrambledAF21DIS.JPG,"""",256,forwardMask,Test,null,250,"""",d,"""","""","""","""","""","""",1,4/19/2021 20:04,64.237.91.215,Mozilla/5.0 (Windows NT 10.0; Win64; x64; rv:87.0) Gecko/20100101 Firefox/87.0,,Firefox,87,Windows,10
29,1,null,"""",image-keyboard-response,290,598828,0.0-290.0,"""",jspsych/disgustFaces/AF21DIS.JPG,"""",256,Cue,Test,null,16,"""","""","""","""","""","""","""","""",1,4/19/2021 20:04,64.237.91.215,Mozilla/5.0 (Windows NT 10.0; Win64; x64; rv:87.0) Gecko/20100101 Firefox/87.0,,Firefox,87,Windows,10
29,1,null,"""",image-keyboard-response,291,598935,0.0-291.0,"""",jspsych/neutralFaces/BF34NES.JPG,"""",256,backwardMask,Test,null,100,"""","""","""","""","""","""","""","""",1,4/19/2021 20:04,64.237.91.215,Mozilla/5.0 (Windows NT 10.0; Win64; x64; rv:87.0) Gecko/20100101 Firefox/87.0,,Firefox,87,Windows,10
29,1,null,"""",html-keyboard-response,292,599936,0.0-292.0,"""","<div style=""font-size:60px;"">+</div>","""",256,fixationBtwnNeutralMaskAndPrompt,Test,null,1000,"""","""","""","""","""","""","""","""",1,4/19/2021 20:04,64.237.91.215,Mozilla/5.0 (Windows NT 10.0; Win64; x64; rv:87.0) Gecko/20100101 Firefox/87.0,,Firefox,87,Windows,10
29,1,1512,"""",html-button-response,293,601449,0.0-293.0,"""","<img src='jspsych/CFDfaces/CFD-BF-001-025-N.jpg' height=""250px"">,</br><b>Julie</b>",1,256,IntactOrRearranged,Test,"""","""","""","""",CFD-BF-016-017-N.jpg,Jasmine,0,"""","""",1,1,4/19/2021 20:04,64.237.91.215,Mozilla/5.0 (Windows NT 10.0; Win64; x64; rv:87.0) Gecko/20100101 Firefox/87.0,,Firefox,87,Windows,10
29,1,2271,"""",html-slider-response,294,603724,0.0-294.0,"""","<img src='jspsych/CFDfaces/CFD-BF-001-025-N.jpg' height=""250px"">,</br><b>Julie</b>","""",256,ConfidenceQuery,Test,"""","""","""","""",CFD-BF-016-017-N.jpg,Jasmine,0,0,55,"""",1,4/19/2021 20:04,64.237.91.215,Mozilla/5.0 (Windows NT 10.0; Win64; x64; rv:87.0) Gecko/20100101 Firefox/87.0,,Firefox,87,Windows,10
29,1,null,"""",html-keyboard-response,295,604726,0.0-295.0,"""","<div style=""font-size:60px;"">+</div>","""",256,ITI,Test,null,1000,"""","""","""","""","""","""","""","""",1,4/19/2021 20:04,64.237.91.215,Mozilla/5.0 (Windows NT 10.0; Win64; x64; rv:87.0) Gecko/20100101 Firefox/87.0,,Firefox,87,Windows,10
29,1,null,"""",image-keyboard-response,296,604982,0.0-296.0,"""",jspsych/scrambledNeutralFaces/scrambledAM18NES.JPG,"""",256,forwardMask,Test,null,250,"""",n,"""","""","""","""","""","""",1,4/19/2021 20:04,64.237.91.215,Mozilla/5.0 (Windows NT 10.0; Win64; x64; rv:87.0) Gecko/20100101 Firefox/87.0,,Firefox,87,Windows,10
