run_id,condition,rt,responses,trial_type,trial_index,time_elapsed,internal_node_id,question_order,stimulus,button_pressed,iTrial,Phase,ExperimentPhase,key_press,StimulusDurationSetting,CharacterResponse,correctResponse,Face,Name,rearranged,didSubjectEnterRearranged,slider_start,response,Block,recorded_at,ip,user_agent,device,browser,browser_version,platform,platform_version
236,1,6200,"{""Q0"":""A3K4QS37WTVP1V""}",survey-text,0,6201,0.0-0.0,"""","""","""","""","""","""","""","""","""","""","""","""","""","""","""","""","""",5/3/2021 10:24,84.216.105.136,Mozilla/5.0 (Windows NT 10.0; Win64; x64; rv:88.0) Gecko/20100101 Firefox/88.0,,Firefox,88,Windows,10
236,1,2449,"{""Q0"":""25""}",survey-text,1,8654,0.0-1.0,"""","""","""","""","""","""","""","""","""","""","""","""","""","""","""","""","""",5/3/2021 10:24,84.216.105.136,Mozilla/5.0 (Windows NT 10.0; Win64; x64; rv:88.0) Gecko/20100101 Firefox/88.0,,Firefox,88,Windows,10
236,1,4973,"{""Q0"":""male"",""Q1"":""Not Hispanic/Latino"",""Q2"":""White or Caucasian""}",survey-multi-choice,2,13630,0.0-2.0,"[0,1,2]","""","""","""","""","""","""","""","""","""","""","""","""","""","""","""","""",5/3/2021 10:24,84.216.105.136,Mozilla/5.0 (Windows NT 10.0; Win64; x64; rv:88.0) Gecko/20100101 Firefox/88.0,,Firefox,88,Windows,10
236,1,12276,"""",image-button-response,3,25913,0.0-3.0,"""",directionsMemoryAssociation1.JPG,0,1,IntroDirections1,break,"""","""","""","""","""","""","""","""","""","""","""",5/3/2021 10:24,84.216.105.136,Mozilla/5.0 (Windows NT 10.0; Win64; x64; rv:88.0) Gecko/20100101 Firefox/88.0,,Firefox,88,Windows,10
236,1,24373,"""",image-button-response,4,50290,0.0-4.0,"""",directionsMemoryAssociation2.JPG,0,1,IntroDirections2,break,"""","""","""","""","""","""","""","""","""","""","""",5/3/2021 10:24,84.216.105.136,Mozilla/5.0 (Windows NT 10.0; Win64; x64; rv:88.0) Gecko/20100101 Firefox/88.0,,Firefox,88,Windows,10
236,1,3505,"""",html-keyboard-response,5,55297,0.0-5.0,"""","<img src='jspsych/CFDfaces/CFD-LM-201-057-N.jpg' height=""250px"">,</br><b>Patrick</b>","""",1,IntactFace,Practice,70,5000,f,"""","""","""","""","""","""","""","""",5/3/2021 10:24,84.216.105.136,Mozilla/5.0 (Windows NT 10.0; Win64; x64; rv:88.0) Gecko/20100101 Firefox/88.0,,Firefox,88,Windows,10
236,1,null,"""",html-keyboard-response,6,55806,0.0-6.0,"""","<div style=""font-size:60px;"">+</div>","""",1,ITI,Practice,null,1000,"""","""","""","""","""","""","""","""","""",5/3/2021 10:24,84.216.105.136,Mozilla/5.0 (Windows NT 10.0; Win64; x64; rv:88.0) Gecko/20100101 Firefox/88.0,,Firefox,88,Windows,10
236,1,2469,"""",html-keyboard-response,7,60825,0.0-7.0,"""","<img src='jspsych/CFDfaces/CFD-BM-022-022-N.jpg' height=""250px"">,</br><b>Carlos</b>","""",2,IntactFace,Practice,70,5000,f,"""","""","""","""","""","""","""","""",5/3/2021 10:24,84.216.105.136,Mozilla/5.0 (Windows NT 10.0; Win64; x64; rv:88.0) Gecko/20100101 Firefox/88.0,,Firefox,88,Windows,10
236,1,null,"""",html-keyboard-response,8,61336,0.0-8.0,"""","<div style=""font-size:60px;"">+</div>","""",2,ITI,Practice,null,1000,"""","""","""","""","""","""","""","""","""",5/3/2021 10:24,84.216.105.136,Mozilla/5.0 (Windows NT 10.0; Win64; x64; rv:88.0) Gecko/20100101 Firefox/88.0,,Firefox,88,Windows,10
236,1,2684,"""",html-keyboard-response,9,66353,0.0-9.0,"""","<img src='jspsych/CFDfaces/CFD-AF-201-060-N.jpg' height=""250px"">,</br><b>Katelyn</b>","""",3,IntactFace,Practice,70,5000,f,"""","""","""","""","""","""","""","""",5/3/2021 10:24,84.216.105.136,Mozilla/5.0 (Windows NT 10.0; Win64; x64; rv:88.0) Gecko/20100101 Firefox/88.0,,Firefox,88,Windows,10
236,1,null,"""",html-keyboard-response,10,66869,0.0-10.0,"""","<div style=""font-size:60px;"">+</div>","""",3,ITI,Practice,null,1000,"""","""","""","""","""","""","""","""","""",5/3/2021 10:24,84.216.105.136,Mozilla/5.0 (Windows NT 10.0; Win64; x64; rv:88.0) Gecko/20100101 Firefox/88.0,,Firefox,88,Windows,10
236,1,1296,"""",html-keyboard-response,11,71880,0.0-11.0,"""","<img src='jspsych/CFDfaces/CFD-LF-236-221-N.jpg' height=""250px"">,</br><b>Cassandra</b>","""",4,IntactFace,Practice,70,5000,f,"""","""","""","""","""","""","""","""",5/3/2021 10:24,84.216.105.136,Mozilla/5.0 (Windows NT 10.0; Win64; x64; rv:88.0) Gecko/20100101 Firefox/88.0,,Firefox,88,Windows,10
236,1,null,"""",html-keyboard-response,12,72392,0.0-12.0,"""","<div style=""font-size:60px;"">+</div>","""",4,ITI,Practice,null,1000,"""","""","""","""","""","""","""","""","""",5/3/2021 10:24,84.216.105.136,Mozilla/5.0 (Windows NT 10.0; Win64; x64; rv:88.0) Gecko/20100101 Firefox/88.0,,Firefox,88,Windows,10
236,1,1570,"""",html-keyboard-response,13,77399,0.0-13.0,"""","<img src='jspsych/CFDfaces/CFD-BM-027-001-N.jpg' height=""250px"">,</br><b>Marcus</b>","""",5,IntactFace,Practice,70,5000,f,"""","""","""","""","""","""","""","""",5/3/2021 10:24,84.216.105.136,Mozilla/5.0 (Windows NT 10.0; Win64; x64; rv:88.0) Gecko/20100101 Firefox/88.0,,Firefox,88,Windows,10
236,1,null,"""",html-keyboard-response,14,77900,0.0-14.0,"""","<div style=""font-size:60px;"">+</div>","""",5,ITI,Practice,null,1000,"""","""","""","""","""","""","""","""","""",5/3/2021 10:24,84.216.105.136,Mozilla/5.0 (Windows NT 10.0; Win64; x64; rv:88.0) Gecko/20100101 Firefox/88.0,,Firefox,88,Windows,10
236,1,1330,"""",html-keyboard-response,15,82909,0.0-15.0,"""","<img src='jspsych/CFDfaces/CFD-BM-207-024-N.jpg' height=""250px"">,</br><b>Samuel</b>","""",6,IntactFace,Practice,70,5000,f,"""","""","""","""","""","""","""","""",5/3/2021 10:24,84.216.105.136,Mozilla/5.0 (Windows NT 10.0; Win64; x64; rv:88.0) Gecko/20100101 Firefox/88.0,,Firefox,88,Windows,10
236,1,null,"""",html-keyboard-response,16,83425,0.0-16.0,"""","<div style=""font-size:60px;"">+</div>","""",6,ITI,Practice,null,1000,"""","""","""","""","""","""","""","""","""",5/3/2021 10:24,84.216.105.136,Mozilla/5.0 (Windows NT 10.0; Win64; x64; rv:88.0) Gecko/20100101 Firefox/88.0,,Firefox,88,Windows,10
236,1,1060,"""",html-keyboard-response,17,88444,0.0-17.0,"""","<img src='jspsych/CFDfaces/CFD-BF-021-013-N.jpg' height=""250px"">,</br><b>Shannon</b>","""",7,IntactFace,Practice,70,5000,f,"""","""","""","""","""","""","""","""",5/3/2021 10:24,84.216.105.136,Mozilla/5.0 (Windows NT 10.0; Win64; x64; rv:88.0) Gecko/20100101 Firefox/88.0,,Firefox,88,Windows,10
236,1,null,"""",html-keyboard-response,18,88945,0.0-18.0,"""","<div style=""font-size:60px;"">+</div>","""",7,ITI,Practice,null,1000,"""","""","""","""","""","""","""","""","""",5/3/2021 10:24,84.216.105.136,Mozilla/5.0 (Windows NT 10.0; Win64; x64; rv:88.0) Gecko/20100101 Firefox/88.0,,Firefox,88,Windows,10
236,1,754,"""",html-keyboard-response,19,93954,0.0-19.0,"""","<img src='jspsych/CFDfaces/CFD-LF-239-148-N.jpg' height=""250px"">,</br><b>Tara</b>","""",8,IntactFace,Practice,70,5000,f,"""","""","""","""","""","""","""","""",5/3/2021 10:24,84.216.105.136,Mozilla/5.0 (Windows NT 10.0; Win64; x64; rv:88.0) Gecko/20100101 Firefox/88.0,,Firefox,88,Windows,10
236,1,null,"""",html-keyboard-response,20,94467,0.0-20.0,"""","<div style=""font-size:60px;"">+</div>","""",8,ITI,Practice,null,1000,"""","""","""","""","""","""","""","""","""",5/3/2021 10:24,84.216.105.136,Mozilla/5.0 (Windows NT 10.0; Win64; x64; rv:88.0) Gecko/20100101 Firefox/88.0,,Firefox,88,Windows,10
236,1,12337,"""",image-button-response,21,106808,0.0-21.0,"""",directionsForTest.JPG,0,1,directionsForTest,break,"""","""","""","""","""","""","""","""","""","""","""",5/3/2021 10:24,84.216.105.136,Mozilla/5.0 (Windows NT 10.0; Win64; x64; rv:88.0) Gecko/20100101 Firefox/88.0,,Firefox,88,Windows,10
236,1,5290,"""",image-button-response,22,112101,0.0-22.0,"""",directionsForTest2.JPG,0,1,directionsForTest2,break,"""","""","""","""","""","""","""","""","""","""","""",5/3/2021 10:24,84.216.105.136,Mozilla/5.0 (Windows NT 10.0; Win64; x64; rv:88.0) Gecko/20100101 Firefox/88.0,,Firefox,88,Windows,10
236,1,null,"""",html-keyboard-response,23,113111,0.0-23.0,"""","<div style=""font-size:60px;"">+</div>","""",1,ITI,Practice,null,1000,"""","""","""","""","""","""","""","""","""",5/3/2021 10:24,84.216.105.136,Mozilla/5.0 (Windows NT 10.0; Win64; x64; rv:88.0) Gecko/20100101 Firefox/88.0,,Firefox,88,Windows,10
236,1,null,"""",image-keyboard-response,24,113376,0.0-24.0,"""",jspsych/scrambledNeutralFaces/scrambledBF02NES.JPG,"""",1,forwardMask,Practice,null,250,"""",n,"""","""","""","""","""","""","""",5/3/2021 10:24,84.216.105.136,Mozilla/5.0 (Windows NT 10.0; Win64; x64; rv:88.0) Gecko/20100101 Firefox/88.0,,Firefox,88,Windows,10
236,1,null,"""",image-keyboard-response,25,113408,0.0-25.0,"""",jspsych/neutralFaces/BF02NES.JPG,"""",1,Cue,Practice,null,16,"""","""","""","""","""","""","""","""","""",5/3/2021 10:24,84.216.105.136,Mozilla/5.0 (Windows NT 10.0; Win64; x64; rv:88.0) Gecko/20100101 Firefox/88.0,,Firefox,88,Windows,10
236,1,null,"""",image-keyboard-response,26,113518,0.0-26.0,"""",jspsych/neutralFaces/AF18NES.JPG,"""",1,backwardMask,Practice,null,100,"""","""","""","""","""","""","""","""","""",5/3/2021 10:24,84.216.105.136,Mozilla/5.0 (Windows NT 10.0; Win64; x64; rv:88.0) Gecko/20100101 Firefox/88.0,,Firefox,88,Windows,10
236,1,null,"""",html-keyboard-response,27,114526,0.0-27.0,"""","<div style=""font-size:60px;"">+</div>","""",1,fixationBtwnNeutralMaskAndPrompt,Practice,null,1000,"""","""","""","""","""","""","""","""","""",5/3/2021 10:24,84.216.105.136,Mozilla/5.0 (Windows NT 10.0; Win64; x64; rv:88.0) Gecko/20100101 Firefox/88.0,,Firefox,88,Windows,10
236,1,3310,"""",html-button-response,28,117838,0.0-28.0,"""","<img src='jspsych/CFDfaces/CFD-BF-021-013-N.jpg'height=""250px""></br><b>Shannon</b>",0,1,IntactOrRearranged,Practice,"""","""","""","""",CFD-BF-021-013-N.jpg,Shannon,0,0,"""","""","""",5/3/2021 10:24,84.216.105.136,Mozilla/5.0 (Windows NT 10.0; Win64; x64; rv:88.0) Gecko/20100101 Firefox/88.0,,Firefox,88,Windows,10
236,1,1647,"""",html-slider-response,29,119488,0.0-29.0,"""","<img src='jspsych/CFDfaces/CFD-BF-021-013-N.jpg'height=""250px""></br><b>Shannon</b>","""",1,ConfidenceQuery,Practice,"""","""","""","""",CFD-WF-006-002-N.jpg,Lauren,0,"""",0,100,"""",5/3/2021 10:24,84.216.105.136,Mozilla/5.0 (Windows NT 10.0; Win64; x64; rv:88.0) Gecko/20100101 Firefox/88.0,,Firefox,88,Windows,10
236,1,2193,"""",html-button-response,30,121682,0.0-30.0,"""",You are Correct. You called an Intact Pair Intact,0,1,feedback,Practice,"""","""","""","""","""","""","""","""","""","""","""",5/3/2021 10:24,84.216.105.136,Mozilla/5.0 (Windows NT 10.0; Win64; x64; rv:88.0) Gecko/20100101 Firefox/88.0,,Firefox,88,Windows,10
236,1,null,"""",html-keyboard-response,31,122686,0.0-31.0,"""","<div style=""font-size:60px;"">+</div>","""",2,ITI,Practice,null,1000,"""","""","""","""","""","""","""","""","""",5/3/2021 10:24,84.216.105.136,Mozilla/5.0 (Windows NT 10.0; Win64; x64; rv:88.0) Gecko/20100101 Firefox/88.0,,Firefox,88,Windows,10
236,1,null,"""",image-keyboard-response,32,122936,0.0-32.0,"""",jspsych/scrambledDisgustFaces/scrambledAM23DIS.JPG,"""",2,forwardMask,Practice,null,250,"""",d,"""","""","""","""","""","""","""",5/3/2021 10:24,84.216.105.136,Mozilla/5.0 (Windows NT 10.0; Win64; x64; rv:88.0) Gecko/20100101 Firefox/88.0,,Firefox,88,Windows,10
236,1,null,"""",image-keyboard-response,33,122954,0.0-33.0,"""",jspsych/disgustFaces/AM23DIS.JPG,"""",2,Cue,Practice,null,16,"""","""","""","""","""","""","""","""","""",5/3/2021 10:24,84.216.105.136,Mozilla/5.0 (Windows NT 10.0; Win64; x64; rv:88.0) Gecko/20100101 Firefox/88.0,,Firefox,88,Windows,10
236,1,null,"""",image-keyboard-response,34,123057,0.0-34.0,"""",jspsych/neutralFaces/AM33NES.JPG,"""",2,backwardMask,Practice,null,100,"""","""","""","""","""","""","""","""","""",5/3/2021 10:24,84.216.105.136,Mozilla/5.0 (Windows NT 10.0; Win64; x64; rv:88.0) Gecko/20100101 Firefox/88.0,,Firefox,88,Windows,10
236,1,null,"""",html-keyboard-response,35,124074,0.0-35.0,"""","<div style=""font-size:60px;"">+</div>","""",2,fixationBtwnNeutralMaskAndPrompt,Practice,null,1000,"""","""","""","""","""","""","""","""","""",5/3/2021 10:24,84.216.105.136,Mozilla/5.0 (Windows NT 10.0; Win64; x64; rv:88.0) Gecko/20100101 Firefox/88.0,,Firefox,88,Windows,10
236,1,4118,"""",html-button-response,36,128196,0.0-36.0,"""","<img src='jspsych/CFDfaces/CFD-LF-236-221-N.jpg'height=""250px""></br><b>Katelyn</b>",0,2,IntactOrRearranged,Practice,"""","""","""","""",CFD-LF-236-221-N.jpg,Katelyn,1,0,"""","""","""",5/3/2021 10:24,84.216.105.136,Mozilla/5.0 (Windows NT 10.0; Win64; x64; rv:88.0) Gecko/20100101 Firefox/88.0,,Firefox,88,Windows,10
236,1,1890,"""",html-slider-response,37,130087,0.0-37.0,"""","<img src='jspsych/CFDfaces/CFD-LF-236-221-N.jpg'height=""250px""></br><b>Katelyn</b>","""",2,ConfidenceQuery,Practice,"""","""","""","""",CFD-WF-006-002-N.jpg,Lauren,1,"""",0,58,"""",5/3/2021 10:24,84.216.105.136,Mozilla/5.0 (Windows NT 10.0; Win64; x64; rv:88.0) Gecko/20100101 Firefox/88.0,,Firefox,88,Windows,10
236,1,1064,"""",html-button-response,38,131151,0.0-38.0,"""",You are Incorrect. You called a Rearranged Pair Intact,0,2,feedback,Practice,"""","""","""","""","""","""","""","""","""","""","""",5/3/2021 10:24,84.216.105.136,Mozilla/5.0 (Windows NT 10.0; Win64; x64; rv:88.0) Gecko/20100101 Firefox/88.0,,Firefox,88,Windows,10
236,1,null,"""",html-keyboard-response,39,132154,0.0-39.0,"""","<div style=""font-size:60px;"">+</div>","""",3,ITI,Practice,null,1000,"""","""","""","""","""","""","""","""","""",5/3/2021 10:24,84.216.105.136,Mozilla/5.0 (Windows NT 10.0; Win64; x64; rv:88.0) Gecko/20100101 Firefox/88.0,,Firefox,88,Windows,10
236,1,null,"""",image-keyboard-response,40,132418,0.0-40.0,"""",jspsych/scrambledNeutralFaces/scrambledBF29NES.JPG,"""",3,forwardMask,Practice,null,250,"""",n,"""","""","""","""","""","""","""",5/3/2021 10:24,84.216.105.136,Mozilla/5.0 (Windows NT 10.0; Win64; x64; rv:88.0) Gecko/20100101 Firefox/88.0,,Firefox,88,Windows,10
236,1,null,"""",image-keyboard-response,41,132449,0.0-41.0,"""",jspsych/neutralFaces/BF29NES.JPG,"""",3,Cue,Practice,null,16,"""","""","""","""","""","""","""","""","""",5/3/2021 10:24,84.216.105.136,Mozilla/5.0 (Windows NT 10.0; Win64; x64; rv:88.0) Gecko/20100101 Firefox/88.0,,Firefox,88,Windows,10
236,1,null,"""",image-keyboard-response,42,132557,0.0-42.0,"""",jspsych/neutralFaces/AF17NES.JPG,"""",3,backwardMask,Practice,null,100,"""","""","""","""","""","""","""","""","""",5/3/2021 10:24,84.216.105.136,Mozilla/5.0 (Windows NT 10.0; Win64; x64; rv:88.0) Gecko/20100101 Firefox/88.0,,Firefox,88,Windows,10
236,1,null,"""",html-keyboard-response,43,133566,0.0-43.0,"""","<div style=""font-size:60px;"">+</div>","""",3,fixationBtwnNeutralMaskAndPrompt,Practice,null,1000,"""","""","""","""","""","""","""","""","""",5/3/2021 10:24,84.216.105.136,Mozilla/5.0 (Windows NT 10.0; Win64; x64; rv:88.0) Gecko/20100101 Firefox/88.0,,Firefox,88,Windows,10
236,1,1623,"""",html-button-response,44,135191,0.0-44.0,"""","<img src='jspsych/CFDfaces/CFD-BM-022-022-N.jpg'height=""250px""></br><b>Marcus</b>",0,3,IntactOrRearranged,Practice,"""","""","""","""",CFD-BM-022-022-N.jpg,Marcus,1,0,"""","""","""",5/3/2021 10:24,84.216.105.136,Mozilla/5.0 (Windows NT 10.0; Win64; x64; rv:88.0) Gecko/20100101 Firefox/88.0,,Firefox,88,Windows,10
236,1,1751,"""",html-slider-response,45,136944,0.0-45.0,"""","<img src='jspsych/CFDfaces/CFD-BM-022-022-N.jpg'height=""250px""></br><b>Marcus</b>","""",3,ConfidenceQuery,Practice,"""","""","""","""",CFD-WF-006-002-N.jpg,Lauren,1,"""",0,82,"""",5/3/2021 10:24,84.216.105.136,Mozilla/5.0 (Windows NT 10.0; Win64; x64; rv:88.0) Gecko/20100101 Firefox/88.0,,Firefox,88,Windows,10
236,1,898,"""",html-button-response,46,137846,0.0-46.0,"""",You are Incorrect. You called a Rearranged Pair Intact,0,3,feedback,Practice,"""","""","""","""","""","""","""","""","""","""","""",5/3/2021 10:24,84.216.105.136,Mozilla/5.0 (Windows NT 10.0; Win64; x64; rv:88.0) Gecko/20100101 Firefox/88.0,,Firefox,88,Windows,10
236,1,null,"""",html-keyboard-response,47,138860,0.0-47.0,"""","<div style=""font-size:60px;"">+</div>","""",4,ITI,Practice,null,1000,"""","""","""","""","""","""","""","""","""",5/3/2021 10:24,84.216.105.136,Mozilla/5.0 (Windows NT 10.0; Win64; x64; rv:88.0) Gecko/20100101 Firefox/88.0,,Firefox,88,Windows,10
236,1,null,"""",image-keyboard-response,48,139127,0.0-48.0,"""",jspsych/scrambledNeutralFaces/scrambledAM27NES.JPG,"""",4,forwardMask,Practice,null,250,"""",n,"""","""","""","""","""","""","""",5/3/2021 10:24,84.216.105.136,Mozilla/5.0 (Windows NT 10.0; Win64; x64; rv:88.0) Gecko/20100101 Firefox/88.0,,Firefox,88,Windows,10
236,1,null,"""",image-keyboard-response,49,139158,0.0-49.0,"""",jspsych/neutralFaces/AM27NES.JPG,"""",4,Cue,Practice,null,16,"""","""","""","""","""","""","""","""","""",5/3/2021 10:24,84.216.105.136,Mozilla/5.0 (Windows NT 10.0; Win64; x64; rv:88.0) Gecko/20100101 Firefox/88.0,,Firefox,88,Windows,10
236,1,null,"""",image-keyboard-response,50,139266,0.0-50.0,"""",jspsych/neutralFaces/AM32NES.JPG,"""",4,backwardMask,Practice,null,100,"""","""","""","""","""","""","""","""","""",5/3/2021 10:24,84.216.105.136,Mozilla/5.0 (Windows NT 10.0; Win64; x64; rv:88.0) Gecko/20100101 Firefox/88.0,,Firefox,88,Windows,10
236,1,null,"""",html-keyboard-response,51,140267,0.0-51.0,"""","<div style=""font-size:60px;"">+</div>","""",4,fixationBtwnNeutralMaskAndPrompt,Practice,null,1000,"""","""","""","""","""","""","""","""","""",5/3/2021 10:24,84.216.105.136,Mozilla/5.0 (Windows NT 10.0; Win64; x64; rv:88.0) Gecko/20100101 Firefox/88.0,,Firefox,88,Windows,10
236,1,1391,"""",html-button-response,52,141659,0.0-52.0,"""","<img src='jspsych/CFDfaces/CFD-LF-239-148-N.jpg'height=""250px""></br><b>Tara</b>",0,4,IntactOrRearranged,Practice,"""","""","""","""",CFD-LF-239-148-N.jpg,Tara,0,0,"""","""","""",5/3/2021 10:24,84.216.105.136,Mozilla/5.0 (Windows NT 10.0; Win64; x64; rv:88.0) Gecko/20100101 Firefox/88.0,,Firefox,88,Windows,10
236,1,1740,"""",html-slider-response,53,143401,0.0-53.0,"""","<img src='jspsych/CFDfaces/CFD-LF-239-148-N.jpg'height=""250px""></br><b>Tara</b>","""",4,ConfidenceQuery,Practice,"""","""","""","""",CFD-WF-006-002-N.jpg,Lauren,0,"""",0,100,"""",5/3/2021 10:24,84.216.105.136,Mozilla/5.0 (Windows NT 10.0; Win64; x64; rv:88.0) Gecko/20100101 Firefox/88.0,,Firefox,88,Windows,10
236,1,942,"""",html-button-response,54,144344,0.0-54.0,"""",You are Correct. You called an Intact Pair Intact,0,4,feedback,Practice,"""","""","""","""","""","""","""","""","""","""","""",5/3/2021 10:24,84.216.105.136,Mozilla/5.0 (Windows NT 10.0; Win64; x64; rv:88.0) Gecko/20100101 Firefox/88.0,,Firefox,88,Windows,10
236,1,null,"""",html-keyboard-response,55,145352,0.0-55.0,"""","<div style=""font-size:60px;"">+</div>","""",5,ITI,Practice,null,1000,"""","""","""","""","""","""","""","""","""",5/3/2021 10:24,84.216.105.136,Mozilla/5.0 (Windows NT 10.0; Win64; x64; rv:88.0) Gecko/20100101 Firefox/88.0,,Firefox,88,Windows,10
236,1,null,"""",image-keyboard-response,56,145617,0.0-56.0,"""",jspsych/scrambledNeutralFaces/scrambledBM31NES.JPG,"""",5,forwardMask,Practice,null,250,"""",n,"""","""","""","""","""","""","""",5/3/2021 10:24,84.216.105.136,Mozilla/5.0 (Windows NT 10.0; Win64; x64; rv:88.0) Gecko/20100101 Firefox/88.0,,Firefox,88,Windows,10
236,1,null,"""",image-keyboard-response,57,145647,0.0-57.0,"""",jspsych/neutralFaces/BM31NES.JPG,"""",5,Cue,Practice,null,16,"""","""","""","""","""","""","""","""","""",5/3/2021 10:24,84.216.105.136,Mozilla/5.0 (Windows NT 10.0; Win64; x64; rv:88.0) Gecko/20100101 Firefox/88.0,,Firefox,88,Windows,10
236,1,null,"""",image-keyboard-response,58,145757,0.0-58.0,"""",jspsych/neutralFaces/AM17NES.JPG,"""",5,backwardMask,Practice,null,100,"""","""","""","""","""","""","""","""","""",5/3/2021 10:24,84.216.105.136,Mozilla/5.0 (Windows NT 10.0; Win64; x64; rv:88.0) Gecko/20100101 Firefox/88.0,,Firefox,88,Windows,10
236,1,null,"""",html-keyboard-response,59,146767,0.0-59.0,"""","<div style=""font-size:60px;"">+</div>","""",5,fixationBtwnNeutralMaskAndPrompt,Practice,null,1000,"""","""","""","""","""","""","""","""","""",5/3/2021 10:24,84.216.105.136,Mozilla/5.0 (Windows NT 10.0; Win64; x64; rv:88.0) Gecko/20100101 Firefox/88.0,,Firefox,88,Windows,10
236,1,1579,"""",html-button-response,60,148347,0.0-60.0,"""","<img src='jspsych/CFDfaces/CFD-AF-201-060-N.jpg'height=""250px""></br><b>Cassandra</b>",1,5,IntactOrRearranged,Practice,"""","""","""","""",CFD-AF-201-060-N.jpg,Cassandra,1,1,"""","""","""",5/3/2021 10:24,84.216.105.136,Mozilla/5.0 (Windows NT 10.0; Win64; x64; rv:88.0) Gecko/20100101 Firefox/88.0,,Firefox,88,Windows,10
236,1,1620,"""",html-slider-response,61,149969,0.0-61.0,"""","<img src='jspsych/CFDfaces/CFD-AF-201-060-N.jpg'height=""250px""></br><b>Cassandra</b>","""",5,ConfidenceQuery,Practice,"""","""","""","""",CFD-WF-006-002-N.jpg,Lauren,1,"""",0,78,"""",5/3/2021 10:24,84.216.105.136,Mozilla/5.0 (Windows NT 10.0; Win64; x64; rv:88.0) Gecko/20100101 Firefox/88.0,,Firefox,88,Windows,10
236,1,961,"""",html-button-response,62,150932,0.0-62.0,"""",You are Correct. You Called A Rearranged Pair Rearranged,0,5,feedback,Practice,"""","""","""","""","""","""","""","""","""","""","""",5/3/2021 10:24,84.216.105.136,Mozilla/5.0 (Windows NT 10.0; Win64; x64; rv:88.0) Gecko/20100101 Firefox/88.0,,Firefox,88,Windows,10
236,1,null,"""",html-keyboard-response,63,151947,0.0-63.0,"""","<div style=""font-size:60px;"">+</div>","""",6,ITI,Practice,null,1000,"""","""","""","""","""","""","""","""","""",5/3/2021 10:24,84.216.105.136,Mozilla/5.0 (Windows NT 10.0; Win64; x64; rv:88.0) Gecko/20100101 Firefox/88.0,,Firefox,88,Windows,10
236,1,null,"""",image-keyboard-response,64,152211,0.0-64.0,"""",jspsych/scrambledNeutralFaces/scrambledBM23NES.JPG,"""",6,forwardMask,Practice,null,250,"""",n,"""","""","""","""","""","""","""",5/3/2021 10:24,84.216.105.136,Mozilla/5.0 (Windows NT 10.0; Win64; x64; rv:88.0) Gecko/20100101 Firefox/88.0,,Firefox,88,Windows,10
236,1,null,"""",image-keyboard-response,65,152243,0.0-65.0,"""",jspsych/neutralFaces/BM23NES.JPG,"""",6,Cue,Practice,null,16,"""","""","""","""","""","""","""","""","""",5/3/2021 10:24,84.216.105.136,Mozilla/5.0 (Windows NT 10.0; Win64; x64; rv:88.0) Gecko/20100101 Firefox/88.0,,Firefox,88,Windows,10
236,1,null,"""",image-keyboard-response,66,152352,0.0-66.0,"""",jspsych/neutralFaces/AM18NES.JPG,"""",6,backwardMask,Practice,null,100,"""","""","""","""","""","""","""","""","""",5/3/2021 10:24,84.216.105.136,Mozilla/5.0 (Windows NT 10.0; Win64; x64; rv:88.0) Gecko/20100101 Firefox/88.0,,Firefox,88,Windows,10
236,1,null,"""",html-keyboard-response,67,153363,0.0-67.0,"""","<div style=""font-size:60px;"">+</div>","""",6,fixationBtwnNeutralMaskAndPrompt,Practice,null,1000,"""","""","""","""","""","""","""","""","""",5/3/2021 10:24,84.216.105.136,Mozilla/5.0 (Windows NT 10.0; Win64; x64; rv:88.0) Gecko/20100101 Firefox/88.0,,Firefox,88,Windows,10
236,1,987,"""",html-button-response,68,154351,0.0-68.0,"""","<img src='jspsych/CFDfaces/CFD-LM-201-057-N.jpg'height=""250px""></br><b>Patrick</b>",0,6,IntactOrRearranged,Practice,"""","""","""","""",CFD-LM-201-057-N.jpg,Patrick,0,0,"""","""","""",5/3/2021 10:24,84.216.105.136,Mozilla/5.0 (Windows NT 10.0; Win64; x64; rv:88.0) Gecko/20100101 Firefox/88.0,,Firefox,88,Windows,10
236,1,1240,"""",html-slider-response,69,155592,0.0-69.0,"""","<img src='jspsych/CFDfaces/CFD-LM-201-057-N.jpg'height=""250px""></br><b>Patrick</b>","""",6,ConfidenceQuery,Practice,"""","""","""","""",CFD-WF-006-002-N.jpg,Lauren,0,"""",0,100,"""",5/3/2021 10:24,84.216.105.136,Mozilla/5.0 (Windows NT 10.0; Win64; x64; rv:88.0) Gecko/20100101 Firefox/88.0,,Firefox,88,Windows,10
236,1,687,"""",html-button-response,70,156279,0.0-70.0,"""",You are Correct. You called an Intact Pair Intact,0,6,feedback,Practice,"""","""","""","""","""","""","""","""","""","""","""",5/3/2021 10:24,84.216.105.136,Mozilla/5.0 (Windows NT 10.0; Win64; x64; rv:88.0) Gecko/20100101 Firefox/88.0,,Firefox,88,Windows,10
236,1,null,"""",html-keyboard-response,71,157283,0.0-71.0,"""","<div style=""font-size:60px;"">+</div>","""",7,ITI,Practice,null,1000,"""","""","""","""","""","""","""","""","""",5/3/2021 10:24,84.216.105.136,Mozilla/5.0 (Windows NT 10.0; Win64; x64; rv:88.0) Gecko/20100101 Firefox/88.0,,Firefox,88,Windows,10
236,1,null,"""",image-keyboard-response,72,157547,0.0-72.0,"""",jspsych/scrambledNeutralFaces/scrambledAM07NES.JPG,"""",7,forwardMask,Practice,null,250,"""",n,"""","""","""","""","""","""","""",5/3/2021 10:24,84.216.105.136,Mozilla/5.0 (Windows NT 10.0; Win64; x64; rv:88.0) Gecko/20100101 Firefox/88.0,,Firefox,88,Windows,10
236,1,null,"""",image-keyboard-response,73,157569,0.0-73.0,"""",jspsych/neutralFaces/AM07NES.JPG,"""",7,Cue,Practice,null,16,"""","""","""","""","""","""","""","""","""",5/3/2021 10:24,84.216.105.136,Mozilla/5.0 (Windows NT 10.0; Win64; x64; rv:88.0) Gecko/20100101 Firefox/88.0,,Firefox,88,Windows,10
236,1,null,"""",image-keyboard-response,74,157672,0.0-74.0,"""",jspsych/neutralFaces/AM33NES.JPG,"""",7,backwardMask,Practice,null,100,"""","""","""","""","""","""","""","""","""",5/3/2021 10:24,84.216.105.136,Mozilla/5.0 (Windows NT 10.0; Win64; x64; rv:88.0) Gecko/20100101 Firefox/88.0,,Firefox,88,Windows,10
236,1,null,"""",html-keyboard-response,75,158676,0.0-75.0,"""","<div style=""font-size:60px;"">+</div>","""",7,fixationBtwnNeutralMaskAndPrompt,Practice,null,1000,"""","""","""","""","""","""","""","""","""",5/3/2021 10:24,84.216.105.136,Mozilla/5.0 (Windows NT 10.0; Win64; x64; rv:88.0) Gecko/20100101 Firefox/88.0,,Firefox,88,Windows,10
236,1,1017,"""",html-button-response,76,159694,0.0-76.0,"""","<img src='jspsych/CFDfaces/CFD-BM-207-024-N.jpg'height=""250px""></br><b>Samuel</b>",0,7,IntactOrRearranged,Practice,"""","""","""","""",CFD-BM-207-024-N.jpg,Samuel,0,0,"""","""","""",5/3/2021 10:24,84.216.105.136,Mozilla/5.0 (Windows NT 10.0; Win64; x64; rv:88.0) Gecko/20100101 Firefox/88.0,,Firefox,88,Windows,10
236,1,1235,"""",html-slider-response,77,160929,0.0-77.0,"""","<img src='jspsych/CFDfaces/CFD-BM-207-024-N.jpg'height=""250px""></br><b>Samuel</b>","""",7,ConfidenceQuery,Practice,"""","""","""","""",CFD-WF-006-002-N.jpg,Lauren,0,"""",0,100,"""",5/3/2021 10:24,84.216.105.136,Mozilla/5.0 (Windows NT 10.0; Win64; x64; rv:88.0) Gecko/20100101 Firefox/88.0,,Firefox,88,Windows,10
236,1,835,"""",html-button-response,78,161767,0.0-78.0,"""",You are Correct. You called an Intact Pair Intact,0,7,feedback,Practice,"""","""","""","""","""","""","""","""","""","""","""",5/3/2021 10:24,84.216.105.136,Mozilla/5.0 (Windows NT 10.0; Win64; x64; rv:88.0) Gecko/20100101 Firefox/88.0,,Firefox,88,Windows,10
236,1,null,"""",html-keyboard-response,79,162776,0.0-79.0,"""","<div style=""font-size:60px;"">+</div>","""",8,ITI,Practice,null,1000,"""","""","""","""","""","""","""","""","""",5/3/2021 10:24,84.216.105.136,Mozilla/5.0 (Windows NT 10.0; Win64; x64; rv:88.0) Gecko/20100101 Firefox/88.0,,Firefox,88,Windows,10
236,1,null,"""",image-keyboard-response,80,163028,0.0-80.0,"""",jspsych/scrambledDisgustFaces/scrambledAF30DIS.JPG,"""",8,forwardMask,Practice,null,250,"""",d,"""","""","""","""","""","""","""",5/3/2021 10:24,84.216.105.136,Mozilla/5.0 (Windows NT 10.0; Win64; x64; rv:88.0) Gecko/20100101 Firefox/88.0,,Firefox,88,Windows,10
236,1,null,"""",image-keyboard-response,81,163059,0.0-81.0,"""",jspsych/disgustFaces/AF30DIS.JPG,"""",8,Cue,Practice,null,16,"""","""","""","""","""","""","""","""","""",5/3/2021 10:24,84.216.105.136,Mozilla/5.0 (Windows NT 10.0; Win64; x64; rv:88.0) Gecko/20100101 Firefox/88.0,,Firefox,88,Windows,10
236,1,null,"""",image-keyboard-response,82,163167,0.0-82.0,"""",jspsych/neutralFaces/BF24NES.JPG,"""",8,backwardMask,Practice,null,100,"""","""","""","""","""","""","""","""","""",5/3/2021 10:24,84.216.105.136,Mozilla/5.0 (Windows NT 10.0; Win64; x64; rv:88.0) Gecko/20100101 Firefox/88.0,,Firefox,88,Windows,10
236,1,null,"""",html-keyboard-response,83,164175,0.0-83.0,"""","<div style=""font-size:60px;"">+</div>","""",8,fixationBtwnNeutralMaskAndPrompt,Practice,null,1000,"""","""","""","""","""","""","""","""","""",5/3/2021 10:24,84.216.105.136,Mozilla/5.0 (Windows NT 10.0; Win64; x64; rv:88.0) Gecko/20100101 Firefox/88.0,,Firefox,88,Windows,10
236,1,1285,"""",html-button-response,84,165462,0.0-84.0,"""","<img src='jspsych/CFDfaces/CFD-BM-027-001-N.jpg'height=""250px""></br><b>Carlos</b>",0,8,IntactOrRearranged,Practice,"""","""","""","""",CFD-BM-027-001-N.jpg,Carlos,1,0,"""","""","""",5/3/2021 10:24,84.216.105.136,Mozilla/5.0 (Windows NT 10.0; Win64; x64; rv:88.0) Gecko/20100101 Firefox/88.0,,Firefox,88,Windows,10
236,1,1248,"""",html-slider-response,85,166710,0.0-85.0,"""","<img src='jspsych/CFDfaces/CFD-BM-027-001-N.jpg'height=""250px""></br><b>Carlos</b>","""",8,ConfidenceQuery,Practice,"""","""","""","""",CFD-WF-006-002-N.jpg,Lauren,1,"""",0,100,"""",5/3/2021 10:24,84.216.105.136,Mozilla/5.0 (Windows NT 10.0; Win64; x64; rv:88.0) Gecko/20100101 Firefox/88.0,,Firefox,88,Windows,10
236,1,820,"""",html-button-response,86,167533,0.0-86.0,"""",You are Incorrect. You called a Rearranged Pair Intact,0,8,feedback,Practice,"""","""","""","""","""","""","""","""","""","""","""",5/3/2021 10:24,84.216.105.136,Mozilla/5.0 (Windows NT 10.0; Win64; x64; rv:88.0) Gecko/20100101 Firefox/88.0,,Firefox,88,Windows,10
236,1,1734,"""",image-button-response,87,169270,0.0-87.0,"""",directionsMemoryAssociation3.JPG,0,128,DirectionsBeforeActualTEst,Break,"""","""","""","""","""","""","""","""","""","""","""",5/3/2021 10:24,84.216.105.136,Mozilla/5.0 (Windows NT 10.0; Win64; x64; rv:88.0) Gecko/20100101 Firefox/88.0,,Firefox,88,Windows,10
236,1,979,"""",image-button-response,88,170250,0.0-88.0,"""",directionsForTest2.JPG,0,1,directionsForTest2,break,"""","""","""","""","""","""","""","""","""","""","""",5/3/2021 10:24,84.216.105.136,Mozilla/5.0 (Windows NT 10.0; Win64; x64; rv:88.0) Gecko/20100101 Firefox/88.0,,Firefox,88,Windows,10
236,1,12441,"""",html-button-response,89,182692,0.0-89.0,"""","<p>You will be asked to memorize and then recall four sets of face-name pairs. </p> <p> Each set will have 32 pairs. </p> <p>After the fourth set, there will be a brief follow-up experiment (<40 min alltogether)</p>",0,"""","""","""","""","""","""","""","""","""","""","""","""","""","""",5/3/2021 10:24,84.216.105.136,Mozilla/5.0 (Windows NT 10.0; Win64; x64; rv:88.0) Gecko/20100101 Firefox/88.0,,Firefox,88,Windows,10
236,1,2350,"""",html-keyboard-response,90,187695,0.0-90.0,"""","<img src='jspsych/CFDfaces/CFD-WF-223-133-N.jpg' height=""250px""></br><b>Victoria</b>","""",256,IntactFace,Memorization,70,5000,f,"""",CFD-BF-222-240-N.jpg,Laura,0,"""","""","""",1,5/3/2021 10:24,84.216.105.136,Mozilla/5.0 (Windows NT 10.0; Win64; x64; rv:88.0) Gecko/20100101 Firefox/88.0,,Firefox,88,Windows,10
236,1,null,"""",html-keyboard-response,91,188210,0.0-91.0,"""","<div style=""font-size:60px;"">+</div>","""",256,fixation,Memorization,null,500,"""","""","""","""","""","""","""","""",1,5/3/2021 10:24,84.216.105.136,Mozilla/5.0 (Windows NT 10.0; Win64; x64; rv:88.0) Gecko/20100101 Firefox/88.0,,Firefox,88,Windows,10
236,1,1078,"""",html-keyboard-response,92,193226,0.0-92.0,"""","<img src='jspsych/CFDfaces/CFD-BM-208-065-N.jpg' height=""250px""></br><b>Brian</b>","""",256,IntactFace,Memorization,70,5000,f,"""",CFD-AF-239-171-N.jpg,Erin,0,"""","""","""",1,5/3/2021 10:24,84.216.105.136,Mozilla/5.0 (Windows NT 10.0; Win64; x64; rv:88.0) Gecko/20100101 Firefox/88.0,,Firefox,88,Windows,10
236,1,null,"""",html-keyboard-response,93,193739,0.0-93.0,"""","<div style=""font-size:60px;"">+</div>","""",256,fixation,Memorization,null,500,"""","""","""","""","""","""","""","""",1,5/3/2021 10:24,84.216.105.136,Mozilla/5.0 (Windows NT 10.0; Win64; x64; rv:88.0) Gecko/20100101 Firefox/88.0,,Firefox,88,Windows,10
236,1,893,"""",html-keyboard-response,94,198753,0.0-94.0,"""","<img src='jspsych/CFDfaces/CFD-BM-210-148-N.jpg' height=""250px""></br><b>Gregory</b>","""",256,IntactFace,Memorization,70,5000,f,"""",CFD-LM-213-061-N.jpg,Cameron,0,"""","""","""",1,5/3/2021 10:24,84.216.105.136,Mozilla/5.0 (Windows NT 10.0; Win64; x64; rv:88.0) Gecko/20100101 Firefox/88.0,,Firefox,88,Windows,10
236,1,null,"""",html-keyboard-response,95,199266,0.0-95.0,"""","<div style=""font-size:60px;"">+</div>","""",256,fixation,Memorization,null,500,"""","""","""","""","""","""","""","""",1,5/3/2021 10:24,84.216.105.136,Mozilla/5.0 (Windows NT 10.0; Win64; x64; rv:88.0) Gecko/20100101 Firefox/88.0,,Firefox,88,Windows,10
236,1,874,"""",html-keyboard-response,96,204285,0.0-96.0,"""","<img src='jspsych/CFDfaces/CFD-WF-023-003-N.jpg' height=""250px""></br><b>Emily</b>","""",256,IntactFace,Memorization,70,5000,f,"""",CFD-WF-006-002-N.jpg,Sara,0,"""","""","""",1,5/3/2021 10:24,84.216.105.136,Mozilla/5.0 (Windows NT 10.0; Win64; x64; rv:88.0) Gecko/20100101 Firefox/88.0,,Firefox,88,Windows,10
236,1,null,"""",html-keyboard-response,97,204800,0.0-97.0,"""","<div style=""font-size:60px;"">+</div>","""",256,fixation,Memorization,null,500,"""","""","""","""","""","""","""","""",1,5/3/2021 10:24,84.216.105.136,Mozilla/5.0 (Windows NT 10.0; Win64; x64; rv:88.0) Gecko/20100101 Firefox/88.0,,Firefox,88,Windows,10
236,1,1805,"""",html-keyboard-response,98,209819,0.0-98.0,"""","<img src='jspsych/CFDfaces/CFD-WF-018-017-N.jpg' height=""250px""></br><b>Christina</b>","""",256,IntactFace,Memorization,70,5000,f,"""",CFD-LM-252-076-N.jpg,Luis,0,"""","""","""",1,5/3/2021 10:24,84.216.105.136,Mozilla/5.0 (Windows NT 10.0; Win64; x64; rv:88.0) Gecko/20100101 Firefox/88.0,,Firefox,88,Windows,10
236,1,null,"""",html-keyboard-response,99,210329,0.0-99.0,"""","<div style=""font-size:60px;"">+</div>","""",256,fixation,Memorization,null,500,"""","""","""","""","""","""","""","""",1,5/3/2021 10:24,84.216.105.136,Mozilla/5.0 (Windows NT 10.0; Win64; x64; rv:88.0) Gecko/20100101 Firefox/88.0,,Firefox,88,Windows,10
236,1,963,"""",html-keyboard-response,100,215342,0.0-100.0,"""","<img src='jspsych/CFDfaces/CFD-LF-206-078-N.jpg' height=""250px""></br><b>Stephanie</b>","""",256,IntactFace,Memorization,70,5000,f,"""",CFD-LF-220-120-N.jpg,Tiffany,0,"""","""","""",1,5/3/2021 10:24,84.216.105.136,Mozilla/5.0 (Windows NT 10.0; Win64; x64; rv:88.0) Gecko/20100101 Firefox/88.0,,Firefox,88,Windows,10
236,1,null,"""",html-keyboard-response,101,215858,0.0-101.0,"""","<div style=""font-size:60px;"">+</div>","""",256,fixation,Memorization,null,500,"""","""","""","""","""","""","""","""",1,5/3/2021 10:24,84.216.105.136,Mozilla/5.0 (Windows NT 10.0; Win64; x64; rv:88.0) Gecko/20100101 Firefox/88.0,,Firefox,88,Windows,10
236,1,1854,"""",html-keyboard-response,102,220875,0.0-102.0,"""","<img src='jspsych/CFDfaces/CFD-AM-213-056-N.jpg' height=""250px""></br><b>Nicholas</b>","""",256,IntactFace,Memorization,70,5000,f,"""",CFD-LF-210-220-N.jpg,Lindsey,0,"""","""","""",1,5/3/2021 10:24,84.216.105.136,Mozilla/5.0 (Windows NT 10.0; Win64; x64; rv:88.0) Gecko/20100101 Firefox/88.0,,Firefox,88,Windows,10
236,1,null,"""",html-keyboard-response,103,221391,0.0-103.0,"""","<div style=""font-size:60px;"">+</div>","""",256,fixation,Memorization,null,500,"""","""","""","""","""","""","""","""",1,5/3/2021 10:24,84.216.105.136,Mozilla/5.0 (Windows NT 10.0; Win64; x64; rv:88.0) Gecko/20100101 Firefox/88.0,,Firefox,88,Windows,10
236,1,2066,"""",html-keyboard-response,104,226406,0.0-104.0,"""","<img src='jspsych/CFDfaces/CFD-WF-029-002-N.jpg' height=""250px""></br><b>Julie</b>","""",256,IntactFace,Memorization,70,5000,f,"""",CFD-WF-024-003-N.jpg,Jordan,0,"""","""","""",1,5/3/2021 10:24,84.216.105.136,Mozilla/5.0 (Windows NT 10.0; Win64; x64; rv:88.0) Gecko/20100101 Firefox/88.0,,Firefox,88,Windows,10
236,1,null,"""",html-keyboard-response,105,226918,0.0-105.0,"""","<div style=""font-size:60px;"">+</div>","""",256,fixation,Memorization,null,500,"""","""","""","""","""","""","""","""",1,5/3/2021 10:24,84.216.105.136,Mozilla/5.0 (Windows NT 10.0; Win64; x64; rv:88.0) Gecko/20100101 Firefox/88.0,,Firefox,88,Windows,10
236,1,1367,"""",html-keyboard-response,106,231936,0.0-106.0,"""","<img src='jspsych/CFDfaces/CFD-BM-001-014-N.jpg' height=""250px""></br><b>Daniel</b>","""",256,IntactFace,Memorization,70,5000,f,"""",CFD-LF-205-100-N.jpg,Heather,0,"""","""","""",1,5/3/2021 10:24,84.216.105.136,Mozilla/5.0 (Windows NT 10.0; Win64; x64; rv:88.0) Gecko/20100101 Firefox/88.0,,Firefox,88,Windows,10
236,1,null,"""",html-keyboard-response,107,232449,0.0-107.0,"""","<div style=""font-size:60px;"">+</div>","""",256,fixation,Memorization,null,500,"""","""","""","""","""","""","""","""",1,5/3/2021 10:24,84.216.105.136,Mozilla/5.0 (Windows NT 10.0; Win64; x64; rv:88.0) Gecko/20100101 Firefox/88.0,,Firefox,88,Windows,10
236,1,932,"""",html-keyboard-response,108,237467,0.0-108.0,"""","<img src='jspsych/CFDfaces/CFD-BM-043-071-N.jpg' height=""250px""></br><b>Christian</b>","""",256,IntactFace,Memorization,70,5000,f,"""",CFD-LM-248-089-N.jpg,Travis,0,"""","""","""",1,5/3/2021 10:24,84.216.105.136,Mozilla/5.0 (Windows NT 10.0; Win64; x64; rv:88.0) Gecko/20100101 Firefox/88.0,,Firefox,88,Windows,10
236,1,null,"""",html-keyboard-response,109,237969,0.0-109.0,"""","<div style=""font-size:60px;"">+</div>","""",256,fixation,Memorization,null,500,"""","""","""","""","""","""","""","""",1,5/3/2021 10:24,84.216.105.136,Mozilla/5.0 (Windows NT 10.0; Win64; x64; rv:88.0) Gecko/20100101 Firefox/88.0,,Firefox,88,Windows,10
236,1,1043,"""",html-keyboard-response,110,242980,0.0-110.0,"""","<img src='jspsych/CFDfaces/CFD-WF-217-085-N.jpg' height=""250px""></br><b>Kimberly</b>","""",256,IntactFace,Memorization,70,5000,f,"""",CFD-BF-009-002-N.jpg,Angela,0,"""","""","""",1,5/3/2021 10:24,84.216.105.136,Mozilla/5.0 (Windows NT 10.0; Win64; x64; rv:88.0) Gecko/20100101 Firefox/88.0,,Firefox,88,Windows,10
236,1,null,"""",html-keyboard-response,111,243495,0.0-111.0,"""","<div style=""font-size:60px;"">+</div>","""",256,fixation,Memorization,null,500,"""","""","""","""","""","""","""","""",1,5/3/2021 10:24,84.216.105.136,Mozilla/5.0 (Windows NT 10.0; Win64; x64; rv:88.0) Gecko/20100101 Firefox/88.0,,Firefox,88,Windows,10
236,1,1743,"""",html-keyboard-response,112,248519,0.0-112.0,"""","<img src='jspsych/CFDfaces/CFD-WF-205-006-N.jpg' height=""250px""></br><b>Meghan</b>","""",256,IntactFace,Memorization,70,5000,f,"""",CFD-AF-209-006-N.jpg,Lauren,0,"""","""","""",1,5/3/2021 10:24,84.216.105.136,Mozilla/5.0 (Windows NT 10.0; Win64; x64; rv:88.0) Gecko/20100101 Firefox/88.0,,Firefox,88,Windows,10
236,1,null,"""",html-keyboard-response,113,249031,0.0-113.0,"""","<div style=""font-size:60px;"">+</div>","""",256,fixation,Memorization,null,500,"""","""","""","""","""","""","""","""",1,5/3/2021 10:24,84.216.105.136,Mozilla/5.0 (Windows NT 10.0; Win64; x64; rv:88.0) Gecko/20100101 Firefox/88.0,,Firefox,88,Windows,10
236,1,1077,"""",html-keyboard-response,114,254047,0.0-114.0,"""","<img src='jspsych/CFDfaces/CFD-BM-017-021-N.jpg' height=""250px""></br><b>Peter</b>","""",256,IntactFace,Memorization,70,5000,f,"""",CFD-LM-220-329-N.jpg,Timothy,0,"""","""","""",1,5/3/2021 10:24,84.216.105.136,Mozilla/5.0 (Windows NT 10.0; Win64; x64; rv:88.0) Gecko/20100101 Firefox/88.0,,Firefox,88,Windows,10
236,1,null,"""",html-keyboard-response,115,254560,0.0-115.0,"""","<div style=""font-size:60px;"">+</div>","""",256,fixation,Memorization,null,500,"""","""","""","""","""","""","""","""",1,5/3/2021 10:24,84.216.105.136,Mozilla/5.0 (Windows NT 10.0; Win64; x64; rv:88.0) Gecko/20100101 Firefox/88.0,,Firefox,88,Windows,10
236,1,715,"""",html-keyboard-response,116,259577,0.0-116.0,"""","<img src='jspsych/CFDfaces/CFD-AM-248-104-N.jpg' height=""250px""></br><b>James</b>","""",256,IntactFace,Memorization,70,5000,f,"""",CFD-AM-220-134-N.jpg,Steven,0,"""","""","""",1,5/3/2021 10:24,84.216.105.136,Mozilla/5.0 (Windows NT 10.0; Win64; x64; rv:88.0) Gecko/20100101 Firefox/88.0,,Firefox,88,Windows,10
236,1,null,"""",html-keyboard-response,117,260089,0.0-117.0,"""","<div style=""font-size:60px;"">+</div>","""",256,fixation,Memorization,null,500,"""","""","""","""","""","""","""","""",1,5/3/2021 10:24,84.216.105.136,Mozilla/5.0 (Windows NT 10.0; Win64; x64; rv:88.0) Gecko/20100101 Firefox/88.0,,Firefox,88,Windows,10
236,1,1056,"""",html-keyboard-response,118,265103,0.0-118.0,"""","<img src='jspsych/CFDfaces/CFD-WF-220-101-N.jpg' height=""250px""></br><b>Samantha</b>","""",256,IntactFace,Memorization,70,5000,f,"""",CFD-AF-243-170-N.jpg,Taylor,0,"""","""","""",1,5/3/2021 10:24,84.216.105.136,Mozilla/5.0 (Windows NT 10.0; Win64; x64; rv:88.0) Gecko/20100101 Firefox/88.0,,Firefox,88,Windows,10
236,1,null,"""",html-keyboard-response,119,265614,0.0-119.0,"""","<div style=""font-size:60px;"">+</div>","""",256,fixation,Memorization,null,500,"""","""","""","""","""","""","""","""",1,5/3/2021 10:24,84.216.105.136,Mozilla/5.0 (Windows NT 10.0; Win64; x64; rv:88.0) Gecko/20100101 Firefox/88.0,,Firefox,88,Windows,10
236,1,584,"""",html-keyboard-response,120,270623,0.0-120.0,"""","<img src='jspsych/CFDfaces/CFD-BM-205-001-N.jpg' height=""250px""></br><b>Ian</b>","""",256,IntactFace,Memorization,70,5000,f,"""",CFD-AF-240-206-N.jpg,Jasmine,0,"""","""","""",1,5/3/2021 10:24,84.216.105.136,Mozilla/5.0 (Windows NT 10.0; Win64; x64; rv:88.0) Gecko/20100101 Firefox/88.0,,Firefox,88,Windows,10
236,1,null,"""",html-keyboard-response,121,271136,0.0-121.0,"""","<div style=""font-size:60px;"">+</div>","""",256,fixation,Memorization,null,500,"""","""","""","""","""","""","""","""",1,5/3/2021 10:24,84.216.105.136,Mozilla/5.0 (Windows NT 10.0; Win64; x64; rv:88.0) Gecko/20100101 Firefox/88.0,,Firefox,88,Windows,10
236,1,1175,"""",html-keyboard-response,122,276156,0.0-122.0,"""","<img src='jspsych/CFDfaces/CFD-LM-224-162-N.jpg' height=""250px""></br><b>Robert</b>","""",256,IntactFace,Memorization,70,5000,f,"""",CFD-AM-221-184-N.jpg,Jeremy,0,"""","""","""",1,5/3/2021 10:24,84.216.105.136,Mozilla/5.0 (Windows NT 10.0; Win64; x64; rv:88.0) Gecko/20100101 Firefox/88.0,,Firefox,88,Windows,10
236,1,null,"""",html-keyboard-response,123,276669,0.0-123.0,"""","<div style=""font-size:60px;"">+</div>","""",256,fixation,Memorization,null,500,"""","""","""","""","""","""","""","""",1,5/3/2021 10:24,84.216.105.136,Mozilla/5.0 (Windows NT 10.0; Win64; x64; rv:88.0) Gecko/20100101 Firefox/88.0,,Firefox,88,Windows,10
236,1,977,"""",html-keyboard-response,124,281691,0.0-124.0,"""","<img src='jspsych/CFDfaces/CFD-WM-212-097-N.jpg' height=""250px""></br><b>Juan</b>","""",256,IntactFace,Memorization,70,5000,f,"""",CFD-BF-016-017-N.jpg,Jenna,0,"""","""","""",1,5/3/2021 10:24,84.216.105.136,Mozilla/5.0 (Windows NT 10.0; Win64; x64; rv:88.0) Gecko/20100101 Firefox/88.0,,Firefox,88,Windows,10
236,1,null,"""",html-keyboard-response,125,282205,0.0-125.0,"""","<div style=""font-size:60px;"">+</div>","""",256,fixation,Memorization,null,500,"""","""","""","""","""","""","""","""",1,5/3/2021 10:24,84.216.105.136,Mozilla/5.0 (Windows NT 10.0; Win64; x64; rv:88.0) Gecko/20100101 Firefox/88.0,,Firefox,88,Windows,10
236,1,1511,"""",html-keyboard-response,126,287217,0.0-126.0,"""","<img src='jspsych/CFDfaces/CFD-BF-010-001-N.jpg' height=""250px""></br><b>Elizabeth</b>","""",256,IntactFace,Memorization,70,5000,f,"""",CFD-AM-234-355-N.jpg,Vincent,0,"""","""","""",1,5/3/2021 10:24,84.216.105.136,Mozilla/5.0 (Windows NT 10.0; Win64; x64; rv:88.0) Gecko/20100101 Firefox/88.0,,Firefox,88,Windows,10
236,1,null,"""",html-keyboard-response,127,287728,0.0-127.0,"""","<div style=""font-size:60px;"">+</div>","""",256,fixation,Memorization,null,500,"""","""","""","""","""","""","""","""",1,5/3/2021 10:24,84.216.105.136,Mozilla/5.0 (Windows NT 10.0; Win64; x64; rv:88.0) Gecko/20100101 Firefox/88.0,,Firefox,88,Windows,10
236,1,584,"""",html-keyboard-response,128,292745,0.0-128.0,"""","<img src='jspsych/CFDfaces/CFD-BF-047-003-N.jpg' height=""250px""></br><b>Amanda</b>","""",256,IntactFace,Memorization,70,5000,f,"""",CFD-LM-217-162-N.jpg,Jesse,0,"""","""","""",1,5/3/2021 10:24,84.216.105.136,Mozilla/5.0 (Windows NT 10.0; Win64; x64; rv:88.0) Gecko/20100101 Firefox/88.0,,Firefox,88,Windows,10
236,1,null,"""",html-keyboard-response,129,293258,0.0-129.0,"""","<div style=""font-size:60px;"">+</div>","""",256,fixation,Memorization,null,500,"""","""","""","""","""","""","""","""",1,5/3/2021 10:24,84.216.105.136,Mozilla/5.0 (Windows NT 10.0; Win64; x64; rv:88.0) Gecko/20100101 Firefox/88.0,,Firefox,88,Windows,10
236,1,880,"""",html-keyboard-response,130,298275,0.0-130.0,"""","<img src='jspsych/CFDfaces/CFD-LF-203-066-N.jpg' height=""250px""></br><b>Michelle</b>","""",256,IntactFace,Memorization,70,5000,f,"""",CFD-WM-003-002-N.jpg,Mark,0,"""","""","""",1,5/3/2021 10:24,84.216.105.136,Mozilla/5.0 (Windows NT 10.0; Win64; x64; rv:88.0) Gecko/20100101 Firefox/88.0,,Firefox,88,Windows,10
236,1,null,"""",html-keyboard-response,131,298787,0.0-131.0,"""","<div style=""font-size:60px;"">+</div>","""",256,fixation,Memorization,null,500,"""","""","""","""","""","""","""","""",1,5/3/2021 10:24,84.216.105.136,Mozilla/5.0 (Windows NT 10.0; Win64; x64; rv:88.0) Gecko/20100101 Firefox/88.0,,Firefox,88,Windows,10
236,1,1181,"""",html-keyboard-response,132,303799,0.0-132.0,"""","<img src='jspsych/CFDfaces/CFD-AM-230-150-N.jpg' height=""250px""></br><b>Richard</b>","""",256,IntactFace,Memorization,70,5000,f,"""",CFD-BM-010-003-N.jpg,Austin,0,"""","""","""",1,5/3/2021 10:24,84.216.105.136,Mozilla/5.0 (Windows NT 10.0; Win64; x64; rv:88.0) Gecko/20100101 Firefox/88.0,,Firefox,88,Windows,10
236,1,null,"""",html-keyboard-response,133,304304,0.0-133.0,"""","<div style=""font-size:60px;"">+</div>","""",256,fixation,Memorization,null,500,"""","""","""","""","""","""","""","""",1,5/3/2021 10:24,84.216.105.136,Mozilla/5.0 (Windows NT 10.0; Win64; x64; rv:88.0) Gecko/20100101 Firefox/88.0,,Firefox,88,Windows,10
236,1,1947,"""",html-keyboard-response,134,309321,0.0-134.0,"""","<img src='jspsych/CFDfaces/CFD-AM-243-212-N.jpg' height=""250px""></br><b>Jason</b>","""",256,IntactFace,Memorization,70,5000,f,"""",CFD-LF-213-079-N.jpg,Melissa,0,"""","""","""",1,5/3/2021 10:24,84.216.105.136,Mozilla/5.0 (Windows NT 10.0; Win64; x64; rv:88.0) Gecko/20100101 Firefox/88.0,,Firefox,88,Windows,10
236,1,null,"""",html-keyboard-response,135,309836,0.0-135.0,"""","<div style=""font-size:60px;"">+</div>","""",256,fixation,Memorization,null,500,"""","""","""","""","""","""","""","""",1,5/3/2021 10:24,84.216.105.136,Mozilla/5.0 (Windows NT 10.0; Win64; x64; rv:88.0) Gecko/20100101 Firefox/88.0,,Firefox,88,Windows,10
236,1,805,"""",html-keyboard-response,136,314852,0.0-136.0,"""","<img src='jspsych/CFDfaces/CFD-BM-018-001-N.jpg' height=""250px""></br><b>Eric</b>","""",256,IntactFace,Memorization,70,5000,f,"""",CFD-AF-230-193-N.jpg,Whitney,0,"""","""","""",1,5/3/2021 10:24,84.216.105.136,Mozilla/5.0 (Windows NT 10.0; Win64; x64; rv:88.0) Gecko/20100101 Firefox/88.0,,Firefox,88,Windows,10
236,1,null,"""",html-keyboard-response,137,315364,0.0-137.0,"""","<div style=""font-size:60px;"">+</div>","""",256,fixation,Memorization,null,500,"""","""","""","""","""","""","""","""",1,5/3/2021 10:24,84.216.105.136,Mozilla/5.0 (Windows NT 10.0; Win64; x64; rv:88.0) Gecko/20100101 Firefox/88.0,,Firefox,88,Windows,10
236,1,656,"""",html-keyboard-response,138,320389,0.0-138.0,"""","<img src='jspsych/CFDfaces/CFD-BF-005-001-N.jpg' height=""250px""></br><b>Andrea</b>","""",256,IntactFace,Memorization,70,5000,f,"""",CFD-WM-019-003-N.jpg,Dustin,0,"""","""","""",1,5/3/2021 10:24,84.216.105.136,Mozilla/5.0 (Windows NT 10.0; Win64; x64; rv:88.0) Gecko/20100101 Firefox/88.0,,Firefox,88,Windows,10
236,1,null,"""",html-keyboard-response,139,320904,0.0-139.0,"""","<div style=""font-size:60px;"">+</div>","""",256,fixation,Memorization,null,500,"""","""","""","""","""","""","""","""",1,5/3/2021 10:24,84.216.105.136,Mozilla/5.0 (Windows NT 10.0; Win64; x64; rv:88.0) Gecko/20100101 Firefox/88.0,,Firefox,88,Windows,10
236,1,734,"""",html-keyboard-response,140,325911,0.0-140.0,"""","<img src='jspsych/CFDfaces/CFD-BF-001-025-N.jpg' height=""250px""></br><b>Brittany</b>","""",256,IntactFace,Memorization,70,5000,f,"""",CFD-WM-222-057-N.jpg,Jacob,0,"""","""","""",1,5/3/2021 10:24,84.216.105.136,Mozilla/5.0 (Windows NT 10.0; Win64; x64; rv:88.0) Gecko/20100101 Firefox/88.0,,Firefox,88,Windows,10
236,1,null,"""",html-keyboard-response,141,326427,0.0-141.0,"""","<div style=""font-size:60px;"">+</div>","""",256,fixation,Memorization,null,500,"""","""","""","""","""","""","""","""",1,5/3/2021 10:24,84.216.105.136,Mozilla/5.0 (Windows NT 10.0; Win64; x64; rv:88.0) Gecko/20100101 Firefox/88.0,,Firefox,88,Windows,10
236,1,603,"""",html-keyboard-response,142,331439,0.0-142.0,"""","<img src='jspsych/CFDfaces/CFD-AF-242-158-N.jpg' height=""250px""></br><b>Kayla</b>","""",256,IntactFace,Memorization,70,5000,f,"""",CFD-LF-243-175-N.jpg,Amy,0,"""","""","""",1,5/3/2021 10:24,84.216.105.136,Mozilla/5.0 (Windows NT 10.0; Win64; x64; rv:88.0) Gecko/20100101 Firefox/88.0,,Firefox,88,Windows,10
236,1,null,"""",html-keyboard-response,143,331955,0.0-143.0,"""","<div style=""font-size:60px;"">+</div>","""",256,fixation,Memorization,null,500,"""","""","""","""","""","""","""","""",1,5/3/2021 10:24,84.216.105.136,Mozilla/5.0 (Windows NT 10.0; Win64; x64; rv:88.0) Gecko/20100101 Firefox/88.0,,Firefox,88,Windows,10
236,1,986,"""",html-keyboard-response,144,336977,0.0-144.0,"""","<img src='jspsych/CFDfaces/CFD-BM-002-013-N.jpg' height=""250px""></br><b>Brandon</b>","""",256,IntactFace,Memorization,70,5000,f,"""",CFD-BM-029-024-N.jpg,Sean,0,"""","""","""",1,5/3/2021 10:24,84.216.105.136,Mozilla/5.0 (Windows NT 10.0; Win64; x64; rv:88.0) Gecko/20100101 Firefox/88.0,,Firefox,88,Windows,10
236,1,null,"""",html-keyboard-response,145,337494,0.0-145.0,"""","<div style=""font-size:60px;"">+</div>","""",256,fixation,Memorization,null,500,"""","""","""","""","""","""","""","""",1,5/3/2021 10:24,84.216.105.136,Mozilla/5.0 (Windows NT 10.0; Win64; x64; rv:88.0) Gecko/20100101 Firefox/88.0,,Firefox,88,Windows,10
236,1,1581,"""",html-keyboard-response,146,342505,0.0-146.0,"""","<img src='jspsych/CFDfaces/CFD-AM-205-153-N.jpg' height=""250px""></br><b>Joshua</b>","""",256,IntactFace,Memorization,70,5000,f,"""",CFD-AM-229-224-N.jpg,Justin,0,"""","""","""",1,5/3/2021 10:24,84.216.105.136,Mozilla/5.0 (Windows NT 10.0; Win64; x64; rv:88.0) Gecko/20100101 Firefox/88.0,,Firefox,88,Windows,10
236,1,null,"""",html-keyboard-response,147,343016,0.0-147.0,"""","<div style=""font-size:60px;"">+</div>","""",256,fixation,Memorization,null,500,"""","""","""","""","""","""","""","""",1,5/3/2021 10:24,84.216.105.136,Mozilla/5.0 (Windows NT 10.0; Win64; x64; rv:88.0) Gecko/20100101 Firefox/88.0,,Firefox,88,Windows,10
236,1,2490,"""",html-keyboard-response,148,348030,0.0-148.0,"""","<img src='jspsych/CFDfaces/CFD-BM-032-024-N.jpg' height=""250px""></br><b>Jeffrey</b>","""",256,IntactFace,Memorization,70,5000,f,"""",CFD-AF-241-141-N.jpg,Rebecca,0,"""","""","""",1,5/3/2021 10:24,84.216.105.136,Mozilla/5.0 (Windows NT 10.0; Win64; x64; rv:88.0) Gecko/20100101 Firefox/88.0,,Firefox,88,Windows,10
236,1,null,"""",html-keyboard-response,149,348542,0.0-149.0,"""","<div style=""font-size:60px;"">+</div>","""",256,fixation,Memorization,null,500,"""","""","""","""","""","""","""","""",1,5/3/2021 10:24,84.216.105.136,Mozilla/5.0 (Windows NT 10.0; Win64; x64; rv:88.0) Gecko/20100101 Firefox/88.0,,Firefox,88,Windows,10
236,1,2865,"""",html-keyboard-response,150,353564,0.0-150.0,"""","<img src='jspsych/CFDfaces/CFD-AF-208-003-N.jpg' height=""250px""></br><b>Vanessa</b>","""",256,IntactFace,Memorization,70,5000,f,"""",CFD-WM-017-002-N.jpg,Kenneth,0,"""","""","""",1,5/3/2021 10:24,84.216.105.136,Mozilla/5.0 (Windows NT 10.0; Win64; x64; rv:88.0) Gecko/20100101 Firefox/88.0,,Firefox,88,Windows,10
236,1,null,"""",html-keyboard-response,151,354076,0.0-151.0,"""","<div style=""font-size:60px;"">+</div>","""",256,fixation,Memorization,null,500,"""","""","""","""","""","""","""","""",1,5/3/2021 10:24,84.216.105.136,Mozilla/5.0 (Windows NT 10.0; Win64; x64; rv:88.0) Gecko/20100101 Firefox/88.0,,Firefox,88,Windows,10
236,1,null,"""",html-keyboard-response,152,359091,0.0-152.0,"""","<img src='jspsych/CFDfaces/CFD-WF-202-056-N.jpg' height=""250px""></br><b>Ashley</b>","""",256,IntactFace,Memorization,null,5000,"""","""",CFD-WM-032-001-N.jpg,Ryan,0,"""","""","""",1,5/3/2021 10:24,84.216.105.136,Mozilla/5.0 (Windows NT 10.0; Win64; x64; rv:88.0) Gecko/20100101 Firefox/88.0,,Firefox,88,Windows,10
236,1,null,"""",html-keyboard-response,153,359592,0.0-153.0,"""","<div style=""font-size:60px;"">+</div>","""",256,fixation,Memorization,null,500,"""","""","""","""","""","""","""","""",1,5/3/2021 10:24,84.216.105.136,Mozilla/5.0 (Windows NT 10.0; Win64; x64; rv:88.0) Gecko/20100101 Firefox/88.0,,Firefox,88,Windows,10
236,1,1391,"""",html-keyboard-response,154,360991,0.0-154.0,"""",Press Any Key to Begin Memory Test,"""",1,welcomeScreen,Break,70,"""","""","""","""","""","""","""","""","""",1,5/3/2021 10:24,84.216.105.136,Mozilla/5.0 (Windows NT 10.0; Win64; x64; rv:88.0) Gecko/20100101 Firefox/88.0,,Firefox,88,Windows,10
236,1,null,"""",html-keyboard-response,155,362006,0.0-155.0,"""","<div style=""font-size:60px;"">+</div>","""",256,ITI,Test,null,1000,"""","""","""","""","""","""","""","""",1,5/3/2021 10:24,84.216.105.136,Mozilla/5.0 (Windows NT 10.0; Win64; x64; rv:88.0) Gecko/20100101 Firefox/88.0,,Firefox,88,Windows,10
236,1,null,"""",image-keyboard-response,156,362266,0.0-156.0,"""",jspsych/scrambledNeutralFaces/scrambledBF02NES.JPG,"""",256,forwardMask,Test,null,250,"""",n,"""","""","""","""","""","""",1,5/3/2021 10:24,84.216.105.136,Mozilla/5.0 (Windows NT 10.0; Win64; x64; rv:88.0) Gecko/20100101 Firefox/88.0,,Firefox,88,Windows,10
236,1,null,"""",image-keyboard-response,157,362297,0.0-157.0,"""",jspsych/neutralFaces/BF02NES.JPG,"""",256,Cue,Test,null,16,"""","""","""","""","""","""","""","""",1,5/3/2021 10:24,84.216.105.136,Mozilla/5.0 (Windows NT 10.0; Win64; x64; rv:88.0) Gecko/20100101 Firefox/88.0,,Firefox,88,Windows,10
236,1,null,"""",image-keyboard-response,158,362407,0.0-158.0,"""",jspsych/neutralFaces/AF18NES.JPG,"""",256,backwardMask,Test,null,100,"""","""","""","""","""","""","""","""",1,5/3/2021 10:24,84.216.105.136,Mozilla/5.0 (Windows NT 10.0; Win64; x64; rv:88.0) Gecko/20100101 Firefox/88.0,,Firefox,88,Windows,10
236,1,null,"""",html-keyboard-response,159,363422,0.0-159.0,"""","<div style=""font-size:60px;"">+</div>","""",256,fixationBtwnNeutralMaskAndPrompt,Test,null,1000,"""","""","""","""","""","""","""","""",1,5/3/2021 10:24,84.216.105.136,Mozilla/5.0 (Windows NT 10.0; Win64; x64; rv:88.0) Gecko/20100101 Firefox/88.0,,Firefox,88,Windows,10
236,1,4096,"""",html-button-response,160,367520,0.0-160.0,"""","<img src='jspsych/CFDfaces/CFD-WF-223-133-N.jpg' height=""250px"">,</br><b>Ashley</b>",1,256,IntactOrRearranged,Test,"""","""","""","""",CFD-AF-230-193-N.jpg,Whitney,1,1,"""","""",1,5/3/2021 10:24,84.216.105.136,Mozilla/5.0 (Windows NT 10.0; Win64; x64; rv:88.0) Gecko/20100101 Firefox/88.0,,Firefox,88,Windows,10
236,1,1701,"""",html-slider-response,161,369225,0.0-161.0,"""","<img src='jspsych/CFDfaces/CFD-WF-223-133-N.jpg' height=""250px"">,</br><b>Ashley</b>","""",256,ConfidenceQuery,Test,"""","""","""","""",CFD-AF-230-193-N.jpg,Whitney,1,"""",0,59,1,5/3/2021 10:24,84.216.105.136,Mozilla/5.0 (Windows NT 10.0; Win64; x64; rv:88.0) Gecko/20100101 Firefox/88.0,,Firefox,88,Windows,10
236,1,null,"""",html-keyboard-response,162,370228,0.0-162.0,"""","<div style=""font-size:60px;"">+</div>","""",256,ITI,Test,null,1000,"""","""","""","""","""","""","""","""",1,5/3/2021 10:24,84.216.105.136,Mozilla/5.0 (Windows NT 10.0; Win64; x64; rv:88.0) Gecko/20100101 Firefox/88.0,,Firefox,88,Windows,10
236,1,null,"""",image-keyboard-response,163,370482,0.0-163.0,"""",jspsych/scrambledDisgustFaces/scrambledAM23DIS.JPG,"""",256,forwardMask,Test,null,250,"""",d,"""","""","""","""","""","""",1,5/3/2021 10:24,84.216.105.136,Mozilla/5.0 (Windows NT 10.0; Win64; x64; rv:88.0) Gecko/20100101 Firefox/88.0,,Firefox,88,Windows,10
236,1,null,"""",image-keyboard-response,164,370508,0.0-164.0,"""",jspsych/disgustFaces/AM23DIS.JPG,"""",256,Cue,Test,null,16,"""","""","""","""","""","""","""","""",1,5/3/2021 10:24,84.216.105.136,Mozilla/5.0 (Windows NT 10.0; Win64; x64; rv:88.0) Gecko/20100101 Firefox/88.0,,Firefox,88,Windows,10
236,1,null,"""",image-keyboard-response,165,370619,0.0-165.0,"""",jspsych/neutralFaces/AM33NES.JPG,"""",256,backwardMask,Test,null,100,"""","""","""","""","""","""","""","""",1,5/3/2021 10:24,84.216.105.136,Mozilla/5.0 (Windows NT 10.0; Win64; x64; rv:88.0) Gecko/20100101 Firefox/88.0,,Firefox,88,Windows,10
236,1,null,"""",html-keyboard-response,166,371626,0.0-166.0,"""","<div style=""font-size:60px;"">+</div>","""",256,fixationBtwnNeutralMaskAndPrompt,Test,null,1000,"""","""","""","""","""","""","""","""",1,5/3/2021 10:24,84.216.105.136,Mozilla/5.0 (Windows NT 10.0; Win64; x64; rv:88.0) Gecko/20100101 Firefox/88.0,,Firefox,88,Windows,10
236,1,2266,"""",html-button-response,167,373895,0.0-167.0,"""","<img src='jspsych/CFDfaces/CFD-AF-242-158-N.jpg' height=""250px"">,</br><b>Kayla</b>",1,256,IntactOrRearranged,Test,"""","""","""","""",CFD-AM-221-184-N.jpg,Ryan,0,1,"""","""",1,5/3/2021 10:24,84.216.105.136,Mozilla/5.0 (Windows NT 10.0; Win64; x64; rv:88.0) Gecko/20100101 Firefox/88.0,,Firefox,88,Windows,10
236,1,1565,"""",html-slider-response,168,375461,0.0-168.0,"""","<img src='jspsych/CFDfaces/CFD-AF-242-158-N.jpg' height=""250px"">,</br><b>Kayla</b>","""",256,ConfidenceQuery,Test,"""","""","""","""",CFD-AM-221-184-N.jpg,Ryan,0,"""",0,52,1,5/3/2021 10:24,84.216.105.136,Mozilla/5.0 (Windows NT 10.0; Win64; x64; rv:88.0) Gecko/20100101 Firefox/88.0,,Firefox,88,Windows,10
236,1,null,"""",html-keyboard-response,169,376475,0.0-169.0,"""","<div style=""font-size:60px;"">+</div>","""",256,ITI,Test,null,1000,"""","""","""","""","""","""","""","""",1,5/3/2021 10:24,84.216.105.136,Mozilla/5.0 (Windows NT 10.0; Win64; x64; rv:88.0) Gecko/20100101 Firefox/88.0,,Firefox,88,Windows,10
236,1,null,"""",image-keyboard-response,170,376740,0.0-170.0,"""",jspsych/scrambledNeutralFaces/scrambledBF29NES.JPG,"""",256,forwardMask,Test,null,250,"""",n,"""","""","""","""","""","""",1,5/3/2021 10:24,84.216.105.136,Mozilla/5.0 (Windows NT 10.0; Win64; x64; rv:88.0) Gecko/20100101 Firefox/88.0,,Firefox,88,Windows,10
236,1,null,"""",image-keyboard-response,171,376771,0.0-171.0,"""",jspsych/neutralFaces/BF29NES.JPG,"""",256,Cue,Test,null,16,"""","""","""","""","""","""","""","""",1,5/3/2021 10:24,84.216.105.136,Mozilla/5.0 (Windows NT 10.0; Win64; x64; rv:88.0) Gecko/20100101 Firefox/88.0,,Firefox,88,Windows,10
236,1,null,"""",image-keyboard-response,172,376879,0.0-172.0,"""",jspsych/neutralFaces/AF17NES.JPG,"""",256,backwardMask,Test,null,100,"""","""","""","""","""","""","""","""",1,5/3/2021 10:24,84.216.105.136,Mozilla/5.0 (Windows NT 10.0; Win64; x64; rv:88.0) Gecko/20100101 Firefox/88.0,,Firefox,88,Windows,10
236,1,null,"""",html-keyboard-response,173,377891,0.0-173.0,"""","<div style=""font-size:60px;"">+</div>","""",256,fixationBtwnNeutralMaskAndPrompt,Test,null,1000,"""","""","""","""","""","""","""","""",1,5/3/2021 10:24,84.216.105.136,Mozilla/5.0 (Windows NT 10.0; Win64; x64; rv:88.0) Gecko/20100101 Firefox/88.0,,Firefox,88,Windows,10
236,1,2819,"""",html-button-response,174,380712,0.0-174.0,"""","<img src='jspsych/CFDfaces/CFD-BF-047-003-N.jpg' height=""250px"">,</br><b>Christina</b>",1,256,IntactOrRearranged,Test,"""","""","""","""",CFD-AF-243-170-N.jpg,Taylor,1,1,"""","""",1,5/3/2021 10:24,84.216.105.136,Mozilla/5.0 (Windows NT 10.0; Win64; x64; rv:88.0) Gecko/20100101 Firefox/88.0,,Firefox,88,Windows,10
236,1,1199,"""",html-slider-response,175,381914,0.0-175.0,"""","<img src='jspsych/CFDfaces/CFD-BF-047-003-N.jpg' height=""250px"">,</br><b>Christina</b>","""",256,ConfidenceQuery,Test,"""","""","""","""",CFD-AF-243-170-N.jpg,Taylor,1,"""",0,100,1,5/3/2021 10:24,84.216.105.136,Mozilla/5.0 (Windows NT 10.0; Win64; x64; rv:88.0) Gecko/20100101 Firefox/88.0,,Firefox,88,Windows,10
236,1,null,"""",html-keyboard-response,176,382917,0.0-176.0,"""","<div style=""font-size:60px;"">+</div>","""",256,ITI,Test,null,1000,"""","""","""","""","""","""","""","""",1,5/3/2021 10:24,84.216.105.136,Mozilla/5.0 (Windows NT 10.0; Win64; x64; rv:88.0) Gecko/20100101 Firefox/88.0,,Firefox,88,Windows,10
236,1,null,"""",image-keyboard-response,177,383182,0.0-177.0,"""",jspsych/scrambledNeutralFaces/scrambledAM27NES.JPG,"""",256,forwardMask,Test,null,250,"""",n,"""","""","""","""","""","""",1,5/3/2021 10:24,84.216.105.136,Mozilla/5.0 (Windows NT 10.0; Win64; x64; rv:88.0) Gecko/20100101 Firefox/88.0,,Firefox,88,Windows,10
236,1,null,"""",image-keyboard-response,178,383213,0.0-178.0,"""",jspsych/neutralFaces/AM27NES.JPG,"""",256,Cue,Test,null,16,"""","""","""","""","""","""","""","""",1,5/3/2021 10:24,84.216.105.136,Mozilla/5.0 (Windows NT 10.0; Win64; x64; rv:88.0) Gecko/20100101 Firefox/88.0,,Firefox,88,Windows,10
236,1,null,"""",image-keyboard-response,179,383324,0.0-179.0,"""",jspsych/neutralFaces/AM32NES.JPG,"""",256,backwardMask,Test,null,100,"""","""","""","""","""","""","""","""",1,5/3/2021 10:24,84.216.105.136,Mozilla/5.0 (Windows NT 10.0; Win64; x64; rv:88.0) Gecko/20100101 Firefox/88.0,,Firefox,88,Windows,10
236,1,null,"""",html-keyboard-response,180,384337,0.0-180.0,"""","<div style=""font-size:60px;"">+</div>","""",256,fixationBtwnNeutralMaskAndPrompt,Test,null,1000,"""","""","""","""","""","""","""","""",1,5/3/2021 10:24,84.216.105.136,Mozilla/5.0 (Windows NT 10.0; Win64; x64; rv:88.0) Gecko/20100101 Firefox/88.0,,Firefox,88,Windows,10
236,1,1141,"""",html-button-response,181,385478,0.0-181.0,"""","<img src='jspsych/CFDfaces/CFD-BM-032-024-N.jpg' height=""250px"">,</br><b>Richard</b>",0,256,IntactOrRearranged,Test,"""","""","""","""",CFD-BM-010-003-N.jpg,Mark,1,0,"""","""",1,5/3/2021 10:24,84.216.105.136,Mozilla/5.0 (Windows NT 10.0; Win64; x64; rv:88.0) Gecko/20100101 Firefox/88.0,,Firefox,88,Windows,10
236,1,1332,"""",html-slider-response,182,386812,0.0-182.0,"""","<img src='jspsych/CFDfaces/CFD-BM-032-024-N.jpg' height=""250px"">,</br><b>Richard</b>","""",256,ConfidenceQuery,Test,"""","""","""","""",CFD-BM-010-003-N.jpg,Mark,1,"""",0,49,1,5/3/2021 10:24,84.216.105.136,Mozilla/5.0 (Windows NT 10.0; Win64; x64; rv:88.0) Gecko/20100101 Firefox/88.0,,Firefox,88,Windows,10
236,1,null,"""",html-keyboard-response,183,387815,0.0-183.0,"""","<div style=""font-size:60px;"">+</div>","""",256,ITI,Test,null,1000,"""","""","""","""","""","""","""","""",1,5/3/2021 10:24,84.216.105.136,Mozilla/5.0 (Windows NT 10.0; Win64; x64; rv:88.0) Gecko/20100101 Firefox/88.0,,Firefox,88,Windows,10
236,1,null,"""",image-keyboard-response,184,388080,0.0-184.0,"""",jspsych/scrambledNeutralFaces/scrambledBM31NES.JPG,"""",256,forwardMask,Test,null,250,"""",n,"""","""","""","""","""","""",1,5/3/2021 10:24,84.216.105.136,Mozilla/5.0 (Windows NT 10.0; Win64; x64; rv:88.0) Gecko/20100101 Firefox/88.0,,Firefox,88,Windows,10
236,1,null,"""",image-keyboard-response,185,388112,0.0-185.0,"""",jspsych/neutralFaces/BM31NES.JPG,"""",256,Cue,Test,null,16,"""","""","""","""","""","""","""","""",1,5/3/2021 10:24,84.216.105.136,Mozilla/5.0 (Windows NT 10.0; Win64; x64; rv:88.0) Gecko/20100101 Firefox/88.0,,Firefox,88,Windows,10
236,1,null,"""",image-keyboard-response,186,388223,0.0-186.0,"""",jspsych/neutralFaces/AM17NES.JPG,"""",256,backwardMask,Test,null,100,"""","""","""","""","""","""","""","""",1,5/3/2021 10:24,84.216.105.136,Mozilla/5.0 (Windows NT 10.0; Win64; x64; rv:88.0) Gecko/20100101 Firefox/88.0,,Firefox,88,Windows,10
236,1,null,"""",html-keyboard-response,187,389228,0.0-187.0,"""","<div style=""font-size:60px;"">+</div>","""",256,fixationBtwnNeutralMaskAndPrompt,Test,null,1000,"""","""","""","""","""","""","""","""",1,5/3/2021 10:24,84.216.105.136,Mozilla/5.0 (Windows NT 10.0; Win64; x64; rv:88.0) Gecko/20100101 Firefox/88.0,,Firefox,88,Windows,10
236,1,1121,"""",html-button-response,188,390349,0.0-188.0,"""","<img src='jspsych/CFDfaces/CFD-BM-001-014-N.jpg' height=""250px"">,</br><b>James</b>",0,256,IntactOrRearranged,Test,"""","""","""","""",CFD-WM-222-057-N.jpg,Jacob,1,0,"""","""",1,5/3/2021 10:24,84.216.105.136,Mozilla/5.0 (Windows NT 10.0; Win64; x64; rv:88.0) Gecko/20100101 Firefox/88.0,,Firefox,88,Windows,10
236,1,1877,"""",html-slider-response,189,392228,0.0-189.0,"""","<img src='jspsych/CFDfaces/CFD-BM-001-014-N.jpg' height=""250px"">,</br><b>James</b>","""",256,ConfidenceQuery,Test,"""","""","""","""",CFD-WM-222-057-N.jpg,Jacob,1,"""",0,74,1,5/3/2021 10:24,84.216.105.136,Mozilla/5.0 (Windows NT 10.0; Win64; x64; rv:88.0) Gecko/20100101 Firefox/88.0,,Firefox,88,Windows,10
236,1,null,"""",html-keyboard-response,190,393235,0.0-190.0,"""","<div style=""font-size:60px;"">+</div>","""",256,ITI,Test,null,1000,"""","""","""","""","""","""","""","""",1,5/3/2021 10:24,84.216.105.136,Mozilla/5.0 (Windows NT 10.0; Win64; x64; rv:88.0) Gecko/20100101 Firefox/88.0,,Firefox,88,Windows,10
236,1,null,"""",image-keyboard-response,191,393502,0.0-191.0,"""",jspsych/scrambledNeutralFaces/scrambledBM23NES.JPG,"""",256,forwardMask,Test,null,250,"""",n,"""","""","""","""","""","""",1,5/3/2021 10:24,84.216.105.136,Mozilla/5.0 (Windows NT 10.0; Win64; x64; rv:88.0) Gecko/20100101 Firefox/88.0,,Firefox,88,Windows,10
236,1,null,"""",image-keyboard-response,192,393532,0.0-192.0,"""",jspsych/neutralFaces/BM23NES.JPG,"""",256,Cue,Test,null,16,"""","""","""","""","""","""","""","""",1,5/3/2021 10:24,84.216.105.136,Mozilla/5.0 (Windows NT 10.0; Win64; x64; rv:88.0) Gecko/20100101 Firefox/88.0,,Firefox,88,Windows,10
236,1,null,"""",image-keyboard-response,193,393640,0.0-193.0,"""",jspsych/neutralFaces/AM18NES.JPG,"""",256,backwardMask,Test,null,100,"""","""","""","""","""","""","""","""",1,5/3/2021 10:24,84.216.105.136,Mozilla/5.0 (Windows NT 10.0; Win64; x64; rv:88.0) Gecko/20100101 Firefox/88.0,,Firefox,88,Windows,10
236,1,null,"""",html-keyboard-response,194,394655,0.0-194.0,"""","<div style=""font-size:60px;"">+</div>","""",256,fixationBtwnNeutralMaskAndPrompt,Test,null,1000,"""","""","""","""","""","""","""","""",1,5/3/2021 10:24,84.216.105.136,Mozilla/5.0 (Windows NT 10.0; Win64; x64; rv:88.0) Gecko/20100101 Firefox/88.0,,Firefox,88,Windows,10
236,1,1875,"""",html-button-response,195,396531,0.0-195.0,"""","<img src='jspsych/CFDfaces/CFD-LF-206-078-N.jpg' height=""250px"">,</br><b>Stephanie</b>",0,256,IntactOrRearranged,Test,"""","""","""","""",CFD-LF-243-175-N.jpg,Amy,0,0,"""","""",1,5/3/2021 10:24,84.216.105.136,Mozilla/5.0 (Windows NT 10.0; Win64; x64; rv:88.0) Gecko/20100101 Firefox/88.0,,Firefox,88,Windows,10
236,1,1187,"""",html-slider-response,196,397719,0.0-196.0,"""","<img src='jspsych/CFDfaces/CFD-LF-206-078-N.jpg' height=""250px"">,</br><b>Stephanie</b>","""",256,ConfidenceQuery,Test,"""","""","""","""",CFD-LF-243-175-N.jpg,Amy,0,"""",0,100,1,5/3/2021 10:24,84.216.105.136,Mozilla/5.0 (Windows NT 10.0; Win64; x64; rv:88.0) Gecko/20100101 Firefox/88.0,,Firefox,88,Windows,10
236,1,null,"""",html-keyboard-response,197,398725,0.0-197.0,"""","<div style=""font-size:60px;"">+</div>","""",256,ITI,Test,null,1000,"""","""","""","""","""","""","""","""",1,5/3/2021 10:24,84.216.105.136,Mozilla/5.0 (Windows NT 10.0; Win64; x64; rv:88.0) Gecko/20100101 Firefox/88.0,,Firefox,88,Windows,10
236,1,null,"""",image-keyboard-response,198,398983,0.0-198.0,"""",jspsych/scrambledNeutralFaces/scrambledAM07NES.JPG,"""",256,forwardMask,Test,null,250,"""",n,"""","""","""","""","""","""",1,5/3/2021 10:24,84.216.105.136,Mozilla/5.0 (Windows NT 10.0; Win64; x64; rv:88.0) Gecko/20100101 Firefox/88.0,,Firefox,88,Windows,10
236,1,null,"""",image-keyboard-response,199,399015,0.0-199.0,"""",jspsych/neutralFaces/AM07NES.JPG,"""",256,Cue,Test,null,16,"""","""","""","""","""","""","""","""",1,5/3/2021 10:24,84.216.105.136,Mozilla/5.0 (Windows NT 10.0; Win64; x64; rv:88.0) Gecko/20100101 Firefox/88.0,,Firefox,88,Windows,10
236,1,null,"""",image-keyboard-response,200,399124,0.0-200.0,"""",jspsych/neutralFaces/AM33NES.JPG,"""",256,backwardMask,Test,null,100,"""","""","""","""","""","""","""","""",1,5/3/2021 10:24,84.216.105.136,Mozilla/5.0 (Windows NT 10.0; Win64; x64; rv:88.0) Gecko/20100101 Firefox/88.0,,Firefox,88,Windows,10
236,1,null,"""",html-keyboard-response,201,400129,0.0-201.0,"""","<div style=""font-size:60px;"">+</div>","""",256,fixationBtwnNeutralMaskAndPrompt,Test,null,1000,"""","""","""","""","""","""","""","""",1,5/3/2021 10:24,84.216.105.136,Mozilla/5.0 (Windows NT 10.0; Win64; x64; rv:88.0) Gecko/20100101 Firefox/88.0,,Firefox,88,Windows,10
236,1,1104,"""",html-button-response,202,401235,0.0-202.0,"""","<img src='jspsych/CFDfaces/CFD-WM-212-097-N.jpg' height=""250px"">,</br><b>Juan</b>",0,256,IntactOrRearranged,Test,"""","""","""","""",CFD-LM-248-089-N.jpg,Travis,0,0,"""","""",1,5/3/2021 10:24,84.216.105.136,Mozilla/5.0 (Windows NT 10.0; Win64; x64; rv:88.0) Gecko/20100101 Firefox/88.0,,Firefox,88,Windows,10
236,1,1098,"""",html-slider-response,203,402333,0.0-203.0,"""","<img src='jspsych/CFDfaces/CFD-WM-212-097-N.jpg' height=""250px"">,</br><b>Juan</b>","""",256,ConfidenceQuery,Test,"""","""","""","""",CFD-LM-248-089-N.jpg,Travis,0,"""",0,100,1,5/3/2021 10:24,84.216.105.136,Mozilla/5.0 (Windows NT 10.0; Win64; x64; rv:88.0) Gecko/20100101 Firefox/88.0,,Firefox,88,Windows,10
236,1,null,"""",html-keyboard-response,204,403343,0.0-204.0,"""","<div style=""font-size:60px;"">+</div>","""",256,ITI,Test,null,1000,"""","""","""","""","""","""","""","""",1,5/3/2021 10:24,84.216.105.136,Mozilla/5.0 (Windows NT 10.0; Win64; x64; rv:88.0) Gecko/20100101 Firefox/88.0,,Firefox,88,Windows,10
236,1,null,"""",image-keyboard-response,205,403610,0.0-205.0,"""",jspsych/scrambledDisgustFaces/scrambledAF30DIS.JPG,"""",256,forwardMask,Test,null,250,"""",d,"""","""","""","""","""","""",1,5/3/2021 10:24,84.216.105.136,Mozilla/5.0 (Windows NT 10.0; Win64; x64; rv:88.0) Gecko/20100101 Firefox/88.0,,Firefox,88,Windows,10
236,1,null,"""",image-keyboard-response,206,403640,0.0-206.0,"""",jspsych/disgustFaces/AF30DIS.JPG,"""",256,Cue,Test,null,16,"""","""","""","""","""","""","""","""",1,5/3/2021 10:24,84.216.105.136,Mozilla/5.0 (Windows NT 10.0; Win64; x64; rv:88.0) Gecko/20100101 Firefox/88.0,,Firefox,88,Windows,10
236,1,null,"""",image-keyboard-response,207,403748,0.0-207.0,"""",jspsych/neutralFaces/BF24NES.JPG,"""",256,backwardMask,Test,null,100,"""","""","""","""","""","""","""","""",1,5/3/2021 10:24,84.216.105.136,Mozilla/5.0 (Windows NT 10.0; Win64; x64; rv:88.0) Gecko/20100101 Firefox/88.0,,Firefox,88,Windows,10
236,1,null,"""",html-keyboard-response,208,404760,0.0-208.0,"""","<div style=""font-size:60px;"">+</div>","""",256,fixationBtwnNeutralMaskAndPrompt,Test,null,1000,"""","""","""","""","""","""","""","""",1,5/3/2021 10:24,84.216.105.136,Mozilla/5.0 (Windows NT 10.0; Win64; x64; rv:88.0) Gecko/20100101 Firefox/88.0,,Firefox,88,Windows,10
236,1,null,"""",html-button-response,209,409764,0.0-209.0,"""","<img src='jspsych/CFDfaces/CFD-WF-018-017-N.jpg' height=""250px"">,</br><b>Victoria</b>",null,256,IntactOrRearranged,Test,"""","""","""","""",CFD-BF-009-002-N.jpg,Erin,1,"""","""","""",1,5/3/2021 10:24,84.216.105.136,Mozilla/5.0 (Windows NT 10.0; Win64; x64; rv:88.0) Gecko/20100101 Firefox/88.0,,Firefox,88,Windows,10
236,1,2268,"""",html-slider-response,210,412038,0.0-210.0,"""","<img src='jspsych/CFDfaces/CFD-WF-018-017-N.jpg' height=""250px"">,</br><b>Victoria</b>","""",256,ConfidenceQuery,Test,"""","""","""","""",CFD-BF-009-002-N.jpg,Erin,1,"""",0,52,1,5/3/2021 10:24,84.216.105.136,Mozilla/5.0 (Windows NT 10.0; Win64; x64; rv:88.0) Gecko/20100101 Firefox/88.0,,Firefox,88,Windows,10
236,1,null,"""",html-keyboard-response,211,413040,0.0-211.0,"""","<div style=""font-size:60px;"">+</div>","""",256,ITI,Test,null,1000,"""","""","""","""","""","""","""","""",1,5/3/2021 10:24,84.216.105.136,Mozilla/5.0 (Windows NT 10.0; Win64; x64; rv:88.0) Gecko/20100101 Firefox/88.0,,Firefox,88,Windows,10
236,1,null,"""",image-keyboard-response,212,413295,0.0-212.0,"""",jspsych/scrambledNeutralFaces/scrambledBM02NES.JPG,"""",256,forwardMask,Test,null,250,"""",n,"""","""","""","""","""","""",1,5/3/2021 10:24,84.216.105.136,Mozilla/5.0 (Windows NT 10.0; Win64; x64; rv:88.0) Gecko/20100101 Firefox/88.0,,Firefox,88,Windows,10
236,1,null,"""",image-keyboard-response,213,413314,0.0-213.0,"""",jspsych/neutralFaces/BM02NES.JPG,"""",256,Cue,Test,null,16,"""","""","""","""","""","""","""","""",1,5/3/2021 10:24,84.216.105.136,Mozilla/5.0 (Windows NT 10.0; Win64; x64; rv:88.0) Gecko/20100101 Firefox/88.0,,Firefox,88,Windows,10
236,1,null,"""",image-keyboard-response,214,413418,0.0-214.0,"""",jspsych/neutralFaces/BM10NES.JPG,"""",256,backwardMask,Test,null,100,"""","""","""","""","""","""","""","""",1,5/3/2021 10:24,84.216.105.136,Mozilla/5.0 (Windows NT 10.0; Win64; x64; rv:88.0) Gecko/20100101 Firefox/88.0,,Firefox,88,Windows,10
236,1,null,"""",html-keyboard-response,215,414423,0.0-215.0,"""","<div style=""font-size:60px;"">+</div>","""",256,fixationBtwnNeutralMaskAndPrompt,Test,null,1000,"""","""","""","""","""","""","""","""",1,5/3/2021 10:24,84.216.105.136,Mozilla/5.0 (Windows NT 10.0; Win64; x64; rv:88.0) Gecko/20100101 Firefox/88.0,,Firefox,88,Windows,10
236,1,1834,"""",html-button-response,216,416259,0.0-216.0,"""","<img src='jspsych/CFDfaces/CFD-BF-005-001-N.jpg' height=""250px"">,</br><b>Amanda</b>",1,256,IntactOrRearranged,Test,"""","""","""","""",CFD-LM-217-162-N.jpg,Kenneth,1,1,"""","""",1,5/3/2021 10:24,84.216.105.136,Mozilla/5.0 (Windows NT 10.0; Win64; x64; rv:88.0) Gecko/20100101 Firefox/88.0,,Firefox,88,Windows,10
236,1,1414,"""",html-slider-response,217,417678,0.0-217.0,"""","<img src='jspsych/CFDfaces/CFD-BF-005-001-N.jpg' height=""250px"">,</br><b>Amanda</b>","""",256,ConfidenceQuery,Test,"""","""","""","""",CFD-LM-217-162-N.jpg,Kenneth,1,"""",0,100,1,5/3/2021 10:24,84.216.105.136,Mozilla/5.0 (Windows NT 10.0; Win64; x64; rv:88.0) Gecko/20100101 Firefox/88.0,,Firefox,88,Windows,10
236,1,null,"""",html-keyboard-response,218,418681,0.0-218.0,"""","<div style=""font-size:60px;"">+</div>","""",256,ITI,Test,null,1000,"""","""","""","""","""","""","""","""",1,5/3/2021 10:24,84.216.105.136,Mozilla/5.0 (Windows NT 10.0; Win64; x64; rv:88.0) Gecko/20100101 Firefox/88.0,,Firefox,88,Windows,10
236,1,null,"""",image-keyboard-response,219,418947,0.0-219.0,"""",jspsych/scrambledNeutralFaces/scrambledBF12NES.JPG,"""",256,forwardMask,Test,null,250,"""",n,"""","""","""","""","""","""",1,5/3/2021 10:24,84.216.105.136,Mozilla/5.0 (Windows NT 10.0; Win64; x64; rv:88.0) Gecko/20100101 Firefox/88.0,,Firefox,88,Windows,10
236,1,null,"""",image-keyboard-response,220,418979,0.0-220.0,"""",jspsych/neutralFaces/BF12NES.JPG,"""",256,Cue,Test,null,16,"""","""","""","""","""","""","""","""",1,5/3/2021 10:24,84.216.105.136,Mozilla/5.0 (Windows NT 10.0; Win64; x64; rv:88.0) Gecko/20100101 Firefox/88.0,,Firefox,88,Windows,10
236,1,null,"""",image-keyboard-response,221,419087,0.0-221.0,"""",jspsych/neutralFaces/BF07NES.JPG,"""",256,backwardMask,Test,null,100,"""","""","""","""","""","""","""","""",1,5/3/2021 10:24,84.216.105.136,Mozilla/5.0 (Windows NT 10.0; Win64; x64; rv:88.0) Gecko/20100101 Firefox/88.0,,Firefox,88,Windows,10
236,1,null,"""",html-keyboard-response,222,420100,0.0-222.0,"""","<div style=""font-size:60px;"">+</div>","""",256,fixationBtwnNeutralMaskAndPrompt,Test,null,1000,"""","""","""","""","""","""","""","""",1,5/3/2021 10:24,84.216.105.136,Mozilla/5.0 (Windows NT 10.0; Win64; x64; rv:88.0) Gecko/20100101 Firefox/88.0,,Firefox,88,Windows,10
236,1,1277,"""",html-button-response,223,421379,0.0-223.0,"""","<img src='jspsych/CFDfaces/CFD-BM-210-148-N.jpg' height=""250px"">,</br><b>Daniel</b>",0,256,IntactOrRearranged,Test,"""","""","""","""",CFD-AM-234-355-N.jpg,Vincent,1,0,"""","""",1,5/3/2021 10:24,84.216.105.136,Mozilla/5.0 (Windows NT 10.0; Win64; x64; rv:88.0) Gecko/20100101 Firefox/88.0,,Firefox,88,Windows,10
236,1,2116,"""",html-slider-response,224,423495,0.0-224.0,"""","<img src='jspsych/CFDfaces/CFD-BM-210-148-N.jpg' height=""250px"">,</br><b>Daniel</b>","""",256,ConfidenceQuery,Test,"""","""","""","""",CFD-AM-234-355-N.jpg,Vincent,1,"""",0,62,1,5/3/2021 10:24,84.216.105.136,Mozilla/5.0 (Windows NT 10.0; Win64; x64; rv:88.0) Gecko/20100101 Firefox/88.0,,Firefox,88,Windows,10
236,1,null,"""",html-keyboard-response,225,424502,0.0-225.0,"""","<div style=""font-size:60px;"">+</div>","""",256,ITI,Test,null,1000,"""","""","""","""","""","""","""","""",1,5/3/2021 10:24,84.216.105.136,Mozilla/5.0 (Windows NT 10.0; Win64; x64; rv:88.0) Gecko/20100101 Firefox/88.0,,Firefox,88,Windows,10
236,1,null,"""",image-keyboard-response,226,424761,0.0-226.0,"""",jspsych/scrambledDisgustFaces/scrambledAF06DIS.JPG,"""",256,forwardMask,Test,null,250,"""",d,"""","""","""","""","""","""",1,5/3/2021 10:24,84.216.105.136,Mozilla/5.0 (Windows NT 10.0; Win64; x64; rv:88.0) Gecko/20100101 Firefox/88.0,,Firefox,88,Windows,10
236,1,null,"""",image-keyboard-response,227,424783,0.0-227.0,"""",jspsych/disgustFaces/AF06DIS.JPG,"""",256,Cue,Test,null,16,"""","""","""","""","""","""","""","""",1,5/3/2021 10:24,84.216.105.136,Mozilla/5.0 (Windows NT 10.0; Win64; x64; rv:88.0) Gecko/20100101 Firefox/88.0,,Firefox,88,Windows,10
236,1,null,"""",image-keyboard-response,228,424890,0.0-228.0,"""",jspsych/neutralFaces/AF28NES.JPG,"""",256,backwardMask,Test,null,100,"""","""","""","""","""","""","""","""",1,5/3/2021 10:24,84.216.105.136,Mozilla/5.0 (Windows NT 10.0; Win64; x64; rv:88.0) Gecko/20100101 Firefox/88.0,,Firefox,88,Windows,10
236,1,null,"""",html-keyboard-response,229,425903,0.0-229.0,"""","<div style=""font-size:60px;"">+</div>","""",256,fixationBtwnNeutralMaskAndPrompt,Test,null,1000,"""","""","""","""","""","""","""","""",1,5/3/2021 10:24,84.216.105.136,Mozilla/5.0 (Windows NT 10.0; Win64; x64; rv:88.0) Gecko/20100101 Firefox/88.0,,Firefox,88,Windows,10
236,1,2488,"""",html-button-response,230,428393,0.0-230.0,"""","<img src='jspsych/CFDfaces/CFD-AM-248-104-N.jpg' height=""250px"">,</br><b>Jeffrey</b>",0,256,IntactOrRearranged,Test,"""","""","""","""",CFD-WM-017-002-N.jpg,Jeremy,1,0,"""","""",1,5/3/2021 10:24,84.216.105.136,Mozilla/5.0 (Windows NT 10.0; Win64; x64; rv:88.0) Gecko/20100101 Firefox/88.0,,Firefox,88,Windows,10
236,1,1658,"""",html-slider-response,231,430052,0.0-231.0,"""","<img src='jspsych/CFDfaces/CFD-AM-248-104-N.jpg' height=""250px"">,</br><b>Jeffrey</b>","""",256,ConfidenceQuery,Test,"""","""","""","""",CFD-WM-017-002-N.jpg,Jeremy,1,"""",0,51,1,5/3/2021 10:24,84.216.105.136,Mozilla/5.0 (Windows NT 10.0; Win64; x64; rv:88.0) Gecko/20100101 Firefox/88.0,,Firefox,88,Windows,10
236,1,null,"""",html-keyboard-response,232,431057,0.0-232.0,"""","<div style=""font-size:60px;"">+</div>","""",256,ITI,Test,null,1000,"""","""","""","""","""","""","""","""",1,5/3/2021 10:24,84.216.105.136,Mozilla/5.0 (Windows NT 10.0; Win64; x64; rv:88.0) Gecko/20100101 Firefox/88.0,,Firefox,88,Windows,10
236,1,null,"""",image-keyboard-response,233,431310,0.0-233.0,"""",jspsych/scrambledDisgustFaces/scrambledAM32DIS.JPG,"""",256,forwardMask,Test,null,250,"""",d,"""","""","""","""","""","""",1,5/3/2021 10:24,84.216.105.136,Mozilla/5.0 (Windows NT 10.0; Win64; x64; rv:88.0) Gecko/20100101 Firefox/88.0,,Firefox,88,Windows,10
236,1,null,"""",image-keyboard-response,234,431341,0.0-234.0,"""",jspsych/disgustFaces/AM32DIS.JPG,"""",256,Cue,Test,null,16,"""","""","""","""","""","""","""","""",1,5/3/2021 10:24,84.216.105.136,Mozilla/5.0 (Windows NT 10.0; Win64; x64; rv:88.0) Gecko/20100101 Firefox/88.0,,Firefox,88,Windows,10
236,1,null,"""",image-keyboard-response,235,431450,0.0-235.0,"""",jspsych/neutralFaces/BM12NES.JPG,"""",256,backwardMask,Test,null,100,"""","""","""","""","""","""","""","""",1,5/3/2021 10:24,84.216.105.136,Mozilla/5.0 (Windows NT 10.0; Win64; x64; rv:88.0) Gecko/20100101 Firefox/88.0,,Firefox,88,Windows,10
236,1,null,"""",html-keyboard-response,236,432460,0.0-236.0,"""","<div style=""font-size:60px;"">+</div>","""",256,fixationBtwnNeutralMaskAndPrompt,Test,null,1000,"""","""","""","""","""","""","""","""",1,5/3/2021 10:24,84.216.105.136,Mozilla/5.0 (Windows NT 10.0; Win64; x64; rv:88.0) Gecko/20100101 Firefox/88.0,,Firefox,88,Windows,10
236,1,4201,"""",html-button-response,237,436661,0.0-237.0,"""","<img src='jspsych/CFDfaces/CFD-BM-043-071-N.jpg' height=""250px"">,</br><b>Joshua</b>",0,256,IntactOrRearranged,Test,"""","""","""","""",CFD-AM-229-224-N.jpg,Justin,1,0,"""","""",1,5/3/2021 10:24,84.216.105.136,Mozilla/5.0 (Windows NT 10.0; Win64; x64; rv:88.0) Gecko/20100101 Firefox/88.0,,Firefox,88,Windows,10
236,1,1771,"""",html-slider-response,238,438435,0.0-238.0,"""","<img src='jspsych/CFDfaces/CFD-BM-043-071-N.jpg' height=""250px"">,</br><b>Joshua</b>","""",256,ConfidenceQuery,Test,"""","""","""","""",CFD-AM-229-224-N.jpg,Justin,1,"""",0,61,1,5/3/2021 10:24,84.216.105.136,Mozilla/5.0 (Windows NT 10.0; Win64; x64; rv:88.0) Gecko/20100101 Firefox/88.0,,Firefox,88,Windows,10
236,1,null,"""",html-keyboard-response,239,439449,0.0-239.0,"""","<div style=""font-size:60px;"">+</div>","""",256,ITI,Test,null,1000,"""","""","""","""","""","""","""","""",1,5/3/2021 10:24,84.216.105.136,Mozilla/5.0 (Windows NT 10.0; Win64; x64; rv:88.0) Gecko/20100101 Firefox/88.0,,Firefox,88,Windows,10
236,1,null,"""",image-keyboard-response,240,439715,0.0-240.0,"""",jspsych/scrambledNeutralFaces/scrambledBM09NES.JPG,"""",256,forwardMask,Test,null,250,"""",n,"""","""","""","""","""","""",1,5/3/2021 10:24,84.216.105.136,Mozilla/5.0 (Windows NT 10.0; Win64; x64; rv:88.0) Gecko/20100101 Firefox/88.0,,Firefox,88,Windows,10
236,1,null,"""",image-keyboard-response,241,439746,0.0-241.0,"""",jspsych/neutralFaces/BM09NES.JPG,"""",256,Cue,Test,null,16,"""","""","""","""","""","""","""","""",1,5/3/2021 10:24,84.216.105.136,Mozilla/5.0 (Windows NT 10.0; Win64; x64; rv:88.0) Gecko/20100101 Firefox/88.0,,Firefox,88,Windows,10
236,1,null,"""",image-keyboard-response,242,439857,0.0-242.0,"""",jspsych/neutralFaces/BM05NES.JPG,"""",256,backwardMask,Test,null,100,"""","""","""","""","""","""","""","""",1,5/3/2021 10:24,84.216.105.136,Mozilla/5.0 (Windows NT 10.0; Win64; x64; rv:88.0) Gecko/20100101 Firefox/88.0,,Firefox,88,Windows,10
236,1,null,"""",html-keyboard-response,243,440862,0.0-243.0,"""","<div style=""font-size:60px;"">+</div>","""",256,fixationBtwnNeutralMaskAndPrompt,Test,null,1000,"""","""","""","""","""","""","""","""",1,5/3/2021 10:24,84.216.105.136,Mozilla/5.0 (Windows NT 10.0; Win64; x64; rv:88.0) Gecko/20100101 Firefox/88.0,,Firefox,88,Windows,10
236,1,1891,"""",html-button-response,244,442755,0.0-244.0,"""","<img src='jspsych/CFDfaces/CFD-WF-029-002-N.jpg' height=""250px"">,</br><b>Julie</b>",0,256,IntactOrRearranged,Test,"""","""","""","""",CFD-WM-019-003-N.jpg,Dustin,0,0,"""","""",1,5/3/2021 10:24,84.216.105.136,Mozilla/5.0 (Windows NT 10.0; Win64; x64; rv:88.0) Gecko/20100101 Firefox/88.0,,Firefox,88,Windows,10
236,1,1545,"""",html-slider-response,245,444303,0.0-245.0,"""","<img src='jspsych/CFDfaces/CFD-WF-029-002-N.jpg' height=""250px"">,</br><b>Julie</b>","""",256,ConfidenceQuery,Test,"""","""","""","""",CFD-WM-019-003-N.jpg,Dustin,0,"""",0,100,1,5/3/2021 10:24,84.216.105.136,Mozilla/5.0 (Windows NT 10.0; Win64; x64; rv:88.0) Gecko/20100101 Firefox/88.0,,Firefox,88,Windows,10
236,1,null,"""",html-keyboard-response,246,445314,0.0-246.0,"""","<div style=""font-size:60px;"">+</div>","""",256,ITI,Test,null,1000,"""","""","""","""","""","""","""","""",1,5/3/2021 10:24,84.216.105.136,Mozilla/5.0 (Windows NT 10.0; Win64; x64; rv:88.0) Gecko/20100101 Firefox/88.0,,Firefox,88,Windows,10
236,1,null,"""",image-keyboard-response,247,445578,0.0-247.0,"""",jspsych/scrambledDisgustFaces/scrambledAM34DIS.JPG,"""",256,forwardMask,Test,null,250,"""",d,"""","""","""","""","""","""",1,5/3/2021 10:24,84.216.105.136,Mozilla/5.0 (Windows NT 10.0; Win64; x64; rv:88.0) Gecko/20100101 Firefox/88.0,,Firefox,88,Windows,10
236,1,null,"""",image-keyboard-response,248,445609,0.0-248.0,"""",jspsych/disgustFaces/AM34DIS.JPG,"""",256,Cue,Test,null,16,"""","""","""","""","""","""","""","""",1,5/3/2021 10:24,84.216.105.136,Mozilla/5.0 (Windows NT 10.0; Win64; x64; rv:88.0) Gecko/20100101 Firefox/88.0,,Firefox,88,Windows,10
236,1,null,"""",image-keyboard-response,249,445719,0.0-249.0,"""",jspsych/neutralFaces/BM21NES.JPG,"""",256,backwardMask,Test,null,100,"""","""","""","""","""","""","""","""",1,5/3/2021 10:24,84.216.105.136,Mozilla/5.0 (Windows NT 10.0; Win64; x64; rv:88.0) Gecko/20100101 Firefox/88.0,,Firefox,88,Windows,10
236,1,null,"""",html-keyboard-response,250,446723,0.0-250.0,"""","<div style=""font-size:60px;"">+</div>","""",256,fixationBtwnNeutralMaskAndPrompt,Test,null,1000,"""","""","""","""","""","""","""","""",1,5/3/2021 10:24,84.216.105.136,Mozilla/5.0 (Windows NT 10.0; Win64; x64; rv:88.0) Gecko/20100101 Firefox/88.0,,Firefox,88,Windows,10
236,1,1217,"""",html-button-response,251,447941,0.0-251.0,"""","<img src='jspsych/CFDfaces/CFD-AM-243-212-N.jpg' height=""250px"">,</br><b>Jason</b>",0,256,IntactOrRearranged,Test,"""","""","""","""",CFD-AF-241-141-N.jpg,Rebecca,0,0,"""","""",1,5/3/2021 10:24,84.216.105.136,Mozilla/5.0 (Windows NT 10.0; Win64; x64; rv:88.0) Gecko/20100101 Firefox/88.0,,Firefox,88,Windows,10
236,1,1562,"""",html-slider-response,252,449505,0.0-252.0,"""","<img src='jspsych/CFDfaces/CFD-AM-243-212-N.jpg' height=""250px"">,</br><b>Jason</b>","""",256,ConfidenceQuery,Test,"""","""","""","""",CFD-AF-241-141-N.jpg,Rebecca,0,"""",0,57,1,5/3/2021 10:24,84.216.105.136,Mozilla/5.0 (Windows NT 10.0; Win64; x64; rv:88.0) Gecko/20100101 Firefox/88.0,,Firefox,88,Windows,10
236,1,null,"""",html-keyboard-response,253,450512,0.0-253.0,"""","<div style=""font-size:60px;"">+</div>","""",256,ITI,Test,null,1000,"""","""","""","""","""","""","""","""",1,5/3/2021 10:24,84.216.105.136,Mozilla/5.0 (Windows NT 10.0; Win64; x64; rv:88.0) Gecko/20100101 Firefox/88.0,,Firefox,88,Windows,10
236,1,null,"""",image-keyboard-response,254,450779,0.0-254.0,"""",jspsych/scrambledNeutralFaces/scrambledBF16NES.JPG,"""",256,forwardMask,Test,null,250,"""",n,"""","""","""","""","""","""",1,5/3/2021 10:24,84.216.105.136,Mozilla/5.0 (Windows NT 10.0; Win64; x64; rv:88.0) Gecko/20100101 Firefox/88.0,,Firefox,88,Windows,10
236,1,null,"""",image-keyboard-response,255,450811,0.0-255.0,"""",jspsych/neutralFaces/BF16NES.JPG,"""",256,Cue,Test,null,16,"""","""","""","""","""","""","""","""",1,5/3/2021 10:24,84.216.105.136,Mozilla/5.0 (Windows NT 10.0; Win64; x64; rv:88.0) Gecko/20100101 Firefox/88.0,,Firefox,88,Windows,10
236,1,null,"""",image-keyboard-response,256,450921,0.0-256.0,"""",jspsych/neutralFaces/BF05NES.JPG,"""",256,backwardMask,Test,null,100,"""","""","""","""","""","""","""","""",1,5/3/2021 10:24,84.216.105.136,Mozilla/5.0 (Windows NT 10.0; Win64; x64; rv:88.0) Gecko/20100101 Firefox/88.0,,Firefox,88,Windows,10
236,1,null,"""",html-keyboard-response,257,451931,0.0-257.0,"""","<div style=""font-size:60px;"">+</div>","""",256,fixationBtwnNeutralMaskAndPrompt,Test,null,1000,"""","""","""","""","""","""","""","""",1,5/3/2021 10:24,84.216.105.136,Mozilla/5.0 (Windows NT 10.0; Win64; x64; rv:88.0) Gecko/20100101 Firefox/88.0,,Firefox,88,Windows,10
236,1,1897,"""",html-button-response,258,453829,0.0-258.0,"""","<img src='jspsych/CFDfaces/CFD-AM-205-153-N.jpg' height=""250px"">,</br><b>Eric</b>",1,256,IntactOrRearranged,Test,"""","""","""","""",CFD-LF-205-100-N.jpg,Heather,1,1,"""","""",1,5/3/2021 10:24,84.216.105.136,Mozilla/5.0 (Windows NT 10.0; Win64; x64; rv:88.0) Gecko/20100101 Firefox/88.0,,Firefox,88,Windows,10
236,1,1505,"""",html-slider-response,259,455335,0.0-259.0,"""","<img src='jspsych/CFDfaces/CFD-AM-205-153-N.jpg' height=""250px"">,</br><b>Eric</b>","""",256,ConfidenceQuery,Test,"""","""","""","""",CFD-LF-205-100-N.jpg,Heather,1,"""",0,63,1,5/3/2021 10:24,84.216.105.136,Mozilla/5.0 (Windows NT 10.0; Win64; x64; rv:88.0) Gecko/20100101 Firefox/88.0,,Firefox,88,Windows,10
236,1,null,"""",html-keyboard-response,260,456344,0.0-260.0,"""","<div style=""font-size:60px;"">+</div>","""",256,ITI,Test,null,1000,"""","""","""","""","""","""","""","""",1,5/3/2021 10:24,84.216.105.136,Mozilla/5.0 (Windows NT 10.0; Win64; x64; rv:88.0) Gecko/20100101 Firefox/88.0,,Firefox,88,Windows,10
236,1,null,"""",image-keyboard-response,261,456607,0.0-261.0,"""",jspsych/scrambledNeutralFaces/scrambledBM03NES.JPG,"""",256,forwardMask,Test,null,250,"""",n,"""","""","""","""","""","""",1,5/3/2021 10:24,84.216.105.136,Mozilla/5.0 (Windows NT 10.0; Win64; x64; rv:88.0) Gecko/20100101 Firefox/88.0,,Firefox,88,Windows,10
236,1,null,"""",image-keyboard-response,262,456639,0.0-262.0,"""",jspsych/neutralFaces/BM03NES.JPG,"""",256,Cue,Test,null,16,"""","""","""","""","""","""","""","""",1,5/3/2021 10:24,84.216.105.136,Mozilla/5.0 (Windows NT 10.0; Win64; x64; rv:88.0) Gecko/20100101 Firefox/88.0,,Firefox,88,Windows,10
236,1,null,"""",image-keyboard-response,263,456750,0.0-263.0,"""",jspsych/neutralFaces/BM11NES.JPG,"""",256,backwardMask,Test,null,100,"""","""","""","""","""","""","""","""",1,5/3/2021 10:24,84.216.105.136,Mozilla/5.0 (Windows NT 10.0; Win64; x64; rv:88.0) Gecko/20100101 Firefox/88.0,,Firefox,88,Windows,10
236,1,null,"""",html-keyboard-response,264,457754,0.0-264.0,"""","<div style=""font-size:60px;"">+</div>","""",256,fixationBtwnNeutralMaskAndPrompt,Test,null,1000,"""","""","""","""","""","""","""","""",1,5/3/2021 10:24,84.216.105.136,Mozilla/5.0 (Windows NT 10.0; Win64; x64; rv:88.0) Gecko/20100101 Firefox/88.0,,Firefox,88,Windows,10
236,1,null,"""",html-button-response,265,462771,0.0-265.0,"""","<img src='jspsych/CFDfaces/CFD-BM-017-021-N.jpg' height=""250px"">,</br><b>Peter</b>",null,256,IntactOrRearranged,Test,"""","""","""","""",CFD-WM-032-001-N.jpg,Cameron,0,"""","""","""",1,5/3/2021 10:24,84.216.105.136,Mozilla/5.0 (Windows NT 10.0; Win64; x64; rv:88.0) Gecko/20100101 Firefox/88.0,,Firefox,88,Windows,10
236,1,null,"""",html-slider-response,266,467777,0.0-266.0,"""","<img src='jspsych/CFDfaces/CFD-BM-017-021-N.jpg' height=""250px"">,</br><b>Peter</b>","""",256,ConfidenceQuery,Test,"""","""","""","""",CFD-WM-032-001-N.jpg,Cameron,0,"""",0,null,1,5/3/2021 10:24,84.216.105.136,Mozilla/5.0 (Windows NT 10.0; Win64; x64; rv:88.0) Gecko/20100101 Firefox/88.0,,Firefox,88,Windows,10
236,1,null,"""",html-keyboard-response,267,468778,0.0-267.0,"""","<div style=""font-size:60px;"">+</div>","""",256,ITI,Test,null,1000,"""","""","""","""","""","""","""","""",1,5/3/2021 10:24,84.216.105.136,Mozilla/5.0 (Windows NT 10.0; Win64; x64; rv:88.0) Gecko/20100101 Firefox/88.0,,Firefox,88,Windows,10
236,1,null,"""",image-keyboard-response,268,469041,0.0-268.0,"""",jspsych/scrambledNeutralFaces/scrambledAF05NES.JPG,"""",256,forwardMask,Test,null,250,"""",n,"""","""","""","""","""","""",1,5/3/2021 10:24,84.216.105.136,Mozilla/5.0 (Windows NT 10.0; Win64; x64; rv:88.0) Gecko/20100101 Firefox/88.0,,Firefox,88,Windows,10
236,1,null,"""",image-keyboard-response,269,469072,0.0-269.0,"""",jspsych/neutralFaces/AF05NES.JPG,"""",256,Cue,Test,null,16,"""","""","""","""","""","""","""","""",1,5/3/2021 10:24,84.216.105.136,Mozilla/5.0 (Windows NT 10.0; Win64; x64; rv:88.0) Gecko/20100101 Firefox/88.0,,Firefox,88,Windows,10
236,1,null,"""",image-keyboard-response,270,469181,0.0-270.0,"""",jspsych/neutralFaces/AF09NES.JPG,"""",256,backwardMask,Test,null,100,"""","""","""","""","""","""","""","""",1,5/3/2021 10:24,84.216.105.136,Mozilla/5.0 (Windows NT 10.0; Win64; x64; rv:88.0) Gecko/20100101 Firefox/88.0,,Firefox,88,Windows,10
236,1,null,"""",html-keyboard-response,271,470182,0.0-271.0,"""","<div style=""font-size:60px;"">+</div>","""",256,fixationBtwnNeutralMaskAndPrompt,Test,null,1000,"""","""","""","""","""","""","""","""",1,5/3/2021 10:24,84.216.105.136,Mozilla/5.0 (Windows NT 10.0; Win64; x64; rv:88.0) Gecko/20100101 Firefox/88.0,,Firefox,88,Windows,10
236,1,1351,"""",html-button-response,272,471534,0.0-272.0,"""","<img src='jspsych/CFDfaces/CFD-AM-230-150-N.jpg' height=""250px"">,</br><b>Christian</b>",0,256,IntactOrRearranged,Test,"""","""","""","""",CFD-LM-213-061-N.jpg,Timothy,1,0,"""","""",1,5/3/2021 10:24,84.216.105.136,Mozilla/5.0 (Windows NT 10.0; Win64; x64; rv:88.0) Gecko/20100101 Firefox/88.0,,Firefox,88,Windows,10
236,1,1780,"""",html-slider-response,273,473315,0.0-273.0,"""","<img src='jspsych/CFDfaces/CFD-AM-230-150-N.jpg' height=""250px"">,</br><b>Christian</b>","""",256,ConfidenceQuery,Test,"""","""","""","""",CFD-LM-213-061-N.jpg,Timothy,1,"""",0,61,1,5/3/2021 10:24,84.216.105.136,Mozilla/5.0 (Windows NT 10.0; Win64; x64; rv:88.0) Gecko/20100101 Firefox/88.0,,Firefox,88,Windows,10
236,1,null,"""",html-keyboard-response,274,474329,0.0-274.0,"""","<div style=""font-size:60px;"">+</div>","""",256,ITI,Test,null,1000,"""","""","""","""","""","""","""","""",1,5/3/2021 10:24,84.216.105.136,Mozilla/5.0 (Windows NT 10.0; Win64; x64; rv:88.0) Gecko/20100101 Firefox/88.0,,Firefox,88,Windows,10
236,1,null,"""",image-keyboard-response,275,474592,0.0-275.0,"""",jspsych/scrambledNeutralFaces/scrambledBF28NES.JPG,"""",256,forwardMask,Test,null,250,"""",n,"""","""","""","""","""","""",1,5/3/2021 10:24,84.216.105.136,Mozilla/5.0 (Windows NT 10.0; Win64; x64; rv:88.0) Gecko/20100101 Firefox/88.0,,Firefox,88,Windows,10
236,1,null,"""",image-keyboard-response,276,474623,0.0-276.0,"""",jspsych/neutralFaces/BF28NES.JPG,"""",256,Cue,Test,null,16,"""","""","""","""","""","""","""","""",1,5/3/2021 10:24,84.216.105.136,Mozilla/5.0 (Windows NT 10.0; Win64; x64; rv:88.0) Gecko/20100101 Firefox/88.0,,Firefox,88,Windows,10
236,1,null,"""",image-keyboard-response,277,474732,0.0-277.0,"""",jspsych/neutralFaces/BF29NES.JPG,"""",256,backwardMask,Test,null,100,"""","""","""","""","""","""","""","""",1,5/3/2021 10:24,84.216.105.136,Mozilla/5.0 (Windows NT 10.0; Win64; x64; rv:88.0) Gecko/20100101 Firefox/88.0,,Firefox,88,Windows,10
236,1,null,"""",html-keyboard-response,278,475742,0.0-278.0,"""","<div style=""font-size:60px;"">+</div>","""",256,fixationBtwnNeutralMaskAndPrompt,Test,null,1000,"""","""","""","""","""","""","""","""",1,5/3/2021 10:24,84.216.105.136,Mozilla/5.0 (Windows NT 10.0; Win64; x64; rv:88.0) Gecko/20100101 Firefox/88.0,,Firefox,88,Windows,10
236,1,1452,"""",html-button-response,279,477196,0.0-279.0,"""","<img src='jspsych/CFDfaces/CFD-BM-208-065-N.jpg' height=""250px"">,</br><b>Brian</b>",1,256,IntactOrRearranged,Test,"""","""","""","""",CFD-WM-003-002-N.jpg,Jesse,0,1,"""","""",1,5/3/2021 10:24,84.216.105.136,Mozilla/5.0 (Windows NT 10.0; Win64; x64; rv:88.0) Gecko/20100101 Firefox/88.0,,Firefox,88,Windows,10
236,1,1879,"""",html-slider-response,280,479076,0.0-280.0,"""","<img src='jspsych/CFDfaces/CFD-BM-208-065-N.jpg' height=""250px"">,</br><b>Brian</b>","""",256,ConfidenceQuery,Test,"""","""","""","""",CFD-WM-003-002-N.jpg,Jesse,0,"""",0,51,1,5/3/2021 10:24,84.216.105.136,Mozilla/5.0 (Windows NT 10.0; Win64; x64; rv:88.0) Gecko/20100101 Firefox/88.0,,Firefox,88,Windows,10
236,1,null,"""",html-keyboard-response,281,480082,0.0-281.0,"""","<div style=""font-size:60px;"">+</div>","""",256,ITI,Test,null,1000,"""","""","""","""","""","""","""","""",1,5/3/2021 10:24,84.216.105.136,Mozilla/5.0 (Windows NT 10.0; Win64; x64; rv:88.0) Gecko/20100101 Firefox/88.0,,Firefox,88,Windows,10
236,1,null,"""",image-keyboard-response,282,480351,0.0-282.0,"""",jspsych/scrambledNeutralFaces/scrambledBM13NES.JPG,"""",256,forwardMask,Test,null,250,"""",n,"""","""","""","""","""","""",1,5/3/2021 10:24,84.216.105.136,Mozilla/5.0 (Windows NT 10.0; Win64; x64; rv:88.0) Gecko/20100101 Firefox/88.0,,Firefox,88,Windows,10
236,1,null,"""",image-keyboard-response,283,480381,0.0-283.0,"""",jspsych/neutralFaces/BM13NES.JPG,"""",256,Cue,Test,null,16,"""","""","""","""","""","""","""","""",1,5/3/2021 10:24,84.216.105.136,Mozilla/5.0 (Windows NT 10.0; Win64; x64; rv:88.0) Gecko/20100101 Firefox/88.0,,Firefox,88,Windows,10
236,1,null,"""",image-keyboard-response,284,480489,0.0-284.0,"""",jspsych/neutralFaces/BM31NES.JPG,"""",256,backwardMask,Test,null,100,"""","""","""","""","""","""","""","""",1,5/3/2021 10:24,84.216.105.136,Mozilla/5.0 (Windows NT 10.0; Win64; x64; rv:88.0) Gecko/20100101 Firefox/88.0,,Firefox,88,Windows,10
236,1,null,"""",html-keyboard-response,285,481503,0.0-285.0,"""","<div style=""font-size:60px;"">+</div>","""",256,fixationBtwnNeutralMaskAndPrompt,Test,null,1000,"""","""","""","""","""","""","""","""",1,5/3/2021 10:24,84.216.105.136,Mozilla/5.0 (Windows NT 10.0; Win64; x64; rv:88.0) Gecko/20100101 Firefox/88.0,,Firefox,88,Windows,10
236,1,1678,"""",html-button-response,286,483184,0.0-286.0,"""","<img src='jspsych/CFDfaces/CFD-WF-023-003-N.jpg' height=""250px"">,</br><b>Andrea</b>",0,256,IntactOrRearranged,Test,"""","""","""","""",CFD-LM-252-076-N.jpg,Luis,1,0,"""","""",1,5/3/2021 10:24,84.216.105.136,Mozilla/5.0 (Windows NT 10.0; Win64; x64; rv:88.0) Gecko/20100101 Firefox/88.0,,Firefox,88,Windows,10
236,1,1739,"""",html-slider-response,287,484923,0.0-287.0,"""","<img src='jspsych/CFDfaces/CFD-WF-023-003-N.jpg' height=""250px"">,</br><b>Andrea</b>","""",256,ConfidenceQuery,Test,"""","""","""","""",CFD-LM-252-076-N.jpg,Luis,1,"""",0,52,1,5/3/2021 10:24,84.216.105.136,Mozilla/5.0 (Windows NT 10.0; Win64; x64; rv:88.0) Gecko/20100101 Firefox/88.0,,Firefox,88,Windows,10
236,1,null,"""",html-keyboard-response,288,485930,0.0-288.0,"""","<div style=""font-size:60px;"">+</div>","""",256,ITI,Test,null,1000,"""","""","""","""","""","""","""","""",1,5/3/2021 10:24,84.216.105.136,Mozilla/5.0 (Windows NT 10.0; Win64; x64; rv:88.0) Gecko/20100101 Firefox/88.0,,Firefox,88,Windows,10
236,1,null,"""",image-keyboard-response,289,486188,0.0-289.0,"""",jspsych/scrambledDisgustFaces/scrambledBM02DIS.JPG,"""",256,forwardMask,Test,null,250,"""",d,"""","""","""","""","""","""",1,5/3/2021 10:24,84.216.105.136,Mozilla/5.0 (Windows NT 10.0; Win64; x64; rv:88.0) Gecko/20100101 Firefox/88.0,,Firefox,88,Windows,10
236,1,null,"""",image-keyboard-response,290,486209,0.0-290.0,"""",jspsych/disgustFaces/BM03DIS.JPG,"""",256,Cue,Test,null,16,"""","""","""","""","""","""","""","""",1,5/3/2021 10:24,84.216.105.136,Mozilla/5.0 (Windows NT 10.0; Win64; x64; rv:88.0) Gecko/20100101 Firefox/88.0,,Firefox,88,Windows,10
236,1,null,"""",image-keyboard-response,291,486315,0.0-291.0,"""",jspsych/neutralFaces/BM08NES.JPG,"""",256,backwardMask,Test,null,100,"""","""","""","""","""","""","""","""",1,5/3/2021 10:24,84.216.105.136,Mozilla/5.0 (Windows NT 10.0; Win64; x64; rv:88.0) Gecko/20100101 Firefox/88.0,,Firefox,88,Windows,10
236,1,null,"""",html-keyboard-response,292,487317,0.0-292.0,"""","<div style=""font-size:60px;"">+</div>","""",256,fixationBtwnNeutralMaskAndPrompt,Test,null,1000,"""","""","""","""","""","""","""","""",1,5/3/2021 10:24,84.216.105.136,Mozilla/5.0 (Windows NT 10.0; Win64; x64; rv:88.0) Gecko/20100101 Firefox/88.0,,Firefox,88,Windows,10
236,1,1320,"""",html-button-response,293,488640,0.0-293.0,"""","<img src='jspsych/CFDfaces/CFD-AF-208-003-N.jpg' height=""250px"">,</br><b>Vanessa</b>",1,256,IntactOrRearranged,Test,"""","""","""","""",CFD-LF-210-220-N.jpg,Lindsey,0,1,"""","""",1,5/3/2021 10:24,84.216.105.136,Mozilla/5.0 (Windows NT 10.0; Win64; x64; rv:88.0) Gecko/20100101 Firefox/88.0,,Firefox,88,Windows,10
236,1,1924,"""",html-slider-response,294,490565,0.0-294.0,"""","<img src='jspsych/CFDfaces/CFD-AF-208-003-N.jpg' height=""250px"">,</br><b>Vanessa</b>","""",256,ConfidenceQuery,Test,"""","""","""","""",CFD-LF-210-220-N.jpg,Lindsey,0,"""",0,63,1,5/3/2021 10:24,84.216.105.136,Mozilla/5.0 (Windows NT 10.0; Win64; x64; rv:88.0) Gecko/20100101 Firefox/88.0,,Firefox,88,Windows,10
236,1,null,"""",html-keyboard-response,295,491578,0.0-295.0,"""","<div style=""font-size:60px;"">+</div>","""",256,ITI,Test,null,1000,"""","""","""","""","""","""","""","""",1,5/3/2021 10:24,84.216.105.136,Mozilla/5.0 (Windows NT 10.0; Win64; x64; rv:88.0) Gecko/20100101 Firefox/88.0,,Firefox,88,Windows,10
