run_id,condition,rt,responses,trial_type,trial_index,time_elapsed,internal_node_id,question_order,stimulus,button_pressed,iTrial,Phase,ExperimentPhase,key_press,StimulusDurationSetting,CharacterResponse,correctResponse,Face,Name,rearranged,didSubjectEnterRearranged,slider_start,response,Block,recorded_at,ip,user_agent,device,browser,browser_version,platform,platform_version
130,1,9902,"{""Q0"":""A370S3V5OUNP4E""}",survey-text,0,9907,0.0-0.0,"""","""","""","""","""","""","""","""","""","""","""","""","""","""","""","""","""",4/25/2021 3:31,68.101.149.61,Mozilla/5.0 (Macintosh; Intel Mac OS X 10.13; rv:87.0) Gecko/20100101 Firefox/87.0,Macintosh,Firefox,87,OS X,10.13
130,1,2490,"{""Q0"":""22""}",survey-text,1,12412,0.0-1.0,"""","""","""","""","""","""","""","""","""","""","""","""","""","""","""","""","""",4/25/2021 3:31,68.101.149.61,Mozilla/5.0 (Macintosh; Intel Mac OS X 10.13; rv:87.0) Gecko/20100101 Firefox/87.0,Macintosh,Firefox,87,OS X,10.13
130,1,7586,"{""Q0"":""female"",""Q1"":""Not Hispanic/Latino"",""Q2"":""White or Caucasian""}",survey-multi-choice,2,20003,0.0-2.0,"[0,1,2]","""","""","""","""","""","""","""","""","""","""","""","""","""","""","""","""",4/25/2021 3:31,68.101.149.61,Mozilla/5.0 (Macintosh; Intel Mac OS X 10.13; rv:87.0) Gecko/20100101 Firefox/87.0,Macintosh,Firefox,87,OS X,10.13
130,1,17100,"""",image-button-response,3,37122,0.0-3.0,"""",directionsMemoryAssociation1.JPG,0,1,IntroDirections1,break,"""","""","""","""","""","""","""","""","""","""","""",4/25/2021 3:31,68.101.149.61,Mozilla/5.0 (Macintosh; Intel Mac OS X 10.13; rv:87.0) Gecko/20100101 Firefox/87.0,Macintosh,Firefox,87,OS X,10.13
130,1,35779,"""",image-button-response,4,72913,0.0-4.0,"""",directionsMemoryAssociation2.JPG,0,1,IntroDirections2,break,"""","""","""","""","""","""","""","""","""","""","""",4/25/2021 3:31,68.101.149.61,Mozilla/5.0 (Macintosh; Intel Mac OS X 10.13; rv:87.0) Gecko/20100101 Firefox/87.0,Macintosh,Firefox,87,OS X,10.13
130,1,2298,"""",html-keyboard-response,5,77928,0.0-5.0,"""","<img src='jspsych/CFDfaces/CFD-BM-208-065-N.jpg' height=""250px"">,</br><b>Marcus</b>","""",1,IntactFace,Practice,70,5000,f,"""","""","""","""","""","""","""","""",4/25/2021 3:31,68.101.149.61,Mozilla/5.0 (Macintosh; Intel Mac OS X 10.13; rv:87.0) Gecko/20100101 Firefox/87.0,Macintosh,Firefox,87,OS X,10.13
130,1,null,"""",html-keyboard-response,6,78431,0.0-6.0,"""","<div style=""font-size:60px;"">+</div>","""",1,ITI,Practice,null,1000,"""","""","""","""","""","""","""","""","""",4/25/2021 3:31,68.101.149.61,Mozilla/5.0 (Macintosh; Intel Mac OS X 10.13; rv:87.0) Gecko/20100101 Firefox/87.0,Macintosh,Firefox,87,OS X,10.13
130,1,1836,"""",html-keyboard-response,7,83441,0.0-7.0,"""","<img src='jspsych/CFDfaces/CFD-BM-203-001-N.jpg' height=""250px"">,</br><b>Patrick</b>","""",2,IntactFace,Practice,78,5000,n,"""","""","""","""","""","""","""","""",4/25/2021 3:31,68.101.149.61,Mozilla/5.0 (Macintosh; Intel Mac OS X 10.13; rv:87.0) Gecko/20100101 Firefox/87.0,Macintosh,Firefox,87,OS X,10.13
130,1,null,"""",html-keyboard-response,8,83947,0.0-8.0,"""","<div style=""font-size:60px;"">+</div>","""",2,ITI,Practice,null,1000,"""","""","""","""","""","""","""","""","""",4/25/2021 3:31,68.101.149.61,Mozilla/5.0 (Macintosh; Intel Mac OS X 10.13; rv:87.0) Gecko/20100101 Firefox/87.0,Macintosh,Firefox,87,OS X,10.13
130,1,1380,"""",html-keyboard-response,9,88956,0.0-9.0,"""","<img src='jspsych/CFDfaces/CFD-WM-032-001-N.jpg' height=""250px"">,</br><b>Carlos</b>","""",3,IntactFace,Practice,78,5000,n,"""","""","""","""","""","""","""","""",4/25/2021 3:31,68.101.149.61,Mozilla/5.0 (Macintosh; Intel Mac OS X 10.13; rv:87.0) Gecko/20100101 Firefox/87.0,Macintosh,Firefox,87,OS X,10.13
130,1,null,"""",html-keyboard-response,10,89462,0.0-10.0,"""","<div style=""font-size:60px;"">+</div>","""",3,ITI,Practice,null,1000,"""","""","""","""","""","""","""","""","""",4/25/2021 3:31,68.101.149.61,Mozilla/5.0 (Macintosh; Intel Mac OS X 10.13; rv:87.0) Gecko/20100101 Firefox/87.0,Macintosh,Firefox,87,OS X,10.13
130,1,1629,"""",html-keyboard-response,11,94473,0.0-11.0,"""","<img src='jspsych/CFDfaces/CFD-BF-222-240-N.jpg' height=""250px"">,</br><b>Katelyn</b>","""",4,IntactFace,Practice,78,5000,n,"""","""","""","""","""","""","""","""",4/25/2021 3:31,68.101.149.61,Mozilla/5.0 (Macintosh; Intel Mac OS X 10.13; rv:87.0) Gecko/20100101 Firefox/87.0,Macintosh,Firefox,87,OS X,10.13
130,1,null,"""",html-keyboard-response,12,94977,0.0-12.0,"""","<div style=""font-size:60px;"">+</div>","""",4,ITI,Practice,null,1000,"""","""","""","""","""","""","""","""","""",4/25/2021 3:31,68.101.149.61,Mozilla/5.0 (Macintosh; Intel Mac OS X 10.13; rv:87.0) Gecko/20100101 Firefox/87.0,Macintosh,Firefox,87,OS X,10.13
130,1,1097,"""",html-keyboard-response,13,99986,0.0-13.0,"""","<img src='jspsych/CFDfaces/CFD-AF-208-003-N.jpg' height=""250px"">,</br><b>Shannon</b>","""",5,IntactFace,Practice,78,5000,n,"""","""","""","""","""","""","""","""",4/25/2021 3:31,68.101.149.61,Mozilla/5.0 (Macintosh; Intel Mac OS X 10.13; rv:87.0) Gecko/20100101 Firefox/87.0,Macintosh,Firefox,87,OS X,10.13
130,1,null,"""",html-keyboard-response,14,100492,0.0-14.0,"""","<div style=""font-size:60px;"">+</div>","""",5,ITI,Practice,null,1000,"""","""","""","""","""","""","""","""","""",4/25/2021 3:31,68.101.149.61,Mozilla/5.0 (Macintosh; Intel Mac OS X 10.13; rv:87.0) Gecko/20100101 Firefox/87.0,Macintosh,Firefox,87,OS X,10.13
130,1,3204,"""",html-keyboard-response,15,105501,0.0-15.0,"""","<img src='jspsych/CFDfaces/CFD-WF-223-133-N.jpg' height=""250px"">,</br><b>Cassandra</b>","""",6,IntactFace,Practice,70,5000,f,"""","""","""","""","""","""","""","""",4/25/2021 3:31,68.101.149.61,Mozilla/5.0 (Macintosh; Intel Mac OS X 10.13; rv:87.0) Gecko/20100101 Firefox/87.0,Macintosh,Firefox,87,OS X,10.13
130,1,null,"""",html-keyboard-response,16,106006,0.0-16.0,"""","<div style=""font-size:60px;"">+</div>","""",6,ITI,Practice,null,1000,"""","""","""","""","""","""","""","""","""",4/25/2021 3:31,68.101.149.61,Mozilla/5.0 (Macintosh; Intel Mac OS X 10.13; rv:87.0) Gecko/20100101 Firefox/87.0,Macintosh,Firefox,87,OS X,10.13
130,1,1368,"""",html-keyboard-response,17,111016,0.0-17.0,"""","<img src='jspsych/CFDfaces/CFD-WF-006-002-N.jpg' height=""250px"">,</br><b>Tara</b>","""",7,IntactFace,Practice,70,5000,f,"""","""","""","""","""","""","""","""",4/25/2021 3:31,68.101.149.61,Mozilla/5.0 (Macintosh; Intel Mac OS X 10.13; rv:87.0) Gecko/20100101 Firefox/87.0,Macintosh,Firefox,87,OS X,10.13
130,1,null,"""",html-keyboard-response,18,111522,0.0-18.0,"""","<div style=""font-size:60px;"">+</div>","""",7,ITI,Practice,null,1000,"""","""","""","""","""","""","""","""","""",4/25/2021 3:31,68.101.149.61,Mozilla/5.0 (Macintosh; Intel Mac OS X 10.13; rv:87.0) Gecko/20100101 Firefox/87.0,Macintosh,Firefox,87,OS X,10.13
130,1,1149,"""",html-keyboard-response,19,116530,0.0-19.0,"""","<img src='jspsych/CFDfaces/CFD-WM-041-021-N.jpg' height=""250px"">,</br><b>Samuel</b>","""",8,IntactFace,Practice,78,5000,n,"""","""","""","""","""","""","""","""",4/25/2021 3:31,68.101.149.61,Mozilla/5.0 (Macintosh; Intel Mac OS X 10.13; rv:87.0) Gecko/20100101 Firefox/87.0,Macintosh,Firefox,87,OS X,10.13
130,1,null,"""",html-keyboard-response,20,117037,0.0-20.0,"""","<div style=""font-size:60px;"">+</div>","""",8,ITI,Practice,null,1000,"""","""","""","""","""","""","""","""","""",4/25/2021 3:31,68.101.149.61,Mozilla/5.0 (Macintosh; Intel Mac OS X 10.13; rv:87.0) Gecko/20100101 Firefox/87.0,Macintosh,Firefox,87,OS X,10.13
130,1,18996,"""",image-button-response,21,136048,0.0-21.0,"""",directionsForTest.JPG,0,1,directionsForTest,break,"""","""","""","""","""","""","""","""","""","""","""",4/25/2021 3:31,68.101.149.61,Mozilla/5.0 (Macintosh; Intel Mac OS X 10.13; rv:87.0) Gecko/20100101 Firefox/87.0,Macintosh,Firefox,87,OS X,10.13
130,1,2536,"""",image-button-response,22,138596,0.0-22.0,"""",directionsForTest2.JPG,0,1,directionsForTest2,break,"""","""","""","""","""","""","""","""","""","""","""",4/25/2021 3:31,68.101.149.61,Mozilla/5.0 (Macintosh; Intel Mac OS X 10.13; rv:87.0) Gecko/20100101 Firefox/87.0,Macintosh,Firefox,87,OS X,10.13
130,1,null,"""",html-keyboard-response,23,139600,0.0-23.0,"""","<div style=""font-size:60px;"">+</div>","""",1,ITI,Practice,null,1000,"""","""","""","""","""","""","""","""","""",4/25/2021 3:31,68.101.149.61,Mozilla/5.0 (Macintosh; Intel Mac OS X 10.13; rv:87.0) Gecko/20100101 Firefox/87.0,Macintosh,Firefox,87,OS X,10.13
130,1,null,"""",image-keyboard-response,24,139856,0.0-24.0,"""",jspsych/scrambledNeutralFaces/scrambledBM31NES.JPG,"""",1,forwardMask,Practice,null,250,"""",n,"""","""","""","""","""","""","""",4/25/2021 3:31,68.101.149.61,Mozilla/5.0 (Macintosh; Intel Mac OS X 10.13; rv:87.0) Gecko/20100101 Firefox/87.0,Macintosh,Firefox,87,OS X,10.13
130,1,null,"""",image-keyboard-response,25,139878,0.0-25.0,"""",jspsych/neutralFaces/BM31NES.JPG,"""",1,Cue,Practice,null,16,"""","""","""","""","""","""","""","""","""",4/25/2021 3:31,68.101.149.61,Mozilla/5.0 (Macintosh; Intel Mac OS X 10.13; rv:87.0) Gecko/20100101 Firefox/87.0,Macintosh,Firefox,87,OS X,10.13
130,1,null,"""",image-keyboard-response,26,139988,0.0-26.0,"""",jspsych/neutralFaces/BM05NES.JPG,"""",1,backwardMask,Practice,null,100,"""","""","""","""","""","""","""","""","""",4/25/2021 3:31,68.101.149.61,Mozilla/5.0 (Macintosh; Intel Mac OS X 10.13; rv:87.0) Gecko/20100101 Firefox/87.0,Macintosh,Firefox,87,OS X,10.13
130,1,null,"""",html-keyboard-response,27,140994,0.0-27.0,"""","<div style=""font-size:60px;"">+</div>","""",1,fixationBtwnNeutralMaskAndPrompt,Practice,null,1000,"""","""","""","""","""","""","""","""","""",4/25/2021 3:31,68.101.149.61,Mozilla/5.0 (Macintosh; Intel Mac OS X 10.13; rv:87.0) Gecko/20100101 Firefox/87.0,Macintosh,Firefox,87,OS X,10.13
130,1,1548,"""",html-button-response,28,142545,0.0-28.0,"""","<img src='jspsych/CFDfaces/CFD-WM-032-001-N.jpg'height=""250px""></br><b>Marcus</b>",0,1,IntactOrRearranged,Practice,"""","""","""","""",CFD-WM-032-001-N.jpg,Marcus,1,0,"""","""","""",4/25/2021 3:31,68.101.149.61,Mozilla/5.0 (Macintosh; Intel Mac OS X 10.13; rv:87.0) Gecko/20100101 Firefox/87.0,Macintosh,Firefox,87,OS X,10.13
130,1,2722,"""",html-slider-response,29,145277,0.0-29.0,"""","<img src='jspsych/CFDfaces/CFD-WM-032-001-N.jpg'height=""250px""></br><b>Marcus</b>","""",1,ConfidenceQuery,Practice,"""","""","""","""",CFD-LM-201-057-N.jpg,Ryan,1,"""",0,100,"""",4/25/2021 3:31,68.101.149.61,Mozilla/5.0 (Macintosh; Intel Mac OS X 10.13; rv:87.0) Gecko/20100101 Firefox/87.0,Macintosh,Firefox,87,OS X,10.13
130,1,4142,"""",html-button-response,30,149423,0.0-30.0,"""",You are Incorrect. You called a Rearranged Pair Intact,0,1,feedback,Practice,"""","""","""","""","""","""","""","""","""","""","""",4/25/2021 3:31,68.101.149.61,Mozilla/5.0 (Macintosh; Intel Mac OS X 10.13; rv:87.0) Gecko/20100101 Firefox/87.0,Macintosh,Firefox,87,OS X,10.13
130,1,null,"""",html-keyboard-response,31,150428,0.0-31.0,"""","<div style=""font-size:60px;"">+</div>","""",2,ITI,Practice,null,1000,"""","""","""","""","""","""","""","""","""",4/25/2021 3:31,68.101.149.61,Mozilla/5.0 (Macintosh; Intel Mac OS X 10.13; rv:87.0) Gecko/20100101 Firefox/87.0,Macintosh,Firefox,87,OS X,10.13
130,1,null,"""",image-keyboard-response,32,150688,0.0-32.0,"""",jspsych/scrambledNeutralFaces/scrambledBF05NES.JPG,"""",2,forwardMask,Practice,null,250,"""",n,"""","""","""","""","""","""","""",4/25/2021 3:31,68.101.149.61,Mozilla/5.0 (Macintosh; Intel Mac OS X 10.13; rv:87.0) Gecko/20100101 Firefox/87.0,Macintosh,Firefox,87,OS X,10.13
130,1,null,"""",image-keyboard-response,33,150716,0.0-33.0,"""",jspsych/neutralFaces/BF05NES.JPG,"""",2,Cue,Practice,null,16,"""","""","""","""","""","""","""","""","""",4/25/2021 3:31,68.101.149.61,Mozilla/5.0 (Macintosh; Intel Mac OS X 10.13; rv:87.0) Gecko/20100101 Firefox/87.0,Macintosh,Firefox,87,OS X,10.13
130,1,null,"""",image-keyboard-response,34,150822,0.0-34.0,"""",jspsych/neutralFaces/AF28NES.JPG,"""",2,backwardMask,Practice,null,100,"""","""","""","""","""","""","""","""","""",4/25/2021 3:31,68.101.149.61,Mozilla/5.0 (Macintosh; Intel Mac OS X 10.13; rv:87.0) Gecko/20100101 Firefox/87.0,Macintosh,Firefox,87,OS X,10.13
130,1,null,"""",html-keyboard-response,35,151827,0.0-35.0,"""","<div style=""font-size:60px;"">+</div>","""",2,fixationBtwnNeutralMaskAndPrompt,Practice,null,1000,"""","""","""","""","""","""","""","""","""",4/25/2021 3:31,68.101.149.61,Mozilla/5.0 (Macintosh; Intel Mac OS X 10.13; rv:87.0) Gecko/20100101 Firefox/87.0,Macintosh,Firefox,87,OS X,10.13
130,1,3324,"""",html-button-response,36,155153,0.0-36.0,"""","<img src='jspsych/CFDfaces/CFD-BF-222-240-N.jpg'height=""250px""></br><b>Cassandra</b>",0,2,IntactOrRearranged,Practice,"""","""","""","""",CFD-BF-222-240-N.jpg,Cassandra,1,0,"""","""","""",4/25/2021 3:31,68.101.149.61,Mozilla/5.0 (Macintosh; Intel Mac OS X 10.13; rv:87.0) Gecko/20100101 Firefox/87.0,Macintosh,Firefox,87,OS X,10.13
130,1,1848,"""",html-slider-response,37,157004,0.0-37.0,"""","<img src='jspsych/CFDfaces/CFD-BF-222-240-N.jpg'height=""250px""></br><b>Cassandra</b>","""",2,ConfidenceQuery,Practice,"""","""","""","""",CFD-LM-201-057-N.jpg,Ryan,1,"""",0,51,"""",4/25/2021 3:31,68.101.149.61,Mozilla/5.0 (Macintosh; Intel Mac OS X 10.13; rv:87.0) Gecko/20100101 Firefox/87.0,Macintosh,Firefox,87,OS X,10.13
130,1,1122,"""",html-button-response,38,158130,0.0-38.0,"""",You are Incorrect. You called a Rearranged Pair Intact,0,2,feedback,Practice,"""","""","""","""","""","""","""","""","""","""","""",4/25/2021 3:31,68.101.149.61,Mozilla/5.0 (Macintosh; Intel Mac OS X 10.13; rv:87.0) Gecko/20100101 Firefox/87.0,Macintosh,Firefox,87,OS X,10.13
130,1,null,"""",html-keyboard-response,39,159132,0.0-39.0,"""","<div style=""font-size:60px;"">+</div>","""",3,ITI,Practice,null,1000,"""","""","""","""","""","""","""","""","""",4/25/2021 3:31,68.101.149.61,Mozilla/5.0 (Macintosh; Intel Mac OS X 10.13; rv:87.0) Gecko/20100101 Firefox/87.0,Macintosh,Firefox,87,OS X,10.13
130,1,null,"""",image-keyboard-response,40,159393,0.0-40.0,"""",jspsych/scrambledNeutralFaces/scrambledAF24NES.JPG,"""",3,forwardMask,Practice,null,250,"""",n,"""","""","""","""","""","""","""",4/25/2021 3:31,68.101.149.61,Mozilla/5.0 (Macintosh; Intel Mac OS X 10.13; rv:87.0) Gecko/20100101 Firefox/87.0,Macintosh,Firefox,87,OS X,10.13
130,1,null,"""",image-keyboard-response,41,159419,0.0-41.0,"""",jspsych/neutralFaces/AF24NES.JPG,"""",3,Cue,Practice,null,16,"""","""","""","""","""","""","""","""","""",4/25/2021 3:31,68.101.149.61,Mozilla/5.0 (Macintosh; Intel Mac OS X 10.13; rv:87.0) Gecko/20100101 Firefox/87.0,Macintosh,Firefox,87,OS X,10.13
130,1,null,"""",image-keyboard-response,42,159525,0.0-42.0,"""",jspsych/neutralFaces/AF04NES.JPG,"""",3,backwardMask,Practice,null,100,"""","""","""","""","""","""","""","""","""",4/25/2021 3:31,68.101.149.61,Mozilla/5.0 (Macintosh; Intel Mac OS X 10.13; rv:87.0) Gecko/20100101 Firefox/87.0,Macintosh,Firefox,87,OS X,10.13
130,1,null,"""",html-keyboard-response,43,160530,0.0-43.0,"""","<div style=""font-size:60px;"">+</div>","""",3,fixationBtwnNeutralMaskAndPrompt,Practice,null,1000,"""","""","""","""","""","""","""","""","""",4/25/2021 3:31,68.101.149.61,Mozilla/5.0 (Macintosh; Intel Mac OS X 10.13; rv:87.0) Gecko/20100101 Firefox/87.0,Macintosh,Firefox,87,OS X,10.13
130,1,2013,"""",html-button-response,44,162545,0.0-44.0,"""","<img src='jspsych/CFDfaces/CFD-BM-203-001-N.jpg'height=""250px""></br><b>Patrick</b>",0,3,IntactOrRearranged,Practice,"""","""","""","""",CFD-BM-203-001-N.jpg,Patrick,0,0,"""","""","""",4/25/2021 3:31,68.101.149.61,Mozilla/5.0 (Macintosh; Intel Mac OS X 10.13; rv:87.0) Gecko/20100101 Firefox/87.0,Macintosh,Firefox,87,OS X,10.13
130,1,1761,"""",html-slider-response,45,164312,0.0-45.0,"""","<img src='jspsych/CFDfaces/CFD-BM-203-001-N.jpg'height=""250px""></br><b>Patrick</b>","""",3,ConfidenceQuery,Practice,"""","""","""","""",CFD-LM-201-057-N.jpg,Ryan,0,"""",0,98,"""",4/25/2021 3:31,68.101.149.61,Mozilla/5.0 (Macintosh; Intel Mac OS X 10.13; rv:87.0) Gecko/20100101 Firefox/87.0,Macintosh,Firefox,87,OS X,10.13
130,1,1096,"""",html-button-response,46,165410,0.0-46.0,"""",You are Correct. You called an Intact Pair Intact,0,3,feedback,Practice,"""","""","""","""","""","""","""","""","""","""","""",4/25/2021 3:31,68.101.149.61,Mozilla/5.0 (Macintosh; Intel Mac OS X 10.13; rv:87.0) Gecko/20100101 Firefox/87.0,Macintosh,Firefox,87,OS X,10.13
130,1,null,"""",html-keyboard-response,47,166415,0.0-47.0,"""","<div style=""font-size:60px;"">+</div>","""",4,ITI,Practice,null,1000,"""","""","""","""","""","""","""","""","""",4/25/2021 3:31,68.101.149.61,Mozilla/5.0 (Macintosh; Intel Mac OS X 10.13; rv:87.0) Gecko/20100101 Firefox/87.0,Macintosh,Firefox,87,OS X,10.13
130,1,null,"""",image-keyboard-response,48,166670,0.0-48.0,"""",jspsych/scrambledNeutralFaces/scrambledBF08NES.JPG,"""",4,forwardMask,Practice,null,250,"""",n,"""","""","""","""","""","""","""",4/25/2021 3:31,68.101.149.61,Mozilla/5.0 (Macintosh; Intel Mac OS X 10.13; rv:87.0) Gecko/20100101 Firefox/87.0,Macintosh,Firefox,87,OS X,10.13
130,1,null,"""",image-keyboard-response,49,166694,0.0-49.0,"""",jspsych/neutralFaces/BF08NES.JPG,"""",4,Cue,Practice,null,16,"""","""","""","""","""","""","""","""","""",4/25/2021 3:31,68.101.149.61,Mozilla/5.0 (Macintosh; Intel Mac OS X 10.13; rv:87.0) Gecko/20100101 Firefox/87.0,Macintosh,Firefox,87,OS X,10.13
130,1,null,"""",image-keyboard-response,50,166804,0.0-50.0,"""",jspsych/neutralFaces/BF17NES.JPG,"""",4,backwardMask,Practice,null,100,"""","""","""","""","""","""","""","""","""",4/25/2021 3:31,68.101.149.61,Mozilla/5.0 (Macintosh; Intel Mac OS X 10.13; rv:87.0) Gecko/20100101 Firefox/87.0,Macintosh,Firefox,87,OS X,10.13
130,1,null,"""",html-keyboard-response,51,167808,0.0-51.0,"""","<div style=""font-size:60px;"">+</div>","""",4,fixationBtwnNeutralMaskAndPrompt,Practice,null,1000,"""","""","""","""","""","""","""","""","""",4/25/2021 3:31,68.101.149.61,Mozilla/5.0 (Macintosh; Intel Mac OS X 10.13; rv:87.0) Gecko/20100101 Firefox/87.0,Macintosh,Firefox,87,OS X,10.13
130,1,1618,"""",html-button-response,52,169429,0.0-52.0,"""","<img src='jspsych/CFDfaces/CFD-WF-223-133-N.jpg'height=""250px""></br><b>Katelyn</b>",1,4,IntactOrRearranged,Practice,"""","""","""","""",CFD-WF-223-133-N.jpg,Katelyn,1,1,"""","""","""",4/25/2021 3:31,68.101.149.61,Mozilla/5.0 (Macintosh; Intel Mac OS X 10.13; rv:87.0) Gecko/20100101 Firefox/87.0,Macintosh,Firefox,87,OS X,10.13
130,1,1885,"""",html-slider-response,53,171320,0.0-53.0,"""","<img src='jspsych/CFDfaces/CFD-WF-223-133-N.jpg'height=""250px""></br><b>Katelyn</b>","""",4,ConfidenceQuery,Practice,"""","""","""","""",CFD-LM-201-057-N.jpg,Ryan,1,"""",0,100,"""",4/25/2021 3:31,68.101.149.61,Mozilla/5.0 (Macintosh; Intel Mac OS X 10.13; rv:87.0) Gecko/20100101 Firefox/87.0,Macintosh,Firefox,87,OS X,10.13
130,1,1385,"""",html-button-response,54,172706,0.0-54.0,"""",You are Correct. You Called A Rearranged Pair Rearranged,0,4,feedback,Practice,"""","""","""","""","""","""","""","""","""","""","""",4/25/2021 3:31,68.101.149.61,Mozilla/5.0 (Macintosh; Intel Mac OS X 10.13; rv:87.0) Gecko/20100101 Firefox/87.0,Macintosh,Firefox,87,OS X,10.13
130,1,null,"""",html-keyboard-response,55,173711,0.0-55.0,"""","<div style=""font-size:60px;"">+</div>","""",5,ITI,Practice,null,1000,"""","""","""","""","""","""","""","""","""",4/25/2021 3:31,68.101.149.61,Mozilla/5.0 (Macintosh; Intel Mac OS X 10.13; rv:87.0) Gecko/20100101 Firefox/87.0,Macintosh,Firefox,87,OS X,10.13
130,1,null,"""",image-keyboard-response,56,173968,0.0-56.0,"""",jspsych/scrambledDisgustFaces/scrambledAM17DIS.JPG,"""",5,forwardMask,Practice,null,250,"""",d,"""","""","""","""","""","""","""",4/25/2021 3:31,68.101.149.61,Mozilla/5.0 (Macintosh; Intel Mac OS X 10.13; rv:87.0) Gecko/20100101 Firefox/87.0,Macintosh,Firefox,87,OS X,10.13
130,1,null,"""",image-keyboard-response,57,173992,0.0-57.0,"""",jspsych/disgustFaces/AM17DIS.JPG,"""",5,Cue,Practice,null,16,"""","""","""","""","""","""","""","""","""",4/25/2021 3:31,68.101.149.61,Mozilla/5.0 (Macintosh; Intel Mac OS X 10.13; rv:87.0) Gecko/20100101 Firefox/87.0,Macintosh,Firefox,87,OS X,10.13
130,1,null,"""",image-keyboard-response,58,174098,0.0-58.0,"""",jspsych/neutralFaces/BM10NES.JPG,"""",5,backwardMask,Practice,null,100,"""","""","""","""","""","""","""","""","""",4/25/2021 3:31,68.101.149.61,Mozilla/5.0 (Macintosh; Intel Mac OS X 10.13; rv:87.0) Gecko/20100101 Firefox/87.0,Macintosh,Firefox,87,OS X,10.13
130,1,null,"""",html-keyboard-response,59,175104,0.0-59.0,"""","<div style=""font-size:60px;"">+</div>","""",5,fixationBtwnNeutralMaskAndPrompt,Practice,null,1000,"""","""","""","""","""","""","""","""","""",4/25/2021 3:31,68.101.149.61,Mozilla/5.0 (Macintosh; Intel Mac OS X 10.13; rv:87.0) Gecko/20100101 Firefox/87.0,Macintosh,Firefox,87,OS X,10.13
130,1,2347,"""",html-button-response,60,177458,0.0-60.0,"""","<img src='jspsych/CFDfaces/CFD-BM-208-065-N.jpg'height=""250px""></br><b>Carlos</b>",1,5,IntactOrRearranged,Practice,"""","""","""","""",CFD-BM-208-065-N.jpg,Carlos,1,1,"""","""","""",4/25/2021 3:31,68.101.149.61,Mozilla/5.0 (Macintosh; Intel Mac OS X 10.13; rv:87.0) Gecko/20100101 Firefox/87.0,Macintosh,Firefox,87,OS X,10.13
130,1,1975,"""",html-slider-response,61,179440,0.0-61.0,"""","<img src='jspsych/CFDfaces/CFD-BM-208-065-N.jpg'height=""250px""></br><b>Carlos</b>","""",5,ConfidenceQuery,Practice,"""","""","""","""",CFD-LM-201-057-N.jpg,Ryan,1,"""",0,100,"""",4/25/2021 3:31,68.101.149.61,Mozilla/5.0 (Macintosh; Intel Mac OS X 10.13; rv:87.0) Gecko/20100101 Firefox/87.0,Macintosh,Firefox,87,OS X,10.13
130,1,1695,"""",html-button-response,62,181140,0.0-62.0,"""",You are Correct. You Called A Rearranged Pair Rearranged,0,5,feedback,Practice,"""","""","""","""","""","""","""","""","""","""","""",4/25/2021 3:31,68.101.149.61,Mozilla/5.0 (Macintosh; Intel Mac OS X 10.13; rv:87.0) Gecko/20100101 Firefox/87.0,Macintosh,Firefox,87,OS X,10.13
130,1,null,"""",html-keyboard-response,63,182159,0.0-63.0,"""","<div style=""font-size:60px;"">+</div>","""",6,ITI,Practice,null,1000,"""","""","""","""","""","""","""","""","""",4/25/2021 3:31,68.101.149.61,Mozilla/5.0 (Macintosh; Intel Mac OS X 10.13; rv:87.0) Gecko/20100101 Firefox/87.0,Macintosh,Firefox,87,OS X,10.13
130,1,null,"""",image-keyboard-response,64,182420,0.0-64.0,"""",jspsych/scrambledDisgustFaces/scrambledAM09DIS.JPG,"""",6,forwardMask,Practice,null,250,"""",d,"""","""","""","""","""","""","""",4/25/2021 3:31,68.101.149.61,Mozilla/5.0 (Macintosh; Intel Mac OS X 10.13; rv:87.0) Gecko/20100101 Firefox/87.0,Macintosh,Firefox,87,OS X,10.13
130,1,null,"""",image-keyboard-response,65,182444,0.0-65.0,"""",jspsych/disgustFaces/AM09DIS.JPG,"""",6,Cue,Practice,null,16,"""","""","""","""","""","""","""","""","""",4/25/2021 3:31,68.101.149.61,Mozilla/5.0 (Macintosh; Intel Mac OS X 10.13; rv:87.0) Gecko/20100101 Firefox/87.0,Macintosh,Firefox,87,OS X,10.13
130,1,null,"""",image-keyboard-response,66,182555,0.0-66.0,"""",jspsych/neutralFaces/AM13NES.JPG,"""",6,backwardMask,Practice,null,100,"""","""","""","""","""","""","""","""","""",4/25/2021 3:31,68.101.149.61,Mozilla/5.0 (Macintosh; Intel Mac OS X 10.13; rv:87.0) Gecko/20100101 Firefox/87.0,Macintosh,Firefox,87,OS X,10.13
130,1,null,"""",html-keyboard-response,67,183561,0.0-67.0,"""","<div style=""font-size:60px;"">+</div>","""",6,fixationBtwnNeutralMaskAndPrompt,Practice,null,1000,"""","""","""","""","""","""","""","""","""",4/25/2021 3:31,68.101.149.61,Mozilla/5.0 (Macintosh; Intel Mac OS X 10.13; rv:87.0) Gecko/20100101 Firefox/87.0,Macintosh,Firefox,87,OS X,10.13
130,1,2787,"""",html-button-response,68,186351,0.0-68.0,"""","<img src='jspsych/CFDfaces/CFD-AF-208-003-N.jpg'height=""250px""></br><b>Shannon</b>",0,6,IntactOrRearranged,Practice,"""","""","""","""",CFD-AF-208-003-N.jpg,Shannon,0,0,"""","""","""",4/25/2021 3:31,68.101.149.61,Mozilla/5.0 (Macintosh; Intel Mac OS X 10.13; rv:87.0) Gecko/20100101 Firefox/87.0,Macintosh,Firefox,87,OS X,10.13
130,1,1631,"""",html-slider-response,69,187985,0.0-69.0,"""","<img src='jspsych/CFDfaces/CFD-AF-208-003-N.jpg'height=""250px""></br><b>Shannon</b>","""",6,ConfidenceQuery,Practice,"""","""","""","""",CFD-LM-201-057-N.jpg,Ryan,0,"""",0,62,"""",4/25/2021 3:31,68.101.149.61,Mozilla/5.0 (Macintosh; Intel Mac OS X 10.13; rv:87.0) Gecko/20100101 Firefox/87.0,Macintosh,Firefox,87,OS X,10.13
130,1,903,"""",html-button-response,70,188895,0.0-70.0,"""",You are Correct. You called an Intact Pair Intact,0,6,feedback,Practice,"""","""","""","""","""","""","""","""","""","""","""",4/25/2021 3:31,68.101.149.61,Mozilla/5.0 (Macintosh; Intel Mac OS X 10.13; rv:87.0) Gecko/20100101 Firefox/87.0,Macintosh,Firefox,87,OS X,10.13
130,1,null,"""",html-keyboard-response,71,189898,0.0-71.0,"""","<div style=""font-size:60px;"">+</div>","""",7,ITI,Practice,null,1000,"""","""","""","""","""","""","""","""","""",4/25/2021 3:31,68.101.149.61,Mozilla/5.0 (Macintosh; Intel Mac OS X 10.13; rv:87.0) Gecko/20100101 Firefox/87.0,Macintosh,Firefox,87,OS X,10.13
130,1,null,"""",image-keyboard-response,72,190156,0.0-72.0,"""",jspsych/scrambledDisgustFaces/scrambledAF31DIS.JPG,"""",7,forwardMask,Practice,null,250,"""",d,"""","""","""","""","""","""","""",4/25/2021 3:31,68.101.149.61,Mozilla/5.0 (Macintosh; Intel Mac OS X 10.13; rv:87.0) Gecko/20100101 Firefox/87.0,Macintosh,Firefox,87,OS X,10.13
130,1,null,"""",image-keyboard-response,73,190177,0.0-73.0,"""",jspsych/disgustFaces/AF31DIS.JPG,"""",7,Cue,Practice,null,16,"""","""","""","""","""","""","""","""","""",4/25/2021 3:31,68.101.149.61,Mozilla/5.0 (Macintosh; Intel Mac OS X 10.13; rv:87.0) Gecko/20100101 Firefox/87.0,Macintosh,Firefox,87,OS X,10.13
130,1,null,"""",image-keyboard-response,74,190283,0.0-74.0,"""",jspsych/neutralFaces/BF14NES.JPG,"""",7,backwardMask,Practice,null,100,"""","""","""","""","""","""","""","""","""",4/25/2021 3:31,68.101.149.61,Mozilla/5.0 (Macintosh; Intel Mac OS X 10.13; rv:87.0) Gecko/20100101 Firefox/87.0,Macintosh,Firefox,87,OS X,10.13
130,1,null,"""",html-keyboard-response,75,191285,0.0-75.0,"""","<div style=""font-size:60px;"">+</div>","""",7,fixationBtwnNeutralMaskAndPrompt,Practice,null,1000,"""","""","""","""","""","""","""","""","""",4/25/2021 3:31,68.101.149.61,Mozilla/5.0 (Macintosh; Intel Mac OS X 10.13; rv:87.0) Gecko/20100101 Firefox/87.0,Macintosh,Firefox,87,OS X,10.13
130,1,1629,"""",html-button-response,76,192916,0.0-76.0,"""","<img src='jspsych/CFDfaces/CFD-WF-006-002-N.jpg'height=""250px""></br><b>Tara</b>",0,7,IntactOrRearranged,Practice,"""","""","""","""",CFD-WF-006-002-N.jpg,Tara,0,0,"""","""","""",4/25/2021 3:31,68.101.149.61,Mozilla/5.0 (Macintosh; Intel Mac OS X 10.13; rv:87.0) Gecko/20100101 Firefox/87.0,Macintosh,Firefox,87,OS X,10.13
130,1,1808,"""",html-slider-response,77,194726,0.0-77.0,"""","<img src='jspsych/CFDfaces/CFD-WF-006-002-N.jpg'height=""250px""></br><b>Tara</b>","""",7,ConfidenceQuery,Practice,"""","""","""","""",CFD-LM-201-057-N.jpg,Ryan,0,"""",0,100,"""",4/25/2021 3:31,68.101.149.61,Mozilla/5.0 (Macintosh; Intel Mac OS X 10.13; rv:87.0) Gecko/20100101 Firefox/87.0,Macintosh,Firefox,87,OS X,10.13
130,1,2321,"""",html-button-response,78,197054,0.0-78.0,"""",You are Correct. You called an Intact Pair Intact,0,7,feedback,Practice,"""","""","""","""","""","""","""","""","""","""","""",4/25/2021 3:31,68.101.149.61,Mozilla/5.0 (Macintosh; Intel Mac OS X 10.13; rv:87.0) Gecko/20100101 Firefox/87.0,Macintosh,Firefox,87,OS X,10.13
130,1,null,"""",html-keyboard-response,79,198060,0.0-79.0,"""","<div style=""font-size:60px;"">+</div>","""",8,ITI,Practice,null,1000,"""","""","""","""","""","""","""","""","""",4/25/2021 3:31,68.101.149.61,Mozilla/5.0 (Macintosh; Intel Mac OS X 10.13; rv:87.0) Gecko/20100101 Firefox/87.0,Macintosh,Firefox,87,OS X,10.13
130,1,null,"""",image-keyboard-response,80,198317,0.0-80.0,"""",jspsych/scrambledNeutralFaces/scrambledAF32NES.JPG,"""",8,forwardMask,Practice,null,250,"""",n,"""","""","""","""","""","""","""",4/25/2021 3:31,68.101.149.61,Mozilla/5.0 (Macintosh; Intel Mac OS X 10.13; rv:87.0) Gecko/20100101 Firefox/87.0,Macintosh,Firefox,87,OS X,10.13
130,1,null,"""",image-keyboard-response,81,198339,0.0-81.0,"""",jspsych/neutralFaces/AF32NES.JPG,"""",8,Cue,Practice,null,16,"""","""","""","""","""","""","""","""","""",4/25/2021 3:31,68.101.149.61,Mozilla/5.0 (Macintosh; Intel Mac OS X 10.13; rv:87.0) Gecko/20100101 Firefox/87.0,Macintosh,Firefox,87,OS X,10.13
130,1,null,"""",image-keyboard-response,82,198449,0.0-82.0,"""",jspsych/neutralFaces/AF27NES.JPG,"""",8,backwardMask,Practice,null,100,"""","""","""","""","""","""","""","""","""",4/25/2021 3:31,68.101.149.61,Mozilla/5.0 (Macintosh; Intel Mac OS X 10.13; rv:87.0) Gecko/20100101 Firefox/87.0,Macintosh,Firefox,87,OS X,10.13
130,1,null,"""",html-keyboard-response,83,199454,0.0-83.0,"""","<div style=""font-size:60px;"">+</div>","""",8,fixationBtwnNeutralMaskAndPrompt,Practice,null,1000,"""","""","""","""","""","""","""","""","""",4/25/2021 3:31,68.101.149.61,Mozilla/5.0 (Macintosh; Intel Mac OS X 10.13; rv:87.0) Gecko/20100101 Firefox/87.0,Macintosh,Firefox,87,OS X,10.13
130,1,3030,"""",html-button-response,84,202485,0.0-84.0,"""","<img src='jspsych/CFDfaces/CFD-WM-041-021-N.jpg'height=""250px""></br><b>Samuel</b>",0,8,IntactOrRearranged,Practice,"""","""","""","""",CFD-WM-041-021-N.jpg,Samuel,0,0,"""","""","""",4/25/2021 3:31,68.101.149.61,Mozilla/5.0 (Macintosh; Intel Mac OS X 10.13; rv:87.0) Gecko/20100101 Firefox/87.0,Macintosh,Firefox,87,OS X,10.13
130,1,1639,"""",html-slider-response,85,204132,0.0-85.0,"""","<img src='jspsych/CFDfaces/CFD-WM-041-021-N.jpg'height=""250px""></br><b>Samuel</b>","""",8,ConfidenceQuery,Practice,"""","""","""","""",CFD-LM-201-057-N.jpg,Ryan,0,"""",0,77,"""",4/25/2021 3:31,68.101.149.61,Mozilla/5.0 (Macintosh; Intel Mac OS X 10.13; rv:87.0) Gecko/20100101 Firefox/87.0,Macintosh,Firefox,87,OS X,10.13
130,1,2026,"""",html-button-response,86,206159,0.0-86.0,"""",You are Correct. You called an Intact Pair Intact,0,8,feedback,Practice,"""","""","""","""","""","""","""","""","""","""","""",4/25/2021 3:31,68.101.149.61,Mozilla/5.0 (Macintosh; Intel Mac OS X 10.13; rv:87.0) Gecko/20100101 Firefox/87.0,Macintosh,Firefox,87,OS X,10.13
130,1,6671,"""",image-button-response,87,212842,0.0-87.0,"""",directionsMemoryAssociation3.JPG,0,128,DirectionsBeforeActualTEst,Break,"""","""","""","""","""","""","""","""","""","""","""",4/25/2021 3:31,68.101.149.61,Mozilla/5.0 (Macintosh; Intel Mac OS X 10.13; rv:87.0) Gecko/20100101 Firefox/87.0,Macintosh,Firefox,87,OS X,10.13
130,1,5532,"""",image-button-response,88,218391,0.0-88.0,"""",directionsForTest2.JPG,0,1,directionsForTest2,break,"""","""","""","""","""","""","""","""","""","""","""",4/25/2021 3:31,68.101.149.61,Mozilla/5.0 (Macintosh; Intel Mac OS X 10.13; rv:87.0) Gecko/20100101 Firefox/87.0,Macintosh,Firefox,87,OS X,10.13
130,1,19816,"""",html-button-response,89,238210,0.0-89.0,"""","<p>You will be asked to memorize and then recall four sets of face-name pairs. </p> <p> Each set will have 32 pairs. </p> <p>After the fourth set, there will be a brief follow-up experiment (<40 min alltogether)</p>",0,"""","""","""","""","""","""","""","""","""","""","""","""","""","""",4/25/2021 3:31,68.101.149.61,Mozilla/5.0 (Macintosh; Intel Mac OS X 10.13; rv:87.0) Gecko/20100101 Firefox/87.0,Macintosh,Firefox,87,OS X,10.13
130,1,1947,"""",html-keyboard-response,90,243230,0.0-90.0,"""","<img src='jspsych/CFDfaces/CFD-WF-207-014-N.jpg' height=""250px""></br><b>Kimberly</b>","""",256,IntactFace,Memorization,70,5000,f,"""",CFD-WF-019-005-N.jpg,Jenna,0,"""","""","""",1,4/25/2021 3:31,68.101.149.61,Mozilla/5.0 (Macintosh; Intel Mac OS X 10.13; rv:87.0) Gecko/20100101 Firefox/87.0,Macintosh,Firefox,87,OS X,10.13
130,1,null,"""",html-keyboard-response,91,243737,0.0-91.0,"""","<div style=""font-size:60px;"">+</div>","""",256,fixation,Memorization,null,500,"""","""","""","""","""","""","""","""",1,4/25/2021 3:31,68.101.149.61,Mozilla/5.0 (Macintosh; Intel Mac OS X 10.13; rv:87.0) Gecko/20100101 Firefox/87.0,Macintosh,Firefox,87,OS X,10.13
130,1,3178,"""",html-keyboard-response,92,248746,0.0-92.0,"""","<img src='jspsych/CFDfaces/CFD-AM-246-184-N.jpg' height=""250px""></br><b>Richard</b>","""",256,IntactFace,Memorization,78,5000,n,"""",CFD-BM-018-001-N.jpg,Dustin,0,"""","""","""",1,4/25/2021 3:31,68.101.149.61,Mozilla/5.0 (Macintosh; Intel Mac OS X 10.13; rv:87.0) Gecko/20100101 Firefox/87.0,Macintosh,Firefox,87,OS X,10.13
130,1,null,"""",html-keyboard-response,93,249249,0.0-93.0,"""","<div style=""font-size:60px;"">+</div>","""",256,fixation,Memorization,null,500,"""","""","""","""","""","""","""","""",1,4/25/2021 3:31,68.101.149.61,Mozilla/5.0 (Macintosh; Intel Mac OS X 10.13; rv:87.0) Gecko/20100101 Firefox/87.0,Macintosh,Firefox,87,OS X,10.13
130,1,1380,"""",html-keyboard-response,94,254259,0.0-94.0,"""","<img src='jspsych/CFDfaces/CFD-LF-236-221-N.jpg' height=""250px""></br><b>Meghan</b>","""",256,IntactFace,Memorization,78,5000,n,"""",CFD-BF-016-017-N.jpg,Lindsey,0,"""","""","""",1,4/25/2021 3:31,68.101.149.61,Mozilla/5.0 (Macintosh; Intel Mac OS X 10.13; rv:87.0) Gecko/20100101 Firefox/87.0,Macintosh,Firefox,87,OS X,10.13
130,1,null,"""",html-keyboard-response,95,254766,0.0-95.0,"""","<div style=""font-size:60px;"">+</div>","""",256,fixation,Memorization,null,500,"""","""","""","""","""","""","""","""",1,4/25/2021 3:31,68.101.149.61,Mozilla/5.0 (Macintosh; Intel Mac OS X 10.13; rv:87.0) Gecko/20100101 Firefox/87.0,Macintosh,Firefox,87,OS X,10.13
130,1,1380,"""",html-keyboard-response,96,259776,0.0-96.0,"""","<img src='jspsych/CFDfaces/CFD-LM-224-162-N.jpg' height=""250px""></br><b>Gregory</b>","""",256,IntactFace,Memorization,70,5000,f,"""",CFD-LM-225-130-N.jpg,Jesse,0,"""","""","""",1,4/25/2021 3:31,68.101.149.61,Mozilla/5.0 (Macintosh; Intel Mac OS X 10.13; rv:87.0) Gecko/20100101 Firefox/87.0,Macintosh,Firefox,87,OS X,10.13
130,1,null,"""",html-keyboard-response,97,260281,0.0-97.0,"""","<div style=""font-size:60px;"">+</div>","""",256,fixation,Memorization,null,500,"""","""","""","""","""","""","""","""",1,4/25/2021 3:31,68.101.149.61,Mozilla/5.0 (Macintosh; Intel Mac OS X 10.13; rv:87.0) Gecko/20100101 Firefox/87.0,Macintosh,Firefox,87,OS X,10.13
130,1,1375,"""",html-keyboard-response,98,265291,0.0-98.0,"""","<img src='jspsych/CFDfaces/CFD-LM-220-329-N.jpg' height=""250px""></br><b>Daniel</b>","""",256,IntactFace,Memorization,78,5000,n,"""",CFD-AM-234-355-N.jpg,Timothy,0,"""","""","""",1,4/25/2021 3:31,68.101.149.61,Mozilla/5.0 (Macintosh; Intel Mac OS X 10.13; rv:87.0) Gecko/20100101 Firefox/87.0,Macintosh,Firefox,87,OS X,10.13
130,1,null,"""",html-keyboard-response,99,265796,0.0-99.0,"""","<div style=""font-size:60px;"">+</div>","""",256,fixation,Memorization,null,500,"""","""","""","""","""","""","""","""",1,4/25/2021 3:31,68.101.149.61,Mozilla/5.0 (Macintosh; Intel Mac OS X 10.13; rv:87.0) Gecko/20100101 Firefox/87.0,Macintosh,Firefox,87,OS X,10.13
130,1,3051,"""",html-keyboard-response,100,270809,0.0-100.0,"""","<img src='jspsych/CFDfaces/CFD-LF-232-199-N.jpg' height=""250px""></br><b>Christina</b>","""",256,IntactFace,Memorization,78,5000,n,"""",CFD-BM-022-022-N.jpg,Steven,0,"""","""","""",1,4/25/2021 3:31,68.101.149.61,Mozilla/5.0 (Macintosh; Intel Mac OS X 10.13; rv:87.0) Gecko/20100101 Firefox/87.0,Macintosh,Firefox,87,OS X,10.13
130,1,null,"""",html-keyboard-response,101,271315,0.0-101.0,"""","<div style=""font-size:60px;"">+</div>","""",256,fixation,Memorization,null,500,"""","""","""","""","""","""","""","""",1,4/25/2021 3:31,68.101.149.61,Mozilla/5.0 (Macintosh; Intel Mac OS X 10.13; rv:87.0) Gecko/20100101 Firefox/87.0,Macintosh,Firefox,87,OS X,10.13
130,1,1585,"""",html-keyboard-response,102,276327,0.0-102.0,"""","<img src='jspsych/CFDfaces/CFD-AF-243-170-N.jpg' height=""250px""></br><b>Victoria</b>","""",256,IntactFace,Memorization,70,5000,f,"""",CFD-WF-038-021-N.jpg,Sara,0,"""","""","""",1,4/25/2021 3:31,68.101.149.61,Mozilla/5.0 (Macintosh; Intel Mac OS X 10.13; rv:87.0) Gecko/20100101 Firefox/87.0,Macintosh,Firefox,87,OS X,10.13
130,1,null,"""",html-keyboard-response,103,276830,0.0-103.0,"""","<div style=""font-size:60px;"">+</div>","""",256,fixation,Memorization,null,500,"""","""","""","""","""","""","""","""",1,4/25/2021 3:31,68.101.149.61,Mozilla/5.0 (Macintosh; Intel Mac OS X 10.13; rv:87.0) Gecko/20100101 Firefox/87.0,Macintosh,Firefox,87,OS X,10.13
130,1,2907,"""",html-keyboard-response,104,281839,0.0-104.0,"""","<img src='jspsych/CFDfaces/CFD-LF-210-220-N.jpg' height=""250px""></br><b>Andrea</b>","""",256,IntactFace,Memorization,70,5000,f,"""",CFD-LM-209-111-N.jpg,Ryan,0,"""","""","""",1,4/25/2021 3:31,68.101.149.61,Mozilla/5.0 (Macintosh; Intel Mac OS X 10.13; rv:87.0) Gecko/20100101 Firefox/87.0,Macintosh,Firefox,87,OS X,10.13
130,1,null,"""",html-keyboard-response,105,282346,0.0-105.0,"""","<div style=""font-size:60px;"">+</div>","""",256,fixation,Memorization,null,500,"""","""","""","""","""","""","""","""",1,4/25/2021 3:31,68.101.149.61,Mozilla/5.0 (Macintosh; Intel Mac OS X 10.13; rv:87.0) Gecko/20100101 Firefox/87.0,Macintosh,Firefox,87,OS X,10.13
130,1,1045,"""",html-keyboard-response,106,287356,0.0-106.0,"""","<img src='jspsych/CFDfaces/CFD-WF-205-006-N.jpg' height=""250px""></br><b>Kayla</b>","""",256,IntactFace,Memorization,70,5000,f,"""",CFD-AF-233-190-N.jpg,Amy,0,"""","""","""",1,4/25/2021 3:31,68.101.149.61,Mozilla/5.0 (Macintosh; Intel Mac OS X 10.13; rv:87.0) Gecko/20100101 Firefox/87.0,Macintosh,Firefox,87,OS X,10.13
130,1,null,"""",html-keyboard-response,107,287860,0.0-107.0,"""","<div style=""font-size:60px;"">+</div>","""",256,fixation,Memorization,null,500,"""","""","""","""","""","""","""","""",1,4/25/2021 3:31,68.101.149.61,Mozilla/5.0 (Macintosh; Intel Mac OS X 10.13; rv:87.0) Gecko/20100101 Firefox/87.0,Macintosh,Firefox,87,OS X,10.13
130,1,1352,"""",html-keyboard-response,108,292863,0.0-108.0,"""","<img src='jspsych/CFDfaces/CFD-BF-004-014-N.jpg' height=""250px""></br><b>Michelle</b>","""",256,IntactFace,Memorization,70,5000,f,"""",CFD-BM-207-024-N.jpg,Austin,0,"""","""","""",1,4/25/2021 3:31,68.101.149.61,Mozilla/5.0 (Macintosh; Intel Mac OS X 10.13; rv:87.0) Gecko/20100101 Firefox/87.0,Macintosh,Firefox,87,OS X,10.13
130,1,null,"""",html-keyboard-response,109,293374,0.0-109.0,"""","<div style=""font-size:60px;"">+</div>","""",256,fixation,Memorization,null,500,"""","""","""","""","""","""","""","""",1,4/25/2021 3:31,68.101.149.61,Mozilla/5.0 (Macintosh; Intel Mac OS X 10.13; rv:87.0) Gecko/20100101 Firefox/87.0,Macintosh,Firefox,87,OS X,10.13
130,1,1973,"""",html-keyboard-response,110,298379,0.0-110.0,"""","<img src='jspsych/CFDfaces/CFD-BM-039-029-N.jpg' height=""250px""></br><b>Juan</b>","""",256,IntactFace,Memorization,78,5000,n,"""",CFD-AM-214-168-N.jpg,Cameron,0,"""","""","""",1,4/25/2021 3:31,68.101.149.61,Mozilla/5.0 (Macintosh; Intel Mac OS X 10.13; rv:87.0) Gecko/20100101 Firefox/87.0,Macintosh,Firefox,87,OS X,10.13
130,1,null,"""",html-keyboard-response,111,298889,0.0-111.0,"""","<div style=""font-size:60px;"">+</div>","""",256,fixation,Memorization,null,500,"""","""","""","""","""","""","""","""",1,4/25/2021 3:31,68.101.149.61,Mozilla/5.0 (Macintosh; Intel Mac OS X 10.13; rv:87.0) Gecko/20100101 Firefox/87.0,Macintosh,Firefox,87,OS X,10.13
130,1,1481,"""",html-keyboard-response,112,303894,0.0-112.0,"""","<img src='jspsych/CFDfaces/CFD-AM-220-134-N.jpg' height=""250px""></br><b>Christian</b>","""",256,IntactFace,Memorization,78,5000,n,"""",CFD-BF-212-315-N.jpg,Erin,0,"""","""","""",1,4/25/2021 3:31,68.101.149.61,Mozilla/5.0 (Macintosh; Intel Mac OS X 10.13; rv:87.0) Gecko/20100101 Firefox/87.0,Macintosh,Firefox,87,OS X,10.13
130,1,null,"""",html-keyboard-response,113,304404,0.0-113.0,"""","<div style=""font-size:60px;"">+</div>","""",256,fixation,Memorization,null,500,"""","""","""","""","""","""","""","""",1,4/25/2021 3:31,68.101.149.61,Mozilla/5.0 (Macintosh; Intel Mac OS X 10.13; rv:87.0) Gecko/20100101 Firefox/87.0,Macintosh,Firefox,87,OS X,10.13
130,1,1922,"""",html-keyboard-response,114,309408,0.0-114.0,"""","<img src='jspsych/CFDfaces/CFD-LF-231-260-N.jpg' height=""250px""></br><b>Samantha</b>","""",256,IntactFace,Memorization,78,5000,n,"""",CFD-WM-232-070-N.jpg,Kenneth,0,"""","""","""",1,4/25/2021 3:31,68.101.149.61,Mozilla/5.0 (Macintosh; Intel Mac OS X 10.13; rv:87.0) Gecko/20100101 Firefox/87.0,Macintosh,Firefox,87,OS X,10.13
130,1,null,"""",html-keyboard-response,115,309917,0.0-115.0,"""","<div style=""font-size:60px;"">+</div>","""",256,fixation,Memorization,null,500,"""","""","""","""","""","""","""","""",1,4/25/2021 3:31,68.101.149.61,Mozilla/5.0 (Macintosh; Intel Mac OS X 10.13; rv:87.0) Gecko/20100101 Firefox/87.0,Macintosh,Firefox,87,OS X,10.13
130,1,2414,"""",html-keyboard-response,116,314924,0.0-116.0,"""","<img src='jspsych/CFDfaces/CFD-BM-205-001-N.jpg' height=""250px""></br><b>Jeffrey</b>","""",256,IntactFace,Memorization,78,5000,n,"""",CFD-AF-239-171-N.jpg,Lauren,0,"""","""","""",1,4/25/2021 3:31,68.101.149.61,Mozilla/5.0 (Macintosh; Intel Mac OS X 10.13; rv:87.0) Gecko/20100101 Firefox/87.0,Macintosh,Firefox,87,OS X,10.13
130,1,null,"""",html-keyboard-response,117,315436,0.0-117.0,"""","<div style=""font-size:60px;"">+</div>","""",256,fixation,Memorization,null,500,"""","""","""","""","""","""","""","""",1,4/25/2021 3:31,68.101.149.61,Mozilla/5.0 (Macintosh; Intel Mac OS X 10.13; rv:87.0) Gecko/20100101 Firefox/87.0,Macintosh,Firefox,87,OS X,10.13
130,1,1726,"""",html-keyboard-response,118,320442,0.0-118.0,"""","<img src='jspsych/CFDfaces/CFD-WF-202-056-N.jpg' height=""250px""></br><b>Vanessa</b>","""",256,IntactFace,Memorization,70,5000,f,"""",CFD-WF-018-017-N.jpg,Jordan,0,"""","""","""",1,4/25/2021 3:31,68.101.149.61,Mozilla/5.0 (Macintosh; Intel Mac OS X 10.13; rv:87.0) Gecko/20100101 Firefox/87.0,Macintosh,Firefox,87,OS X,10.13
130,1,null,"""",html-keyboard-response,119,320949,0.0-119.0,"""","<div style=""font-size:60px;"">+</div>","""",256,fixation,Memorization,null,500,"""","""","""","""","""","""","""","""",1,4/25/2021 3:31,68.101.149.61,Mozilla/5.0 (Macintosh; Intel Mac OS X 10.13; rv:87.0) Gecko/20100101 Firefox/87.0,Macintosh,Firefox,87,OS X,10.13
130,1,1390,"""",html-keyboard-response,120,325953,0.0-120.0,"""","<img src='jspsych/CFDfaces/CFD-WM-009-002-N.jpg' height=""250px""></br><b>Brian</b>","""",256,IntactFace,Memorization,70,5000,f,"""",CFD-LM-201-057-N.jpg,Jeremy,0,"""","""","""",1,4/25/2021 3:31,68.101.149.61,Mozilla/5.0 (Macintosh; Intel Mac OS X 10.13; rv:87.0) Gecko/20100101 Firefox/87.0,Macintosh,Firefox,87,OS X,10.13
130,1,null,"""",html-keyboard-response,121,326464,0.0-121.0,"""","<div style=""font-size:60px;"">+</div>","""",256,fixation,Memorization,null,500,"""","""","""","""","""","""","""","""",1,4/25/2021 3:31,68.101.149.61,Mozilla/5.0 (Macintosh; Intel Mac OS X 10.13; rv:87.0) Gecko/20100101 Firefox/87.0,Macintosh,Firefox,87,OS X,10.13
130,1,1521,"""",html-keyboard-response,122,331469,0.0-122.0,"""","<img src='jspsych/CFDfaces/CFD-WM-207-048-N.jpg' height=""250px""></br><b>Peter</b>","""",256,IntactFace,Memorization,70,5000,f,"""",CFD-BF-021-013-N.jpg,Heather,0,"""","""","""",1,4/25/2021 3:31,68.101.149.61,Mozilla/5.0 (Macintosh; Intel Mac OS X 10.13; rv:87.0) Gecko/20100101 Firefox/87.0,Macintosh,Firefox,87,OS X,10.13
130,1,null,"""",html-keyboard-response,123,331978,0.0-123.0,"""","<div style=""font-size:60px;"">+</div>","""",256,fixation,Memorization,null,500,"""","""","""","""","""","""","""","""",1,4/25/2021 3:31,68.101.149.61,Mozilla/5.0 (Macintosh; Intel Mac OS X 10.13; rv:87.0) Gecko/20100101 Firefox/87.0,Macintosh,Firefox,87,OS X,10.13
130,1,1816,"""",html-keyboard-response,124,336983,0.0-124.0,"""","<img src='jspsych/CFDfaces/CFD-LF-205-100-N.jpg' height=""250px""></br><b>Emily</b>","""",256,IntactFace,Memorization,78,5000,n,"""",CFD-BM-210-148-N.jpg,Jacob,0,"""","""","""",1,4/25/2021 3:31,68.101.149.61,Mozilla/5.0 (Macintosh; Intel Mac OS X 10.13; rv:87.0) Gecko/20100101 Firefox/87.0,Macintosh,Firefox,87,OS X,10.13
130,1,null,"""",html-keyboard-response,125,337488,0.0-125.0,"""","<div style=""font-size:60px;"">+</div>","""",256,fixation,Memorization,null,500,"""","""","""","""","""","""","""","""",1,4/25/2021 3:31,68.101.149.61,Mozilla/5.0 (Macintosh; Intel Mac OS X 10.13; rv:87.0) Gecko/20100101 Firefox/87.0,Macintosh,Firefox,87,OS X,10.13
130,1,1261,"""",html-keyboard-response,126,342498,0.0-126.0,"""","<img src='jspsych/CFDfaces/CFD-BF-209-172-N.jpg' height=""250px""></br><b>Brittany</b>","""",256,IntactFace,Memorization,78,5000,n,"""",CFD-AF-241-141-N.jpg,Jasmine,0,"""","""","""",1,4/25/2021 3:31,68.101.149.61,Mozilla/5.0 (Macintosh; Intel Mac OS X 10.13; rv:87.0) Gecko/20100101 Firefox/87.0,Macintosh,Firefox,87,OS X,10.13
130,1,null,"""",html-keyboard-response,127,343000,0.0-127.0,"""","<div style=""font-size:60px;"">+</div>","""",256,fixation,Memorization,null,500,"""","""","""","""","""","""","""","""",1,4/25/2021 3:31,68.101.149.61,Mozilla/5.0 (Macintosh; Intel Mac OS X 10.13; rv:87.0) Gecko/20100101 Firefox/87.0,Macintosh,Firefox,87,OS X,10.13
130,1,2212,"""",html-keyboard-response,128,348007,0.0-128.0,"""","<img src='jspsych/CFDfaces/CFD-WM-034-030-N.jpg' height=""250px""></br><b>Ian</b>","""",256,IntactFace,Memorization,78,5000,n,"""",CFD-WM-019-003-N.jpg,Vincent,0,"""","""","""",1,4/25/2021 3:31,68.101.149.61,Mozilla/5.0 (Macintosh; Intel Mac OS X 10.13; rv:87.0) Gecko/20100101 Firefox/87.0,Macintosh,Firefox,87,OS X,10.13
130,1,null,"""",html-keyboard-response,129,348516,0.0-129.0,"""","<div style=""font-size:60px;"">+</div>","""",256,fixation,Memorization,null,500,"""","""","""","""","""","""","""","""",1,4/25/2021 3:31,68.101.149.61,Mozilla/5.0 (Macintosh; Intel Mac OS X 10.13; rv:87.0) Gecko/20100101 Firefox/87.0,Macintosh,Firefox,87,OS X,10.13
130,1,1203,"""",html-keyboard-response,130,353522,0.0-130.0,"""","<img src='jspsych/CFDfaces/CFD-BF-010-001-N.jpg' height=""250px""></br><b>Amanda</b>","""",256,IntactFace,Memorization,78,5000,n,"""",CFD-AM-207-108-N.jpg,Travis,0,"""","""","""",1,4/25/2021 3:31,68.101.149.61,Mozilla/5.0 (Macintosh; Intel Mac OS X 10.13; rv:87.0) Gecko/20100101 Firefox/87.0,Macintosh,Firefox,87,OS X,10.13
130,1,null,"""",html-keyboard-response,131,354029,0.0-131.0,"""","<div style=""font-size:60px;"">+</div>","""",256,fixation,Memorization,null,500,"""","""","""","""","""","""","""","""",1,4/25/2021 3:31,68.101.149.61,Mozilla/5.0 (Macintosh; Intel Mac OS X 10.13; rv:87.0) Gecko/20100101 Firefox/87.0,Macintosh,Firefox,87,OS X,10.13
130,1,1811,"""",html-keyboard-response,132,359035,0.0-132.0,"""","<img src='jspsych/CFDfaces/CFD-LF-239-148-N.jpg' height=""250px""></br><b>Ashley</b>","""",256,IntactFace,Memorization,70,5000,f,"""",CFD-WF-016-015-N.jpg,Tiffany,0,"""","""","""",1,4/25/2021 3:31,68.101.149.61,Mozilla/5.0 (Macintosh; Intel Mac OS X 10.13; rv:87.0) Gecko/20100101 Firefox/87.0,Macintosh,Firefox,87,OS X,10.13
130,1,null,"""",html-keyboard-response,133,359542,0.0-133.0,"""","<div style=""font-size:60px;"">+</div>","""",256,fixation,Memorization,null,500,"""","""","""","""","""","""","""","""",1,4/25/2021 3:31,68.101.149.61,Mozilla/5.0 (Macintosh; Intel Mac OS X 10.13; rv:87.0) Gecko/20100101 Firefox/87.0,Macintosh,Firefox,87,OS X,10.13
130,1,1804,"""",html-keyboard-response,134,364552,0.0-134.0,"""","<img src='jspsych/CFDfaces/CFD-AM-248-104-N.jpg' height=""250px""></br><b>Nicholas</b>","""",256,IntactFace,Memorization,78,5000,n,"""",CFD-AF-220-107-N.jpg,Melissa,0,"""","""","""",1,4/25/2021 3:31,68.101.149.61,Mozilla/5.0 (Macintosh; Intel Mac OS X 10.13; rv:87.0) Gecko/20100101 Firefox/87.0,Macintosh,Firefox,87,OS X,10.13
130,1,null,"""",html-keyboard-response,135,365058,0.0-135.0,"""","<div style=""font-size:60px;"">+</div>","""",256,fixation,Memorization,null,500,"""","""","""","""","""","""","""","""",1,4/25/2021 3:31,68.101.149.61,Mozilla/5.0 (Macintosh; Intel Mac OS X 10.13; rv:87.0) Gecko/20100101 Firefox/87.0,Macintosh,Firefox,87,OS X,10.13
130,1,1290,"""",html-keyboard-response,136,370063,0.0-136.0,"""","<img src='jspsych/CFDfaces/CFD-BM-011-016-N.jpg' height=""250px""></br><b>Robert</b>","""",256,IntactFace,Memorization,78,5000,n,"""",CFD-LM-221-216-N.jpg,Mark,0,"""","""","""",1,4/25/2021 3:31,68.101.149.61,Mozilla/5.0 (Macintosh; Intel Mac OS X 10.13; rv:87.0) Gecko/20100101 Firefox/87.0,Macintosh,Firefox,87,OS X,10.13
130,1,null,"""",html-keyboard-response,137,370569,0.0-137.0,"""","<div style=""font-size:60px;"">+</div>","""",256,fixation,Memorization,null,500,"""","""","""","""","""","""","""","""",1,4/25/2021 3:31,68.101.149.61,Mozilla/5.0 (Macintosh; Intel Mac OS X 10.13; rv:87.0) Gecko/20100101 Firefox/87.0,Macintosh,Firefox,87,OS X,10.13
130,1,2067,"""",html-keyboard-response,138,375576,0.0-138.0,"""","<img src='jspsych/CFDfaces/CFD-BF-226-119-N.jpg' height=""250px""></br><b>Julie</b>","""",256,IntactFace,Memorization,78,5000,n,"""",CFD-AF-240-206-N.jpg,Whitney,0,"""","""","""",1,4/25/2021 3:31,68.101.149.61,Mozilla/5.0 (Macintosh; Intel Mac OS X 10.13; rv:87.0) Gecko/20100101 Firefox/87.0,Macintosh,Firefox,87,OS X,10.13
130,1,null,"""",html-keyboard-response,139,376081,0.0-139.0,"""","<div style=""font-size:60px;"">+</div>","""",256,fixation,Memorization,null,500,"""","""","""","""","""","""","""","""",1,4/25/2021 3:31,68.101.149.61,Mozilla/5.0 (Macintosh; Intel Mac OS X 10.13; rv:87.0) Gecko/20100101 Firefox/87.0,Macintosh,Firefox,87,OS X,10.13
130,1,1460,"""",html-keyboard-response,140,381091,0.0-140.0,"""","<img src='jspsych/CFDfaces/CFD-WM-011-002-N.jpg' height=""250px""></br><b>James</b>","""",256,IntactFace,Memorization,70,5000,f,"""",CFD-WM-003-002-N.jpg,Justin,0,"""","""","""",1,4/25/2021 3:31,68.101.149.61,Mozilla/5.0 (Macintosh; Intel Mac OS X 10.13; rv:87.0) Gecko/20100101 Firefox/87.0,Macintosh,Firefox,87,OS X,10.13
130,1,null,"""",html-keyboard-response,141,381596,0.0-141.0,"""","<div style=""font-size:60px;"">+</div>","""",256,fixation,Memorization,null,500,"""","""","""","""","""","""","""","""",1,4/25/2021 3:31,68.101.149.61,Mozilla/5.0 (Macintosh; Intel Mac OS X 10.13; rv:87.0) Gecko/20100101 Firefox/87.0,Macintosh,Firefox,87,OS X,10.13
130,1,1796,"""",html-keyboard-response,142,386607,0.0-142.0,"""","<img src='jspsych/CFDfaces/CFD-AF-214-139-N.jpg' height=""250px""></br><b>Stephanie</b>","""",256,IntactFace,Memorization,78,5000,n,"""",CFD-LF-243-175-N.jpg,Laura,0,"""","""","""",1,4/25/2021 3:31,68.101.149.61,Mozilla/5.0 (Macintosh; Intel Mac OS X 10.13; rv:87.0) Gecko/20100101 Firefox/87.0,Macintosh,Firefox,87,OS X,10.13
130,1,null,"""",html-keyboard-response,143,387110,0.0-143.0,"""","<div style=""font-size:60px;"">+</div>","""",256,fixation,Memorization,null,500,"""","""","""","""","""","""","""","""",1,4/25/2021 3:31,68.101.149.61,Mozilla/5.0 (Macintosh; Intel Mac OS X 10.13; rv:87.0) Gecko/20100101 Firefox/87.0,Macintosh,Firefox,87,OS X,10.13
130,1,1957,"""",html-keyboard-response,144,392120,0.0-144.0,"""","<img src='jspsych/CFDfaces/CFD-BM-017-021-N.jpg' height=""250px""></br><b>Eric</b>","""",256,IntactFace,Memorization,70,5000,f,"""",CFD-AF-222-134-N.jpg,Taylor,0,"""","""","""",1,4/25/2021 3:31,68.101.149.61,Mozilla/5.0 (Macintosh; Intel Mac OS X 10.13; rv:87.0) Gecko/20100101 Firefox/87.0,Macintosh,Firefox,87,OS X,10.13
130,1,null,"""",html-keyboard-response,145,392625,0.0-145.0,"""","<div style=""font-size:60px;"">+</div>","""",256,fixation,Memorization,null,500,"""","""","""","""","""","""","""","""",1,4/25/2021 3:31,68.101.149.61,Mozilla/5.0 (Macintosh; Intel Mac OS X 10.13; rv:87.0) Gecko/20100101 Firefox/87.0,Macintosh,Firefox,87,OS X,10.13
130,1,1724,"""",html-keyboard-response,146,397636,0.0-146.0,"""","<img src='jspsych/CFDfaces/CFD-LM-234-176-N.jpg' height=""250px""></br><b>Brandon</b>","""",256,IntactFace,Memorization,78,5000,n,"""",CFD-LF-206-078-N.jpg,Rebecca,0,"""","""","""",1,4/25/2021 3:31,68.101.149.61,Mozilla/5.0 (Macintosh; Intel Mac OS X 10.13; rv:87.0) Gecko/20100101 Firefox/87.0,Macintosh,Firefox,87,OS X,10.13
130,1,null,"""",html-keyboard-response,147,398139,0.0-147.0,"""","<div style=""font-size:60px;"">+</div>","""",256,fixation,Memorization,null,500,"""","""","""","""","""","""","""","""",1,4/25/2021 3:31,68.101.149.61,Mozilla/5.0 (Macintosh; Intel Mac OS X 10.13; rv:87.0) Gecko/20100101 Firefox/87.0,Macintosh,Firefox,87,OS X,10.13
130,1,1954,"""",html-keyboard-response,148,403150,0.0-148.0,"""","<img src='jspsych/CFDfaces/CFD-LM-213-061-N.jpg' height=""250px""></br><b>Joshua</b>","""",256,IntactFace,Memorization,78,5000,n,"""",CFD-BM-026-002-N.jpg,Luis,0,"""","""","""",1,4/25/2021 3:31,68.101.149.61,Mozilla/5.0 (Macintosh; Intel Mac OS X 10.13; rv:87.0) Gecko/20100101 Firefox/87.0,Macintosh,Firefox,87,OS X,10.13
130,1,null,"""",html-keyboard-response,149,403654,0.0-149.0,"""","<div style=""font-size:60px;"">+</div>","""",256,fixation,Memorization,null,500,"""","""","""","""","""","""","""","""",1,4/25/2021 3:31,68.101.149.61,Mozilla/5.0 (Macintosh; Intel Mac OS X 10.13; rv:87.0) Gecko/20100101 Firefox/87.0,Macintosh,Firefox,87,OS X,10.13
130,1,2892,"""",html-keyboard-response,150,408665,0.0-150.0,"""","<img src='jspsych/CFDfaces/CFD-LF-200-058-N.jpg' height=""250px""></br><b>Elizabeth</b>","""",256,IntactFace,Memorization,70,5000,f,"""",CFD-AM-237-154-N.jpg,Sean,0,"""","""","""",1,4/25/2021 3:31,68.101.149.61,Mozilla/5.0 (Macintosh; Intel Mac OS X 10.13; rv:87.0) Gecko/20100101 Firefox/87.0,Macintosh,Firefox,87,OS X,10.13
130,1,null,"""",html-keyboard-response,151,409170,0.0-151.0,"""","<div style=""font-size:60px;"">+</div>","""",256,fixation,Memorization,null,500,"""","""","""","""","""","""","""","""",1,4/25/2021 3:31,68.101.149.61,Mozilla/5.0 (Macintosh; Intel Mac OS X 10.13; rv:87.0) Gecko/20100101 Firefox/87.0,Macintosh,Firefox,87,OS X,10.13
130,1,2551,"""",html-keyboard-response,152,414181,0.0-152.0,"""","<img src='jspsych/CFDfaces/CFD-AM-221-184-N.jpg' height=""250px""></br><b>Jason</b>","""",256,IntactFace,Memorization,78,5000,n,"""",CFD-BF-023-010-N.jpg,Angela,0,"""","""","""",1,4/25/2021 3:31,68.101.149.61,Mozilla/5.0 (Macintosh; Intel Mac OS X 10.13; rv:87.0) Gecko/20100101 Firefox/87.0,Macintosh,Firefox,87,OS X,10.13
130,1,null,"""",html-keyboard-response,153,414686,0.0-153.0,"""","<div style=""font-size:60px;"">+</div>","""",256,fixation,Memorization,null,500,"""","""","""","""","""","""","""","""",1,4/25/2021 3:31,68.101.149.61,Mozilla/5.0 (Macintosh; Intel Mac OS X 10.13; rv:87.0) Gecko/20100101 Firefox/87.0,Macintosh,Firefox,87,OS X,10.13
130,1,3176,"""",html-keyboard-response,154,417868,0.0-154.0,"""",Press Any Key to Begin Memory Test,"""",1,welcomeScreen,Break,32,"""","""","""","""","""","""","""","""","""",1,4/25/2021 3:31,68.101.149.61,Mozilla/5.0 (Macintosh; Intel Mac OS X 10.13; rv:87.0) Gecko/20100101 Firefox/87.0,Macintosh,Firefox,87,OS X,10.13
130,1,null,"""",html-keyboard-response,155,418875,0.0-155.0,"""","<div style=""font-size:60px;"">+</div>","""",256,ITI,Test,null,1000,"""","""","""","""","""","""","""","""",1,4/25/2021 3:31,68.101.149.61,Mozilla/5.0 (Macintosh; Intel Mac OS X 10.13; rv:87.0) Gecko/20100101 Firefox/87.0,Macintosh,Firefox,87,OS X,10.13
130,1,null,"""",image-keyboard-response,156,419134,0.0-156.0,"""",jspsych/scrambledNeutralFaces/scrambledBM31NES.JPG,"""",256,forwardMask,Test,null,250,"""",n,"""","""","""","""","""","""",1,4/25/2021 3:31,68.101.149.61,Mozilla/5.0 (Macintosh; Intel Mac OS X 10.13; rv:87.0) Gecko/20100101 Firefox/87.0,Macintosh,Firefox,87,OS X,10.13
130,1,null,"""",image-keyboard-response,157,419155,0.0-157.0,"""",jspsych/neutralFaces/BM31NES.JPG,"""",256,Cue,Test,null,16,"""","""","""","""","""","""","""","""",1,4/25/2021 3:31,68.101.149.61,Mozilla/5.0 (Macintosh; Intel Mac OS X 10.13; rv:87.0) Gecko/20100101 Firefox/87.0,Macintosh,Firefox,87,OS X,10.13
130,1,null,"""",image-keyboard-response,158,419266,0.0-158.0,"""",jspsych/neutralFaces/BM05NES.JPG,"""",256,backwardMask,Test,null,100,"""","""","""","""","""","""","""","""",1,4/25/2021 3:31,68.101.149.61,Mozilla/5.0 (Macintosh; Intel Mac OS X 10.13; rv:87.0) Gecko/20100101 Firefox/87.0,Macintosh,Firefox,87,OS X,10.13
130,1,null,"""",html-keyboard-response,159,420268,0.0-159.0,"""","<div style=""font-size:60px;"">+</div>","""",256,fixationBtwnNeutralMaskAndPrompt,Test,null,1000,"""","""","""","""","""","""","""","""",1,4/25/2021 3:31,68.101.149.61,Mozilla/5.0 (Macintosh; Intel Mac OS X 10.13; rv:87.0) Gecko/20100101 Firefox/87.0,Macintosh,Firefox,87,OS X,10.13
130,1,4392,"""",html-button-response,160,424667,0.0-160.0,"""","<img src='jspsych/CFDfaces/CFD-AF-214-139-N.jpg' height=""250px"">,</br><b>Stephanie</b>",0,256,IntactOrRearranged,Test,"""","""","""","""",CFD-WF-016-015-N.jpg,Tiffany,0,0,"""","""",1,4/25/2021 3:31,68.101.149.61,Mozilla/5.0 (Macintosh; Intel Mac OS X 10.13; rv:87.0) Gecko/20100101 Firefox/87.0,Macintosh,Firefox,87,OS X,10.13
130,1,1812,"""",html-slider-response,161,426482,0.0-161.0,"""","<img src='jspsych/CFDfaces/CFD-AF-214-139-N.jpg' height=""250px"">,</br><b>Stephanie</b>","""",256,ConfidenceQuery,Test,"""","""","""","""",CFD-WF-016-015-N.jpg,Tiffany,0,"""",0,37,1,4/25/2021 3:31,68.101.149.61,Mozilla/5.0 (Macintosh; Intel Mac OS X 10.13; rv:87.0) Gecko/20100101 Firefox/87.0,Macintosh,Firefox,87,OS X,10.13
130,1,null,"""",html-keyboard-response,162,427493,0.0-162.0,"""","<div style=""font-size:60px;"">+</div>","""",256,ITI,Test,null,1000,"""","""","""","""","""","""","""","""",1,4/25/2021 3:31,68.101.149.61,Mozilla/5.0 (Macintosh; Intel Mac OS X 10.13; rv:87.0) Gecko/20100101 Firefox/87.0,Macintosh,Firefox,87,OS X,10.13
130,1,null,"""",image-keyboard-response,163,427751,0.0-163.0,"""",jspsych/scrambledNeutralFaces/scrambledBF05NES.JPG,"""",256,forwardMask,Test,null,250,"""",n,"""","""","""","""","""","""",1,4/25/2021 3:31,68.101.149.61,Mozilla/5.0 (Macintosh; Intel Mac OS X 10.13; rv:87.0) Gecko/20100101 Firefox/87.0,Macintosh,Firefox,87,OS X,10.13
130,1,null,"""",image-keyboard-response,164,427776,0.0-164.0,"""",jspsych/neutralFaces/BF05NES.JPG,"""",256,Cue,Test,null,16,"""","""","""","""","""","""","""","""",1,4/25/2021 3:31,68.101.149.61,Mozilla/5.0 (Macintosh; Intel Mac OS X 10.13; rv:87.0) Gecko/20100101 Firefox/87.0,Macintosh,Firefox,87,OS X,10.13
130,1,null,"""",image-keyboard-response,165,427884,0.0-165.0,"""",jspsych/neutralFaces/AF28NES.JPG,"""",256,backwardMask,Test,null,100,"""","""","""","""","""","""","""","""",1,4/25/2021 3:31,68.101.149.61,Mozilla/5.0 (Macintosh; Intel Mac OS X 10.13; rv:87.0) Gecko/20100101 Firefox/87.0,Macintosh,Firefox,87,OS X,10.13
130,1,null,"""",html-keyboard-response,166,428891,0.0-166.0,"""","<div style=""font-size:60px;"">+</div>","""",256,fixationBtwnNeutralMaskAndPrompt,Test,null,1000,"""","""","""","""","""","""","""","""",1,4/25/2021 3:31,68.101.149.61,Mozilla/5.0 (Macintosh; Intel Mac OS X 10.13; rv:87.0) Gecko/20100101 Firefox/87.0,Macintosh,Firefox,87,OS X,10.13
130,1,3147,"""",html-button-response,167,432039,0.0-167.0,"""","<img src='jspsych/CFDfaces/CFD-LF-231-260-N.jpg' height=""250px"">,</br><b>Samantha</b>",0,256,IntactOrRearranged,Test,"""","""","""","""",CFD-AF-241-141-N.jpg,Angela,0,0,"""","""",1,4/25/2021 3:31,68.101.149.61,Mozilla/5.0 (Macintosh; Intel Mac OS X 10.13; rv:87.0) Gecko/20100101 Firefox/87.0,Macintosh,Firefox,87,OS X,10.13
130,1,1337,"""",html-slider-response,168,433386,0.0-168.0,"""","<img src='jspsych/CFDfaces/CFD-LF-231-260-N.jpg' height=""250px"">,</br><b>Samantha</b>","""",256,ConfidenceQuery,Test,"""","""","""","""",CFD-AF-241-141-N.jpg,Angela,0,"""",0,74,1,4/25/2021 3:31,68.101.149.61,Mozilla/5.0 (Macintosh; Intel Mac OS X 10.13; rv:87.0) Gecko/20100101 Firefox/87.0,Macintosh,Firefox,87,OS X,10.13
130,1,null,"""",html-keyboard-response,169,434391,0.0-169.0,"""","<div style=""font-size:60px;"">+</div>","""",256,ITI,Test,null,1000,"""","""","""","""","""","""","""","""",1,4/25/2021 3:31,68.101.149.61,Mozilla/5.0 (Macintosh; Intel Mac OS X 10.13; rv:87.0) Gecko/20100101 Firefox/87.0,Macintosh,Firefox,87,OS X,10.13
130,1,null,"""",image-keyboard-response,170,434648,0.0-170.0,"""",jspsych/scrambledNeutralFaces/scrambledAF24NES.JPG,"""",256,forwardMask,Test,null,250,"""",n,"""","""","""","""","""","""",1,4/25/2021 3:31,68.101.149.61,Mozilla/5.0 (Macintosh; Intel Mac OS X 10.13; rv:87.0) Gecko/20100101 Firefox/87.0,Macintosh,Firefox,87,OS X,10.13
130,1,null,"""",image-keyboard-response,171,434672,0.0-171.0,"""",jspsych/neutralFaces/AF24NES.JPG,"""",256,Cue,Test,null,16,"""","""","""","""","""","""","""","""",1,4/25/2021 3:31,68.101.149.61,Mozilla/5.0 (Macintosh; Intel Mac OS X 10.13; rv:87.0) Gecko/20100101 Firefox/87.0,Macintosh,Firefox,87,OS X,10.13
130,1,null,"""",image-keyboard-response,172,434782,0.0-172.0,"""",jspsych/neutralFaces/AF04NES.JPG,"""",256,backwardMask,Test,null,100,"""","""","""","""","""","""","""","""",1,4/25/2021 3:31,68.101.149.61,Mozilla/5.0 (Macintosh; Intel Mac OS X 10.13; rv:87.0) Gecko/20100101 Firefox/87.0,Macintosh,Firefox,87,OS X,10.13
130,1,null,"""",html-keyboard-response,173,435786,0.0-173.0,"""","<div style=""font-size:60px;"">+</div>","""",256,fixationBtwnNeutralMaskAndPrompt,Test,null,1000,"""","""","""","""","""","""","""","""",1,4/25/2021 3:31,68.101.149.61,Mozilla/5.0 (Macintosh; Intel Mac OS X 10.13; rv:87.0) Gecko/20100101 Firefox/87.0,Macintosh,Firefox,87,OS X,10.13
130,1,1687,"""",html-button-response,174,437475,0.0-174.0,"""","<img src='jspsych/CFDfaces/CFD-BM-205-001-N.jpg' height=""250px"">,</br><b>Richard</b>",1,256,IntactOrRearranged,Test,"""","""","""","""",CFD-AF-233-190-N.jpg,Amy,1,1,"""","""",1,4/25/2021 3:31,68.101.149.61,Mozilla/5.0 (Macintosh; Intel Mac OS X 10.13; rv:87.0) Gecko/20100101 Firefox/87.0,Macintosh,Firefox,87,OS X,10.13
130,1,2175,"""",html-slider-response,175,439660,0.0-175.0,"""","<img src='jspsych/CFDfaces/CFD-BM-205-001-N.jpg' height=""250px"">,</br><b>Richard</b>","""",256,ConfidenceQuery,Test,"""","""","""","""",CFD-AF-233-190-N.jpg,Amy,1,"""",0,100,1,4/25/2021 3:31,68.101.149.61,Mozilla/5.0 (Macintosh; Intel Mac OS X 10.13; rv:87.0) Gecko/20100101 Firefox/87.0,Macintosh,Firefox,87,OS X,10.13
130,1,null,"""",html-keyboard-response,176,440664,0.0-176.0,"""","<div style=""font-size:60px;"">+</div>","""",256,ITI,Test,null,1000,"""","""","""","""","""","""","""","""",1,4/25/2021 3:31,68.101.149.61,Mozilla/5.0 (Macintosh; Intel Mac OS X 10.13; rv:87.0) Gecko/20100101 Firefox/87.0,Macintosh,Firefox,87,OS X,10.13
130,1,null,"""",image-keyboard-response,177,440924,0.0-177.0,"""",jspsych/scrambledNeutralFaces/scrambledBF08NES.JPG,"""",256,forwardMask,Test,null,250,"""",n,"""","""","""","""","""","""",1,4/25/2021 3:31,68.101.149.61,Mozilla/5.0 (Macintosh; Intel Mac OS X 10.13; rv:87.0) Gecko/20100101 Firefox/87.0,Macintosh,Firefox,87,OS X,10.13
130,1,null,"""",image-keyboard-response,178,440947,0.0-178.0,"""",jspsych/neutralFaces/BF08NES.JPG,"""",256,Cue,Test,null,16,"""","""","""","""","""","""","""","""",1,4/25/2021 3:31,68.101.149.61,Mozilla/5.0 (Macintosh; Intel Mac OS X 10.13; rv:87.0) Gecko/20100101 Firefox/87.0,Macintosh,Firefox,87,OS X,10.13
130,1,null,"""",image-keyboard-response,179,441057,0.0-179.0,"""",jspsych/neutralFaces/BF17NES.JPG,"""",256,backwardMask,Test,null,100,"""","""","""","""","""","""","""","""",1,4/25/2021 3:31,68.101.149.61,Mozilla/5.0 (Macintosh; Intel Mac OS X 10.13; rv:87.0) Gecko/20100101 Firefox/87.0,Macintosh,Firefox,87,OS X,10.13
130,1,null,"""",html-keyboard-response,180,442061,0.0-180.0,"""","<div style=""font-size:60px;"">+</div>","""",256,fixationBtwnNeutralMaskAndPrompt,Test,null,1000,"""","""","""","""","""","""","""","""",1,4/25/2021 3:31,68.101.149.61,Mozilla/5.0 (Macintosh; Intel Mac OS X 10.13; rv:87.0) Gecko/20100101 Firefox/87.0,Macintosh,Firefox,87,OS X,10.13
130,1,1757,"""",html-button-response,181,443820,0.0-181.0,"""","<img src='jspsych/CFDfaces/CFD-AM-248-104-N.jpg' height=""250px"">,</br><b>Nicholas</b>",0,256,IntactOrRearranged,Test,"""","""","""","""",CFD-WM-019-003-N.jpg,Vincent,0,0,"""","""",1,4/25/2021 3:31,68.101.149.61,Mozilla/5.0 (Macintosh; Intel Mac OS X 10.13; rv:87.0) Gecko/20100101 Firefox/87.0,Macintosh,Firefox,87,OS X,10.13
130,1,2163,"""",html-slider-response,182,445993,0.0-182.0,"""","<img src='jspsych/CFDfaces/CFD-AM-248-104-N.jpg' height=""250px"">,</br><b>Nicholas</b>","""",256,ConfidenceQuery,Test,"""","""","""","""",CFD-WM-019-003-N.jpg,Vincent,0,"""",0,96,1,4/25/2021 3:31,68.101.149.61,Mozilla/5.0 (Macintosh; Intel Mac OS X 10.13; rv:87.0) Gecko/20100101 Firefox/87.0,Macintosh,Firefox,87,OS X,10.13
130,1,null,"""",html-keyboard-response,183,446997,0.0-183.0,"""","<div style=""font-size:60px;"">+</div>","""",256,ITI,Test,null,1000,"""","""","""","""","""","""","""","""",1,4/25/2021 3:31,68.101.149.61,Mozilla/5.0 (Macintosh; Intel Mac OS X 10.13; rv:87.0) Gecko/20100101 Firefox/87.0,Macintosh,Firefox,87,OS X,10.13
130,1,null,"""",image-keyboard-response,184,447252,0.0-184.0,"""",jspsych/scrambledDisgustFaces/scrambledAM17DIS.JPG,"""",256,forwardMask,Test,null,250,"""",d,"""","""","""","""","""","""",1,4/25/2021 3:31,68.101.149.61,Mozilla/5.0 (Macintosh; Intel Mac OS X 10.13; rv:87.0) Gecko/20100101 Firefox/87.0,Macintosh,Firefox,87,OS X,10.13
130,1,null,"""",image-keyboard-response,185,447275,0.0-185.0,"""",jspsych/disgustFaces/AM17DIS.JPG,"""",256,Cue,Test,null,16,"""","""","""","""","""","""","""","""",1,4/25/2021 3:31,68.101.149.61,Mozilla/5.0 (Macintosh; Intel Mac OS X 10.13; rv:87.0) Gecko/20100101 Firefox/87.0,Macintosh,Firefox,87,OS X,10.13
130,1,null,"""",image-keyboard-response,186,447381,0.0-186.0,"""",jspsych/neutralFaces/BM10NES.JPG,"""",256,backwardMask,Test,null,100,"""","""","""","""","""","""","""","""",1,4/25/2021 3:31,68.101.149.61,Mozilla/5.0 (Macintosh; Intel Mac OS X 10.13; rv:87.0) Gecko/20100101 Firefox/87.0,Macintosh,Firefox,87,OS X,10.13
130,1,null,"""",html-keyboard-response,187,448385,0.0-187.0,"""","<div style=""font-size:60px;"">+</div>","""",256,fixationBtwnNeutralMaskAndPrompt,Test,null,1000,"""","""","""","""","""","""","""","""",1,4/25/2021 3:31,68.101.149.61,Mozilla/5.0 (Macintosh; Intel Mac OS X 10.13; rv:87.0) Gecko/20100101 Firefox/87.0,Macintosh,Firefox,87,OS X,10.13
130,1,1399,"""",html-button-response,188,449787,0.0-188.0,"""","<img src='jspsych/CFDfaces/CFD-BM-011-016-N.jpg' height=""250px"">,</br><b>Robert</b>",0,256,IntactOrRearranged,Test,"""","""","""","""",CFD-WM-232-070-N.jpg,Jeremy,0,0,"""","""",1,4/25/2021 3:31,68.101.149.61,Mozilla/5.0 (Macintosh; Intel Mac OS X 10.13; rv:87.0) Gecko/20100101 Firefox/87.0,Macintosh,Firefox,87,OS X,10.13
130,1,2537,"""",html-slider-response,189,452335,0.0-189.0,"""","<img src='jspsych/CFDfaces/CFD-BM-011-016-N.jpg' height=""250px"">,</br><b>Robert</b>","""",256,ConfidenceQuery,Test,"""","""","""","""",CFD-WM-232-070-N.jpg,Jeremy,0,"""",0,89,1,4/25/2021 3:31,68.101.149.61,Mozilla/5.0 (Macintosh; Intel Mac OS X 10.13; rv:87.0) Gecko/20100101 Firefox/87.0,Macintosh,Firefox,87,OS X,10.13
130,1,null,"""",html-keyboard-response,190,453340,0.0-190.0,"""","<div style=""font-size:60px;"">+</div>","""",256,ITI,Test,null,1000,"""","""","""","""","""","""","""","""",1,4/25/2021 3:31,68.101.149.61,Mozilla/5.0 (Macintosh; Intel Mac OS X 10.13; rv:87.0) Gecko/20100101 Firefox/87.0,Macintosh,Firefox,87,OS X,10.13
130,1,null,"""",image-keyboard-response,191,453600,0.0-191.0,"""",jspsych/scrambledDisgustFaces/scrambledAM09DIS.JPG,"""",256,forwardMask,Test,null,250,"""",d,"""","""","""","""","""","""",1,4/25/2021 3:31,68.101.149.61,Mozilla/5.0 (Macintosh; Intel Mac OS X 10.13; rv:87.0) Gecko/20100101 Firefox/87.0,Macintosh,Firefox,87,OS X,10.13
130,1,null,"""",image-keyboard-response,192,453626,0.0-192.0,"""",jspsych/disgustFaces/AM09DIS.JPG,"""",256,Cue,Test,null,16,"""","""","""","""","""","""","""","""",1,4/25/2021 3:31,68.101.149.61,Mozilla/5.0 (Macintosh; Intel Mac OS X 10.13; rv:87.0) Gecko/20100101 Firefox/87.0,Macintosh,Firefox,87,OS X,10.13
130,1,null,"""",image-keyboard-response,193,453731,0.0-193.0,"""",jspsych/neutralFaces/AM13NES.JPG,"""",256,backwardMask,Test,null,100,"""","""","""","""","""","""","""","""",1,4/25/2021 3:31,68.101.149.61,Mozilla/5.0 (Macintosh; Intel Mac OS X 10.13; rv:87.0) Gecko/20100101 Firefox/87.0,Macintosh,Firefox,87,OS X,10.13
130,1,null,"""",html-keyboard-response,194,454736,0.0-194.0,"""","<div style=""font-size:60px;"">+</div>","""",256,fixationBtwnNeutralMaskAndPrompt,Test,null,1000,"""","""","""","""","""","""","""","""",1,4/25/2021 3:31,68.101.149.61,Mozilla/5.0 (Macintosh; Intel Mac OS X 10.13; rv:87.0) Gecko/20100101 Firefox/87.0,Macintosh,Firefox,87,OS X,10.13
130,1,2454,"""",html-button-response,195,457191,0.0-195.0,"""","<img src='jspsych/CFDfaces/CFD-AF-243-170-N.jpg' height=""250px"">,</br><b>Ashley</b>",1,256,IntactOrRearranged,Test,"""","""","""","""",CFD-AM-234-355-N.jpg,Austin,1,1,"""","""",1,4/25/2021 3:31,68.101.149.61,Mozilla/5.0 (Macintosh; Intel Mac OS X 10.13; rv:87.0) Gecko/20100101 Firefox/87.0,Macintosh,Firefox,87,OS X,10.13
130,1,1623,"""",html-slider-response,196,458825,0.0-196.0,"""","<img src='jspsych/CFDfaces/CFD-AF-243-170-N.jpg' height=""250px"">,</br><b>Ashley</b>","""",256,ConfidenceQuery,Test,"""","""","""","""",CFD-AM-234-355-N.jpg,Austin,1,"""",0,25,1,4/25/2021 3:31,68.101.149.61,Mozilla/5.0 (Macintosh; Intel Mac OS X 10.13; rv:87.0) Gecko/20100101 Firefox/87.0,Macintosh,Firefox,87,OS X,10.13
130,1,null,"""",html-keyboard-response,197,459826,0.0-197.0,"""","<div style=""font-size:60px;"">+</div>","""",256,ITI,Test,null,1000,"""","""","""","""","""","""","""","""",1,4/25/2021 3:31,68.101.149.61,Mozilla/5.0 (Macintosh; Intel Mac OS X 10.13; rv:87.0) Gecko/20100101 Firefox/87.0,Macintosh,Firefox,87,OS X,10.13
130,1,null,"""",image-keyboard-response,198,460081,0.0-198.0,"""",jspsych/scrambledDisgustFaces/scrambledAF31DIS.JPG,"""",256,forwardMask,Test,null,250,"""",d,"""","""","""","""","""","""",1,4/25/2021 3:31,68.101.149.61,Mozilla/5.0 (Macintosh; Intel Mac OS X 10.13; rv:87.0) Gecko/20100101 Firefox/87.0,Macintosh,Firefox,87,OS X,10.13
130,1,null,"""",image-keyboard-response,199,460105,0.0-199.0,"""",jspsych/disgustFaces/AF31DIS.JPG,"""",256,Cue,Test,null,16,"""","""","""","""","""","""","""","""",1,4/25/2021 3:31,68.101.149.61,Mozilla/5.0 (Macintosh; Intel Mac OS X 10.13; rv:87.0) Gecko/20100101 Firefox/87.0,Macintosh,Firefox,87,OS X,10.13
130,1,null,"""",image-keyboard-response,200,460212,0.0-200.0,"""",jspsych/neutralFaces/BF14NES.JPG,"""",256,backwardMask,Test,null,100,"""","""","""","""","""","""","""","""",1,4/25/2021 3:31,68.101.149.61,Mozilla/5.0 (Macintosh; Intel Mac OS X 10.13; rv:87.0) Gecko/20100101 Firefox/87.0,Macintosh,Firefox,87,OS X,10.13
130,1,null,"""",html-keyboard-response,201,461218,0.0-201.0,"""","<div style=""font-size:60px;"">+</div>","""",256,fixationBtwnNeutralMaskAndPrompt,Test,null,1000,"""","""","""","""","""","""","""","""",1,4/25/2021 3:31,68.101.149.61,Mozilla/5.0 (Macintosh; Intel Mac OS X 10.13; rv:87.0) Gecko/20100101 Firefox/87.0,Macintosh,Firefox,87,OS X,10.13
130,1,1780,"""",html-button-response,202,463000,0.0-202.0,"""","<img src='jspsych/CFDfaces/CFD-BM-017-021-N.jpg' height=""250px"">,</br><b>Gregory</b>",1,256,IntactOrRearranged,Test,"""","""","""","""",CFD-LF-243-175-N.jpg,Sara,1,1,"""","""",1,4/25/2021 3:31,68.101.149.61,Mozilla/5.0 (Macintosh; Intel Mac OS X 10.13; rv:87.0) Gecko/20100101 Firefox/87.0,Macintosh,Firefox,87,OS X,10.13
130,1,1937,"""",html-slider-response,203,464947,0.0-203.0,"""","<img src='jspsych/CFDfaces/CFD-BM-017-021-N.jpg' height=""250px"">,</br><b>Gregory</b>","""",256,ConfidenceQuery,Test,"""","""","""","""",CFD-LF-243-175-N.jpg,Sara,1,"""",0,88,1,4/25/2021 3:31,68.101.149.61,Mozilla/5.0 (Macintosh; Intel Mac OS X 10.13; rv:87.0) Gecko/20100101 Firefox/87.0,Macintosh,Firefox,87,OS X,10.13
130,1,null,"""",html-keyboard-response,204,465952,0.0-204.0,"""","<div style=""font-size:60px;"">+</div>","""",256,ITI,Test,null,1000,"""","""","""","""","""","""","""","""",1,4/25/2021 3:31,68.101.149.61,Mozilla/5.0 (Macintosh; Intel Mac OS X 10.13; rv:87.0) Gecko/20100101 Firefox/87.0,Macintosh,Firefox,87,OS X,10.13
130,1,null,"""",image-keyboard-response,205,466207,0.0-205.0,"""",jspsych/scrambledNeutralFaces/scrambledAF32NES.JPG,"""",256,forwardMask,Test,null,250,"""",n,"""","""","""","""","""","""",1,4/25/2021 3:31,68.101.149.61,Mozilla/5.0 (Macintosh; Intel Mac OS X 10.13; rv:87.0) Gecko/20100101 Firefox/87.0,Macintosh,Firefox,87,OS X,10.13
130,1,null,"""",image-keyboard-response,206,466233,0.0-206.0,"""",jspsych/neutralFaces/AF32NES.JPG,"""",256,Cue,Test,null,16,"""","""","""","""","""","""","""","""",1,4/25/2021 3:31,68.101.149.61,Mozilla/5.0 (Macintosh; Intel Mac OS X 10.13; rv:87.0) Gecko/20100101 Firefox/87.0,Macintosh,Firefox,87,OS X,10.13
130,1,null,"""",image-keyboard-response,207,466341,0.0-207.0,"""",jspsych/neutralFaces/AF27NES.JPG,"""",256,backwardMask,Test,null,100,"""","""","""","""","""","""","""","""",1,4/25/2021 3:31,68.101.149.61,Mozilla/5.0 (Macintosh; Intel Mac OS X 10.13; rv:87.0) Gecko/20100101 Firefox/87.0,Macintosh,Firefox,87,OS X,10.13
130,1,null,"""",html-keyboard-response,208,467348,0.0-208.0,"""","<div style=""font-size:60px;"">+</div>","""",256,fixationBtwnNeutralMaskAndPrompt,Test,null,1000,"""","""","""","""","""","""","""","""",1,4/25/2021 3:31,68.101.149.61,Mozilla/5.0 (Macintosh; Intel Mac OS X 10.13; rv:87.0) Gecko/20100101 Firefox/87.0,Macintosh,Firefox,87,OS X,10.13
130,1,1649,"""",html-button-response,209,468998,0.0-209.0,"""","<img src='jspsych/CFDfaces/CFD-WF-205-006-N.jpg' height=""250px"">,</br><b>Kayla</b>",0,256,IntactOrRearranged,Test,"""","""","""","""",CFD-BF-212-315-N.jpg,Laura,0,0,"""","""",1,4/25/2021 3:31,68.101.149.61,Mozilla/5.0 (Macintosh; Intel Mac OS X 10.13; rv:87.0) Gecko/20100101 Firefox/87.0,Macintosh,Firefox,87,OS X,10.13
130,1,2505,"""",html-slider-response,210,471514,0.0-210.0,"""","<img src='jspsych/CFDfaces/CFD-WF-205-006-N.jpg' height=""250px"">,</br><b>Kayla</b>","""",256,ConfidenceQuery,Test,"""","""","""","""",CFD-BF-212-315-N.jpg,Laura,0,"""",0,100,1,4/25/2021 3:31,68.101.149.61,Mozilla/5.0 (Macintosh; Intel Mac OS X 10.13; rv:87.0) Gecko/20100101 Firefox/87.0,Macintosh,Firefox,87,OS X,10.13
130,1,null,"""",html-keyboard-response,211,472516,0.0-211.0,"""","<div style=""font-size:60px;"">+</div>","""",256,ITI,Test,null,1000,"""","""","""","""","""","""","""","""",1,4/25/2021 3:31,68.101.149.61,Mozilla/5.0 (Macintosh; Intel Mac OS X 10.13; rv:87.0) Gecko/20100101 Firefox/87.0,Macintosh,Firefox,87,OS X,10.13
130,1,null,"""",image-keyboard-response,212,472773,0.0-212.0,"""",jspsych/scrambledDisgustFaces/scrambledAF30DIS.JPG,"""",256,forwardMask,Test,null,250,"""",d,"""","""","""","""","""","""",1,4/25/2021 3:31,68.101.149.61,Mozilla/5.0 (Macintosh; Intel Mac OS X 10.13; rv:87.0) Gecko/20100101 Firefox/87.0,Macintosh,Firefox,87,OS X,10.13
130,1,null,"""",image-keyboard-response,213,472796,0.0-213.0,"""",jspsych/disgustFaces/AF30DIS.JPG,"""",256,Cue,Test,null,16,"""","""","""","""","""","""","""","""",1,4/25/2021 3:31,68.101.149.61,Mozilla/5.0 (Macintosh; Intel Mac OS X 10.13; rv:87.0) Gecko/20100101 Firefox/87.0,Macintosh,Firefox,87,OS X,10.13
130,1,null,"""",image-keyboard-response,214,472905,0.0-214.0,"""",jspsych/neutralFaces/BF13NES.JPG,"""",256,backwardMask,Test,null,100,"""","""","""","""","""","""","""","""",1,4/25/2021 3:31,68.101.149.61,Mozilla/5.0 (Macintosh; Intel Mac OS X 10.13; rv:87.0) Gecko/20100101 Firefox/87.0,Macintosh,Firefox,87,OS X,10.13
130,1,null,"""",html-keyboard-response,215,473909,0.0-215.0,"""","<div style=""font-size:60px;"">+</div>","""",256,fixationBtwnNeutralMaskAndPrompt,Test,null,1000,"""","""","""","""","""","""","""","""",1,4/25/2021 3:31,68.101.149.61,Mozilla/5.0 (Macintosh; Intel Mac OS X 10.13; rv:87.0) Gecko/20100101 Firefox/87.0,Macintosh,Firefox,87,OS X,10.13
130,1,2552,"""",html-button-response,216,476461,0.0-216.0,"""","<img src='jspsych/CFDfaces/CFD-WM-034-030-N.jpg' height=""250px"">,</br><b>Ian</b>",0,256,IntactOrRearranged,Test,"""","""","""","""",CFD-BM-026-002-N.jpg,Luis,0,0,"""","""",1,4/25/2021 3:31,68.101.149.61,Mozilla/5.0 (Macintosh; Intel Mac OS X 10.13; rv:87.0) Gecko/20100101 Firefox/87.0,Macintosh,Firefox,87,OS X,10.13
130,1,1794,"""",html-slider-response,217,478265,0.0-217.0,"""","<img src='jspsych/CFDfaces/CFD-WM-034-030-N.jpg' height=""250px"">,</br><b>Ian</b>","""",256,ConfidenceQuery,Test,"""","""","""","""",CFD-BM-026-002-N.jpg,Luis,0,"""",0,79,1,4/25/2021 3:31,68.101.149.61,Mozilla/5.0 (Macintosh; Intel Mac OS X 10.13; rv:87.0) Gecko/20100101 Firefox/87.0,Macintosh,Firefox,87,OS X,10.13
130,1,null,"""",html-keyboard-response,218,479268,0.0-218.0,"""","<div style=""font-size:60px;"">+</div>","""",256,ITI,Test,null,1000,"""","""","""","""","""","""","""","""",1,4/25/2021 3:31,68.101.149.61,Mozilla/5.0 (Macintosh; Intel Mac OS X 10.13; rv:87.0) Gecko/20100101 Firefox/87.0,Macintosh,Firefox,87,OS X,10.13
130,1,null,"""",image-keyboard-response,219,479527,0.0-219.0,"""",jspsych/scrambledDisgustFaces/scrambledBM05DIS.JPG,"""",256,forwardMask,Test,null,250,"""",d,"""","""","""","""","""","""",1,4/25/2021 3:31,68.101.149.61,Mozilla/5.0 (Macintosh; Intel Mac OS X 10.13; rv:87.0) Gecko/20100101 Firefox/87.0,Macintosh,Firefox,87,OS X,10.13
130,1,null,"""",image-keyboard-response,220,479552,0.0-220.0,"""",jspsych/disgustFaces/BM06DIS.JPG,"""",256,Cue,Test,null,16,"""","""","""","""","""","""","""","""",1,4/25/2021 3:31,68.101.149.61,Mozilla/5.0 (Macintosh; Intel Mac OS X 10.13; rv:87.0) Gecko/20100101 Firefox/87.0,Macintosh,Firefox,87,OS X,10.13
130,1,null,"""",image-keyboard-response,221,479662,0.0-221.0,"""",jspsych/neutralFaces/AM27NES.JPG,"""",256,backwardMask,Test,null,100,"""","""","""","""","""","""","""","""",1,4/25/2021 3:31,68.101.149.61,Mozilla/5.0 (Macintosh; Intel Mac OS X 10.13; rv:87.0) Gecko/20100101 Firefox/87.0,Macintosh,Firefox,87,OS X,10.13
130,1,null,"""",html-keyboard-response,222,480669,0.0-222.0,"""","<div style=""font-size:60px;"">+</div>","""",256,fixationBtwnNeutralMaskAndPrompt,Test,null,1000,"""","""","""","""","""","""","""","""",1,4/25/2021 3:31,68.101.149.61,Mozilla/5.0 (Macintosh; Intel Mac OS X 10.13; rv:87.0) Gecko/20100101 Firefox/87.0,Macintosh,Firefox,87,OS X,10.13
130,1,2069,"""",html-button-response,223,482739,0.0-223.0,"""","<img src='jspsych/CFDfaces/CFD-LM-213-061-N.jpg' height=""250px"">,</br><b>Eric</b>",0,256,IntactOrRearranged,Test,"""","""","""","""",CFD-WF-018-017-N.jpg,Jenna,1,0,"""","""",1,4/25/2021 3:31,68.101.149.61,Mozilla/5.0 (Macintosh; Intel Mac OS X 10.13; rv:87.0) Gecko/20100101 Firefox/87.0,Macintosh,Firefox,87,OS X,10.13
130,1,2702,"""",html-slider-response,224,485451,0.0-224.0,"""","<img src='jspsych/CFDfaces/CFD-LM-213-061-N.jpg' height=""250px"">,</br><b>Eric</b>","""",256,ConfidenceQuery,Test,"""","""","""","""",CFD-WF-018-017-N.jpg,Jenna,1,"""",0,35,1,4/25/2021 3:31,68.101.149.61,Mozilla/5.0 (Macintosh; Intel Mac OS X 10.13; rv:87.0) Gecko/20100101 Firefox/87.0,Macintosh,Firefox,87,OS X,10.13
130,1,null,"""",html-keyboard-response,225,486456,0.0-225.0,"""","<div style=""font-size:60px;"">+</div>","""",256,ITI,Test,null,1000,"""","""","""","""","""","""","""","""",1,4/25/2021 3:31,68.101.149.61,Mozilla/5.0 (Macintosh; Intel Mac OS X 10.13; rv:87.0) Gecko/20100101 Firefox/87.0,Macintosh,Firefox,87,OS X,10.13
130,1,null,"""",image-keyboard-response,226,486715,0.0-226.0,"""",jspsych/scrambledNeutralFaces/scrambledAF04NES.JPG,"""",256,forwardMask,Test,null,250,"""",n,"""","""","""","""","""","""",1,4/25/2021 3:31,68.101.149.61,Mozilla/5.0 (Macintosh; Intel Mac OS X 10.13; rv:87.0) Gecko/20100101 Firefox/87.0,Macintosh,Firefox,87,OS X,10.13
130,1,null,"""",image-keyboard-response,227,486739,0.0-227.0,"""",jspsych/neutralFaces/AF04NES.JPG,"""",256,Cue,Test,null,16,"""","""","""","""","""","""","""","""",1,4/25/2021 3:31,68.101.149.61,Mozilla/5.0 (Macintosh; Intel Mac OS X 10.13; rv:87.0) Gecko/20100101 Firefox/87.0,Macintosh,Firefox,87,OS X,10.13
130,1,null,"""",image-keyboard-response,228,486848,0.0-228.0,"""",jspsych/neutralFaces/BF30NES.JPG,"""",256,backwardMask,Test,null,100,"""","""","""","""","""","""","""","""",1,4/25/2021 3:31,68.101.149.61,Mozilla/5.0 (Macintosh; Intel Mac OS X 10.13; rv:87.0) Gecko/20100101 Firefox/87.0,Macintosh,Firefox,87,OS X,10.13
130,1,null,"""",html-keyboard-response,229,487853,0.0-229.0,"""","<div style=""font-size:60px;"">+</div>","""",256,fixationBtwnNeutralMaskAndPrompt,Test,null,1000,"""","""","""","""","""","""","""","""",1,4/25/2021 3:31,68.101.149.61,Mozilla/5.0 (Macintosh; Intel Mac OS X 10.13; rv:87.0) Gecko/20100101 Firefox/87.0,Macintosh,Firefox,87,OS X,10.13
130,1,1886,"""",html-button-response,230,489743,0.0-230.0,"""","<img src='jspsych/CFDfaces/CFD-WF-207-014-N.jpg' height=""250px"">,</br><b>Emily</b>",1,256,IntactOrRearranged,Test,"""","""","""","""",CFD-LF-206-078-N.jpg,Rebecca,1,1,"""","""",1,4/25/2021 3:31,68.101.149.61,Mozilla/5.0 (Macintosh; Intel Mac OS X 10.13; rv:87.0) Gecko/20100101 Firefox/87.0,Macintosh,Firefox,87,OS X,10.13
130,1,1951,"""",html-slider-response,231,491705,0.0-231.0,"""","<img src='jspsych/CFDfaces/CFD-WF-207-014-N.jpg' height=""250px"">,</br><b>Emily</b>","""",256,ConfidenceQuery,Test,"""","""","""","""",CFD-LF-206-078-N.jpg,Rebecca,1,"""",0,51,1,4/25/2021 3:31,68.101.149.61,Mozilla/5.0 (Macintosh; Intel Mac OS X 10.13; rv:87.0) Gecko/20100101 Firefox/87.0,Macintosh,Firefox,87,OS X,10.13
130,1,null,"""",html-keyboard-response,232,492713,0.0-232.0,"""","<div style=""font-size:60px;"">+</div>","""",256,ITI,Test,null,1000,"""","""","""","""","""","""","""","""",1,4/25/2021 3:31,68.101.149.61,Mozilla/5.0 (Macintosh; Intel Mac OS X 10.13; rv:87.0) Gecko/20100101 Firefox/87.0,Macintosh,Firefox,87,OS X,10.13
130,1,null,"""",image-keyboard-response,233,492972,0.0-233.0,"""",jspsych/scrambledDisgustFaces/scrambledAM10DIS.JPG,"""",256,forwardMask,Test,null,250,"""",d,"""","""","""","""","""","""",1,4/25/2021 3:31,68.101.149.61,Mozilla/5.0 (Macintosh; Intel Mac OS X 10.13; rv:87.0) Gecko/20100101 Firefox/87.0,Macintosh,Firefox,87,OS X,10.13
130,1,null,"""",image-keyboard-response,234,492995,0.0-234.0,"""",jspsych/disgustFaces/AM10DIS.JPG,"""",256,Cue,Test,null,16,"""","""","""","""","""","""","""","""",1,4/25/2021 3:31,68.101.149.61,Mozilla/5.0 (Macintosh; Intel Mac OS X 10.13; rv:87.0) Gecko/20100101 Firefox/87.0,Macintosh,Firefox,87,OS X,10.13
130,1,null,"""",image-keyboard-response,235,493101,0.0-235.0,"""",jspsych/neutralFaces/BM07NES.JPG,"""",256,backwardMask,Test,null,100,"""","""","""","""","""","""","""","""",1,4/25/2021 3:31,68.101.149.61,Mozilla/5.0 (Macintosh; Intel Mac OS X 10.13; rv:87.0) Gecko/20100101 Firefox/87.0,Macintosh,Firefox,87,OS X,10.13
130,1,null,"""",html-keyboard-response,236,480947,0.0-236.0,"""","<div style=""font-size:60px;"">+</div>","""",256,fixationBtwnNeutralMaskAndPrompt,Test,null,1000,"""","""","""","""","""","""","""","""",1,4/25/2021 3:31,68.101.149.61,Mozilla/5.0 (Macintosh; Intel Mac OS X 10.13; rv:87.0) Gecko/20100101 Firefox/87.0,Macintosh,Firefox,87,OS X,10.13
130,1,1940,"""",html-button-response,237,482889,0.0-237.0,"""","<img src='jspsych/CFDfaces/CFD-LF-232-199-N.jpg' height=""250px"">,</br><b>Victoria</b>",1,256,IntactOrRearranged,Test,"""","""","""","""",CFD-AF-220-107-N.jpg,Melissa,1,1,"""","""",1,4/25/2021 3:31,68.101.149.61,Mozilla/5.0 (Macintosh; Intel Mac OS X 10.13; rv:87.0) Gecko/20100101 Firefox/87.0,Macintosh,Firefox,87,OS X,10.13
130,1,1827,"""",html-slider-response,238,484719,0.0-238.0,"""","<img src='jspsych/CFDfaces/CFD-LF-232-199-N.jpg' height=""250px"">,</br><b>Victoria</b>","""",256,ConfidenceQuery,Test,"""","""","""","""",CFD-AF-220-107-N.jpg,Melissa,1,"""",0,41,1,4/25/2021 3:31,68.101.149.61,Mozilla/5.0 (Macintosh; Intel Mac OS X 10.13; rv:87.0) Gecko/20100101 Firefox/87.0,Macintosh,Firefox,87,OS X,10.13
130,1,null,"""",html-keyboard-response,239,485721,0.0-239.0,"""","<div style=""font-size:60px;"">+</div>","""",256,ITI,Test,null,1000,"""","""","""","""","""","""","""","""",1,4/25/2021 3:31,68.101.149.61,Mozilla/5.0 (Macintosh; Intel Mac OS X 10.13; rv:87.0) Gecko/20100101 Firefox/87.0,Macintosh,Firefox,87,OS X,10.13
130,1,null,"""",image-keyboard-response,240,485977,0.0-240.0,"""",jspsych/scrambledDisgustFaces/scrambledBM25DIS.JPG,"""",256,forwardMask,Test,null,250,"""",d,"""","""","""","""","""","""",1,4/25/2021 3:31,68.101.149.61,Mozilla/5.0 (Macintosh; Intel Mac OS X 10.13; rv:87.0) Gecko/20100101 Firefox/87.0,Macintosh,Firefox,87,OS X,10.13
130,1,null,"""",image-keyboard-response,241,485999,0.0-241.0,"""",jspsych/disgustFaces/BM26DIS.JPG,"""",256,Cue,Test,null,16,"""","""","""","""","""","""","""","""",1,4/25/2021 3:31,68.101.149.61,Mozilla/5.0 (Macintosh; Intel Mac OS X 10.13; rv:87.0) Gecko/20100101 Firefox/87.0,Macintosh,Firefox,87,OS X,10.13
130,1,null,"""",image-keyboard-response,242,486107,0.0-242.0,"""",jspsych/neutralFaces/BM34NES.JPG,"""",256,backwardMask,Test,null,100,"""","""","""","""","""","""","""","""",1,4/25/2021 3:31,68.101.149.61,Mozilla/5.0 (Macintosh; Intel Mac OS X 10.13; rv:87.0) Gecko/20100101 Firefox/87.0,Macintosh,Firefox,87,OS X,10.13
130,1,null,"""",html-keyboard-response,243,487109,0.0-243.0,"""","<div style=""font-size:60px;"">+</div>","""",256,fixationBtwnNeutralMaskAndPrompt,Test,null,1000,"""","""","""","""","""","""","""","""",1,4/25/2021 3:31,68.101.149.61,Mozilla/5.0 (Macintosh; Intel Mac OS X 10.13; rv:87.0) Gecko/20100101 Firefox/87.0,Macintosh,Firefox,87,OS X,10.13
130,1,1668,"""",html-button-response,244,488779,0.0-244.0,"""","<img src='jspsych/CFDfaces/CFD-BF-004-014-N.jpg' height=""250px"">,</br><b>Michelle</b>",0,256,IntactOrRearranged,Test,"""","""","""","""",CFD-AF-222-134-N.jpg,Taylor,0,0,"""","""",1,4/25/2021 3:31,68.101.149.61,Mozilla/5.0 (Macintosh; Intel Mac OS X 10.13; rv:87.0) Gecko/20100101 Firefox/87.0,Macintosh,Firefox,87,OS X,10.13
130,1,2048,"""",html-slider-response,245,490830,0.0-245.0,"""","<img src='jspsych/CFDfaces/CFD-BF-004-014-N.jpg' height=""250px"">,</br><b>Michelle</b>","""",256,ConfidenceQuery,Test,"""","""","""","""",CFD-AF-222-134-N.jpg,Taylor,0,"""",0,84,1,4/25/2021 3:31,68.101.149.61,Mozilla/5.0 (Macintosh; Intel Mac OS X 10.13; rv:87.0) Gecko/20100101 Firefox/87.0,Macintosh,Firefox,87,OS X,10.13
130,1,null,"""",html-keyboard-response,246,491837,0.0-246.0,"""","<div style=""font-size:60px;"">+</div>","""",256,ITI,Test,null,1000,"""","""","""","""","""","""","""","""",1,4/25/2021 3:31,68.101.149.61,Mozilla/5.0 (Macintosh; Intel Mac OS X 10.13; rv:87.0) Gecko/20100101 Firefox/87.0,Macintosh,Firefox,87,OS X,10.13
130,1,null,"""",image-keyboard-response,247,492095,0.0-247.0,"""",jspsych/scrambledNeutralFaces/scrambledBF33NES.JPG,"""",256,forwardMask,Test,null,250,"""",n,"""","""","""","""","""","""",1,4/25/2021 3:31,68.101.149.61,Mozilla/5.0 (Macintosh; Intel Mac OS X 10.13; rv:87.0) Gecko/20100101 Firefox/87.0,Macintosh,Firefox,87,OS X,10.13
130,1,null,"""",image-keyboard-response,248,492120,0.0-248.0,"""",jspsych/neutralFaces/BF33NES.JPG,"""",256,Cue,Test,null,16,"""","""","""","""","""","""","""","""",1,4/25/2021 3:31,68.101.149.61,Mozilla/5.0 (Macintosh; Intel Mac OS X 10.13; rv:87.0) Gecko/20100101 Firefox/87.0,Macintosh,Firefox,87,OS X,10.13
130,1,null,"""",image-keyboard-response,249,492230,0.0-249.0,"""",jspsych/neutralFaces/AF02NES.JPG,"""",256,backwardMask,Test,null,100,"""","""","""","""","""","""","""","""",1,4/25/2021 3:31,68.101.149.61,Mozilla/5.0 (Macintosh; Intel Mac OS X 10.13; rv:87.0) Gecko/20100101 Firefox/87.0,Macintosh,Firefox,87,OS X,10.13
130,1,null,"""",html-keyboard-response,250,493234,0.0-250.0,"""","<div style=""font-size:60px;"">+</div>","""",256,fixationBtwnNeutralMaskAndPrompt,Test,null,1000,"""","""","""","""","""","""","""","""",1,4/25/2021 3:31,68.101.149.61,Mozilla/5.0 (Macintosh; Intel Mac OS X 10.13; rv:87.0) Gecko/20100101 Firefox/87.0,Macintosh,Firefox,87,OS X,10.13
130,1,1509,"""",html-button-response,251,494743,0.0-251.0,"""","<img src='jspsych/CFDfaces/CFD-LM-234-176-N.jpg' height=""250px"">,</br><b>Brandon</b>",0,256,IntactOrRearranged,Test,"""","""","""","""",CFD-WF-019-005-N.jpg,Jasmine,0,0,"""","""",1,4/25/2021 3:31,68.101.149.61,Mozilla/5.0 (Macintosh; Intel Mac OS X 10.13; rv:87.0) Gecko/20100101 Firefox/87.0,Macintosh,Firefox,87,OS X,10.13
130,1,2001,"""",html-slider-response,252,496746,0.0-252.0,"""","<img src='jspsych/CFDfaces/CFD-LM-234-176-N.jpg' height=""250px"">,</br><b>Brandon</b>","""",256,ConfidenceQuery,Test,"""","""","""","""",CFD-WF-019-005-N.jpg,Jasmine,0,"""",0,88,1,4/25/2021 3:31,68.101.149.61,Mozilla/5.0 (Macintosh; Intel Mac OS X 10.13; rv:87.0) Gecko/20100101 Firefox/87.0,Macintosh,Firefox,87,OS X,10.13
130,1,null,"""",html-keyboard-response,253,497761,0.0-253.0,"""","<div style=""font-size:60px;"">+</div>","""",256,ITI,Test,null,1000,"""","""","""","""","""","""","""","""",1,4/25/2021 3:31,68.101.149.61,Mozilla/5.0 (Macintosh; Intel Mac OS X 10.13; rv:87.0) Gecko/20100101 Firefox/87.0,Macintosh,Firefox,87,OS X,10.13
130,1,null,"""",image-keyboard-response,254,498017,0.0-254.0,"""",jspsych/scrambledDisgustFaces/scrambledBF13DIS.JPG,"""",256,forwardMask,Test,null,250,"""",d,"""","""","""","""","""","""",1,4/25/2021 3:31,68.101.149.61,Mozilla/5.0 (Macintosh; Intel Mac OS X 10.13; rv:87.0) Gecko/20100101 Firefox/87.0,Macintosh,Firefox,87,OS X,10.13
130,1,null,"""",image-keyboard-response,255,498039,0.0-255.0,"""",jspsych/disgustFaces/BF13DIS.JPG,"""",256,Cue,Test,null,16,"""","""","""","""","""","""","""","""",1,4/25/2021 3:31,68.101.149.61,Mozilla/5.0 (Macintosh; Intel Mac OS X 10.13; rv:87.0) Gecko/20100101 Firefox/87.0,Macintosh,Firefox,87,OS X,10.13
130,1,null,"""",image-keyboard-response,256,498150,0.0-256.0,"""",jspsych/neutralFaces/AF23NES.JPG,"""",256,backwardMask,Test,null,100,"""","""","""","""","""","""","""","""",1,4/25/2021 3:31,68.101.149.61,Mozilla/5.0 (Macintosh; Intel Mac OS X 10.13; rv:87.0) Gecko/20100101 Firefox/87.0,Macintosh,Firefox,87,OS X,10.13
130,1,null,"""",html-keyboard-response,257,499154,0.0-257.0,"""","<div style=""font-size:60px;"">+</div>","""",256,fixationBtwnNeutralMaskAndPrompt,Test,null,1000,"""","""","""","""","""","""","""","""",1,4/25/2021 3:31,68.101.149.61,Mozilla/5.0 (Macintosh; Intel Mac OS X 10.13; rv:87.0) Gecko/20100101 Firefox/87.0,Macintosh,Firefox,87,OS X,10.13
130,1,1735,"""",html-button-response,258,500892,0.0-258.0,"""","<img src='jspsych/CFDfaces/CFD-LM-224-162-N.jpg' height=""250px"">,</br><b>Daniel</b>",1,256,IntactOrRearranged,Test,"""","""","""","""",CFD-BM-018-001-N.jpg,Dustin,1,1,"""","""",1,4/25/2021 3:31,68.101.149.61,Mozilla/5.0 (Macintosh; Intel Mac OS X 10.13; rv:87.0) Gecko/20100101 Firefox/87.0,Macintosh,Firefox,87,OS X,10.13
130,1,1605,"""",html-slider-response,259,502498,0.0-259.0,"""","<img src='jspsych/CFDfaces/CFD-LM-224-162-N.jpg' height=""250px"">,</br><b>Daniel</b>","""",256,ConfidenceQuery,Test,"""","""","""","""",CFD-BM-018-001-N.jpg,Dustin,1,"""",0,76,1,4/25/2021 3:31,68.101.149.61,Mozilla/5.0 (Macintosh; Intel Mac OS X 10.13; rv:87.0) Gecko/20100101 Firefox/87.0,Macintosh,Firefox,87,OS X,10.13
130,1,null,"""",html-keyboard-response,260,503513,0.0-260.0,"""","<div style=""font-size:60px;"">+</div>","""",256,ITI,Test,null,1000,"""","""","""","""","""","""","""","""",1,4/25/2021 3:31,68.101.149.61,Mozilla/5.0 (Macintosh; Intel Mac OS X 10.13; rv:87.0) Gecko/20100101 Firefox/87.0,Macintosh,Firefox,87,OS X,10.13
130,1,null,"""",image-keyboard-response,261,503769,0.0-261.0,"""",jspsych/scrambledDisgustFaces/scrambledAM03DIS.JPG,"""",256,forwardMask,Test,null,250,"""",d,"""","""","""","""","""","""",1,4/25/2021 3:31,68.101.149.61,Mozilla/5.0 (Macintosh; Intel Mac OS X 10.13; rv:87.0) Gecko/20100101 Firefox/87.0,Macintosh,Firefox,87,OS X,10.13
130,1,null,"""",image-keyboard-response,262,503792,0.0-262.0,"""",jspsych/disgustFaces/AM03DIS.JPG,"""",256,Cue,Test,null,16,"""","""","""","""","""","""","""","""",1,4/25/2021 3:31,68.101.149.61,Mozilla/5.0 (Macintosh; Intel Mac OS X 10.13; rv:87.0) Gecko/20100101 Firefox/87.0,Macintosh,Firefox,87,OS X,10.13
130,1,null,"""",image-keyboard-response,263,503899,0.0-263.0,"""",jspsych/neutralFaces/AM13NES.JPG,"""",256,backwardMask,Test,null,100,"""","""","""","""","""","""","""","""",1,4/25/2021 3:31,68.101.149.61,Mozilla/5.0 (Macintosh; Intel Mac OS X 10.13; rv:87.0) Gecko/20100101 Firefox/87.0,Macintosh,Firefox,87,OS X,10.13
130,1,null,"""",html-keyboard-response,264,504903,0.0-264.0,"""","<div style=""font-size:60px;"">+</div>","""",256,fixationBtwnNeutralMaskAndPrompt,Test,null,1000,"""","""","""","""","""","""","""","""",1,4/25/2021 3:31,68.101.149.61,Mozilla/5.0 (Macintosh; Intel Mac OS X 10.13; rv:87.0) Gecko/20100101 Firefox/87.0,Macintosh,Firefox,87,OS X,10.13
130,1,3534,"""",html-button-response,265,508440,0.0-265.0,"""","<img src='jspsych/CFDfaces/CFD-LF-236-221-N.jpg' height=""250px"">,</br><b>Meghan</b>",0,256,IntactOrRearranged,Test,"""","""","""","""",CFD-WM-003-002-N.jpg,Justin,0,0,"""","""",1,4/25/2021 3:31,68.101.149.61,Mozilla/5.0 (Macintosh; Intel Mac OS X 10.13; rv:87.0) Gecko/20100101 Firefox/87.0,Macintosh,Firefox,87,OS X,10.13
130,1,1461,"""",html-slider-response,266,509914,0.0-266.0,"""","<img src='jspsych/CFDfaces/CFD-LF-236-221-N.jpg' height=""250px"">,</br><b>Meghan</b>","""",256,ConfidenceQuery,Test,"""","""","""","""",CFD-WM-003-002-N.jpg,Justin,0,"""",0,69,1,4/25/2021 3:31,68.101.149.61,Mozilla/5.0 (Macintosh; Intel Mac OS X 10.13; rv:87.0) Gecko/20100101 Firefox/87.0,Macintosh,Firefox,87,OS X,10.13
130,1,null,"""",html-keyboard-response,267,510919,0.0-267.0,"""","<div style=""font-size:60px;"">+</div>","""",256,ITI,Test,null,1000,"""","""","""","""","""","""","""","""",1,4/25/2021 3:31,68.101.149.61,Mozilla/5.0 (Macintosh; Intel Mac OS X 10.13; rv:87.0) Gecko/20100101 Firefox/87.0,Macintosh,Firefox,87,OS X,10.13
130,1,null,"""",image-keyboard-response,268,511177,0.0-268.0,"""",jspsych/scrambledDisgustFaces/scrambledBM11DIS.JPG,"""",256,forwardMask,Test,null,250,"""",d,"""","""","""","""","""","""",1,4/25/2021 3:31,68.101.149.61,Mozilla/5.0 (Macintosh; Intel Mac OS X 10.13; rv:87.0) Gecko/20100101 Firefox/87.0,Macintosh,Firefox,87,OS X,10.13
130,1,null,"""",image-keyboard-response,269,511201,0.0-269.0,"""",jspsych/disgustFaces/BM12DIS.JPG,"""",256,Cue,Test,null,16,"""","""","""","""","""","""","""","""",1,4/25/2021 3:31,68.101.149.61,Mozilla/5.0 (Macintosh; Intel Mac OS X 10.13; rv:87.0) Gecko/20100101 Firefox/87.0,Macintosh,Firefox,87,OS X,10.13
130,1,null,"""",image-keyboard-response,270,511311,0.0-270.0,"""",jspsych/neutralFaces/AM03NES.JPG,"""",256,backwardMask,Test,null,100,"""","""","""","""","""","""","""","""",1,4/25/2021 3:31,68.101.149.61,Mozilla/5.0 (Macintosh; Intel Mac OS X 10.13; rv:87.0) Gecko/20100101 Firefox/87.0,Macintosh,Firefox,87,OS X,10.13
130,1,null,"""",html-keyboard-response,271,512314,0.0-271.0,"""","<div style=""font-size:60px;"">+</div>","""",256,fixationBtwnNeutralMaskAndPrompt,Test,null,1000,"""","""","""","""","""","""","""","""",1,4/25/2021 3:31,68.101.149.61,Mozilla/5.0 (Macintosh; Intel Mac OS X 10.13; rv:87.0) Gecko/20100101 Firefox/87.0,Macintosh,Firefox,87,OS X,10.13
130,1,1869,"""",html-button-response,272,514185,0.0-272.0,"""","<img src='jspsych/CFDfaces/CFD-AM-246-184-N.jpg' height=""250px"">,</br><b>Christian</b>",1,256,IntactOrRearranged,Test,"""","""","""","""",CFD-LM-225-130-N.jpg,Kenneth,1,1,"""","""",1,4/25/2021 3:31,68.101.149.61,Mozilla/5.0 (Macintosh; Intel Mac OS X 10.13; rv:87.0) Gecko/20100101 Firefox/87.0,Macintosh,Firefox,87,OS X,10.13
130,1,1843,"""",html-slider-response,273,516041,0.0-273.0,"""","<img src='jspsych/CFDfaces/CFD-AM-246-184-N.jpg' height=""250px"">,</br><b>Christian</b>","""",256,ConfidenceQuery,Test,"""","""","""","""",CFD-LM-225-130-N.jpg,Kenneth,1,"""",0,23,1,4/25/2021 3:31,68.101.149.61,Mozilla/5.0 (Macintosh; Intel Mac OS X 10.13; rv:87.0) Gecko/20100101 Firefox/87.0,Macintosh,Firefox,87,OS X,10.13
130,1,null,"""",html-keyboard-response,274,517048,0.0-274.0,"""","<div style=""font-size:60px;"">+</div>","""",256,ITI,Test,null,1000,"""","""","""","""","""","""","""","""",1,4/25/2021 3:31,68.101.149.61,Mozilla/5.0 (Macintosh; Intel Mac OS X 10.13; rv:87.0) Gecko/20100101 Firefox/87.0,Macintosh,Firefox,87,OS X,10.13
130,1,null,"""",image-keyboard-response,275,517307,0.0-275.0,"""",jspsych/scrambledDisgustFaces/scrambledBF11DIS.JPG,"""",256,forwardMask,Test,null,250,"""",d,"""","""","""","""","""","""",1,4/25/2021 3:31,68.101.149.61,Mozilla/5.0 (Macintosh; Intel Mac OS X 10.13; rv:87.0) Gecko/20100101 Firefox/87.0,Macintosh,Firefox,87,OS X,10.13
130,1,null,"""",image-keyboard-response,276,517330,0.0-276.0,"""",jspsych/disgustFaces/BF11DIS.JPG,"""",256,Cue,Test,null,16,"""","""","""","""","""","""","""","""",1,4/25/2021 3:31,68.101.149.61,Mozilla/5.0 (Macintosh; Intel Mac OS X 10.13; rv:87.0) Gecko/20100101 Firefox/87.0,Macintosh,Firefox,87,OS X,10.13
130,1,null,"""",image-keyboard-response,277,517435,0.0-277.0,"""",jspsych/neutralFaces/BF08NES.JPG,"""",256,backwardMask,Test,null,100,"""","""","""","""","""","""","""","""",1,4/25/2021 3:31,68.101.149.61,Mozilla/5.0 (Macintosh; Intel Mac OS X 10.13; rv:87.0) Gecko/20100101 Firefox/87.0,Macintosh,Firefox,87,OS X,10.13
130,1,null,"""",html-keyboard-response,278,518439,0.0-278.0,"""","<div style=""font-size:60px;"">+</div>","""",256,fixationBtwnNeutralMaskAndPrompt,Test,null,1000,"""","""","""","""","""","""","""","""",1,4/25/2021 3:31,68.101.149.61,Mozilla/5.0 (Macintosh; Intel Mac OS X 10.13; rv:87.0) Gecko/20100101 Firefox/87.0,Macintosh,Firefox,87,OS X,10.13
130,1,2014,"""",html-button-response,279,520454,0.0-279.0,"""","<img src='jspsych/CFDfaces/CFD-LF-200-058-N.jpg' height=""250px"">,</br><b>Kimberly</b>",1,256,IntactOrRearranged,Test,"""","""","""","""",CFD-BF-021-013-N.jpg,Heather,1,1,"""","""",1,4/25/2021 3:31,68.101.149.61,Mozilla/5.0 (Macintosh; Intel Mac OS X 10.13; rv:87.0) Gecko/20100101 Firefox/87.0,Macintosh,Firefox,87,OS X,10.13
130,1,3283,"""",html-slider-response,280,523748,0.0-280.0,"""","<img src='jspsych/CFDfaces/CFD-LF-200-058-N.jpg' height=""250px"">,</br><b>Kimberly</b>","""",256,ConfidenceQuery,Test,"""","""","""","""",CFD-BF-021-013-N.jpg,Heather,1,"""",0,24,1,4/25/2021 3:31,68.101.149.61,Mozilla/5.0 (Macintosh; Intel Mac OS X 10.13; rv:87.0) Gecko/20100101 Firefox/87.0,Macintosh,Firefox,87,OS X,10.13
130,1,null,"""",html-keyboard-response,281,524753,0.0-281.0,"""","<div style=""font-size:60px;"">+</div>","""",256,ITI,Test,null,1000,"""","""","""","""","""","""","""","""",1,4/25/2021 3:31,68.101.149.61,Mozilla/5.0 (Macintosh; Intel Mac OS X 10.13; rv:87.0) Gecko/20100101 Firefox/87.0,Macintosh,Firefox,87,OS X,10.13
130,1,null,"""",image-keyboard-response,282,525011,0.0-282.0,"""",jspsych/scrambledDisgustFaces/scrambledAF31DIS.JPG,"""",256,forwardMask,Test,null,250,"""",d,"""","""","""","""","""","""",1,4/25/2021 3:31,68.101.149.61,Mozilla/5.0 (Macintosh; Intel Mac OS X 10.13; rv:87.0) Gecko/20100101 Firefox/87.0,Macintosh,Firefox,87,OS X,10.13
130,1,null,"""",image-keyboard-response,283,525033,0.0-283.0,"""",jspsych/disgustFaces/AF31DIS.JPG,"""",256,Cue,Test,null,16,"""","""","""","""","""","""","""","""",1,4/25/2021 3:31,68.101.149.61,Mozilla/5.0 (Macintosh; Intel Mac OS X 10.13; rv:87.0) Gecko/20100101 Firefox/87.0,Macintosh,Firefox,87,OS X,10.13
130,1,null,"""",image-keyboard-response,284,525144,0.0-284.0,"""",jspsych/neutralFaces/AF08NES.JPG,"""",256,backwardMask,Test,null,100,"""","""","""","""","""","""","""","""",1,4/25/2021 3:31,68.101.149.61,Mozilla/5.0 (Macintosh; Intel Mac OS X 10.13; rv:87.0) Gecko/20100101 Firefox/87.0,Macintosh,Firefox,87,OS X,10.13
130,1,null,"""",html-keyboard-response,285,526150,0.0-285.0,"""","<div style=""font-size:60px;"">+</div>","""",256,fixationBtwnNeutralMaskAndPrompt,Test,null,1000,"""","""","""","""","""","""","""","""",1,4/25/2021 3:31,68.101.149.61,Mozilla/5.0 (Macintosh; Intel Mac OS X 10.13; rv:87.0) Gecko/20100101 Firefox/87.0,Macintosh,Firefox,87,OS X,10.13
