run_id,condition,rt,responses,trial_type,trial_index,time_elapsed,internal_node_id,question_order,stimulus,button_pressed,iTrial,Phase,ExperimentPhase,key_press,StimulusDurationSetting,CharacterResponse,correctResponse,Face,Name,rearranged,didSubjectEnterRearranged,slider_start,response,Block,recorded_at,ip,user_agent,device,browser,browser_version,platform,platform_version
249,1,6930,"{""Q0"":""A16AQAXVYIXJT5""}",survey-text,0,6936,0.0-0.0,"""","""","""","""","""","""","""","""","""","""","""","""","""","""","""","""","""",5/3/2021 23:02,128.227.115.94,Mozilla/5.0 (Macintosh; Intel Mac OS X 10.13; rv:87.0) Gecko/20100101 Firefox/87.0,Macintosh,Firefox,87,OS X,10.13
249,1,3130,"{""Q0"":""25""}",survey-text,1,10078,0.0-1.0,"""","""","""","""","""","""","""","""","""","""","""","""","""","""","""","""","""",5/3/2021 23:02,128.227.115.94,Mozilla/5.0 (Macintosh; Intel Mac OS X 10.13; rv:87.0) Gecko/20100101 Firefox/87.0,Macintosh,Firefox,87,OS X,10.13
249,1,3780,"{""Q0"":""female"",""Q1"":""Hispanic/Latino"",""Q2"":""White or Caucasian""}",survey-multi-choice,2,13862,0.0-2.0,"[0,1,2]","""","""","""","""","""","""","""","""","""","""","""","""","""","""","""","""",5/3/2021 23:02,128.227.115.94,Mozilla/5.0 (Macintosh; Intel Mac OS X 10.13; rv:87.0) Gecko/20100101 Firefox/87.0,Macintosh,Firefox,87,OS X,10.13
249,1,12799,"""",image-button-response,3,26679,0.0-3.0,"""",directionsMemoryAssociation1.JPG,0,1,IntroDirections1,break,"""","""","""","""","""","""","""","""","""","""","""",5/3/2021 23:02,128.227.115.94,Mozilla/5.0 (Macintosh; Intel Mac OS X 10.13; rv:87.0) Gecko/20100101 Firefox/87.0,Macintosh,Firefox,87,OS X,10.13
249,1,6238,"""",image-button-response,4,32930,0.0-4.0,"""",directionsMemoryAssociation2.JPG,0,1,IntroDirections2,break,"""","""","""","""","""","""","""","""","""","""","""",5/3/2021 23:02,128.227.115.94,Mozilla/5.0 (Macintosh; Intel Mac OS X 10.13; rv:87.0) Gecko/20100101 Firefox/87.0,Macintosh,Firefox,87,OS X,10.13
249,1,null,"""",html-keyboard-response,5,37940,0.0-5.0,"""","<img src='jspsych/CFDfaces/CFD-BF-201-080-N.jpg' height=""250px"">,</br><b>Katelyn</b>","""",1,IntactFace,Practice,null,5000,"""","""","""","""","""","""","""","""","""",5/3/2021 23:02,128.227.115.94,Mozilla/5.0 (Macintosh; Intel Mac OS X 10.13; rv:87.0) Gecko/20100101 Firefox/87.0,Macintosh,Firefox,87,OS X,10.13
249,1,null,"""",html-keyboard-response,6,38445,0.0-6.0,"""","<div style=""font-size:60px;"">+</div>","""",1,ITI,Practice,null,1000,"""","""","""","""","""","""","""","""","""",5/3/2021 23:02,128.227.115.94,Mozilla/5.0 (Macintosh; Intel Mac OS X 10.13; rv:87.0) Gecko/20100101 Firefox/87.0,Macintosh,Firefox,87,OS X,10.13
249,1,2571,"""",html-keyboard-response,7,43450,0.0-7.0,"""","<img src='jspsych/CFDfaces/CFD-WF-018-017-N.jpg' height=""250px"">,</br><b>Cassandra</b>","""",2,IntactFace,Practice,70,5000,f,"""","""","""","""","""","""","""","""",5/3/2021 23:02,128.227.115.94,Mozilla/5.0 (Macintosh; Intel Mac OS X 10.13; rv:87.0) Gecko/20100101 Firefox/87.0,Macintosh,Firefox,87,OS X,10.13
249,1,null,"""",html-keyboard-response,8,43951,0.0-8.0,"""","<div style=""font-size:60px;"">+</div>","""",2,ITI,Practice,null,1000,"""","""","""","""","""","""","""","""","""",5/3/2021 23:02,128.227.115.94,Mozilla/5.0 (Macintosh; Intel Mac OS X 10.13; rv:87.0) Gecko/20100101 Firefox/87.0,Macintosh,Firefox,87,OS X,10.13
249,1,2848,"""",html-keyboard-response,9,48960,0.0-9.0,"""","<img src='jspsych/CFDfaces/CFD-LM-223-175-N.jpg' height=""250px"">,</br><b>Samuel</b>","""",3,IntactFace,Practice,78,5000,n,"""","""","""","""","""","""","""","""",5/3/2021 23:02,128.227.115.94,Mozilla/5.0 (Macintosh; Intel Mac OS X 10.13; rv:87.0) Gecko/20100101 Firefox/87.0,Macintosh,Firefox,87,OS X,10.13
249,1,null,"""",html-keyboard-response,10,49464,0.0-10.0,"""","<div style=""font-size:60px;"">+</div>","""",3,ITI,Practice,null,1000,"""","""","""","""","""","""","""","""","""",5/3/2021 23:02,128.227.115.94,Mozilla/5.0 (Macintosh; Intel Mac OS X 10.13; rv:87.0) Gecko/20100101 Firefox/87.0,Macintosh,Firefox,87,OS X,10.13
249,1,2415,"""",html-keyboard-response,11,54470,0.0-11.0,"""","<img src='jspsych/CFDfaces/CFD-BM-011-016-N.jpg' height=""250px"">,</br><b>Carlos</b>","""",4,IntactFace,Practice,78,5000,n,"""","""","""","""","""","""","""","""",5/3/2021 23:02,128.227.115.94,Mozilla/5.0 (Macintosh; Intel Mac OS X 10.13; rv:87.0) Gecko/20100101 Firefox/87.0,Macintosh,Firefox,87,OS X,10.13
249,1,null,"""",html-keyboard-response,12,54977,0.0-12.0,"""","<div style=""font-size:60px;"">+</div>","""",4,ITI,Practice,null,1000,"""","""","""","""","""","""","""","""","""",5/3/2021 23:02,128.227.115.94,Mozilla/5.0 (Macintosh; Intel Mac OS X 10.13; rv:87.0) Gecko/20100101 Firefox/87.0,Macintosh,Firefox,87,OS X,10.13
249,1,1567,"""",html-keyboard-response,13,59981,0.0-13.0,"""","<img src='jspsych/CFDfaces/CFD-BF-226-119-N.jpg' height=""250px"">,</br><b>Shannon</b>","""",5,IntactFace,Practice,70,5000,f,"""","""","""","""","""","""","""","""",5/3/2021 23:02,128.227.115.94,Mozilla/5.0 (Macintosh; Intel Mac OS X 10.13; rv:87.0) Gecko/20100101 Firefox/87.0,Macintosh,Firefox,87,OS X,10.13
249,1,null,"""",html-keyboard-response,14,60487,0.0-14.0,"""","<div style=""font-size:60px;"">+</div>","""",5,ITI,Practice,null,1000,"""","""","""","""","""","""","""","""","""",5/3/2021 23:02,128.227.115.94,Mozilla/5.0 (Macintosh; Intel Mac OS X 10.13; rv:87.0) Gecko/20100101 Firefox/87.0,Macintosh,Firefox,87,OS X,10.13
249,1,1890,"""",html-keyboard-response,15,65494,0.0-15.0,"""","<img src='jspsych/CFDfaces/CFD-WM-019-003-N.jpg' height=""250px"">,</br><b>Marcus</b>","""",6,IntactFace,Practice,70,5000,f,"""","""","""","""","""","""","""","""",5/3/2021 23:02,128.227.115.94,Mozilla/5.0 (Macintosh; Intel Mac OS X 10.13; rv:87.0) Gecko/20100101 Firefox/87.0,Macintosh,Firefox,87,OS X,10.13
249,1,null,"""",html-keyboard-response,16,65997,0.0-16.0,"""","<div style=""font-size:60px;"">+</div>","""",6,ITI,Practice,null,1000,"""","""","""","""","""","""","""","""","""",5/3/2021 23:02,128.227.115.94,Mozilla/5.0 (Macintosh; Intel Mac OS X 10.13; rv:87.0) Gecko/20100101 Firefox/87.0,Macintosh,Firefox,87,OS X,10.13
249,1,2112,"""",html-keyboard-response,17,71004,0.0-17.0,"""","<img src='jspsych/CFDfaces/CFD-WM-213-076-N.jpg' height=""250px"">,</br><b>Patrick</b>","""",7,IntactFace,Practice,78,5000,n,"""","""","""","""","""","""","""","""",5/3/2021 23:02,128.227.115.94,Mozilla/5.0 (Macintosh; Intel Mac OS X 10.13; rv:87.0) Gecko/20100101 Firefox/87.0,Macintosh,Firefox,87,OS X,10.13
249,1,null,"""",html-keyboard-response,18,71509,0.0-18.0,"""","<div style=""font-size:60px;"">+</div>","""",7,ITI,Practice,null,1000,"""","""","""","""","""","""","""","""","""",5/3/2021 23:02,128.227.115.94,Mozilla/5.0 (Macintosh; Intel Mac OS X 10.13; rv:87.0) Gecko/20100101 Firefox/87.0,Macintosh,Firefox,87,OS X,10.13
249,1,3095,"""",html-keyboard-response,19,76516,0.0-19.0,"""","<img src='jspsych/CFDfaces/CFD-AF-228-173-N.jpg' height=""250px"">,</br><b>Tara</b>","""",8,IntactFace,Practice,70,5000,f,"""","""","""","""","""","""","""","""",5/3/2021 23:02,128.227.115.94,Mozilla/5.0 (Macintosh; Intel Mac OS X 10.13; rv:87.0) Gecko/20100101 Firefox/87.0,Macintosh,Firefox,87,OS X,10.13
249,1,null,"""",html-keyboard-response,20,77020,0.0-20.0,"""","<div style=""font-size:60px;"">+</div>","""",8,ITI,Practice,null,1000,"""","""","""","""","""","""","""","""","""",5/3/2021 23:02,128.227.115.94,Mozilla/5.0 (Macintosh; Intel Mac OS X 10.13; rv:87.0) Gecko/20100101 Firefox/87.0,Macintosh,Firefox,87,OS X,10.13
249,1,36268,"""",image-button-response,21,113301,0.0-21.0,"""",directionsForTest.JPG,0,1,directionsForTest,break,"""","""","""","""","""","""","""","""","""","""","""",5/3/2021 23:02,128.227.115.94,Mozilla/5.0 (Macintosh; Intel Mac OS X 10.13; rv:87.0) Gecko/20100101 Firefox/87.0,Macintosh,Firefox,87,OS X,10.13
249,1,7750,"""",image-button-response,22,121063,0.0-22.0,"""",directionsForTest2.JPG,0,1,directionsForTest2,break,"""","""","""","""","""","""","""","""","""","""","""",5/3/2021 23:02,128.227.115.94,Mozilla/5.0 (Macintosh; Intel Mac OS X 10.13; rv:87.0) Gecko/20100101 Firefox/87.0,Macintosh,Firefox,87,OS X,10.13
249,1,null,"""",html-keyboard-response,23,122069,0.0-23.0,"""","<div style=""font-size:60px;"">+</div>","""",1,ITI,Practice,null,1000,"""","""","""","""","""","""","""","""","""",5/3/2021 23:02,128.227.115.94,Mozilla/5.0 (Macintosh; Intel Mac OS X 10.13; rv:87.0) Gecko/20100101 Firefox/87.0,Macintosh,Firefox,87,OS X,10.13
249,1,null,"""",image-keyboard-response,24,122331,0.0-24.0,"""",jspsych/scrambledDisgustFaces/scrambledAF35DIS.JPG,"""",1,forwardMask,Practice,null,250,"""",d,"""","""","""","""","""","""","""",5/3/2021 23:02,128.227.115.94,Mozilla/5.0 (Macintosh; Intel Mac OS X 10.13; rv:87.0) Gecko/20100101 Firefox/87.0,Macintosh,Firefox,87,OS X,10.13
249,1,null,"""",image-keyboard-response,25,122352,0.0-25.0,"""",jspsych/disgustFaces/AF35DIS.JPG,"""",1,Cue,Practice,null,16,"""","""","""","""","""","""","""","""","""",5/3/2021 23:02,128.227.115.94,Mozilla/5.0 (Macintosh; Intel Mac OS X 10.13; rv:87.0) Gecko/20100101 Firefox/87.0,Macintosh,Firefox,87,OS X,10.13
249,1,null,"""",image-keyboard-response,26,122461,0.0-26.0,"""",jspsych/neutralFaces/AF20NES.JPG,"""",1,backwardMask,Practice,null,100,"""","""","""","""","""","""","""","""","""",5/3/2021 23:02,128.227.115.94,Mozilla/5.0 (Macintosh; Intel Mac OS X 10.13; rv:87.0) Gecko/20100101 Firefox/87.0,Macintosh,Firefox,87,OS X,10.13
249,1,null,"""",html-keyboard-response,27,123463,0.0-27.0,"""","<div style=""font-size:60px;"">+</div>","""",1,fixationBtwnNeutralMaskAndPrompt,Practice,null,1000,"""","""","""","""","""","""","""","""","""",5/3/2021 23:02,128.227.115.94,Mozilla/5.0 (Macintosh; Intel Mac OS X 10.13; rv:87.0) Gecko/20100101 Firefox/87.0,Macintosh,Firefox,87,OS X,10.13
249,1,1802,"""",html-button-response,28,125269,0.0-28.0,"""","<img src='jspsych/CFDfaces/CFD-BF-226-119-N.jpg'height=""250px""></br><b>Shannon</b>",0,1,IntactOrRearranged,Practice,"""","""","""","""",CFD-BF-226-119-N.jpg,Shannon,0,0,"""","""","""",5/3/2021 23:02,128.227.115.94,Mozilla/5.0 (Macintosh; Intel Mac OS X 10.13; rv:87.0) Gecko/20100101 Firefox/87.0,Macintosh,Firefox,87,OS X,10.13
249,1,2669,"""",html-slider-response,29,127943,0.0-29.0,"""","<img src='jspsych/CFDfaces/CFD-BF-226-119-N.jpg'height=""250px""></br><b>Shannon</b>","""",1,ConfidenceQuery,Practice,"""","""","""","""",CFD-LF-208-127-N.jpg,Heather,0,"""",0,100,"""",5/3/2021 23:02,128.227.115.94,Mozilla/5.0 (Macintosh; Intel Mac OS X 10.13; rv:87.0) Gecko/20100101 Firefox/87.0,Macintosh,Firefox,87,OS X,10.13
249,1,1708,"""",html-button-response,30,129655,0.0-30.0,"""",You are Correct. You called an Intact Pair Intact,0,1,feedback,Practice,"""","""","""","""","""","""","""","""","""","""","""",5/3/2021 23:02,128.227.115.94,Mozilla/5.0 (Macintosh; Intel Mac OS X 10.13; rv:87.0) Gecko/20100101 Firefox/87.0,Macintosh,Firefox,87,OS X,10.13
249,1,null,"""",html-keyboard-response,31,130661,0.0-31.0,"""","<div style=""font-size:60px;"">+</div>","""",2,ITI,Practice,null,1000,"""","""","""","""","""","""","""","""","""",5/3/2021 23:02,128.227.115.94,Mozilla/5.0 (Macintosh; Intel Mac OS X 10.13; rv:87.0) Gecko/20100101 Firefox/87.0,Macintosh,Firefox,87,OS X,10.13
249,1,null,"""",image-keyboard-response,32,130918,0.0-32.0,"""",jspsych/scrambledNeutralFaces/scrambledBF04NES.JPG,"""",2,forwardMask,Practice,null,250,"""",n,"""","""","""","""","""","""","""",5/3/2021 23:02,128.227.115.94,Mozilla/5.0 (Macintosh; Intel Mac OS X 10.13; rv:87.0) Gecko/20100101 Firefox/87.0,Macintosh,Firefox,87,OS X,10.13
249,1,null,"""",image-keyboard-response,33,130940,0.0-33.0,"""",jspsych/neutralFaces/BF04NES.JPG,"""",2,Cue,Practice,null,16,"""","""","""","""","""","""","""","""","""",5/3/2021 23:02,128.227.115.94,Mozilla/5.0 (Macintosh; Intel Mac OS X 10.13; rv:87.0) Gecko/20100101 Firefox/87.0,Macintosh,Firefox,87,OS X,10.13
249,1,null,"""",image-keyboard-response,34,131046,0.0-34.0,"""",jspsych/neutralFaces/AF22NES.JPG,"""",2,backwardMask,Practice,null,100,"""","""","""","""","""","""","""","""","""",5/3/2021 23:02,128.227.115.94,Mozilla/5.0 (Macintosh; Intel Mac OS X 10.13; rv:87.0) Gecko/20100101 Firefox/87.0,Macintosh,Firefox,87,OS X,10.13
249,1,null,"""",html-keyboard-response,35,132052,0.0-35.0,"""","<div style=""font-size:60px;"">+</div>","""",2,fixationBtwnNeutralMaskAndPrompt,Practice,null,1000,"""","""","""","""","""","""","""","""","""",5/3/2021 23:02,128.227.115.94,Mozilla/5.0 (Macintosh; Intel Mac OS X 10.13; rv:87.0) Gecko/20100101 Firefox/87.0,Macintosh,Firefox,87,OS X,10.13
249,1,4323,"""",html-button-response,36,136376,0.0-36.0,"""","<img src='jspsych/CFDfaces/CFD-WF-018-017-N.jpg'height=""250px""></br><b>Katelyn</b>",1,2,IntactOrRearranged,Practice,"""","""","""","""",CFD-WF-018-017-N.jpg,Katelyn,1,1,"""","""","""",5/3/2021 23:02,128.227.115.94,Mozilla/5.0 (Macintosh; Intel Mac OS X 10.13; rv:87.0) Gecko/20100101 Firefox/87.0,Macintosh,Firefox,87,OS X,10.13
249,1,2445,"""",html-slider-response,37,138827,0.0-37.0,"""","<img src='jspsych/CFDfaces/CFD-WF-018-017-N.jpg'height=""250px""></br><b>Katelyn</b>","""",2,ConfidenceQuery,Practice,"""","""","""","""",CFD-LF-208-127-N.jpg,Heather,1,"""",0,86,"""",5/3/2021 23:02,128.227.115.94,Mozilla/5.0 (Macintosh; Intel Mac OS X 10.13; rv:87.0) Gecko/20100101 Firefox/87.0,Macintosh,Firefox,87,OS X,10.13
249,1,1106,"""",html-button-response,38,139934,0.0-38.0,"""",You are Correct. You Called A Rearranged Pair Rearranged,0,2,feedback,Practice,"""","""","""","""","""","""","""","""","""","""","""",5/3/2021 23:02,128.227.115.94,Mozilla/5.0 (Macintosh; Intel Mac OS X 10.13; rv:87.0) Gecko/20100101 Firefox/87.0,Macintosh,Firefox,87,OS X,10.13
249,1,null,"""",html-keyboard-response,39,140938,0.0-39.0,"""","<div style=""font-size:60px;"">+</div>","""",3,ITI,Practice,null,1000,"""","""","""","""","""","""","""","""","""",5/3/2021 23:02,128.227.115.94,Mozilla/5.0 (Macintosh; Intel Mac OS X 10.13; rv:87.0) Gecko/20100101 Firefox/87.0,Macintosh,Firefox,87,OS X,10.13
249,1,null,"""",image-keyboard-response,40,141194,0.0-40.0,"""",jspsych/scrambledNeutralFaces/scrambledBF04NES.JPG,"""",3,forwardMask,Practice,null,250,"""",n,"""","""","""","""","""","""","""",5/3/2021 23:02,128.227.115.94,Mozilla/5.0 (Macintosh; Intel Mac OS X 10.13; rv:87.0) Gecko/20100101 Firefox/87.0,Macintosh,Firefox,87,OS X,10.13
249,1,null,"""",image-keyboard-response,41,141219,0.0-41.0,"""",jspsych/neutralFaces/BF04NES.JPG,"""",3,Cue,Practice,null,16,"""","""","""","""","""","""","""","""","""",5/3/2021 23:02,128.227.115.94,Mozilla/5.0 (Macintosh; Intel Mac OS X 10.13; rv:87.0) Gecko/20100101 Firefox/87.0,Macintosh,Firefox,87,OS X,10.13
249,1,null,"""",image-keyboard-response,42,141326,0.0-42.0,"""",jspsych/neutralFaces/BF11NES.JPG,"""",3,backwardMask,Practice,null,100,"""","""","""","""","""","""","""","""","""",5/3/2021 23:02,128.227.115.94,Mozilla/5.0 (Macintosh; Intel Mac OS X 10.13; rv:87.0) Gecko/20100101 Firefox/87.0,Macintosh,Firefox,87,OS X,10.13
249,1,null,"""",html-keyboard-response,43,142331,0.0-43.0,"""","<div style=""font-size:60px;"">+</div>","""",3,fixationBtwnNeutralMaskAndPrompt,Practice,null,1000,"""","""","""","""","""","""","""","""","""",5/3/2021 23:02,128.227.115.94,Mozilla/5.0 (Macintosh; Intel Mac OS X 10.13; rv:87.0) Gecko/20100101 Firefox/87.0,Macintosh,Firefox,87,OS X,10.13
249,1,3212,"""",html-button-response,44,145548,0.0-44.0,"""","<img src='jspsych/CFDfaces/CFD-WM-019-003-N.jpg'height=""250px""></br><b>Carlos</b>",1,3,IntactOrRearranged,Practice,"""","""","""","""",CFD-WM-019-003-N.jpg,Carlos,1,1,"""","""","""",5/3/2021 23:02,128.227.115.94,Mozilla/5.0 (Macintosh; Intel Mac OS X 10.13; rv:87.0) Gecko/20100101 Firefox/87.0,Macintosh,Firefox,87,OS X,10.13
249,1,2249,"""",html-slider-response,45,147800,0.0-45.0,"""","<img src='jspsych/CFDfaces/CFD-WM-019-003-N.jpg'height=""250px""></br><b>Carlos</b>","""",3,ConfidenceQuery,Practice,"""","""","""","""",CFD-LF-208-127-N.jpg,Heather,1,"""",0,37,"""",5/3/2021 23:02,128.227.115.94,Mozilla/5.0 (Macintosh; Intel Mac OS X 10.13; rv:87.0) Gecko/20100101 Firefox/87.0,Macintosh,Firefox,87,OS X,10.13
249,1,991,"""",html-button-response,46,148795,0.0-46.0,"""",You are Correct. You Called A Rearranged Pair Rearranged,0,3,feedback,Practice,"""","""","""","""","""","""","""","""","""","""","""",5/3/2021 23:02,128.227.115.94,Mozilla/5.0 (Macintosh; Intel Mac OS X 10.13; rv:87.0) Gecko/20100101 Firefox/87.0,Macintosh,Firefox,87,OS X,10.13
249,1,null,"""",html-keyboard-response,47,149797,0.0-47.0,"""","<div style=""font-size:60px;"">+</div>","""",4,ITI,Practice,null,1000,"""","""","""","""","""","""","""","""","""",5/3/2021 23:02,128.227.115.94,Mozilla/5.0 (Macintosh; Intel Mac OS X 10.13; rv:87.0) Gecko/20100101 Firefox/87.0,Macintosh,Firefox,87,OS X,10.13
249,1,null,"""",image-keyboard-response,48,150053,0.0-48.0,"""",jspsych/scrambledDisgustFaces/scrambledAF07DIS.JPG,"""",4,forwardMask,Practice,null,250,"""",d,"""","""","""","""","""","""","""",5/3/2021 23:02,128.227.115.94,Mozilla/5.0 (Macintosh; Intel Mac OS X 10.13; rv:87.0) Gecko/20100101 Firefox/87.0,Macintosh,Firefox,87,OS X,10.13
249,1,null,"""",image-keyboard-response,49,150076,0.0-49.0,"""",jspsych/disgustFaces/AF07DIS.JPG,"""",4,Cue,Practice,null,16,"""","""","""","""","""","""","""","""","""",5/3/2021 23:02,128.227.115.94,Mozilla/5.0 (Macintosh; Intel Mac OS X 10.13; rv:87.0) Gecko/20100101 Firefox/87.0,Macintosh,Firefox,87,OS X,10.13
249,1,null,"""",image-keyboard-response,50,150186,0.0-50.0,"""",jspsych/neutralFaces/BF09NES.JPG,"""",4,backwardMask,Practice,null,100,"""","""","""","""","""","""","""","""","""",5/3/2021 23:02,128.227.115.94,Mozilla/5.0 (Macintosh; Intel Mac OS X 10.13; rv:87.0) Gecko/20100101 Firefox/87.0,Macintosh,Firefox,87,OS X,10.13
249,1,null,"""",html-keyboard-response,51,151190,0.0-51.0,"""","<div style=""font-size:60px;"">+</div>","""",4,fixationBtwnNeutralMaskAndPrompt,Practice,null,1000,"""","""","""","""","""","""","""","""","""",5/3/2021 23:02,128.227.115.94,Mozilla/5.0 (Macintosh; Intel Mac OS X 10.13; rv:87.0) Gecko/20100101 Firefox/87.0,Macintosh,Firefox,87,OS X,10.13
249,1,1474,"""",html-button-response,52,152667,0.0-52.0,"""","<img src='jspsych/CFDfaces/CFD-WM-213-076-N.jpg'height=""250px""></br><b>Patrick</b>",0,4,IntactOrRearranged,Practice,"""","""","""","""",CFD-WM-213-076-N.jpg,Patrick,0,0,"""","""","""",5/3/2021 23:02,128.227.115.94,Mozilla/5.0 (Macintosh; Intel Mac OS X 10.13; rv:87.0) Gecko/20100101 Firefox/87.0,Macintosh,Firefox,87,OS X,10.13
249,1,1753,"""",html-slider-response,53,154422,0.0-53.0,"""","<img src='jspsych/CFDfaces/CFD-WM-213-076-N.jpg'height=""250px""></br><b>Patrick</b>","""",4,ConfidenceQuery,Practice,"""","""","""","""",CFD-LF-208-127-N.jpg,Heather,0,"""",0,100,"""",5/3/2021 23:02,128.227.115.94,Mozilla/5.0 (Macintosh; Intel Mac OS X 10.13; rv:87.0) Gecko/20100101 Firefox/87.0,Macintosh,Firefox,87,OS X,10.13
249,1,785,"""",html-button-response,54,155211,0.0-54.0,"""",You are Correct. You called an Intact Pair Intact,0,4,feedback,Practice,"""","""","""","""","""","""","""","""","""","""","""",5/3/2021 23:02,128.227.115.94,Mozilla/5.0 (Macintosh; Intel Mac OS X 10.13; rv:87.0) Gecko/20100101 Firefox/87.0,Macintosh,Firefox,87,OS X,10.13
249,1,null,"""",html-keyboard-response,55,156217,0.0-55.0,"""","<div style=""font-size:60px;"">+</div>","""",5,ITI,Practice,null,1000,"""","""","""","""","""","""","""","""","""",5/3/2021 23:02,128.227.115.94,Mozilla/5.0 (Macintosh; Intel Mac OS X 10.13; rv:87.0) Gecko/20100101 Firefox/87.0,Macintosh,Firefox,87,OS X,10.13
249,1,null,"""",image-keyboard-response,56,156472,0.0-56.0,"""",jspsych/scrambledNeutralFaces/scrambledBF25NES.JPG,"""",5,forwardMask,Practice,null,250,"""",n,"""","""","""","""","""","""","""",5/3/2021 23:02,128.227.115.94,Mozilla/5.0 (Macintosh; Intel Mac OS X 10.13; rv:87.0) Gecko/20100101 Firefox/87.0,Macintosh,Firefox,87,OS X,10.13
249,1,null,"""",image-keyboard-response,57,156496,0.0-57.0,"""",jspsych/neutralFaces/BF25NES.JPG,"""",5,Cue,Practice,null,16,"""","""","""","""","""","""","""","""","""",5/3/2021 23:02,128.227.115.94,Mozilla/5.0 (Macintosh; Intel Mac OS X 10.13; rv:87.0) Gecko/20100101 Firefox/87.0,Macintosh,Firefox,87,OS X,10.13
249,1,null,"""",image-keyboard-response,58,156605,0.0-58.0,"""",jspsych/neutralFaces/AF05NES.JPG,"""",5,backwardMask,Practice,null,100,"""","""","""","""","""","""","""","""","""",5/3/2021 23:02,128.227.115.94,Mozilla/5.0 (Macintosh; Intel Mac OS X 10.13; rv:87.0) Gecko/20100101 Firefox/87.0,Macintosh,Firefox,87,OS X,10.13
249,1,null,"""",html-keyboard-response,59,157610,0.0-59.0,"""","<div style=""font-size:60px;"">+</div>","""",5,fixationBtwnNeutralMaskAndPrompt,Practice,null,1000,"""","""","""","""","""","""","""","""","""",5/3/2021 23:02,128.227.115.94,Mozilla/5.0 (Macintosh; Intel Mac OS X 10.13; rv:87.0) Gecko/20100101 Firefox/87.0,Macintosh,Firefox,87,OS X,10.13
249,1,2521,"""",html-button-response,60,160132,0.0-60.0,"""","<img src='jspsych/CFDfaces/CFD-BF-201-080-N.jpg'height=""250px""></br><b>Cassandra</b>",1,5,IntactOrRearranged,Practice,"""","""","""","""",CFD-BF-201-080-N.jpg,Cassandra,1,1,"""","""","""",5/3/2021 23:02,128.227.115.94,Mozilla/5.0 (Macintosh; Intel Mac OS X 10.13; rv:87.0) Gecko/20100101 Firefox/87.0,Macintosh,Firefox,87,OS X,10.13
249,1,2032,"""",html-slider-response,61,162170,0.0-61.0,"""","<img src='jspsych/CFDfaces/CFD-BF-201-080-N.jpg'height=""250px""></br><b>Cassandra</b>","""",5,ConfidenceQuery,Practice,"""","""","""","""",CFD-LF-208-127-N.jpg,Heather,1,"""",0,96,"""",5/3/2021 23:02,128.227.115.94,Mozilla/5.0 (Macintosh; Intel Mac OS X 10.13; rv:87.0) Gecko/20100101 Firefox/87.0,Macintosh,Firefox,87,OS X,10.13
249,1,1366,"""",html-button-response,62,163539,0.0-62.0,"""",You are Correct. You Called A Rearranged Pair Rearranged,0,5,feedback,Practice,"""","""","""","""","""","""","""","""","""","""","""",5/3/2021 23:02,128.227.115.94,Mozilla/5.0 (Macintosh; Intel Mac OS X 10.13; rv:87.0) Gecko/20100101 Firefox/87.0,Macintosh,Firefox,87,OS X,10.13
249,1,null,"""",html-keyboard-response,63,164541,0.0-63.0,"""","<div style=""font-size:60px;"">+</div>","""",6,ITI,Practice,null,1000,"""","""","""","""","""","""","""","""","""",5/3/2021 23:02,128.227.115.94,Mozilla/5.0 (Macintosh; Intel Mac OS X 10.13; rv:87.0) Gecko/20100101 Firefox/87.0,Macintosh,Firefox,87,OS X,10.13
249,1,null,"""",image-keyboard-response,64,164797,0.0-64.0,"""",jspsych/scrambledNeutralFaces/scrambledAM13NES.JPG,"""",6,forwardMask,Practice,null,250,"""",n,"""","""","""","""","""","""","""",5/3/2021 23:02,128.227.115.94,Mozilla/5.0 (Macintosh; Intel Mac OS X 10.13; rv:87.0) Gecko/20100101 Firefox/87.0,Macintosh,Firefox,87,OS X,10.13
249,1,null,"""",image-keyboard-response,65,164822,0.0-65.0,"""",jspsych/neutralFaces/AM13NES.JPG,"""",6,Cue,Practice,null,16,"""","""","""","""","""","""","""","""","""",5/3/2021 23:02,128.227.115.94,Mozilla/5.0 (Macintosh; Intel Mac OS X 10.13; rv:87.0) Gecko/20100101 Firefox/87.0,Macintosh,Firefox,87,OS X,10.13
249,1,null,"""",image-keyboard-response,66,164930,0.0-66.0,"""",jspsych/neutralFaces/AM09NES.JPG,"""",6,backwardMask,Practice,null,100,"""","""","""","""","""","""","""","""","""",5/3/2021 23:02,128.227.115.94,Mozilla/5.0 (Macintosh; Intel Mac OS X 10.13; rv:87.0) Gecko/20100101 Firefox/87.0,Macintosh,Firefox,87,OS X,10.13
249,1,null,"""",html-keyboard-response,67,165935,0.0-67.0,"""","<div style=""font-size:60px;"">+</div>","""",6,fixationBtwnNeutralMaskAndPrompt,Practice,null,1000,"""","""","""","""","""","""","""","""","""",5/3/2021 23:02,128.227.115.94,Mozilla/5.0 (Macintosh; Intel Mac OS X 10.13; rv:87.0) Gecko/20100101 Firefox/87.0,Macintosh,Firefox,87,OS X,10.13
249,1,1652,"""",html-button-response,68,167592,0.0-68.0,"""","<img src='jspsych/CFDfaces/CFD-LM-223-175-N.jpg'height=""250px""></br><b>Samuel</b>",0,6,IntactOrRearranged,Practice,"""","""","""","""",CFD-LM-223-175-N.jpg,Samuel,0,0,"""","""","""",5/3/2021 23:02,128.227.115.94,Mozilla/5.0 (Macintosh; Intel Mac OS X 10.13; rv:87.0) Gecko/20100101 Firefox/87.0,Macintosh,Firefox,87,OS X,10.13
249,1,2155,"""",html-slider-response,69,169750,0.0-69.0,"""","<img src='jspsych/CFDfaces/CFD-LM-223-175-N.jpg'height=""250px""></br><b>Samuel</b>","""",6,ConfidenceQuery,Practice,"""","""","""","""",CFD-LF-208-127-N.jpg,Heather,0,"""",0,71,"""",5/3/2021 23:02,128.227.115.94,Mozilla/5.0 (Macintosh; Intel Mac OS X 10.13; rv:87.0) Gecko/20100101 Firefox/87.0,Macintosh,Firefox,87,OS X,10.13
249,1,816,"""",html-button-response,70,170569,0.0-70.0,"""",You are Correct. You called an Intact Pair Intact,0,6,feedback,Practice,"""","""","""","""","""","""","""","""","""","""","""",5/3/2021 23:02,128.227.115.94,Mozilla/5.0 (Macintosh; Intel Mac OS X 10.13; rv:87.0) Gecko/20100101 Firefox/87.0,Macintosh,Firefox,87,OS X,10.13
249,1,null,"""",html-keyboard-response,71,171570,0.0-71.0,"""","<div style=""font-size:60px;"">+</div>","""",7,ITI,Practice,null,1000,"""","""","""","""","""","""","""","""","""",5/3/2021 23:02,128.227.115.94,Mozilla/5.0 (Macintosh; Intel Mac OS X 10.13; rv:87.0) Gecko/20100101 Firefox/87.0,Macintosh,Firefox,87,OS X,10.13
249,1,null,"""",image-keyboard-response,72,171833,0.0-72.0,"""",jspsych/scrambledNeutralFaces/scrambledBF14NES.JPG,"""",7,forwardMask,Practice,null,250,"""",n,"""","""","""","""","""","""","""",5/3/2021 23:02,128.227.115.94,Mozilla/5.0 (Macintosh; Intel Mac OS X 10.13; rv:87.0) Gecko/20100101 Firefox/87.0,Macintosh,Firefox,87,OS X,10.13
249,1,null,"""",image-keyboard-response,73,171855,0.0-73.0,"""",jspsych/neutralFaces/BF14NES.JPG,"""",7,Cue,Practice,null,16,"""","""","""","""","""","""","""","""","""",5/3/2021 23:02,128.227.115.94,Mozilla/5.0 (Macintosh; Intel Mac OS X 10.13; rv:87.0) Gecko/20100101 Firefox/87.0,Macintosh,Firefox,87,OS X,10.13
249,1,null,"""",image-keyboard-response,74,171966,0.0-74.0,"""",jspsych/neutralFaces/AF21NES.JPG,"""",7,backwardMask,Practice,null,100,"""","""","""","""","""","""","""","""","""",5/3/2021 23:02,128.227.115.94,Mozilla/5.0 (Macintosh; Intel Mac OS X 10.13; rv:87.0) Gecko/20100101 Firefox/87.0,Macintosh,Firefox,87,OS X,10.13
249,1,null,"""",html-keyboard-response,75,172970,0.0-75.0,"""","<div style=""font-size:60px;"">+</div>","""",7,fixationBtwnNeutralMaskAndPrompt,Practice,null,1000,"""","""","""","""","""","""","""","""","""",5/3/2021 23:02,128.227.115.94,Mozilla/5.0 (Macintosh; Intel Mac OS X 10.13; rv:87.0) Gecko/20100101 Firefox/87.0,Macintosh,Firefox,87,OS X,10.13
249,1,3706,"""",html-button-response,76,176678,0.0-76.0,"""","<img src='jspsych/CFDfaces/CFD-BM-011-016-N.jpg'height=""250px""></br><b>Marcus</b>",1,7,IntactOrRearranged,Practice,"""","""","""","""",CFD-BM-011-016-N.jpg,Marcus,1,1,"""","""","""",5/3/2021 23:02,128.227.115.94,Mozilla/5.0 (Macintosh; Intel Mac OS X 10.13; rv:87.0) Gecko/20100101 Firefox/87.0,Macintosh,Firefox,87,OS X,10.13
249,1,2052,"""",html-slider-response,77,178732,0.0-77.0,"""","<img src='jspsych/CFDfaces/CFD-BM-011-016-N.jpg'height=""250px""></br><b>Marcus</b>","""",7,ConfidenceQuery,Practice,"""","""","""","""",CFD-LF-208-127-N.jpg,Heather,1,"""",0,22,"""",5/3/2021 23:02,128.227.115.94,Mozilla/5.0 (Macintosh; Intel Mac OS X 10.13; rv:87.0) Gecko/20100101 Firefox/87.0,Macintosh,Firefox,87,OS X,10.13
249,1,1148,"""",html-button-response,78,179885,0.0-78.0,"""",You are Correct. You Called A Rearranged Pair Rearranged,0,7,feedback,Practice,"""","""","""","""","""","""","""","""","""","""","""",5/3/2021 23:02,128.227.115.94,Mozilla/5.0 (Macintosh; Intel Mac OS X 10.13; rv:87.0) Gecko/20100101 Firefox/87.0,Macintosh,Firefox,87,OS X,10.13
249,1,null,"""",html-keyboard-response,79,180888,0.0-79.0,"""","<div style=""font-size:60px;"">+</div>","""",8,ITI,Practice,null,1000,"""","""","""","""","""","""","""","""","""",5/3/2021 23:02,128.227.115.94,Mozilla/5.0 (Macintosh; Intel Mac OS X 10.13; rv:87.0) Gecko/20100101 Firefox/87.0,Macintosh,Firefox,87,OS X,10.13
249,1,null,"""",image-keyboard-response,80,181143,0.0-80.0,"""",jspsych/scrambledDisgustFaces/scrambledAF28DIS.JPG,"""",8,forwardMask,Practice,null,250,"""",d,"""","""","""","""","""","""","""",5/3/2021 23:02,128.227.115.94,Mozilla/5.0 (Macintosh; Intel Mac OS X 10.13; rv:87.0) Gecko/20100101 Firefox/87.0,Macintosh,Firefox,87,OS X,10.13
249,1,null,"""",image-keyboard-response,81,181168,0.0-81.0,"""",jspsych/disgustFaces/AF28DIS.JPG,"""",8,Cue,Practice,null,16,"""","""","""","""","""","""","""","""","""",5/3/2021 23:02,128.227.115.94,Mozilla/5.0 (Macintosh; Intel Mac OS X 10.13; rv:87.0) Gecko/20100101 Firefox/87.0,Macintosh,Firefox,87,OS X,10.13
249,1,null,"""",image-keyboard-response,82,181277,0.0-82.0,"""",jspsych/neutralFaces/AF32NES.JPG,"""",8,backwardMask,Practice,null,100,"""","""","""","""","""","""","""","""","""",5/3/2021 23:02,128.227.115.94,Mozilla/5.0 (Macintosh; Intel Mac OS X 10.13; rv:87.0) Gecko/20100101 Firefox/87.0,Macintosh,Firefox,87,OS X,10.13
249,1,null,"""",html-keyboard-response,83,182281,0.0-83.0,"""","<div style=""font-size:60px;"">+</div>","""",8,fixationBtwnNeutralMaskAndPrompt,Practice,null,1000,"""","""","""","""","""","""","""","""","""",5/3/2021 23:02,128.227.115.94,Mozilla/5.0 (Macintosh; Intel Mac OS X 10.13; rv:87.0) Gecko/20100101 Firefox/87.0,Macintosh,Firefox,87,OS X,10.13
249,1,1774,"""",html-button-response,84,184059,0.0-84.0,"""","<img src='jspsych/CFDfaces/CFD-AF-228-173-N.jpg'height=""250px""></br><b>Tara</b>",0,8,IntactOrRearranged,Practice,"""","""","""","""",CFD-AF-228-173-N.jpg,Tara,0,0,"""","""","""",5/3/2021 23:02,128.227.115.94,Mozilla/5.0 (Macintosh; Intel Mac OS X 10.13; rv:87.0) Gecko/20100101 Firefox/87.0,Macintosh,Firefox,87,OS X,10.13
249,1,1684,"""",html-slider-response,85,185744,0.0-85.0,"""","<img src='jspsych/CFDfaces/CFD-AF-228-173-N.jpg'height=""250px""></br><b>Tara</b>","""",8,ConfidenceQuery,Practice,"""","""","""","""",CFD-LF-208-127-N.jpg,Heather,0,"""",0,100,"""",5/3/2021 23:02,128.227.115.94,Mozilla/5.0 (Macintosh; Intel Mac OS X 10.13; rv:87.0) Gecko/20100101 Firefox/87.0,Macintosh,Firefox,87,OS X,10.13
249,1,991,"""",html-button-response,86,186738,0.0-86.0,"""",You are Correct. You called an Intact Pair Intact,0,8,feedback,Practice,"""","""","""","""","""","""","""","""","""","""","""",5/3/2021 23:02,128.227.115.94,Mozilla/5.0 (Macintosh; Intel Mac OS X 10.13; rv:87.0) Gecko/20100101 Firefox/87.0,Macintosh,Firefox,87,OS X,10.13
249,1,12720,"""",image-button-response,87,199471,0.0-87.0,"""",directionsMemoryAssociation3.JPG,0,128,DirectionsBeforeActualTEst,Break,"""","""","""","""","""","""","""","""","""","""","""",5/3/2021 23:02,128.227.115.94,Mozilla/5.0 (Macintosh; Intel Mac OS X 10.13; rv:87.0) Gecko/20100101 Firefox/87.0,Macintosh,Firefox,87,OS X,10.13
249,1,2341,"""",image-button-response,88,201832,0.0-88.0,"""",directionsForTest2.JPG,0,1,directionsForTest2,break,"""","""","""","""","""","""","""","""","""","""","""",5/3/2021 23:02,128.227.115.94,Mozilla/5.0 (Macintosh; Intel Mac OS X 10.13; rv:87.0) Gecko/20100101 Firefox/87.0,Macintosh,Firefox,87,OS X,10.13
249,1,9963,"""",html-button-response,89,211798,0.0-89.0,"""","<p>You will be asked to memorize and then recall four sets of face-name pairs. </p> <p> Each set will have 32 pairs. </p> <p>After the fourth set, there will be a brief follow-up experiment (<40 min alltogether)</p>",0,"""","""","""","""","""","""","""","""","""","""","""","""","""","""",5/3/2021 23:02,128.227.115.94,Mozilla/5.0 (Macintosh; Intel Mac OS X 10.13; rv:87.0) Gecko/20100101 Firefox/87.0,Macintosh,Firefox,87,OS X,10.13
249,1,2639,"""",html-keyboard-response,90,216809,0.0-90.0,"""","<img src='jspsych/CFDfaces/CFD-AM-234-355-N.jpg' height=""250px""></br><b>Christian</b>","""",256,IntactFace,Memorization,70,5000,f,"""",CFD-AF-215-70-N.jpg,Erin,0,"""","""","""",1,5/3/2021 23:02,128.227.115.94,Mozilla/5.0 (Macintosh; Intel Mac OS X 10.13; rv:87.0) Gecko/20100101 Firefox/87.0,Macintosh,Firefox,87,OS X,10.13
249,1,null,"""",html-keyboard-response,91,217318,0.0-91.0,"""","<div style=""font-size:60px;"">+</div>","""",256,fixation,Memorization,null,500,"""","""","""","""","""","""","""","""",1,5/3/2021 23:02,128.227.115.94,Mozilla/5.0 (Macintosh; Intel Mac OS X 10.13; rv:87.0) Gecko/20100101 Firefox/87.0,Macintosh,Firefox,87,OS X,10.13
249,1,2951,"""",html-keyboard-response,92,222331,0.0-92.0,"""","<img src='jspsych/CFDfaces/CFD-AM-211-052-N.jpg' height=""250px""></br><b>Peter</b>","""",256,IntactFace,Memorization,70,5000,f,"""",CFD-WF-003-003-N.jpg,Jasmine,0,"""","""","""",1,5/3/2021 23:02,128.227.115.94,Mozilla/5.0 (Macintosh; Intel Mac OS X 10.13; rv:87.0) Gecko/20100101 Firefox/87.0,Macintosh,Firefox,87,OS X,10.13
249,1,null,"""",html-keyboard-response,93,222835,0.0-93.0,"""","<div style=""font-size:60px;"">+</div>","""",256,fixation,Memorization,null,500,"""","""","""","""","""","""","""","""",1,5/3/2021 23:02,128.227.115.94,Mozilla/5.0 (Macintosh; Intel Mac OS X 10.13; rv:87.0) Gecko/20100101 Firefox/87.0,Macintosh,Firefox,87,OS X,10.13
249,1,2142,"""",html-keyboard-response,94,227839,0.0-94.0,"""","<img src='jspsych/CFDfaces/CFD-AM-237-154-N.jpg' height=""250px""></br><b>Eric</b>","""",256,IntactFace,Memorization,70,5000,f,"""",CFD-WM-216-061-N.jpg,Dustin,0,"""","""","""",1,5/3/2021 23:02,128.227.115.94,Mozilla/5.0 (Macintosh; Intel Mac OS X 10.13; rv:87.0) Gecko/20100101 Firefox/87.0,Macintosh,Firefox,87,OS X,10.13
249,1,null,"""",html-keyboard-response,95,228349,0.0-95.0,"""","<div style=""font-size:60px;"">+</div>","""",256,fixation,Memorization,null,500,"""","""","""","""","""","""","""","""",1,5/3/2021 23:02,128.227.115.94,Mozilla/5.0 (Macintosh; Intel Mac OS X 10.13; rv:87.0) Gecko/20100101 Firefox/87.0,Macintosh,Firefox,87,OS X,10.13
249,1,3021,"""",html-keyboard-response,96,233353,0.0-96.0,"""","<img src='jspsych/CFDfaces/CFD-AF-241-141-N.jpg' height=""250px""></br><b>Emily</b>","""",256,IntactFace,Memorization,70,5000,f,"""",CFD-AF-240-206-N.jpg,Lauren,0,"""","""","""",1,5/3/2021 23:02,128.227.115.94,Mozilla/5.0 (Macintosh; Intel Mac OS X 10.13; rv:87.0) Gecko/20100101 Firefox/87.0,Macintosh,Firefox,87,OS X,10.13
249,1,null,"""",html-keyboard-response,97,233861,0.0-97.0,"""","<div style=""font-size:60px;"">+</div>","""",256,fixation,Memorization,null,500,"""","""","""","""","""","""","""","""",1,5/3/2021 23:02,128.227.115.94,Mozilla/5.0 (Macintosh; Intel Mac OS X 10.13; rv:87.0) Gecko/20100101 Firefox/87.0,Macintosh,Firefox,87,OS X,10.13
249,1,1179,"""",html-keyboard-response,98,238867,0.0-98.0,"""","<img src='jspsych/CFDfaces/CFD-WF-220-101-N.jpg' height=""250px""></br><b>Ashley</b>","""",256,IntactFace,Memorization,70,5000,f,"""",CFD-WM-212-097-N.jpg,Jesse,0,"""","""","""",1,5/3/2021 23:02,128.227.115.94,Mozilla/5.0 (Macintosh; Intel Mac OS X 10.13; rv:87.0) Gecko/20100101 Firefox/87.0,Macintosh,Firefox,87,OS X,10.13
249,1,null,"""",html-keyboard-response,99,239377,0.0-99.0,"""","<div style=""font-size:60px;"">+</div>","""",256,fixation,Memorization,null,500,"""","""","""","""","""","""","""","""",1,5/3/2021 23:02,128.227.115.94,Mozilla/5.0 (Macintosh; Intel Mac OS X 10.13; rv:87.0) Gecko/20100101 Firefox/87.0,Macintosh,Firefox,87,OS X,10.13
249,1,3182,"""",html-keyboard-response,100,244383,0.0-100.0,"""","<img src='jspsych/CFDfaces/CFD-BF-021-013-N.jpg' height=""250px""></br><b>Christina</b>","""",256,IntactFace,Memorization,78,5000,n,"""",CFD-LF-243-175-N.jpg,Jenna,0,"""","""","""",1,5/3/2021 23:02,128.227.115.94,Mozilla/5.0 (Macintosh; Intel Mac OS X 10.13; rv:87.0) Gecko/20100101 Firefox/87.0,Macintosh,Firefox,87,OS X,10.13
249,1,null,"""",html-keyboard-response,101,244891,0.0-101.0,"""","<div style=""font-size:60px;"">+</div>","""",256,fixation,Memorization,null,500,"""","""","""","""","""","""","""","""",1,5/3/2021 23:02,128.227.115.94,Mozilla/5.0 (Macintosh; Intel Mac OS X 10.13; rv:87.0) Gecko/20100101 Firefox/87.0,Macintosh,Firefox,87,OS X,10.13
249,1,1557,"""",html-keyboard-response,102,249896,0.0-102.0,"""","<img src='jspsych/CFDfaces/CFD-LM-200-045-N.jpg' height=""250px""></br><b>Nicholas</b>","""",256,IntactFace,Memorization,70,5000,f,"""",CFD-WM-009-002-N.jpg,Timothy,0,"""","""","""",1,5/3/2021 23:02,128.227.115.94,Mozilla/5.0 (Macintosh; Intel Mac OS X 10.13; rv:87.0) Gecko/20100101 Firefox/87.0,Macintosh,Firefox,87,OS X,10.13
249,1,null,"""",html-keyboard-response,103,250405,0.0-103.0,"""","<div style=""font-size:60px;"">+</div>","""",256,fixation,Memorization,null,500,"""","""","""","""","""","""","""","""",1,5/3/2021 23:02,128.227.115.94,Mozilla/5.0 (Macintosh; Intel Mac OS X 10.13; rv:87.0) Gecko/20100101 Firefox/87.0,Macintosh,Firefox,87,OS X,10.13
249,1,2058,"""",html-keyboard-response,104,255412,0.0-104.0,"""","<img src='jspsych/CFDfaces/CFD-AM-231-136-N.jpg' height=""250px""></br><b>Gregory</b>","""",256,IntactFace,Memorization,78,5000,n,"""",CFD-BF-221-223-N.jpg,Whitney,0,"""","""","""",1,5/3/2021 23:02,128.227.115.94,Mozilla/5.0 (Macintosh; Intel Mac OS X 10.13; rv:87.0) Gecko/20100101 Firefox/87.0,Macintosh,Firefox,87,OS X,10.13
249,1,null,"""",html-keyboard-response,105,255922,0.0-105.0,"""","<div style=""font-size:60px;"">+</div>","""",256,fixation,Memorization,null,500,"""","""","""","""","""","""","""","""",1,5/3/2021 23:02,128.227.115.94,Mozilla/5.0 (Macintosh; Intel Mac OS X 10.13; rv:87.0) Gecko/20100101 Firefox/87.0,Macintosh,Firefox,87,OS X,10.13
249,1,1239,"""",html-keyboard-response,106,260926,0.0-106.0,"""","<img src='jspsych/CFDfaces/CFD-BM-043-071-N.jpg' height=""250px""></br><b>Robert</b>","""",256,IntactFace,Memorization,70,5000,f,"""",CFD-BF-212-315-N.jpg,Sara,0,"""","""","""",1,5/3/2021 23:02,128.227.115.94,Mozilla/5.0 (Macintosh; Intel Mac OS X 10.13; rv:87.0) Gecko/20100101 Firefox/87.0,Macintosh,Firefox,87,OS X,10.13
249,1,null,"""",html-keyboard-response,107,261433,0.0-107.0,"""","<div style=""font-size:60px;"">+</div>","""",256,fixation,Memorization,null,500,"""","""","""","""","""","""","""","""",1,5/3/2021 23:02,128.227.115.94,Mozilla/5.0 (Macintosh; Intel Mac OS X 10.13; rv:87.0) Gecko/20100101 Firefox/87.0,Macintosh,Firefox,87,OS X,10.13
249,1,2367,"""",html-keyboard-response,108,266441,0.0-108.0,"""","<img src='jspsych/CFDfaces/CFD-AM-246-184-N.jpg' height=""250px""></br><b>James</b>","""",256,IntactFace,Memorization,78,5000,n,"""",CFD-WF-019-005-N.jpg,Rebecca,0,"""","""","""",1,5/3/2021 23:02,128.227.115.94,Mozilla/5.0 (Macintosh; Intel Mac OS X 10.13; rv:87.0) Gecko/20100101 Firefox/87.0,Macintosh,Firefox,87,OS X,10.13
249,1,null,"""",html-keyboard-response,109,266951,0.0-109.0,"""","<div style=""font-size:60px;"">+</div>","""",256,fixation,Memorization,null,500,"""","""","""","""","""","""","""","""",1,5/3/2021 23:02,128.227.115.94,Mozilla/5.0 (Macintosh; Intel Mac OS X 10.13; rv:87.0) Gecko/20100101 Firefox/87.0,Macintosh,Firefox,87,OS X,10.13
249,1,2394,"""",html-keyboard-response,110,271955,0.0-110.0,"""","<img src='jspsych/CFDfaces/CFD-BM-002-013-N.jpg' height=""250px""></br><b>Jeffrey</b>","""",256,IntactFace,Memorization,70,5000,f,"""",CFD-AM-238-269-N.jpg,Jeremy,0,"""","""","""",1,5/3/2021 23:02,128.227.115.94,Mozilla/5.0 (Macintosh; Intel Mac OS X 10.13; rv:87.0) Gecko/20100101 Firefox/87.0,Macintosh,Firefox,87,OS X,10.13
249,1,null,"""",html-keyboard-response,111,272457,0.0-111.0,"""","<div style=""font-size:60px;"">+</div>","""",256,fixation,Memorization,null,500,"""","""","""","""","""","""","""","""",1,5/3/2021 23:02,128.227.115.94,Mozilla/5.0 (Macintosh; Intel Mac OS X 10.13; rv:87.0) Gecko/20100101 Firefox/87.0,Macintosh,Firefox,87,OS X,10.13
249,1,1851,"""",html-keyboard-response,112,277470,0.0-112.0,"""","<img src='jspsych/CFDfaces/CFD-AF-233-190-N.jpg' height=""250px""></br><b>Kayla</b>","""",256,IntactFace,Memorization,70,5000,f,"""",CFD-LF-208-127-N.jpg,Heather,0,"""","""","""",1,5/3/2021 23:02,128.227.115.94,Mozilla/5.0 (Macintosh; Intel Mac OS X 10.13; rv:87.0) Gecko/20100101 Firefox/87.0,Macintosh,Firefox,87,OS X,10.13
249,1,null,"""",html-keyboard-response,113,277977,0.0-113.0,"""","<div style=""font-size:60px;"">+</div>","""",256,fixation,Memorization,null,500,"""","""","""","""","""","""","""","""",1,5/3/2021 23:02,128.227.115.94,Mozilla/5.0 (Macintosh; Intel Mac OS X 10.13; rv:87.0) Gecko/20100101 Firefox/87.0,Macintosh,Firefox,87,OS X,10.13
249,1,2440,"""",html-keyboard-response,114,282985,0.0-114.0,"""","<img src='jspsych/CFDfaces/CFD-BF-008-001-N.jpg' height=""250px""></br><b>Elizabeth</b>","""",256,IntactFace,Memorization,70,5000,f,"""",CFD-BM-027-001-N.jpg,Luis,0,"""","""","""",1,5/3/2021 23:02,128.227.115.94,Mozilla/5.0 (Macintosh; Intel Mac OS X 10.13; rv:87.0) Gecko/20100101 Firefox/87.0,Macintosh,Firefox,87,OS X,10.13
249,1,null,"""",html-keyboard-response,115,283495,0.0-115.0,"""","<div style=""font-size:60px;"">+</div>","""",256,fixation,Memorization,null,500,"""","""","""","""","""","""","""","""",1,5/3/2021 23:02,128.227.115.94,Mozilla/5.0 (Macintosh; Intel Mac OS X 10.13; rv:87.0) Gecko/20100101 Firefox/87.0,Macintosh,Firefox,87,OS X,10.13
249,1,1545,"""",html-keyboard-response,116,288499,0.0-116.0,"""","<img src='jspsych/CFDfaces/CFD-LF-218-072-N.jpg' height=""250px""></br><b>Julie</b>","""",256,IntactFace,Memorization,70,5000,f,"""",CFD-BF-023-010-N.jpg,Taylor,0,"""","""","""",1,5/3/2021 23:02,128.227.115.94,Mozilla/5.0 (Macintosh; Intel Mac OS X 10.13; rv:87.0) Gecko/20100101 Firefox/87.0,Macintosh,Firefox,87,OS X,10.13
249,1,null,"""",html-keyboard-response,117,289001,0.0-117.0,"""","<div style=""font-size:60px;"">+</div>","""",256,fixation,Memorization,null,500,"""","""","""","""","""","""","""","""",1,5/3/2021 23:02,128.227.115.94,Mozilla/5.0 (Macintosh; Intel Mac OS X 10.13; rv:87.0) Gecko/20100101 Firefox/87.0,Macintosh,Firefox,87,OS X,10.13
249,1,1539,"""",html-keyboard-response,118,294012,0.0-118.0,"""","<img src='jspsych/CFDfaces/CFD-AF-209-006-N.jpg' height=""250px""></br><b>Stephanie</b>","""",256,IntactFace,Memorization,70,5000,f,"""",CFD-LM-252-076-N.jpg,Travis,0,"""","""","""",1,5/3/2021 23:02,128.227.115.94,Mozilla/5.0 (Macintosh; Intel Mac OS X 10.13; rv:87.0) Gecko/20100101 Firefox/87.0,Macintosh,Firefox,87,OS X,10.13
249,1,null,"""",html-keyboard-response,119,294514,0.0-119.0,"""","<div style=""font-size:60px;"">+</div>","""",256,fixation,Memorization,null,500,"""","""","""","""","""","""","""","""",1,5/3/2021 23:02,128.227.115.94,Mozilla/5.0 (Macintosh; Intel Mac OS X 10.13; rv:87.0) Gecko/20100101 Firefox/87.0,Macintosh,Firefox,87,OS X,10.13
249,1,2552,"""",html-keyboard-response,120,299523,0.0-120.0,"""","<img src='jspsych/CFDfaces/CFD-AF-222-134-N.jpg' height=""250px""></br><b>Meghan</b>","""",256,IntactFace,Memorization,70,5000,f,"""",CFD-WM-020-001-N.jpg,Cameron,0,"""","""","""",1,5/3/2021 23:02,128.227.115.94,Mozilla/5.0 (Macintosh; Intel Mac OS X 10.13; rv:87.0) Gecko/20100101 Firefox/87.0,Macintosh,Firefox,87,OS X,10.13
249,1,null,"""",html-keyboard-response,121,300027,0.0-121.0,"""","<div style=""font-size:60px;"">+</div>","""",256,fixation,Memorization,null,500,"""","""","""","""","""","""","""","""",1,5/3/2021 23:02,128.227.115.94,Mozilla/5.0 (Macintosh; Intel Mac OS X 10.13; rv:87.0) Gecko/20100101 Firefox/87.0,Macintosh,Firefox,87,OS X,10.13
249,1,2063,"""",html-keyboard-response,122,305040,0.0-122.0,"""","<img src='jspsych/CFDfaces/CFD-BF-009-002-N.jpg' height=""250px""></br><b>Michelle</b>","""",256,IntactFace,Memorization,70,5000,f,"""",CFD-AM-207-108-N.jpg,Mark,0,"""","""","""",1,5/3/2021 23:02,128.227.115.94,Mozilla/5.0 (Macintosh; Intel Mac OS X 10.13; rv:87.0) Gecko/20100101 Firefox/87.0,Macintosh,Firefox,87,OS X,10.13
249,1,null,"""",html-keyboard-response,123,305542,0.0-123.0,"""","<div style=""font-size:60px;"">+</div>","""",256,fixation,Memorization,null,500,"""","""","""","""","""","""","""","""",1,5/3/2021 23:02,128.227.115.94,Mozilla/5.0 (Macintosh; Intel Mac OS X 10.13; rv:87.0) Gecko/20100101 Firefox/87.0,Macintosh,Firefox,87,OS X,10.13
249,1,2308,"""",html-keyboard-response,124,310555,0.0-124.0,"""","<img src='jspsych/CFDfaces/CFD-LM-233-171-N.jpg' height=""250px""></br><b>Brandon</b>","""",256,IntactFace,Memorization,78,5000,n,"""",CFD-LF-244-096-N.jpg,Melissa,0,"""","""","""",1,5/3/2021 23:02,128.227.115.94,Mozilla/5.0 (Macintosh; Intel Mac OS X 10.13; rv:87.0) Gecko/20100101 Firefox/87.0,Macintosh,Firefox,87,OS X,10.13
249,1,null,"""",html-keyboard-response,125,311061,0.0-125.0,"""","<div style=""font-size:60px;"">+</div>","""",256,fixation,Memorization,null,500,"""","""","""","""","""","""","""","""",1,5/3/2021 23:02,128.227.115.94,Mozilla/5.0 (Macintosh; Intel Mac OS X 10.13; rv:87.0) Gecko/20100101 Firefox/87.0,Macintosh,Firefox,87,OS X,10.13
249,1,1445,"""",html-keyboard-response,126,316072,0.0-126.0,"""","<img src='jspsych/CFDfaces/CFD-BF-209-172-N.jpg' height=""250px""></br><b>Vanessa</b>","""",256,IntactFace,Memorization,70,5000,f,"""",CFD-LM-239-075-N.jpg,Austin,0,"""","""","""",1,5/3/2021 23:02,128.227.115.94,Mozilla/5.0 (Macintosh; Intel Mac OS X 10.13; rv:87.0) Gecko/20100101 Firefox/87.0,Macintosh,Firefox,87,OS X,10.13
249,1,null,"""",html-keyboard-response,127,316578,0.0-127.0,"""","<div style=""font-size:60px;"">+</div>","""",256,fixation,Memorization,null,500,"""","""","""","""","""","""","""","""",1,5/3/2021 23:02,128.227.115.94,Mozilla/5.0 (Macintosh; Intel Mac OS X 10.13; rv:87.0) Gecko/20100101 Firefox/87.0,Macintosh,Firefox,87,OS X,10.13
249,1,1845,"""",html-keyboard-response,128,321589,0.0-128.0,"""","<img src='jspsych/CFDfaces/CFD-WM-041-021-N.jpg' height=""250px""></br><b>Daniel</b>","""",256,IntactFace,Memorization,70,5000,f,"""",CFD-LM-248-089-N.jpg,Justin,0,"""","""","""",1,5/3/2021 23:02,128.227.115.94,Mozilla/5.0 (Macintosh; Intel Mac OS X 10.13; rv:87.0) Gecko/20100101 Firefox/87.0,Macintosh,Firefox,87,OS X,10.13
249,1,null,"""",html-keyboard-response,129,322094,0.0-129.0,"""","<div style=""font-size:60px;"">+</div>","""",256,fixation,Memorization,null,500,"""","""","""","""","""","""","""","""",1,5/3/2021 23:02,128.227.115.94,Mozilla/5.0 (Macintosh; Intel Mac OS X 10.13; rv:87.0) Gecko/20100101 Firefox/87.0,Macintosh,Firefox,87,OS X,10.13
249,1,2651,"""",html-keyboard-response,130,327104,0.0-130.0,"""","<img src='jspsych/CFDfaces/CFD-AF-214-139-N.jpg' height=""250px""></br><b>Victoria</b>","""",256,IntactFace,Memorization,78,5000,n,"""",CFD-AF-208-003-N.jpg,Angela,0,"""","""","""",1,5/3/2021 23:02,128.227.115.94,Mozilla/5.0 (Macintosh; Intel Mac OS X 10.13; rv:87.0) Gecko/20100101 Firefox/87.0,Macintosh,Firefox,87,OS X,10.13
249,1,null,"""",html-keyboard-response,131,327608,0.0-131.0,"""","<div style=""font-size:60px;"">+</div>","""",256,fixation,Memorization,null,500,"""","""","""","""","""","""","""","""",1,5/3/2021 23:02,128.227.115.94,Mozilla/5.0 (Macintosh; Intel Mac OS X 10.13; rv:87.0) Gecko/20100101 Firefox/87.0,Macintosh,Firefox,87,OS X,10.13
249,1,3283,"""",html-keyboard-response,132,332615,0.0-132.0,"""","<img src='jspsych/CFDfaces/CFD-LM-201-057-N.jpg' height=""250px""></br><b>Jason</b>","""",256,IntactFace,Memorization,78,5000,n,"""",CFD-LF-205-100-N.jpg,Amy,0,"""","""","""",1,5/3/2021 23:02,128.227.115.94,Mozilla/5.0 (Macintosh; Intel Mac OS X 10.13; rv:87.0) Gecko/20100101 Firefox/87.0,Macintosh,Firefox,87,OS X,10.13
249,1,null,"""",html-keyboard-response,133,333118,0.0-133.0,"""","<div style=""font-size:60px;"">+</div>","""",256,fixation,Memorization,null,500,"""","""","""","""","""","""","""","""",1,5/3/2021 23:02,128.227.115.94,Mozilla/5.0 (Macintosh; Intel Mac OS X 10.13; rv:87.0) Gecko/20100101 Firefox/87.0,Macintosh,Firefox,87,OS X,10.13
249,1,1996,"""",html-keyboard-response,134,338130,0.0-134.0,"""","<img src='jspsych/CFDfaces/CFD-LM-219-295-N.jpg' height=""250px""></br><b>Richard</b>","""",256,IntactFace,Memorization,70,5000,f,"""",CFD-AM-243-212-N.jpg,Kenneth,0,"""","""","""",1,5/3/2021 23:02,128.227.115.94,Mozilla/5.0 (Macintosh; Intel Mac OS X 10.13; rv:87.0) Gecko/20100101 Firefox/87.0,Macintosh,Firefox,87,OS X,10.13
249,1,null,"""",html-keyboard-response,135,338636,0.0-135.0,"""","<div style=""font-size:60px;"">+</div>","""",256,fixation,Memorization,null,500,"""","""","""","""","""","""","""","""",1,5/3/2021 23:02,128.227.115.94,Mozilla/5.0 (Macintosh; Intel Mac OS X 10.13; rv:87.0) Gecko/20100101 Firefox/87.0,Macintosh,Firefox,87,OS X,10.13
249,1,2917,"""",html-keyboard-response,136,343645,0.0-136.0,"""","<img src='jspsych/CFDfaces/CFD-WM-237-052-N.jpg' height=""250px""></br><b>Juan</b>","""",256,IntactFace,Memorization,78,5000,n,"""",CFD-WM-011-002-N.jpg,Vincent,0,"""","""","""",1,5/3/2021 23:02,128.227.115.94,Mozilla/5.0 (Macintosh; Intel Mac OS X 10.13; rv:87.0) Gecko/20100101 Firefox/87.0,Macintosh,Firefox,87,OS X,10.13
249,1,null,"""",html-keyboard-response,137,344151,0.0-137.0,"""","<div style=""font-size:60px;"">+</div>","""",256,fixation,Memorization,null,500,"""","""","""","""","""","""","""","""",1,5/3/2021 23:02,128.227.115.94,Mozilla/5.0 (Macintosh; Intel Mac OS X 10.13; rv:87.0) Gecko/20100101 Firefox/87.0,Macintosh,Firefox,87,OS X,10.13
249,1,2738,"""",html-keyboard-response,138,349160,0.0-138.0,"""","<img src='jspsych/CFDfaces/CFD-AF-242-158-N.jpg' height=""250px""></br><b>Amanda</b>","""",256,IntactFace,Memorization,78,5000,n,"""",CFD-LF-203-066-N.jpg,Lindsey,0,"""","""","""",1,5/3/2021 23:02,128.227.115.94,Mozilla/5.0 (Macintosh; Intel Mac OS X 10.13; rv:87.0) Gecko/20100101 Firefox/87.0,Macintosh,Firefox,87,OS X,10.13
249,1,null,"""",html-keyboard-response,139,349664,0.0-139.0,"""","<div style=""font-size:60px;"">+</div>","""",256,fixation,Memorization,null,500,"""","""","""","""","""","""","""","""",1,5/3/2021 23:02,128.227.115.94,Mozilla/5.0 (Macintosh; Intel Mac OS X 10.13; rv:87.0) Gecko/20100101 Firefox/87.0,Macintosh,Firefox,87,OS X,10.13
249,1,2393,"""",html-keyboard-response,140,354675,0.0-140.0,"""","<img src='jspsych/CFDfaces/CFD-BM-001-014-N.jpg' height=""250px""></br><b>Brian</b>","""",256,IntactFace,Memorization,70,5000,f,"""",CFD-LF-206-078-N.jpg,Jordan,0,"""","""","""",1,5/3/2021 23:02,128.227.115.94,Mozilla/5.0 (Macintosh; Intel Mac OS X 10.13; rv:87.0) Gecko/20100101 Firefox/87.0,Macintosh,Firefox,87,OS X,10.13
249,1,null,"""",html-keyboard-response,141,355179,0.0-141.0,"""","<div style=""font-size:60px;"">+</div>","""",256,fixation,Memorization,null,500,"""","""","""","""","""","""","""","""",1,5/3/2021 23:02,128.227.115.94,Mozilla/5.0 (Macintosh; Intel Mac OS X 10.13; rv:87.0) Gecko/20100101 Firefox/87.0,Macintosh,Firefox,87,OS X,10.13
249,1,1494,"""",html-keyboard-response,142,360189,0.0-142.0,"""","<img src='jspsych/CFDfaces/CFD-LF-213-079-N.jpg' height=""250px""></br><b>Andrea</b>","""",256,IntactFace,Memorization,70,5000,f,"""",CFD-AM-228-214-N.jpg,Ryan,0,"""","""","""",1,5/3/2021 23:02,128.227.115.94,Mozilla/5.0 (Macintosh; Intel Mac OS X 10.13; rv:87.0) Gecko/20100101 Firefox/87.0,Macintosh,Firefox,87,OS X,10.13
249,1,null,"""",html-keyboard-response,143,360696,0.0-143.0,"""","<div style=""font-size:60px;"">+</div>","""",256,fixation,Memorization,null,500,"""","""","""","""","""","""","""","""",1,5/3/2021 23:02,128.227.115.94,Mozilla/5.0 (Macintosh; Intel Mac OS X 10.13; rv:87.0) Gecko/20100101 Firefox/87.0,Macintosh,Firefox,87,OS X,10.13
249,1,2969,"""",html-keyboard-response,144,365704,0.0-144.0,"""","<img src='jspsych/CFDfaces/CFD-AM-220-134-N.jpg' height=""250px""></br><b>Joshua</b>","""",256,IntactFace,Memorization,70,5000,f,"""",CFD-BM-032-024-N.jpg,Jacob,0,"""","""","""",1,5/3/2021 23:02,128.227.115.94,Mozilla/5.0 (Macintosh; Intel Mac OS X 10.13; rv:87.0) Gecko/20100101 Firefox/87.0,Macintosh,Firefox,87,OS X,10.13
249,1,null,"""",html-keyboard-response,145,366208,0.0-145.0,"""","<div style=""font-size:60px;"">+</div>","""",256,fixation,Memorization,null,500,"""","""","""","""","""","""","""","""",1,5/3/2021 23:02,128.227.115.94,Mozilla/5.0 (Macintosh; Intel Mac OS X 10.13; rv:87.0) Gecko/20100101 Firefox/87.0,Macintosh,Firefox,87,OS X,10.13
249,1,2352,"""",html-keyboard-response,146,371218,0.0-146.0,"""","<img src='jspsych/CFDfaces/CFD-WF-200-099-N.jpg' height=""250px""></br><b>Kimberly</b>","""",256,IntactFace,Memorization,70,5000,f,"""",CFD-LF-201-035-N.jpg,Laura,0,"""","""","""",1,5/3/2021 23:02,128.227.115.94,Mozilla/5.0 (Macintosh; Intel Mac OS X 10.13; rv:87.0) Gecko/20100101 Firefox/87.0,Macintosh,Firefox,87,OS X,10.13
249,1,null,"""",html-keyboard-response,147,371725,0.0-147.0,"""","<div style=""font-size:60px;"">+</div>","""",256,fixation,Memorization,null,500,"""","""","""","""","""","""","""","""",1,5/3/2021 23:02,128.227.115.94,Mozilla/5.0 (Macintosh; Intel Mac OS X 10.13; rv:87.0) Gecko/20100101 Firefox/87.0,Macintosh,Firefox,87,OS X,10.13
249,1,2587,"""",html-keyboard-response,148,376735,0.0-148.0,"""","<img src='jspsych/CFDfaces/CFD-BM-018-001-N.jpg' height=""250px""></br><b>Ian</b>","""",256,IntactFace,Memorization,70,5000,f,"""",CFD-AM-202-079-N.jpg,Steven,0,"""","""","""",1,5/3/2021 23:02,128.227.115.94,Mozilla/5.0 (Macintosh; Intel Mac OS X 10.13; rv:87.0) Gecko/20100101 Firefox/87.0,Macintosh,Firefox,87,OS X,10.13
249,1,null,"""",html-keyboard-response,149,377242,0.0-149.0,"""","<div style=""font-size:60px;"">+</div>","""",256,fixation,Memorization,null,500,"""","""","""","""","""","""","""","""",1,5/3/2021 23:02,128.227.115.94,Mozilla/5.0 (Macintosh; Intel Mac OS X 10.13; rv:87.0) Gecko/20100101 Firefox/87.0,Macintosh,Firefox,87,OS X,10.13
249,1,2798,"""",html-keyboard-response,150,382253,0.0-150.0,"""","<img src='jspsych/CFDfaces/CFD-LF-202-065-N.jpg' height=""250px""></br><b>Brittany</b>","""",256,IntactFace,Memorization,78,5000,n,"""",CFD-BF-016-017-N.jpg,Tiffany,0,"""","""","""",1,5/3/2021 23:02,128.227.115.94,Mozilla/5.0 (Macintosh; Intel Mac OS X 10.13; rv:87.0) Gecko/20100101 Firefox/87.0,Macintosh,Firefox,87,OS X,10.13
249,1,null,"""",html-keyboard-response,151,382759,0.0-151.0,"""","<div style=""font-size:60px;"">+</div>","""",256,fixation,Memorization,null,500,"""","""","""","""","""","""","""","""",1,5/3/2021 23:02,128.227.115.94,Mozilla/5.0 (Macintosh; Intel Mac OS X 10.13; rv:87.0) Gecko/20100101 Firefox/87.0,Macintosh,Firefox,87,OS X,10.13
249,1,1594,"""",html-keyboard-response,152,387767,0.0-152.0,"""","<img src='jspsych/CFDfaces/CFD-AF-226-251-N.jpg' height=""250px""></br><b>Samantha</b>","""",256,IntactFace,Memorization,70,5000,f,"""",CFD-WM-022-001-N.jpg,Sean,0,"""","""","""",1,5/3/2021 23:02,128.227.115.94,Mozilla/5.0 (Macintosh; Intel Mac OS X 10.13; rv:87.0) Gecko/20100101 Firefox/87.0,Macintosh,Firefox,87,OS X,10.13
249,1,null,"""",html-keyboard-response,153,388273,0.0-153.0,"""","<div style=""font-size:60px;"">+</div>","""",256,fixation,Memorization,null,500,"""","""","""","""","""","""","""","""",1,5/3/2021 23:02,128.227.115.94,Mozilla/5.0 (Macintosh; Intel Mac OS X 10.13; rv:87.0) Gecko/20100101 Firefox/87.0,Macintosh,Firefox,87,OS X,10.13
249,1,1158,"""",html-keyboard-response,154,389440,0.0-154.0,"""",Press Any Key to Begin Memory Test,"""",1,welcomeScreen,Break,32,"""","""","""","""","""","""","""","""","""",1,5/3/2021 23:02,128.227.115.94,Mozilla/5.0 (Macintosh; Intel Mac OS X 10.13; rv:87.0) Gecko/20100101 Firefox/87.0,Macintosh,Firefox,87,OS X,10.13
249,1,null,"""",html-keyboard-response,155,390443,0.0-155.0,"""","<div style=""font-size:60px;"">+</div>","""",256,ITI,Test,null,1000,"""","""","""","""","""","""","""","""",1,5/3/2021 23:02,128.227.115.94,Mozilla/5.0 (Macintosh; Intel Mac OS X 10.13; rv:87.0) Gecko/20100101 Firefox/87.0,Macintosh,Firefox,87,OS X,10.13
249,1,null,"""",image-keyboard-response,156,390699,0.0-156.0,"""",jspsych/scrambledDisgustFaces/scrambledAF35DIS.JPG,"""",256,forwardMask,Test,null,250,"""",d,"""","""","""","""","""","""",1,5/3/2021 23:02,128.227.115.94,Mozilla/5.0 (Macintosh; Intel Mac OS X 10.13; rv:87.0) Gecko/20100101 Firefox/87.0,Macintosh,Firefox,87,OS X,10.13
249,1,null,"""",image-keyboard-response,157,390722,0.0-157.0,"""",jspsych/disgustFaces/AF35DIS.JPG,"""",256,Cue,Test,null,16,"""","""","""","""","""","""","""","""",1,5/3/2021 23:02,128.227.115.94,Mozilla/5.0 (Macintosh; Intel Mac OS X 10.13; rv:87.0) Gecko/20100101 Firefox/87.0,Macintosh,Firefox,87,OS X,10.13
249,1,null,"""",image-keyboard-response,158,390833,0.0-158.0,"""",jspsych/neutralFaces/AF20NES.JPG,"""",256,backwardMask,Test,null,100,"""","""","""","""","""","""","""","""",1,5/3/2021 23:02,128.227.115.94,Mozilla/5.0 (Macintosh; Intel Mac OS X 10.13; rv:87.0) Gecko/20100101 Firefox/87.0,Macintosh,Firefox,87,OS X,10.13
249,1,null,"""",html-keyboard-response,159,391837,0.0-159.0,"""","<div style=""font-size:60px;"">+</div>","""",256,fixationBtwnNeutralMaskAndPrompt,Test,null,1000,"""","""","""","""","""","""","""","""",1,5/3/2021 23:02,128.227.115.94,Mozilla/5.0 (Macintosh; Intel Mac OS X 10.13; rv:87.0) Gecko/20100101 Firefox/87.0,Macintosh,Firefox,87,OS X,10.13
249,1,2737,"""",html-button-response,160,394575,0.0-160.0,"""","<img src='jspsych/CFDfaces/CFD-AF-209-006-N.jpg' height=""250px"">,</br><b>Stephanie</b>",1,256,IntactOrRearranged,Test,"""","""","""","""",CFD-BF-023-010-N.jpg,Taylor,0,1,"""","""",1,5/3/2021 23:02,128.227.115.94,Mozilla/5.0 (Macintosh; Intel Mac OS X 10.13; rv:87.0) Gecko/20100101 Firefox/87.0,Macintosh,Firefox,87,OS X,10.13
249,1,1797,"""",html-slider-response,161,396379,0.0-161.0,"""","<img src='jspsych/CFDfaces/CFD-AF-209-006-N.jpg' height=""250px"">,</br><b>Stephanie</b>","""",256,ConfidenceQuery,Test,"""","""","""","""",CFD-BF-023-010-N.jpg,Taylor,0,"""",0,5,1,5/3/2021 23:02,128.227.115.94,Mozilla/5.0 (Macintosh; Intel Mac OS X 10.13; rv:87.0) Gecko/20100101 Firefox/87.0,Macintosh,Firefox,87,OS X,10.13
249,1,null,"""",html-keyboard-response,162,397386,0.0-162.0,"""","<div style=""font-size:60px;"">+</div>","""",256,ITI,Test,null,1000,"""","""","""","""","""","""","""","""",1,5/3/2021 23:02,128.227.115.94,Mozilla/5.0 (Macintosh; Intel Mac OS X 10.13; rv:87.0) Gecko/20100101 Firefox/87.0,Macintosh,Firefox,87,OS X,10.13
249,1,null,"""",image-keyboard-response,163,397641,0.0-163.0,"""",jspsych/scrambledNeutralFaces/scrambledBF04NES.JPG,"""",256,forwardMask,Test,null,250,"""",n,"""","""","""","""","""","""",1,5/3/2021 23:02,128.227.115.94,Mozilla/5.0 (Macintosh; Intel Mac OS X 10.13; rv:87.0) Gecko/20100101 Firefox/87.0,Macintosh,Firefox,87,OS X,10.13
249,1,null,"""",image-keyboard-response,164,397663,0.0-164.0,"""",jspsych/neutralFaces/BF04NES.JPG,"""",256,Cue,Test,null,16,"""","""","""","""","""","""","""","""",1,5/3/2021 23:02,128.227.115.94,Mozilla/5.0 (Macintosh; Intel Mac OS X 10.13; rv:87.0) Gecko/20100101 Firefox/87.0,Macintosh,Firefox,87,OS X,10.13
249,1,null,"""",image-keyboard-response,165,397772,0.0-165.0,"""",jspsych/neutralFaces/AF22NES.JPG,"""",256,backwardMask,Test,null,100,"""","""","""","""","""","""","""","""",1,5/3/2021 23:02,128.227.115.94,Mozilla/5.0 (Macintosh; Intel Mac OS X 10.13; rv:87.0) Gecko/20100101 Firefox/87.0,Macintosh,Firefox,87,OS X,10.13
249,1,null,"""",html-keyboard-response,166,398778,0.0-166.0,"""","<div style=""font-size:60px;"">+</div>","""",256,fixationBtwnNeutralMaskAndPrompt,Test,null,1000,"""","""","""","""","""","""","""","""",1,5/3/2021 23:02,128.227.115.94,Mozilla/5.0 (Macintosh; Intel Mac OS X 10.13; rv:87.0) Gecko/20100101 Firefox/87.0,Macintosh,Firefox,87,OS X,10.13
249,1,1912,"""",html-button-response,167,400691,0.0-167.0,"""","<img src='jspsych/CFDfaces/CFD-AM-220-134-N.jpg' height=""250px"">,</br><b>Eric</b>",1,256,IntactOrRearranged,Test,"""","""","""","""",CFD-AM-228-214-N.jpg,Cameron,1,1,"""","""",1,5/3/2021 23:02,128.227.115.94,Mozilla/5.0 (Macintosh; Intel Mac OS X 10.13; rv:87.0) Gecko/20100101 Firefox/87.0,Macintosh,Firefox,87,OS X,10.13
249,1,1770,"""",html-slider-response,168,402469,0.0-168.0,"""","<img src='jspsych/CFDfaces/CFD-AM-220-134-N.jpg' height=""250px"">,</br><b>Eric</b>","""",256,ConfidenceQuery,Test,"""","""","""","""",CFD-AM-228-214-N.jpg,Cameron,1,"""",0,5,1,5/3/2021 23:02,128.227.115.94,Mozilla/5.0 (Macintosh; Intel Mac OS X 10.13; rv:87.0) Gecko/20100101 Firefox/87.0,Macintosh,Firefox,87,OS X,10.13
249,1,null,"""",html-keyboard-response,169,403471,0.0-169.0,"""","<div style=""font-size:60px;"">+</div>","""",256,ITI,Test,null,1000,"""","""","""","""","""","""","""","""",1,5/3/2021 23:02,128.227.115.94,Mozilla/5.0 (Macintosh; Intel Mac OS X 10.13; rv:87.0) Gecko/20100101 Firefox/87.0,Macintosh,Firefox,87,OS X,10.13
249,1,null,"""",image-keyboard-response,170,403725,0.0-170.0,"""",jspsych/scrambledNeutralFaces/scrambledBF04NES.JPG,"""",256,forwardMask,Test,null,250,"""",n,"""","""","""","""","""","""",1,5/3/2021 23:02,128.227.115.94,Mozilla/5.0 (Macintosh; Intel Mac OS X 10.13; rv:87.0) Gecko/20100101 Firefox/87.0,Macintosh,Firefox,87,OS X,10.13
249,1,null,"""",image-keyboard-response,171,403750,0.0-171.0,"""",jspsych/neutralFaces/BF04NES.JPG,"""",256,Cue,Test,null,16,"""","""","""","""","""","""","""","""",1,5/3/2021 23:02,128.227.115.94,Mozilla/5.0 (Macintosh; Intel Mac OS X 10.13; rv:87.0) Gecko/20100101 Firefox/87.0,Macintosh,Firefox,87,OS X,10.13
249,1,null,"""",image-keyboard-response,172,403858,0.0-172.0,"""",jspsych/neutralFaces/BF11NES.JPG,"""",256,backwardMask,Test,null,100,"""","""","""","""","""","""","""","""",1,5/3/2021 23:02,128.227.115.94,Mozilla/5.0 (Macintosh; Intel Mac OS X 10.13; rv:87.0) Gecko/20100101 Firefox/87.0,Macintosh,Firefox,87,OS X,10.13
249,1,null,"""",html-keyboard-response,173,404863,0.0-173.0,"""","<div style=""font-size:60px;"">+</div>","""",256,fixationBtwnNeutralMaskAndPrompt,Test,null,1000,"""","""","""","""","""","""","""","""",1,5/3/2021 23:02,128.227.115.94,Mozilla/5.0 (Macintosh; Intel Mac OS X 10.13; rv:87.0) Gecko/20100101 Firefox/87.0,Macintosh,Firefox,87,OS X,10.13
249,1,3272,"""",html-button-response,174,408136,0.0-174.0,"""","<img src='jspsych/CFDfaces/CFD-AF-222-134-N.jpg' height=""250px"">,</br><b>Meghan</b>",1,256,IntactOrRearranged,Test,"""","""","""","""",CFD-WM-009-002-N.jpg,Austin,0,1,"""","""",1,5/3/2021 23:02,128.227.115.94,Mozilla/5.0 (Macintosh; Intel Mac OS X 10.13; rv:87.0) Gecko/20100101 Firefox/87.0,Macintosh,Firefox,87,OS X,10.13
249,1,1778,"""",html-slider-response,175,409921,0.0-175.0,"""","<img src='jspsych/CFDfaces/CFD-AF-222-134-N.jpg' height=""250px"">,</br><b>Meghan</b>","""",256,ConfidenceQuery,Test,"""","""","""","""",CFD-WM-009-002-N.jpg,Austin,0,"""",0,26,1,5/3/2021 23:02,128.227.115.94,Mozilla/5.0 (Macintosh; Intel Mac OS X 10.13; rv:87.0) Gecko/20100101 Firefox/87.0,Macintosh,Firefox,87,OS X,10.13
249,1,null,"""",html-keyboard-response,176,410923,0.0-176.0,"""","<div style=""font-size:60px;"">+</div>","""",256,ITI,Test,null,1000,"""","""","""","""","""","""","""","""",1,5/3/2021 23:02,128.227.115.94,Mozilla/5.0 (Macintosh; Intel Mac OS X 10.13; rv:87.0) Gecko/20100101 Firefox/87.0,Macintosh,Firefox,87,OS X,10.13
249,1,null,"""",image-keyboard-response,177,411179,0.0-177.0,"""",jspsych/scrambledDisgustFaces/scrambledAF07DIS.JPG,"""",256,forwardMask,Test,null,250,"""",d,"""","""","""","""","""","""",1,5/3/2021 23:02,128.227.115.94,Mozilla/5.0 (Macintosh; Intel Mac OS X 10.13; rv:87.0) Gecko/20100101 Firefox/87.0,Macintosh,Firefox,87,OS X,10.13
249,1,null,"""",image-keyboard-response,178,411204,0.0-178.0,"""",jspsych/disgustFaces/AF07DIS.JPG,"""",256,Cue,Test,null,16,"""","""","""","""","""","""","""","""",1,5/3/2021 23:02,128.227.115.94,Mozilla/5.0 (Macintosh; Intel Mac OS X 10.13; rv:87.0) Gecko/20100101 Firefox/87.0,Macintosh,Firefox,87,OS X,10.13
249,1,null,"""",image-keyboard-response,179,411311,0.0-179.0,"""",jspsych/neutralFaces/BF09NES.JPG,"""",256,backwardMask,Test,null,100,"""","""","""","""","""","""","""","""",1,5/3/2021 23:02,128.227.115.94,Mozilla/5.0 (Macintosh; Intel Mac OS X 10.13; rv:87.0) Gecko/20100101 Firefox/87.0,Macintosh,Firefox,87,OS X,10.13
249,1,null,"""",html-keyboard-response,180,412316,0.0-180.0,"""","<div style=""font-size:60px;"">+</div>","""",256,fixationBtwnNeutralMaskAndPrompt,Test,null,1000,"""","""","""","""","""","""","""","""",1,5/3/2021 23:02,128.227.115.94,Mozilla/5.0 (Macintosh; Intel Mac OS X 10.13; rv:87.0) Gecko/20100101 Firefox/87.0,Macintosh,Firefox,87,OS X,10.13
249,1,2683,"""",html-button-response,181,415001,0.0-181.0,"""","<img src='jspsych/CFDfaces/CFD-BF-209-172-N.jpg' height=""250px"">,</br><b>Vanessa</b>",0,256,IntactOrRearranged,Test,"""","""","""","""",CFD-WM-011-002-N.jpg,Vincent,0,0,"""","""",1,5/3/2021 23:02,128.227.115.94,Mozilla/5.0 (Macintosh; Intel Mac OS X 10.13; rv:87.0) Gecko/20100101 Firefox/87.0,Macintosh,Firefox,87,OS X,10.13
249,1,2400,"""",html-slider-response,182,417410,0.0-182.0,"""","<img src='jspsych/CFDfaces/CFD-BF-209-172-N.jpg' height=""250px"">,</br><b>Vanessa</b>","""",256,ConfidenceQuery,Test,"""","""","""","""",CFD-WM-011-002-N.jpg,Vincent,0,"""",0,47,1,5/3/2021 23:02,128.227.115.94,Mozilla/5.0 (Macintosh; Intel Mac OS X 10.13; rv:87.0) Gecko/20100101 Firefox/87.0,Macintosh,Firefox,87,OS X,10.13
249,1,null,"""",html-keyboard-response,183,418412,0.0-183.0,"""","<div style=""font-size:60px;"">+</div>","""",256,ITI,Test,null,1000,"""","""","""","""","""","""","""","""",1,5/3/2021 23:02,128.227.115.94,Mozilla/5.0 (Macintosh; Intel Mac OS X 10.13; rv:87.0) Gecko/20100101 Firefox/87.0,Macintosh,Firefox,87,OS X,10.13
249,1,null,"""",image-keyboard-response,184,418667,0.0-184.0,"""",jspsych/scrambledNeutralFaces/scrambledBF25NES.JPG,"""",256,forwardMask,Test,null,250,"""",n,"""","""","""","""","""","""",1,5/3/2021 23:02,128.227.115.94,Mozilla/5.0 (Macintosh; Intel Mac OS X 10.13; rv:87.0) Gecko/20100101 Firefox/87.0,Macintosh,Firefox,87,OS X,10.13
249,1,null,"""",image-keyboard-response,185,418690,0.0-185.0,"""",jspsych/neutralFaces/BF25NES.JPG,"""",256,Cue,Test,null,16,"""","""","""","""","""","""","""","""",1,5/3/2021 23:02,128.227.115.94,Mozilla/5.0 (Macintosh; Intel Mac OS X 10.13; rv:87.0) Gecko/20100101 Firefox/87.0,Macintosh,Firefox,87,OS X,10.13
249,1,null,"""",image-keyboard-response,186,418801,0.0-186.0,"""",jspsych/neutralFaces/AF05NES.JPG,"""",256,backwardMask,Test,null,100,"""","""","""","""","""","""","""","""",1,5/3/2021 23:02,128.227.115.94,Mozilla/5.0 (Macintosh; Intel Mac OS X 10.13; rv:87.0) Gecko/20100101 Firefox/87.0,Macintosh,Firefox,87,OS X,10.13
249,1,null,"""",html-keyboard-response,187,419805,0.0-187.0,"""","<div style=""font-size:60px;"">+</div>","""",256,fixationBtwnNeutralMaskAndPrompt,Test,null,1000,"""","""","""","""","""","""","""","""",1,5/3/2021 23:02,128.227.115.94,Mozilla/5.0 (Macintosh; Intel Mac OS X 10.13; rv:87.0) Gecko/20100101 Firefox/87.0,Macintosh,Firefox,87,OS X,10.13
249,1,3239,"""",html-button-response,188,423045,0.0-188.0,"""","<img src='jspsych/CFDfaces/CFD-AF-241-141-N.jpg' height=""250px"">,</br><b>Andrea</b>",1,256,IntactOrRearranged,Test,"""","""","""","""",CFD-BM-032-024-N.jpg,Jacob,1,1,"""","""",1,5/3/2021 23:02,128.227.115.94,Mozilla/5.0 (Macintosh; Intel Mac OS X 10.13; rv:87.0) Gecko/20100101 Firefox/87.0,Macintosh,Firefox,87,OS X,10.13
249,1,2062,"""",html-slider-response,189,425115,0.0-189.0,"""","<img src='jspsych/CFDfaces/CFD-AF-241-141-N.jpg' height=""250px"">,</br><b>Andrea</b>","""",256,ConfidenceQuery,Test,"""","""","""","""",CFD-BM-032-024-N.jpg,Jacob,1,"""",0,87,1,5/3/2021 23:02,128.227.115.94,Mozilla/5.0 (Macintosh; Intel Mac OS X 10.13; rv:87.0) Gecko/20100101 Firefox/87.0,Macintosh,Firefox,87,OS X,10.13
249,1,null,"""",html-keyboard-response,190,426121,0.0-190.0,"""","<div style=""font-size:60px;"">+</div>","""",256,ITI,Test,null,1000,"""","""","""","""","""","""","""","""",1,5/3/2021 23:02,128.227.115.94,Mozilla/5.0 (Macintosh; Intel Mac OS X 10.13; rv:87.0) Gecko/20100101 Firefox/87.0,Macintosh,Firefox,87,OS X,10.13
249,1,null,"""",image-keyboard-response,191,426376,0.0-191.0,"""",jspsych/scrambledNeutralFaces/scrambledAM13NES.JPG,"""",256,forwardMask,Test,null,250,"""",n,"""","""","""","""","""","""",1,5/3/2021 23:02,128.227.115.94,Mozilla/5.0 (Macintosh; Intel Mac OS X 10.13; rv:87.0) Gecko/20100101 Firefox/87.0,Macintosh,Firefox,87,OS X,10.13
249,1,null,"""",image-keyboard-response,192,426397,0.0-192.0,"""",jspsych/neutralFaces/AM13NES.JPG,"""",256,Cue,Test,null,16,"""","""","""","""","""","""","""","""",1,5/3/2021 23:02,128.227.115.94,Mozilla/5.0 (Macintosh; Intel Mac OS X 10.13; rv:87.0) Gecko/20100101 Firefox/87.0,Macintosh,Firefox,87,OS X,10.13
249,1,null,"""",image-keyboard-response,193,426505,0.0-193.0,"""",jspsych/neutralFaces/AM09NES.JPG,"""",256,backwardMask,Test,null,100,"""","""","""","""","""","""","""","""",1,5/3/2021 23:02,128.227.115.94,Mozilla/5.0 (Macintosh; Intel Mac OS X 10.13; rv:87.0) Gecko/20100101 Firefox/87.0,Macintosh,Firefox,87,OS X,10.13
249,1,null,"""",html-keyboard-response,194,427508,0.0-194.0,"""","<div style=""font-size:60px;"">+</div>","""",256,fixationBtwnNeutralMaskAndPrompt,Test,null,1000,"""","""","""","""","""","""","""","""",1,5/3/2021 23:02,128.227.115.94,Mozilla/5.0 (Macintosh; Intel Mac OS X 10.13; rv:87.0) Gecko/20100101 Firefox/87.0,Macintosh,Firefox,87,OS X,10.13
249,1,1468,"""",html-button-response,195,428978,0.0-195.0,"""","<img src='jspsych/CFDfaces/CFD-WF-200-099-N.jpg' height=""250px"">,</br><b>Emily</b>",1,256,IntactOrRearranged,Test,"""","""","""","""",CFD-BF-221-223-N.jpg,Whitney,1,1,"""","""",1,5/3/2021 23:02,128.227.115.94,Mozilla/5.0 (Macintosh; Intel Mac OS X 10.13; rv:87.0) Gecko/20100101 Firefox/87.0,Macintosh,Firefox,87,OS X,10.13
249,1,2127,"""",html-slider-response,196,431106,0.0-196.0,"""","<img src='jspsych/CFDfaces/CFD-WF-200-099-N.jpg' height=""250px"">,</br><b>Emily</b>","""",256,ConfidenceQuery,Test,"""","""","""","""",CFD-BF-221-223-N.jpg,Whitney,1,"""",0,93,1,5/3/2021 23:02,128.227.115.94,Mozilla/5.0 (Macintosh; Intel Mac OS X 10.13; rv:87.0) Gecko/20100101 Firefox/87.0,Macintosh,Firefox,87,OS X,10.13
249,1,null,"""",html-keyboard-response,197,432119,0.0-197.0,"""","<div style=""font-size:60px;"">+</div>","""",256,ITI,Test,null,1000,"""","""","""","""","""","""","""","""",1,5/3/2021 23:02,128.227.115.94,Mozilla/5.0 (Macintosh; Intel Mac OS X 10.13; rv:87.0) Gecko/20100101 Firefox/87.0,Macintosh,Firefox,87,OS X,10.13
249,1,null,"""",image-keyboard-response,198,432379,0.0-198.0,"""",jspsych/scrambledNeutralFaces/scrambledBF14NES.JPG,"""",256,forwardMask,Test,null,250,"""",n,"""","""","""","""","""","""",1,5/3/2021 23:02,128.227.115.94,Mozilla/5.0 (Macintosh; Intel Mac OS X 10.13; rv:87.0) Gecko/20100101 Firefox/87.0,Macintosh,Firefox,87,OS X,10.13
249,1,null,"""",image-keyboard-response,199,432401,0.0-199.0,"""",jspsych/neutralFaces/BF14NES.JPG,"""",256,Cue,Test,null,16,"""","""","""","""","""","""","""","""",1,5/3/2021 23:02,128.227.115.94,Mozilla/5.0 (Macintosh; Intel Mac OS X 10.13; rv:87.0) Gecko/20100101 Firefox/87.0,Macintosh,Firefox,87,OS X,10.13
249,1,null,"""",image-keyboard-response,200,432506,0.0-200.0,"""",jspsych/neutralFaces/AF21NES.JPG,"""",256,backwardMask,Test,null,100,"""","""","""","""","""","""","""","""",1,5/3/2021 23:02,128.227.115.94,Mozilla/5.0 (Macintosh; Intel Mac OS X 10.13; rv:87.0) Gecko/20100101 Firefox/87.0,Macintosh,Firefox,87,OS X,10.13
249,1,null,"""",html-keyboard-response,201,433512,0.0-201.0,"""","<div style=""font-size:60px;"">+</div>","""",256,fixationBtwnNeutralMaskAndPrompt,Test,null,1000,"""","""","""","""","""","""","""","""",1,5/3/2021 23:02,128.227.115.94,Mozilla/5.0 (Macintosh; Intel Mac OS X 10.13; rv:87.0) Gecko/20100101 Firefox/87.0,Macintosh,Firefox,87,OS X,10.13
249,1,null,"""",html-button-response,202,438520,0.0-202.0,"""","<img src='jspsych/CFDfaces/CFD-BF-009-002-N.jpg' height=""250px"">,</br><b>Michelle</b>",null,256,IntactOrRearranged,Test,"""","""","""","""",CFD-LF-203-066-N.jpg,Lindsey,0,"""","""","""",1,5/3/2021 23:02,128.227.115.94,Mozilla/5.0 (Macintosh; Intel Mac OS X 10.13; rv:87.0) Gecko/20100101 Firefox/87.0,Macintosh,Firefox,87,OS X,10.13
249,1,2749,"""",html-slider-response,203,441279,0.0-203.0,"""","<img src='jspsych/CFDfaces/CFD-BF-009-002-N.jpg' height=""250px"">,</br><b>Michelle</b>","""",256,ConfidenceQuery,Test,"""","""","""","""",CFD-LF-203-066-N.jpg,Lindsey,0,"""",0,20,1,5/3/2021 23:02,128.227.115.94,Mozilla/5.0 (Macintosh; Intel Mac OS X 10.13; rv:87.0) Gecko/20100101 Firefox/87.0,Macintosh,Firefox,87,OS X,10.13
249,1,null,"""",html-keyboard-response,204,442281,0.0-204.0,"""","<div style=""font-size:60px;"">+</div>","""",256,ITI,Test,null,1000,"""","""","""","""","""","""","""","""",1,5/3/2021 23:02,128.227.115.94,Mozilla/5.0 (Macintosh; Intel Mac OS X 10.13; rv:87.0) Gecko/20100101 Firefox/87.0,Macintosh,Firefox,87,OS X,10.13
249,1,null,"""",image-keyboard-response,205,442537,0.0-205.0,"""",jspsych/scrambledDisgustFaces/scrambledAF28DIS.JPG,"""",256,forwardMask,Test,null,250,"""",d,"""","""","""","""","""","""",1,5/3/2021 23:02,128.227.115.94,Mozilla/5.0 (Macintosh; Intel Mac OS X 10.13; rv:87.0) Gecko/20100101 Firefox/87.0,Macintosh,Firefox,87,OS X,10.13
249,1,null,"""",image-keyboard-response,206,442559,0.0-206.0,"""",jspsych/disgustFaces/AF28DIS.JPG,"""",256,Cue,Test,null,16,"""","""","""","""","""","""","""","""",1,5/3/2021 23:02,128.227.115.94,Mozilla/5.0 (Macintosh; Intel Mac OS X 10.13; rv:87.0) Gecko/20100101 Firefox/87.0,Macintosh,Firefox,87,OS X,10.13
249,1,null,"""",image-keyboard-response,207,442664,0.0-207.0,"""",jspsych/neutralFaces/AF32NES.JPG,"""",256,backwardMask,Test,null,100,"""","""","""","""","""","""","""","""",1,5/3/2021 23:02,128.227.115.94,Mozilla/5.0 (Macintosh; Intel Mac OS X 10.13; rv:87.0) Gecko/20100101 Firefox/87.0,Macintosh,Firefox,87,OS X,10.13
249,1,null,"""",html-keyboard-response,208,443666,0.0-208.0,"""","<div style=""font-size:60px;"">+</div>","""",256,fixationBtwnNeutralMaskAndPrompt,Test,null,1000,"""","""","""","""","""","""","""","""",1,5/3/2021 23:02,128.227.115.94,Mozilla/5.0 (Macintosh; Intel Mac OS X 10.13; rv:87.0) Gecko/20100101 Firefox/87.0,Macintosh,Firefox,87,OS X,10.13
249,1,2843,"""",html-button-response,209,446510,0.0-209.0,"""","<img src='jspsych/CFDfaces/CFD-WF-220-101-N.jpg' height=""250px"">,</br><b>Elizabeth</b>",1,256,IntactOrRearranged,Test,"""","""","""","""",CFD-WF-019-005-N.jpg,Rebecca,1,1,"""","""",1,5/3/2021 23:02,128.227.115.94,Mozilla/5.0 (Macintosh; Intel Mac OS X 10.13; rv:87.0) Gecko/20100101 Firefox/87.0,Macintosh,Firefox,87,OS X,10.13
249,1,1772,"""",html-slider-response,210,448290,0.0-210.0,"""","<img src='jspsych/CFDfaces/CFD-WF-220-101-N.jpg' height=""250px"">,</br><b>Elizabeth</b>","""",256,ConfidenceQuery,Test,"""","""","""","""",CFD-WF-019-005-N.jpg,Rebecca,1,"""",0,31,1,5/3/2021 23:02,128.227.115.94,Mozilla/5.0 (Macintosh; Intel Mac OS X 10.13; rv:87.0) Gecko/20100101 Firefox/87.0,Macintosh,Firefox,87,OS X,10.13
249,1,null,"""",html-keyboard-response,211,449294,0.0-211.0,"""","<div style=""font-size:60px;"">+</div>","""",256,ITI,Test,null,1000,"""","""","""","""","""","""","""","""",1,5/3/2021 23:02,128.227.115.94,Mozilla/5.0 (Macintosh; Intel Mac OS X 10.13; rv:87.0) Gecko/20100101 Firefox/87.0,Macintosh,Firefox,87,OS X,10.13
249,1,null,"""",image-keyboard-response,212,449549,0.0-212.0,"""",jspsych/scrambledDisgustFaces/scrambledAM25DIS.JPG,"""",256,forwardMask,Test,null,250,"""",d,"""","""","""","""","""","""",1,5/3/2021 23:02,128.227.115.94,Mozilla/5.0 (Macintosh; Intel Mac OS X 10.13; rv:87.0) Gecko/20100101 Firefox/87.0,Macintosh,Firefox,87,OS X,10.13
249,1,null,"""",image-keyboard-response,213,449572,0.0-213.0,"""",jspsych/disgustFaces/AM25DIS.JPG,"""",256,Cue,Test,null,16,"""","""","""","""","""","""","""","""",1,5/3/2021 23:02,128.227.115.94,Mozilla/5.0 (Macintosh; Intel Mac OS X 10.13; rv:87.0) Gecko/20100101 Firefox/87.0,Macintosh,Firefox,87,OS X,10.13
249,1,null,"""",image-keyboard-response,214,449680,0.0-214.0,"""",jspsych/neutralFaces/AM02NES.JPG,"""",256,backwardMask,Test,null,100,"""","""","""","""","""","""","""","""",1,5/3/2021 23:02,128.227.115.94,Mozilla/5.0 (Macintosh; Intel Mac OS X 10.13; rv:87.0) Gecko/20100101 Firefox/87.0,Macintosh,Firefox,87,OS X,10.13
249,1,null,"""",html-keyboard-response,215,450686,0.0-215.0,"""","<div style=""font-size:60px;"">+</div>","""",256,fixationBtwnNeutralMaskAndPrompt,Test,null,1000,"""","""","""","""","""","""","""","""",1,5/3/2021 23:02,128.227.115.94,Mozilla/5.0 (Macintosh; Intel Mac OS X 10.13; rv:87.0) Gecko/20100101 Firefox/87.0,Macintosh,Firefox,87,OS X,10.13
249,1,3132,"""",html-button-response,216,453818,0.0-216.0,"""","<img src='jspsych/CFDfaces/CFD-AF-214-139-N.jpg' height=""250px"">,</br><b>Ashley</b>",0,256,IntactOrRearranged,Test,"""","""","""","""",CFD-AF-215-70-N.jpg,Laura,1,0,"""","""",1,5/3/2021 23:02,128.227.115.94,Mozilla/5.0 (Macintosh; Intel Mac OS X 10.13; rv:87.0) Gecko/20100101 Firefox/87.0,Macintosh,Firefox,87,OS X,10.13
249,1,2156,"""",html-slider-response,217,455982,0.0-217.0,"""","<img src='jspsych/CFDfaces/CFD-AF-214-139-N.jpg' height=""250px"">,</br><b>Ashley</b>","""",256,ConfidenceQuery,Test,"""","""","""","""",CFD-AF-215-70-N.jpg,Laura,1,"""",0,4,1,5/3/2021 23:02,128.227.115.94,Mozilla/5.0 (Macintosh; Intel Mac OS X 10.13; rv:87.0) Gecko/20100101 Firefox/87.0,Macintosh,Firefox,87,OS X,10.13
249,1,null,"""",html-keyboard-response,218,456984,0.0-218.0,"""","<div style=""font-size:60px;"">+</div>","""",256,ITI,Test,null,1000,"""","""","""","""","""","""","""","""",1,5/3/2021 23:02,128.227.115.94,Mozilla/5.0 (Macintosh; Intel Mac OS X 10.13; rv:87.0) Gecko/20100101 Firefox/87.0,Macintosh,Firefox,87,OS X,10.13
249,1,null,"""",image-keyboard-response,219,457243,0.0-219.0,"""",jspsych/scrambledDisgustFaces/scrambledAM09DIS.JPG,"""",256,forwardMask,Test,null,250,"""",d,"""","""","""","""","""","""",1,5/3/2021 23:02,128.227.115.94,Mozilla/5.0 (Macintosh; Intel Mac OS X 10.13; rv:87.0) Gecko/20100101 Firefox/87.0,Macintosh,Firefox,87,OS X,10.13
249,1,null,"""",image-keyboard-response,220,457270,0.0-220.0,"""",jspsych/disgustFaces/AM09DIS.JPG,"""",256,Cue,Test,null,16,"""","""","""","""","""","""","""","""",1,5/3/2021 23:02,128.227.115.94,Mozilla/5.0 (Macintosh; Intel Mac OS X 10.13; rv:87.0) Gecko/20100101 Firefox/87.0,Macintosh,Firefox,87,OS X,10.13
249,1,null,"""",image-keyboard-response,221,457379,0.0-221.0,"""",jspsych/neutralFaces/BM22NES.JPG,"""",256,backwardMask,Test,null,100,"""","""","""","""","""","""","""","""",1,5/3/2021 23:02,128.227.115.94,Mozilla/5.0 (Macintosh; Intel Mac OS X 10.13; rv:87.0) Gecko/20100101 Firefox/87.0,Macintosh,Firefox,87,OS X,10.13
249,1,null,"""",html-keyboard-response,222,458383,0.0-222.0,"""","<div style=""font-size:60px;"">+</div>","""",256,fixationBtwnNeutralMaskAndPrompt,Test,null,1000,"""","""","""","""","""","""","""","""",1,5/3/2021 23:02,128.227.115.94,Mozilla/5.0 (Macintosh; Intel Mac OS X 10.13; rv:87.0) Gecko/20100101 Firefox/87.0,Macintosh,Firefox,87,OS X,10.13
249,1,2335,"""",html-button-response,223,460720,0.0-223.0,"""","<img src='jspsych/CFDfaces/CFD-LM-233-171-N.jpg' height=""250px"">,</br><b>Brandon</b>",0,256,IntactOrRearranged,Test,"""","""","""","""",CFD-BF-212-315-N.jpg,Lauren,0,0,"""","""",1,5/3/2021 23:02,128.227.115.94,Mozilla/5.0 (Macintosh; Intel Mac OS X 10.13; rv:87.0) Gecko/20100101 Firefox/87.0,Macintosh,Firefox,87,OS X,10.13
249,1,4443,"""",html-slider-response,224,465171,0.0-224.0,"""","<img src='jspsych/CFDfaces/CFD-LM-233-171-N.jpg' height=""250px"">,</br><b>Brandon</b>","""",256,ConfidenceQuery,Test,"""","""","""","""",CFD-BF-212-315-N.jpg,Lauren,0,"""",0,47,1,5/3/2021 23:02,128.227.115.94,Mozilla/5.0 (Macintosh; Intel Mac OS X 10.13; rv:87.0) Gecko/20100101 Firefox/87.0,Macintosh,Firefox,87,OS X,10.13
249,1,null,"""",html-keyboard-response,225,466176,0.0-225.0,"""","<div style=""font-size:60px;"">+</div>","""",256,ITI,Test,null,1000,"""","""","""","""","""","""","""","""",1,5/3/2021 23:02,128.227.115.94,Mozilla/5.0 (Macintosh; Intel Mac OS X 10.13; rv:87.0) Gecko/20100101 Firefox/87.0,Macintosh,Firefox,87,OS X,10.13
249,1,null,"""",image-keyboard-response,226,466434,0.0-226.0,"""",jspsych/scrambledDisgustFaces/scrambledBF05DIS.JPG,"""",256,forwardMask,Test,null,250,"""",d,"""","""","""","""","""","""",1,5/3/2021 23:02,128.227.115.94,Mozilla/5.0 (Macintosh; Intel Mac OS X 10.13; rv:87.0) Gecko/20100101 Firefox/87.0,Macintosh,Firefox,87,OS X,10.13
249,1,null,"""",image-keyboard-response,227,466458,0.0-227.0,"""",jspsych/disgustFaces/BF05DIS.JPG,"""",256,Cue,Test,null,16,"""","""","""","""","""","""","""","""",1,5/3/2021 23:02,128.227.115.94,Mozilla/5.0 (Macintosh; Intel Mac OS X 10.13; rv:87.0) Gecko/20100101 Firefox/87.0,Macintosh,Firefox,87,OS X,10.13
249,1,null,"""",image-keyboard-response,228,466569,0.0-228.0,"""",jspsych/neutralFaces/BF27NES.JPG,"""",256,backwardMask,Test,null,100,"""","""","""","""","""","""","""","""",1,5/3/2021 23:02,128.227.115.94,Mozilla/5.0 (Macintosh; Intel Mac OS X 10.13; rv:87.0) Gecko/20100101 Firefox/87.0,Macintosh,Firefox,87,OS X,10.13
249,1,null,"""",html-keyboard-response,229,467573,0.0-229.0,"""","<div style=""font-size:60px;"">+</div>","""",256,fixationBtwnNeutralMaskAndPrompt,Test,null,1000,"""","""","""","""","""","""","""","""",1,5/3/2021 23:02,128.227.115.94,Mozilla/5.0 (Macintosh; Intel Mac OS X 10.13; rv:87.0) Gecko/20100101 Firefox/87.0,Macintosh,Firefox,87,OS X,10.13
249,1,2053,"""",html-button-response,230,469636,0.0-230.0,"""","<img src='jspsych/CFDfaces/CFD-LF-213-079-N.jpg' height=""250px"">,</br><b>Amanda</b>",1,256,IntactOrRearranged,Test,"""","""","""","""",CFD-LF-205-100-N.jpg,Amy,1,1,"""","""",1,5/3/2021 23:02,128.227.115.94,Mozilla/5.0 (Macintosh; Intel Mac OS X 10.13; rv:87.0) Gecko/20100101 Firefox/87.0,Macintosh,Firefox,87,OS X,10.13
249,1,3284,"""",html-slider-response,231,472922,0.0-231.0,"""","<img src='jspsych/CFDfaces/CFD-LF-213-079-N.jpg' height=""250px"">,</br><b>Amanda</b>","""",256,ConfidenceQuery,Test,"""","""","""","""",CFD-LF-205-100-N.jpg,Amy,1,"""",0,100,1,5/3/2021 23:02,128.227.115.94,Mozilla/5.0 (Macintosh; Intel Mac OS X 10.13; rv:87.0) Gecko/20100101 Firefox/87.0,Macintosh,Firefox,87,OS X,10.13
249,1,null,"""",html-keyboard-response,232,473929,0.0-232.0,"""","<div style=""font-size:60px;"">+</div>","""",256,ITI,Test,null,1000,"""","""","""","""","""","""","""","""",1,5/3/2021 23:02,128.227.115.94,Mozilla/5.0 (Macintosh; Intel Mac OS X 10.13; rv:87.0) Gecko/20100101 Firefox/87.0,Macintosh,Firefox,87,OS X,10.13
249,1,null,"""",image-keyboard-response,233,474191,0.0-233.0,"""",jspsych/scrambledDisgustFaces/scrambledBM07DIS.JPG,"""",256,forwardMask,Test,null,250,"""",d,"""","""","""","""","""","""",1,5/3/2021 23:02,128.227.115.94,Mozilla/5.0 (Macintosh; Intel Mac OS X 10.13; rv:87.0) Gecko/20100101 Firefox/87.0,Macintosh,Firefox,87,OS X,10.13
249,1,null,"""",image-keyboard-response,234,474218,0.0-234.0,"""",jspsych/disgustFaces/BM08DIS.JPG,"""",256,Cue,Test,null,16,"""","""","""","""","""","""","""","""",1,5/3/2021 23:02,128.227.115.94,Mozilla/5.0 (Macintosh; Intel Mac OS X 10.13; rv:87.0) Gecko/20100101 Firefox/87.0,Macintosh,Firefox,87,OS X,10.13
249,1,null,"""",image-keyboard-response,235,474324,0.0-235.0,"""",jspsych/neutralFaces/BM23NES.JPG,"""",256,backwardMask,Test,null,100,"""","""","""","""","""","""","""","""",1,5/3/2021 23:02,128.227.115.94,Mozilla/5.0 (Macintosh; Intel Mac OS X 10.13; rv:87.0) Gecko/20100101 Firefox/87.0,Macintosh,Firefox,87,OS X,10.13
249,1,null,"""",html-keyboard-response,236,475329,0.0-236.0,"""","<div style=""font-size:60px;"">+</div>","""",256,fixationBtwnNeutralMaskAndPrompt,Test,null,1000,"""","""","""","""","""","""","""","""",1,5/3/2021 23:02,128.227.115.94,Mozilla/5.0 (Macintosh; Intel Mac OS X 10.13; rv:87.0) Gecko/20100101 Firefox/87.0,Macintosh,Firefox,87,OS X,10.13
249,1,3019,"""",html-button-response,237,478350,0.0-237.0,"""","<img src='jspsych/CFDfaces/CFD-WM-041-021-N.jpg' height=""250px"">,</br><b>James</b>",1,256,IntactOrRearranged,Test,"""","""","""","""",CFD-AM-243-212-N.jpg,Jeremy,1,1,"""","""",1,5/3/2021 23:02,128.227.115.94,Mozilla/5.0 (Macintosh; Intel Mac OS X 10.13; rv:87.0) Gecko/20100101 Firefox/87.0,Macintosh,Firefox,87,OS X,10.13
249,1,1846,"""",html-slider-response,238,480199,0.0-238.0,"""","<img src='jspsych/CFDfaces/CFD-WM-041-021-N.jpg' height=""250px"">,</br><b>James</b>","""",256,ConfidenceQuery,Test,"""","""","""","""",CFD-AM-243-212-N.jpg,Jeremy,1,"""",0,36,1,5/3/2021 23:02,128.227.115.94,Mozilla/5.0 (Macintosh; Intel Mac OS X 10.13; rv:87.0) Gecko/20100101 Firefox/87.0,Macintosh,Firefox,87,OS X,10.13
249,1,null,"""",html-keyboard-response,239,481209,0.0-239.0,"""","<div style=""font-size:60px;"">+</div>","""",256,ITI,Test,null,1000,"""","""","""","""","""","""","""","""",1,5/3/2021 23:02,128.227.115.94,Mozilla/5.0 (Macintosh; Intel Mac OS X 10.13; rv:87.0) Gecko/20100101 Firefox/87.0,Macintosh,Firefox,87,OS X,10.13
249,1,null,"""",image-keyboard-response,240,481464,0.0-240.0,"""",jspsych/scrambledNeutralFaces/scrambledBF17NES.JPG,"""",256,forwardMask,Test,null,250,"""",n,"""","""","""","""","""","""",1,5/3/2021 23:02,128.227.115.94,Mozilla/5.0 (Macintosh; Intel Mac OS X 10.13; rv:87.0) Gecko/20100101 Firefox/87.0,Macintosh,Firefox,87,OS X,10.13
249,1,null,"""",image-keyboard-response,241,481488,0.0-241.0,"""",jspsych/neutralFaces/BF17NES.JPG,"""",256,Cue,Test,null,16,"""","""","""","""","""","""","""","""",1,5/3/2021 23:02,128.227.115.94,Mozilla/5.0 (Macintosh; Intel Mac OS X 10.13; rv:87.0) Gecko/20100101 Firefox/87.0,Macintosh,Firefox,87,OS X,10.13
249,1,null,"""",image-keyboard-response,242,481598,0.0-242.0,"""",jspsych/neutralFaces/AF35NES.JPG,"""",256,backwardMask,Test,null,100,"""","""","""","""","""","""","""","""",1,5/3/2021 23:02,128.227.115.94,Mozilla/5.0 (Macintosh; Intel Mac OS X 10.13; rv:87.0) Gecko/20100101 Firefox/87.0,Macintosh,Firefox,87,OS X,10.13
249,1,null,"""",html-keyboard-response,243,482601,0.0-243.0,"""","<div style=""font-size:60px;"">+</div>","""",256,fixationBtwnNeutralMaskAndPrompt,Test,null,1000,"""","""","""","""","""","""","""","""",1,5/3/2021 23:02,128.227.115.94,Mozilla/5.0 (Macintosh; Intel Mac OS X 10.13; rv:87.0) Gecko/20100101 Firefox/87.0,Macintosh,Firefox,87,OS X,10.13
249,1,2096,"""",html-button-response,244,484700,0.0-244.0,"""","<img src='jspsych/CFDfaces/CFD-LF-202-065-N.jpg' height=""250px"">,</br><b>Brittany</b>",0,256,IntactOrRearranged,Test,"""","""","""","""",CFD-BM-027-001-N.jpg,Luis,0,0,"""","""",1,5/3/2021 23:02,128.227.115.94,Mozilla/5.0 (Macintosh; Intel Mac OS X 10.13; rv:87.0) Gecko/20100101 Firefox/87.0,Macintosh,Firefox,87,OS X,10.13
249,1,1585,"""",html-slider-response,245,486288,0.0-245.0,"""","<img src='jspsych/CFDfaces/CFD-LF-202-065-N.jpg' height=""250px"">,</br><b>Brittany</b>","""",256,ConfidenceQuery,Test,"""","""","""","""",CFD-BM-027-001-N.jpg,Luis,0,"""",0,9,1,5/3/2021 23:02,128.227.115.94,Mozilla/5.0 (Macintosh; Intel Mac OS X 10.13; rv:87.0) Gecko/20100101 Firefox/87.0,Macintosh,Firefox,87,OS X,10.13
249,1,null,"""",html-keyboard-response,246,487301,0.0-246.0,"""","<div style=""font-size:60px;"">+</div>","""",256,ITI,Test,null,1000,"""","""","""","""","""","""","""","""",1,5/3/2021 23:02,128.227.115.94,Mozilla/5.0 (Macintosh; Intel Mac OS X 10.13; rv:87.0) Gecko/20100101 Firefox/87.0,Macintosh,Firefox,87,OS X,10.13
249,1,null,"""",image-keyboard-response,247,487560,0.0-247.0,"""",jspsych/scrambledDisgustFaces/scrambledBF20DIS.JPG,"""",256,forwardMask,Test,null,250,"""",d,"""","""","""","""","""","""",1,5/3/2021 23:02,128.227.115.94,Mozilla/5.0 (Macintosh; Intel Mac OS X 10.13; rv:87.0) Gecko/20100101 Firefox/87.0,Macintosh,Firefox,87,OS X,10.13
249,1,null,"""",image-keyboard-response,248,487582,0.0-248.0,"""",jspsych/disgustFaces/BF20DIS.JPG,"""",256,Cue,Test,null,16,"""","""","""","""","""","""","""","""",1,5/3/2021 23:02,128.227.115.94,Mozilla/5.0 (Macintosh; Intel Mac OS X 10.13; rv:87.0) Gecko/20100101 Firefox/87.0,Macintosh,Firefox,87,OS X,10.13
249,1,null,"""",image-keyboard-response,249,487688,0.0-249.0,"""",jspsych/neutralFaces/BF25NES.JPG,"""",256,backwardMask,Test,null,100,"""","""","""","""","""","""","""","""",1,5/3/2021 23:02,128.227.115.94,Mozilla/5.0 (Macintosh; Intel Mac OS X 10.13; rv:87.0) Gecko/20100101 Firefox/87.0,Macintosh,Firefox,87,OS X,10.13
249,1,null,"""",html-keyboard-response,250,488691,0.0-250.0,"""","<div style=""font-size:60px;"">+</div>","""",256,fixationBtwnNeutralMaskAndPrompt,Test,null,1000,"""","""","""","""","""","""","""","""",1,5/3/2021 23:02,128.227.115.94,Mozilla/5.0 (Macintosh; Intel Mac OS X 10.13; rv:87.0) Gecko/20100101 Firefox/87.0,Macintosh,Firefox,87,OS X,10.13
249,1,1876,"""",html-button-response,251,490569,0.0-251.0,"""","<img src='jspsych/CFDfaces/CFD-LM-201-057-N.jpg' height=""250px"">,</br><b>Jason</b>",0,256,IntactOrRearranged,Test,"""","""","""","""",CFD-WM-212-097-N.jpg,Kenneth,0,0,"""","""",1,5/3/2021 23:02,128.227.115.94,Mozilla/5.0 (Macintosh; Intel Mac OS X 10.13; rv:87.0) Gecko/20100101 Firefox/87.0,Macintosh,Firefox,87,OS X,10.13
249,1,2265,"""",html-slider-response,252,492835,0.0-252.0,"""","<img src='jspsych/CFDfaces/CFD-LM-201-057-N.jpg' height=""250px"">,</br><b>Jason</b>","""",256,ConfidenceQuery,Test,"""","""","""","""",CFD-WM-212-097-N.jpg,Kenneth,0,"""",0,100,1,5/3/2021 23:02,128.227.115.94,Mozilla/5.0 (Macintosh; Intel Mac OS X 10.13; rv:87.0) Gecko/20100101 Firefox/87.0,Macintosh,Firefox,87,OS X,10.13
249,1,null,"""",html-keyboard-response,253,493844,0.0-253.0,"""","<div style=""font-size:60px;"">+</div>","""",256,ITI,Test,null,1000,"""","""","""","""","""","""","""","""",1,5/3/2021 23:02,128.227.115.94,Mozilla/5.0 (Macintosh; Intel Mac OS X 10.13; rv:87.0) Gecko/20100101 Firefox/87.0,Macintosh,Firefox,87,OS X,10.13
249,1,null,"""",image-keyboard-response,254,494104,0.0-254.0,"""",jspsych/scrambledDisgustFaces/scrambledBM21DIS.JPG,"""",256,forwardMask,Test,null,250,"""",d,"""","""","""","""","""","""",1,5/3/2021 23:02,128.227.115.94,Mozilla/5.0 (Macintosh; Intel Mac OS X 10.13; rv:87.0) Gecko/20100101 Firefox/87.0,Macintosh,Firefox,87,OS X,10.13
249,1,null,"""",image-keyboard-response,255,494126,0.0-255.0,"""",jspsych/disgustFaces/BM22DIS.JPG,"""",256,Cue,Test,null,16,"""","""","""","""","""","""","""","""",1,5/3/2021 23:02,128.227.115.94,Mozilla/5.0 (Macintosh; Intel Mac OS X 10.13; rv:87.0) Gecko/20100101 Firefox/87.0,Macintosh,Firefox,87,OS X,10.13
249,1,null,"""",image-keyboard-response,256,494235,0.0-256.0,"""",jspsych/neutralFaces/BM28NES.JPG,"""",256,backwardMask,Test,null,100,"""","""","""","""","""","""","""","""",1,5/3/2021 23:02,128.227.115.94,Mozilla/5.0 (Macintosh; Intel Mac OS X 10.13; rv:87.0) Gecko/20100101 Firefox/87.0,Macintosh,Firefox,87,OS X,10.13
249,1,null,"""",html-keyboard-response,257,495241,0.0-257.0,"""","<div style=""font-size:60px;"">+</div>","""",256,fixationBtwnNeutralMaskAndPrompt,Test,null,1000,"""","""","""","""","""","""","""","""",1,5/3/2021 23:02,128.227.115.94,Mozilla/5.0 (Macintosh; Intel Mac OS X 10.13; rv:87.0) Gecko/20100101 Firefox/87.0,Macintosh,Firefox,87,OS X,10.13
249,1,1585,"""",html-button-response,258,496827,0.0-258.0,"""","<img src='jspsych/CFDfaces/CFD-AM-234-355-N.jpg' height=""250px"">,</br><b>Joshua</b>",0,256,IntactOrRearranged,Test,"""","""","""","""",CFD-WM-022-001-N.jpg,Sean,1,0,"""","""",1,5/3/2021 23:02,128.227.115.94,Mozilla/5.0 (Macintosh; Intel Mac OS X 10.13; rv:87.0) Gecko/20100101 Firefox/87.0,Macintosh,Firefox,87,OS X,10.13
249,1,1777,"""",html-slider-response,259,498609,0.0-259.0,"""","<img src='jspsych/CFDfaces/CFD-AM-234-355-N.jpg' height=""250px"">,</br><b>Joshua</b>","""",256,ConfidenceQuery,Test,"""","""","""","""",CFD-WM-022-001-N.jpg,Sean,1,"""",0,16,1,5/3/2021 23:02,128.227.115.94,Mozilla/5.0 (Macintosh; Intel Mac OS X 10.13; rv:87.0) Gecko/20100101 Firefox/87.0,Macintosh,Firefox,87,OS X,10.13
249,1,null,"""",html-keyboard-response,260,499620,0.0-260.0,"""","<div style=""font-size:60px;"">+</div>","""",256,ITI,Test,null,1000,"""","""","""","""","""","""","""","""",1,5/3/2021 23:02,128.227.115.94,Mozilla/5.0 (Macintosh; Intel Mac OS X 10.13; rv:87.0) Gecko/20100101 Firefox/87.0,Macintosh,Firefox,87,OS X,10.13
249,1,null,"""",image-keyboard-response,261,499877,0.0-261.0,"""",jspsych/scrambledDisgustFaces/scrambledBM21DIS.JPG,"""",256,forwardMask,Test,null,250,"""",d,"""","""","""","""","""","""",1,5/3/2021 23:02,128.227.115.94,Mozilla/5.0 (Macintosh; Intel Mac OS X 10.13; rv:87.0) Gecko/20100101 Firefox/87.0,Macintosh,Firefox,87,OS X,10.13
249,1,null,"""",image-keyboard-response,262,499900,0.0-262.0,"""",jspsych/disgustFaces/BM22DIS.JPG,"""",256,Cue,Test,null,16,"""","""","""","""","""","""","""","""",1,5/3/2021 23:02,128.227.115.94,Mozilla/5.0 (Macintosh; Intel Mac OS X 10.13; rv:87.0) Gecko/20100101 Firefox/87.0,Macintosh,Firefox,87,OS X,10.13
249,1,null,"""",image-keyboard-response,263,500009,0.0-263.0,"""",jspsych/neutralFaces/AM18NES.JPG,"""",256,backwardMask,Test,null,100,"""","""","""","""","""","""","""","""",1,5/3/2021 23:02,128.227.115.94,Mozilla/5.0 (Macintosh; Intel Mac OS X 10.13; rv:87.0) Gecko/20100101 Firefox/87.0,Macintosh,Firefox,87,OS X,10.13
249,1,null,"""",html-keyboard-response,264,501014,0.0-264.0,"""","<div style=""font-size:60px;"">+</div>","""",256,fixationBtwnNeutralMaskAndPrompt,Test,null,1000,"""","""","""","""","""","""","""","""",1,5/3/2021 23:02,128.227.115.94,Mozilla/5.0 (Macintosh; Intel Mac OS X 10.13; rv:87.0) Gecko/20100101 Firefox/87.0,Macintosh,Firefox,87,OS X,10.13
249,1,1153,"""",html-button-response,265,502170,0.0-265.0,"""","<img src='jspsych/CFDfaces/CFD-LM-219-295-N.jpg' height=""250px"">,</br><b>Christian</b>",0,256,IntactOrRearranged,Test,"""","""","""","""",CFD-AF-240-206-N.jpg,Jordan,1,0,"""","""",1,5/3/2021 23:02,128.227.115.94,Mozilla/5.0 (Macintosh; Intel Mac OS X 10.13; rv:87.0) Gecko/20100101 Firefox/87.0,Macintosh,Firefox,87,OS X,10.13
249,1,1718,"""",html-slider-response,266,503890,0.0-266.0,"""","<img src='jspsych/CFDfaces/CFD-LM-219-295-N.jpg' height=""250px"">,</br><b>Christian</b>","""",256,ConfidenceQuery,Test,"""","""","""","""",CFD-AF-240-206-N.jpg,Jordan,1,"""",0,100,1,5/3/2021 23:02,128.227.115.94,Mozilla/5.0 (Macintosh; Intel Mac OS X 10.13; rv:87.0) Gecko/20100101 Firefox/87.0,Macintosh,Firefox,87,OS X,10.13
249,1,null,"""",html-keyboard-response,267,504895,0.0-267.0,"""","<div style=""font-size:60px;"">+</div>","""",256,ITI,Test,null,1000,"""","""","""","""","""","""","""","""",1,5/3/2021 23:02,128.227.115.94,Mozilla/5.0 (Macintosh; Intel Mac OS X 10.13; rv:87.0) Gecko/20100101 Firefox/87.0,Macintosh,Firefox,87,OS X,10.13
249,1,null,"""",image-keyboard-response,268,505160,0.0-268.0,"""",jspsych/scrambledNeutralFaces/scrambledAM30NES.JPG,"""",256,forwardMask,Test,null,250,"""",n,"""","""","""","""","""","""",1,5/3/2021 23:02,128.227.115.94,Mozilla/5.0 (Macintosh; Intel Mac OS X 10.13; rv:87.0) Gecko/20100101 Firefox/87.0,Macintosh,Firefox,87,OS X,10.13
249,1,null,"""",image-keyboard-response,269,505182,0.0-269.0,"""",jspsych/neutralFaces/AM30NES.JPG,"""",256,Cue,Test,null,16,"""","""","""","""","""","""","""","""",1,5/3/2021 23:02,128.227.115.94,Mozilla/5.0 (Macintosh; Intel Mac OS X 10.13; rv:87.0) Gecko/20100101 Firefox/87.0,Macintosh,Firefox,87,OS X,10.13
249,1,null,"""",image-keyboard-response,270,505287,0.0-270.0,"""",jspsych/neutralFaces/AM02NES.JPG,"""",256,backwardMask,Test,null,100,"""","""","""","""","""","""","""","""",1,5/3/2021 23:02,128.227.115.94,Mozilla/5.0 (Macintosh; Intel Mac OS X 10.13; rv:87.0) Gecko/20100101 Firefox/87.0,Macintosh,Firefox,87,OS X,10.13
249,1,null,"""",html-keyboard-response,271,506294,0.0-271.0,"""","<div style=""font-size:60px;"">+</div>","""",256,fixationBtwnNeutralMaskAndPrompt,Test,null,1000,"""","""","""","""","""","""","""","""",1,5/3/2021 23:02,128.227.115.94,Mozilla/5.0 (Macintosh; Intel Mac OS X 10.13; rv:87.0) Gecko/20100101 Firefox/87.0,Macintosh,Firefox,87,OS X,10.13
249,1,3708,"""",html-button-response,272,510003,0.0-272.0,"""","<img src='jspsych/CFDfaces/CFD-AM-231-136-N.jpg' height=""250px"">,</br><b>Daniel</b>",1,256,IntactOrRearranged,Test,"""","""","""","""",CFD-AM-238-269-N.jpg,Ryan,1,1,"""","""",1,5/3/2021 23:02,128.227.115.94,Mozilla/5.0 (Macintosh; Intel Mac OS X 10.13; rv:87.0) Gecko/20100101 Firefox/87.0,Macintosh,Firefox,87,OS X,10.13
249,1,1807,"""",html-slider-response,273,511812,0.0-273.0,"""","<img src='jspsych/CFDfaces/CFD-AM-231-136-N.jpg' height=""250px"">,</br><b>Daniel</b>","""",256,ConfidenceQuery,Test,"""","""","""","""",CFD-AM-238-269-N.jpg,Ryan,1,"""",0,73,1,5/3/2021 23:02,128.227.115.94,Mozilla/5.0 (Macintosh; Intel Mac OS X 10.13; rv:87.0) Gecko/20100101 Firefox/87.0,Macintosh,Firefox,87,OS X,10.13
249,1,null,"""",html-keyboard-response,274,512822,0.0-274.0,"""","<div style=""font-size:60px;"">+</div>","""",256,ITI,Test,null,1000,"""","""","""","""","""","""","""","""",1,5/3/2021 23:02,128.227.115.94,Mozilla/5.0 (Macintosh; Intel Mac OS X 10.13; rv:87.0) Gecko/20100101 Firefox/87.0,Macintosh,Firefox,87,OS X,10.13
249,1,null,"""",image-keyboard-response,275,513078,0.0-275.0,"""",jspsych/scrambledDisgustFaces/scrambledAF24DIS.JPG,"""",256,forwardMask,Test,null,250,"""",d,"""","""","""","""","""","""",1,5/3/2021 23:02,128.227.115.94,Mozilla/5.0 (Macintosh; Intel Mac OS X 10.13; rv:87.0) Gecko/20100101 Firefox/87.0,Macintosh,Firefox,87,OS X,10.13
249,1,null,"""",image-keyboard-response,276,513100,0.0-276.0,"""",jspsych/disgustFaces/AF24DIS.JPG,"""",256,Cue,Test,null,16,"""","""","""","""","""","""","""","""",1,5/3/2021 23:02,128.227.115.94,Mozilla/5.0 (Macintosh; Intel Mac OS X 10.13; rv:87.0) Gecko/20100101 Firefox/87.0,Macintosh,Firefox,87,OS X,10.13
249,1,null,"""",image-keyboard-response,277,513211,0.0-277.0,"""",jspsych/neutralFaces/BF08NES.JPG,"""",256,backwardMask,Test,null,100,"""","""","""","""","""","""","""","""",1,5/3/2021 23:02,128.227.115.94,Mozilla/5.0 (Macintosh; Intel Mac OS X 10.13; rv:87.0) Gecko/20100101 Firefox/87.0,Macintosh,Firefox,87,OS X,10.13
249,1,null,"""",html-keyboard-response,278,514215,0.0-278.0,"""","<div style=""font-size:60px;"">+</div>","""",256,fixationBtwnNeutralMaskAndPrompt,Test,null,1000,"""","""","""","""","""","""","""","""",1,5/3/2021 23:02,128.227.115.94,Mozilla/5.0 (Macintosh; Intel Mac OS X 10.13; rv:87.0) Gecko/20100101 Firefox/87.0,Macintosh,Firefox,87,OS X,10.13
249,1,3643,"""",html-button-response,279,517861,0.0-279.0,"""","<img src='jspsych/CFDfaces/CFD-AF-242-158-N.jpg' height=""250px"">,</br><b>Christina</b>",1,256,IntactOrRearranged,Test,"""","""","""","""",CFD-WF-003-003-N.jpg,Angela,1,1,"""","""",1,5/3/2021 23:02,128.227.115.94,Mozilla/5.0 (Macintosh; Intel Mac OS X 10.13; rv:87.0) Gecko/20100101 Firefox/87.0,Macintosh,Firefox,87,OS X,10.13
249,1,2901,"""",html-slider-response,280,520771,0.0-280.0,"""","<img src='jspsych/CFDfaces/CFD-AF-242-158-N.jpg' height=""250px"">,</br><b>Christina</b>","""",256,ConfidenceQuery,Test,"""","""","""","""",CFD-WF-003-003-N.jpg,Angela,1,"""",0,52,1,5/3/2021 23:02,128.227.115.94,Mozilla/5.0 (Macintosh; Intel Mac OS X 10.13; rv:87.0) Gecko/20100101 Firefox/87.0,Macintosh,Firefox,87,OS X,10.13
249,1,null,"""",html-keyboard-response,281,521773,0.0-281.0,"""","<div style=""font-size:60px;"">+</div>","""",256,ITI,Test,null,1000,"""","""","""","""","""","""","""","""",1,5/3/2021 23:02,128.227.115.94,Mozilla/5.0 (Macintosh; Intel Mac OS X 10.13; rv:87.0) Gecko/20100101 Firefox/87.0,Macintosh,Firefox,87,OS X,10.13
249,1,null,"""",image-keyboard-response,282,522029,0.0-282.0,"""",jspsych/scrambledDisgustFaces/scrambledBM07DIS.JPG,"""",256,forwardMask,Test,null,250,"""",d,"""","""","""","""","""","""",1,5/3/2021 23:02,128.227.115.94,Mozilla/5.0 (Macintosh; Intel Mac OS X 10.13; rv:87.0) Gecko/20100101 Firefox/87.0,Macintosh,Firefox,87,OS X,10.13
249,1,null,"""",image-keyboard-response,283,522051,0.0-283.0,"""",jspsych/disgustFaces/BM08DIS.JPG,"""",256,Cue,Test,null,16,"""","""","""","""","""","""","""","""",1,5/3/2021 23:02,128.227.115.94,Mozilla/5.0 (Macintosh; Intel Mac OS X 10.13; rv:87.0) Gecko/20100101 Firefox/87.0,Macintosh,Firefox,87,OS X,10.13
249,1,null,"""",image-keyboard-response,284,522163,0.0-284.0,"""",jspsych/neutralFaces/AM08NES.JPG,"""",256,backwardMask,Test,null,100,"""","""","""","""","""","""","""","""",1,5/3/2021 23:02,128.227.115.94,Mozilla/5.0 (Macintosh; Intel Mac OS X 10.13; rv:87.0) Gecko/20100101 Firefox/87.0,Macintosh,Firefox,87,OS X,10.13
