run_id,condition,rt,responses,trial_type,trial_index,time_elapsed,internal_node_id,question_order,stimulus,button_pressed,iTrial,Phase,ExperimentPhase,key_press,StimulusDurationSetting,CharacterResponse,correctResponse,Face,Name,rearranged,slider_start,response,didSubjectEnterRearranged,Block,recorded_at,ip,user_agent,device,browser,browser_version,platform,platform_version
125,1,7062,"{""Q0"":""A2UYXRPN41PLQE""}",survey-text,0,7074,0.0-0.0,"""","""","""","""","""","""","""","""","""","""","""","""","""","""","""","""","""",4/25/2021 1:32,104.190.173.154,Mozilla/5.0 (Windows NT 10.0; Win64; x64; rv:88.0) Gecko/20100101 Firefox/88.0,,Firefox,88,Windows,10
125,1,3319,"{""Q0"":""27""}",survey-text,1,10415,0.0-1.0,"""","""","""","""","""","""","""","""","""","""","""","""","""","""","""","""","""",4/25/2021 1:32,104.190.173.154,Mozilla/5.0 (Windows NT 10.0; Win64; x64; rv:88.0) Gecko/20100101 Firefox/88.0,,Firefox,88,Windows,10
125,1,9616,"{""Q0"":""male"",""Q1"":""Hispanic/Latino"",""Q2"":""White or Caucasian""}",survey-multi-choice,2,20040,0.0-2.0,"[0,1,2]","""","""","""","""","""","""","""","""","""","""","""","""","""","""","""","""",4/25/2021 1:32,104.190.173.154,Mozilla/5.0 (Windows NT 10.0; Win64; x64; rv:88.0) Gecko/20100101 Firefox/88.0,,Firefox,88,Windows,10
125,1,10353,"""",image-button-response,3,30422,0.0-3.0,"""",directionsMemoryAssociation1.JPG,0,1,IntroDirections1,break,"""","""","""","""","""","""","""","""","""","""","""",4/25/2021 1:32,104.190.173.154,Mozilla/5.0 (Windows NT 10.0; Win64; x64; rv:88.0) Gecko/20100101 Firefox/88.0,,Firefox,88,Windows,10
125,1,9877,"""",image-button-response,4,40317,0.0-4.0,"""",directionsMemoryAssociation2.JPG,0,1,IntroDirections2,break,"""","""","""","""","""","""","""","""","""","""","""",4/25/2021 1:32,104.190.173.154,Mozilla/5.0 (Windows NT 10.0; Win64; x64; rv:88.0) Gecko/20100101 Firefox/88.0,,Firefox,88,Windows,10
125,1,4501,"""",html-keyboard-response,5,45333,0.0-5.0,"""","<img src='jspsych/CFDfaces/CFD-LM-239-075-N.jpg' height=""250px"">,</br><b>Marcus</b>","""",1,IntactFace,Practice,70,5000,f,"""","""","""","""","""","""","""","""",4/25/2021 1:32,104.190.173.154,Mozilla/5.0 (Windows NT 10.0; Win64; x64; rv:88.0) Gecko/20100101 Firefox/88.0,,Firefox,88,Windows,10
125,1,null,"""",html-keyboard-response,6,45839,0.0-6.0,"""","<div style=""font-size:60px;"">+</div>","""",1,ITI,Practice,null,1000,"""","""","""","""","""","""","""","""","""",4/25/2021 1:32,104.190.173.154,Mozilla/5.0 (Windows NT 10.0; Win64; x64; rv:88.0) Gecko/20100101 Firefox/88.0,,Firefox,88,Windows,10
125,1,2570,"""",html-keyboard-response,7,50848,0.0-7.0,"""","<img src='jspsych/CFDfaces/CFD-AF-239-171-N.jpg' height=""250px"">,</br><b>Katelyn</b>","""",2,IntactFace,Practice,70,5000,f,"""","""","""","""","""","""","""","""",4/25/2021 1:32,104.190.173.154,Mozilla/5.0 (Windows NT 10.0; Win64; x64; rv:88.0) Gecko/20100101 Firefox/88.0,,Firefox,88,Windows,10
125,1,null,"""",html-keyboard-response,8,51359,0.0-8.0,"""","<div style=""font-size:60px;"">+</div>","""",2,ITI,Practice,null,1000,"""","""","""","""","""","""","""","""","""",4/25/2021 1:32,104.190.173.154,Mozilla/5.0 (Windows NT 10.0; Win64; x64; rv:88.0) Gecko/20100101 Firefox/88.0,,Firefox,88,Windows,10
125,1,2917,"""",html-keyboard-response,9,56373,0.0-9.0,"""","<img src='jspsych/CFDfaces/CFD-LM-234-176-N.jpg' height=""250px"">,</br><b>Patrick</b>","""",3,IntactFace,Practice,78,5000,n,"""","""","""","""","""","""","""","""",4/25/2021 1:32,104.190.173.154,Mozilla/5.0 (Windows NT 10.0; Win64; x64; rv:88.0) Gecko/20100101 Firefox/88.0,,Firefox,88,Windows,10
125,1,null,"""",html-keyboard-response,10,56878,0.0-10.0,"""","<div style=""font-size:60px;"">+</div>","""",3,ITI,Practice,null,1000,"""","""","""","""","""","""","""","""","""",4/25/2021 1:32,104.190.173.154,Mozilla/5.0 (Windows NT 10.0; Win64; x64; rv:88.0) Gecko/20100101 Firefox/88.0,,Firefox,88,Windows,10
125,1,4028,"""",html-keyboard-response,11,61899,0.0-11.0,"""","<img src='jspsych/CFDfaces/CFD-LF-202-065-N.jpg' height=""250px"">,</br><b>Cassandra</b>","""",4,IntactFace,Practice,78,5000,n,"""","""","""","""","""","""","""","""",4/25/2021 1:32,104.190.173.154,Mozilla/5.0 (Windows NT 10.0; Win64; x64; rv:88.0) Gecko/20100101 Firefox/88.0,,Firefox,88,Windows,10
125,1,null,"""",html-keyboard-response,12,62410,0.0-12.0,"""","<div style=""font-size:60px;"">+</div>","""",4,ITI,Practice,null,1000,"""","""","""","""","""","""","""","""","""",4/25/2021 1:32,104.190.173.154,Mozilla/5.0 (Windows NT 10.0; Win64; x64; rv:88.0) Gecko/20100101 Firefox/88.0,,Firefox,88,Windows,10
125,1,3668,"""",html-keyboard-response,13,67431,0.0-13.0,"""","<img src='jspsych/CFDfaces/CFD-AM-202-079-N.jpg' height=""250px"">,</br><b>Carlos</b>","""",5,IntactFace,Practice,78,5000,n,"""","""","""","""","""","""","""","""",4/25/2021 1:32,104.190.173.154,Mozilla/5.0 (Windows NT 10.0; Win64; x64; rv:88.0) Gecko/20100101 Firefox/88.0,,Firefox,88,Windows,10
125,1,null,"""",html-keyboard-response,14,67947,0.0-14.0,"""","<div style=""font-size:60px;"">+</div>","""",5,ITI,Practice,null,1000,"""","""","""","""","""","""","""","""","""",4/25/2021 1:32,104.190.173.154,Mozilla/5.0 (Windows NT 10.0; Win64; x64; rv:88.0) Gecko/20100101 Firefox/88.0,,Firefox,88,Windows,10
125,1,2142,"""",html-keyboard-response,15,72958,0.0-15.0,"""","<img src='jspsych/CFDfaces/CFD-AF-230-193-N.jpg' height=""250px"">,</br><b>Tara</b>","""",6,IntactFace,Practice,70,5000,f,"""","""","""","""","""","""","""","""",4/25/2021 1:32,104.190.173.154,Mozilla/5.0 (Windows NT 10.0; Win64; x64; rv:88.0) Gecko/20100101 Firefox/88.0,,Firefox,88,Windows,10
125,1,null,"""",html-keyboard-response,16,73463,0.0-16.0,"""","<div style=""font-size:60px;"">+</div>","""",6,ITI,Practice,null,1000,"""","""","""","""","""","""","""","""","""",4/25/2021 1:32,104.190.173.154,Mozilla/5.0 (Windows NT 10.0; Win64; x64; rv:88.0) Gecko/20100101 Firefox/88.0,,Firefox,88,Windows,10
125,1,1970,"""",html-keyboard-response,17,78478,0.0-17.0,"""","<img src='jspsych/CFDfaces/CFD-AF-226-251-N.jpg' height=""250px"">,</br><b>Shannon</b>","""",7,IntactFace,Practice,70,5000,f,"""","""","""","""","""","""","""","""",4/25/2021 1:32,104.190.173.154,Mozilla/5.0 (Windows NT 10.0; Win64; x64; rv:88.0) Gecko/20100101 Firefox/88.0,,Firefox,88,Windows,10
125,1,null,"""",html-keyboard-response,18,78987,0.0-18.0,"""","<div style=""font-size:60px;"">+</div>","""",7,ITI,Practice,null,1000,"""","""","""","""","""","""","""","""","""",4/25/2021 1:32,104.190.173.154,Mozilla/5.0 (Windows NT 10.0; Win64; x64; rv:88.0) Gecko/20100101 Firefox/88.0,,Firefox,88,Windows,10
125,1,2589,"""",html-keyboard-response,19,84005,0.0-19.0,"""","<img src='jspsych/CFDfaces/CFD-LM-200-045-N.jpg' height=""250px"">,</br><b>Samuel</b>","""",8,IntactFace,Practice,70,5000,f,"""","""","""","""","""","""","""","""",4/25/2021 1:32,104.190.173.154,Mozilla/5.0 (Windows NT 10.0; Win64; x64; rv:88.0) Gecko/20100101 Firefox/88.0,,Firefox,88,Windows,10
125,1,null,"""",html-keyboard-response,20,84522,0.0-20.0,"""","<div style=""font-size:60px;"">+</div>","""",8,ITI,Practice,null,1000,"""","""","""","""","""","""","""","""","""",4/25/2021 1:32,104.190.173.154,Mozilla/5.0 (Windows NT 10.0; Win64; x64; rv:88.0) Gecko/20100101 Firefox/88.0,,Firefox,88,Windows,10
125,1,9900,"""",image-button-response,21,94445,0.0-21.0,"""",directionsForTest.JPG,0,1,directionsForTest,break,"""","""","""","""","""","""","""","""","""","""","""",4/25/2021 1:32,104.190.173.154,Mozilla/5.0 (Windows NT 10.0; Win64; x64; rv:88.0) Gecko/20100101 Firefox/88.0,,Firefox,88,Windows,10
125,1,10837,"""",image-button-response,22,105301,0.0-22.0,"""",directionsForTest2.JPG,0,1,directionsForTest2,break,"""","""","""","""","""","""","""","""","""","""","""",4/25/2021 1:32,104.190.173.154,Mozilla/5.0 (Windows NT 10.0; Win64; x64; rv:88.0) Gecko/20100101 Firefox/88.0,,Firefox,88,Windows,10
125,1,null,"""",html-keyboard-response,23,106313,0.0-23.0,"""","<div style=""font-size:60px;"">+</div>","""",1,ITI,Practice,null,1000,"""","""","""","""","""","""","""","""","""",4/25/2021 1:32,104.190.173.154,Mozilla/5.0 (Windows NT 10.0; Win64; x64; rv:88.0) Gecko/20100101 Firefox/88.0,,Firefox,88,Windows,10
125,1,null,"""",image-keyboard-response,24,106578,0.0-24.0,"""",jspsych/scrambledDisgustFaces/scrambledAM13DIS.JPG,"""",1,forwardMask,Practice,null,250,"""",d,"""","""","""","""","""","""","""",4/25/2021 1:32,104.190.173.154,Mozilla/5.0 (Windows NT 10.0; Win64; x64; rv:88.0) Gecko/20100101 Firefox/88.0,,Firefox,88,Windows,10
125,1,null,"""",image-keyboard-response,25,106612,0.0-25.0,"""",jspsych/disgustFaces/AM13DIS.JPG,"""",1,Cue,Practice,null,16,"""","""","""","""","""","""","""","""","""",4/25/2021 1:32,104.190.173.154,Mozilla/5.0 (Windows NT 10.0; Win64; x64; rv:88.0) Gecko/20100101 Firefox/88.0,,Firefox,88,Windows,10
125,1,null,"""",image-keyboard-response,26,106723,0.0-26.0,"""",jspsych/neutralFaces/AM32NES.JPG,"""",1,backwardMask,Practice,null,100,"""","""","""","""","""","""","""","""","""",4/25/2021 1:32,104.190.173.154,Mozilla/5.0 (Windows NT 10.0; Win64; x64; rv:88.0) Gecko/20100101 Firefox/88.0,,Firefox,88,Windows,10
125,1,null,"""",html-keyboard-response,27,107728,0.0-27.0,"""","<div style=""font-size:60px;"">+</div>","""",1,fixationBtwnNeutralMaskAndPrompt,Practice,null,1000,"""","""","""","""","""","""","""","""","""",4/25/2021 1:32,104.190.173.154,Mozilla/5.0 (Windows NT 10.0; Win64; x64; rv:88.0) Gecko/20100101 Firefox/88.0,,Firefox,88,Windows,10
125,1,null,"""",html-button-response,28,112744,0.0-28.0,"""","<img src='jspsych/CFDfaces/CFD-LF-202-065-N.jpg'height=""250px""></br><b>Katelyn</b>",null,1,IntactOrRearranged,Practice,"""","""","""","""",CFD-LF-202-065-N.jpg,Katelyn,1,"""","""","""","""",4/25/2021 1:32,104.190.173.154,Mozilla/5.0 (Windows NT 10.0; Win64; x64; rv:88.0) Gecko/20100101 Firefox/88.0,,Firefox,88,Windows,10
125,1,null,"""",html-slider-response,29,117758,0.0-29.0,"""","<img src='jspsych/CFDfaces/CFD-LF-202-065-N.jpg'height=""250px""></br><b>Katelyn</b>","""",1,ConfidenceQuery,Practice,"""","""","""","""",CFD-BF-009-002-N.jpg,Erin,1,0,null,"""","""",4/25/2021 1:32,104.190.173.154,Mozilla/5.0 (Windows NT 10.0; Win64; x64; rv:88.0) Gecko/20100101 Firefox/88.0,,Firefox,88,Windows,10
125,1,2314,"""",html-button-response,30,120077,0.0-30.0,"""",<p>Please click either button: REARRANGED or INTACT before the 5-second time limit.</p>,0,1,feedback,Practice,"""","""","""","""","""","""","""","""","""","""","""",4/25/2021 1:32,104.190.173.154,Mozilla/5.0 (Windows NT 10.0; Win64; x64; rv:88.0) Gecko/20100101 Firefox/88.0,,Firefox,88,Windows,10
125,1,null,"""",html-keyboard-response,31,121082,0.0-31.0,"""","<div style=""font-size:60px;"">+</div>","""",2,ITI,Practice,null,1000,"""","""","""","""","""","""","""","""","""",4/25/2021 1:32,104.190.173.154,Mozilla/5.0 (Windows NT 10.0; Win64; x64; rv:88.0) Gecko/20100101 Firefox/88.0,,Firefox,88,Windows,10
125,1,null,"""",image-keyboard-response,32,121340,0.0-32.0,"""",jspsych/scrambledNeutralFaces/scrambledBM33NES.JPG,"""",2,forwardMask,Practice,null,250,"""",n,"""","""","""","""","""","""","""",4/25/2021 1:32,104.190.173.154,Mozilla/5.0 (Windows NT 10.0; Win64; x64; rv:88.0) Gecko/20100101 Firefox/88.0,,Firefox,88,Windows,10
125,1,null,"""",image-keyboard-response,33,121362,0.0-33.0,"""",jspsych/neutralFaces/BM33NES.JPG,"""",2,Cue,Practice,null,16,"""","""","""","""","""","""","""","""","""",4/25/2021 1:32,104.190.173.154,Mozilla/5.0 (Windows NT 10.0; Win64; x64; rv:88.0) Gecko/20100101 Firefox/88.0,,Firefox,88,Windows,10
125,1,null,"""",image-keyboard-response,34,121471,0.0-34.0,"""",jspsych/neutralFaces/AM32NES.JPG,"""",2,backwardMask,Practice,null,100,"""","""","""","""","""","""","""","""","""",4/25/2021 1:32,104.190.173.154,Mozilla/5.0 (Windows NT 10.0; Win64; x64; rv:88.0) Gecko/20100101 Firefox/88.0,,Firefox,88,Windows,10
125,1,null,"""",html-keyboard-response,35,122473,0.0-35.0,"""","<div style=""font-size:60px;"">+</div>","""",2,fixationBtwnNeutralMaskAndPrompt,Practice,null,1000,"""","""","""","""","""","""","""","""","""",4/25/2021 1:32,104.190.173.154,Mozilla/5.0 (Windows NT 10.0; Win64; x64; rv:88.0) Gecko/20100101 Firefox/88.0,,Firefox,88,Windows,10
125,1,1361,"""",html-button-response,36,123837,0.0-36.0,"""","<img src='jspsych/CFDfaces/CFD-AF-230-193-N.jpg'height=""250px""></br><b>Tara</b>",0,2,IntactOrRearranged,Practice,"""","""","""","""",CFD-AF-230-193-N.jpg,Tara,0,"""","""",0,"""",4/25/2021 1:32,104.190.173.154,Mozilla/5.0 (Windows NT 10.0; Win64; x64; rv:88.0) Gecko/20100101 Firefox/88.0,,Firefox,88,Windows,10
125,1,2587,"""",html-slider-response,37,126431,0.0-37.0,"""","<img src='jspsych/CFDfaces/CFD-AF-230-193-N.jpg'height=""250px""></br><b>Tara</b>","""",2,ConfidenceQuery,Practice,"""","""","""","""",CFD-BF-009-002-N.jpg,Erin,0,0,100,"""","""",4/25/2021 1:32,104.190.173.154,Mozilla/5.0 (Windows NT 10.0; Win64; x64; rv:88.0) Gecko/20100101 Firefox/88.0,,Firefox,88,Windows,10
125,1,1152,"""",html-button-response,38,127598,0.0-38.0,"""",You are Correct. You called an Intact Pair Intact,0,2,feedback,Practice,"""","""","""","""","""","""","""","""","""","""","""",4/25/2021 1:32,104.190.173.154,Mozilla/5.0 (Windows NT 10.0; Win64; x64; rv:88.0) Gecko/20100101 Firefox/88.0,,Firefox,88,Windows,10
125,1,null,"""",html-keyboard-response,39,128606,0.0-39.0,"""","<div style=""font-size:60px;"">+</div>","""",3,ITI,Practice,null,1000,"""","""","""","""","""","""","""","""","""",4/25/2021 1:32,104.190.173.154,Mozilla/5.0 (Windows NT 10.0; Win64; x64; rv:88.0) Gecko/20100101 Firefox/88.0,,Firefox,88,Windows,10
125,1,null,"""",image-keyboard-response,40,128861,0.0-40.0,"""",jspsych/scrambledNeutralFaces/scrambledAM17NES.JPG,"""",3,forwardMask,Practice,null,250,"""",n,"""","""","""","""","""","""","""",4/25/2021 1:32,104.190.173.154,Mozilla/5.0 (Windows NT 10.0; Win64; x64; rv:88.0) Gecko/20100101 Firefox/88.0,,Firefox,88,Windows,10
125,1,null,"""",image-keyboard-response,41,128898,0.0-41.0,"""",jspsych/neutralFaces/AM17NES.JPG,"""",3,Cue,Practice,null,16,"""","""","""","""","""","""","""","""","""",4/25/2021 1:32,104.190.173.154,Mozilla/5.0 (Windows NT 10.0; Win64; x64; rv:88.0) Gecko/20100101 Firefox/88.0,,Firefox,88,Windows,10
125,1,null,"""",image-keyboard-response,42,129005,0.0-42.0,"""",jspsych/neutralFaces/BM06NES.JPG,"""",3,backwardMask,Practice,null,100,"""","""","""","""","""","""","""","""","""",4/25/2021 1:32,104.190.173.154,Mozilla/5.0 (Windows NT 10.0; Win64; x64; rv:88.0) Gecko/20100101 Firefox/88.0,,Firefox,88,Windows,10
125,1,null,"""",html-keyboard-response,43,130019,0.0-43.0,"""","<div style=""font-size:60px;"">+</div>","""",3,fixationBtwnNeutralMaskAndPrompt,Practice,null,1000,"""","""","""","""","""","""","""","""","""",4/25/2021 1:32,104.190.173.154,Mozilla/5.0 (Windows NT 10.0; Win64; x64; rv:88.0) Gecko/20100101 Firefox/88.0,,Firefox,88,Windows,10
125,1,1711,"""",html-button-response,44,131733,0.0-44.0,"""","<img src='jspsych/CFDfaces/CFD-LM-234-176-N.jpg'height=""250px""></br><b>Patrick</b>",0,3,IntactOrRearranged,Practice,"""","""","""","""",CFD-LM-234-176-N.jpg,Patrick,0,"""","""",0,"""",4/25/2021 1:32,104.190.173.154,Mozilla/5.0 (Windows NT 10.0; Win64; x64; rv:88.0) Gecko/20100101 Firefox/88.0,,Firefox,88,Windows,10
125,1,2068,"""",html-slider-response,45,133813,0.0-45.0,"""","<img src='jspsych/CFDfaces/CFD-LM-234-176-N.jpg'height=""250px""></br><b>Patrick</b>","""",3,ConfidenceQuery,Practice,"""","""","""","""",CFD-BF-009-002-N.jpg,Erin,0,0,100,"""","""",4/25/2021 1:32,104.190.173.154,Mozilla/5.0 (Windows NT 10.0; Win64; x64; rv:88.0) Gecko/20100101 Firefox/88.0,,Firefox,88,Windows,10
125,1,946,"""",html-button-response,46,134764,0.0-46.0,"""",You are Correct. You called an Intact Pair Intact,0,3,feedback,Practice,"""","""","""","""","""","""","""","""","""","""","""",4/25/2021 1:32,104.190.173.154,Mozilla/5.0 (Windows NT 10.0; Win64; x64; rv:88.0) Gecko/20100101 Firefox/88.0,,Firefox,88,Windows,10
125,1,null,"""",html-keyboard-response,47,135770,0.0-47.0,"""","<div style=""font-size:60px;"">+</div>","""",4,ITI,Practice,null,1000,"""","""","""","""","""","""","""","""","""",4/25/2021 1:32,104.190.173.154,Mozilla/5.0 (Windows NT 10.0; Win64; x64; rv:88.0) Gecko/20100101 Firefox/88.0,,Firefox,88,Windows,10
125,1,null,"""",image-keyboard-response,48,136037,0.0-48.0,"""",jspsych/scrambledDisgustFaces/scrambledAM18DIS.JPG,"""",4,forwardMask,Practice,null,250,"""",d,"""","""","""","""","""","""","""",4/25/2021 1:32,104.190.173.154,Mozilla/5.0 (Windows NT 10.0; Win64; x64; rv:88.0) Gecko/20100101 Firefox/88.0,,Firefox,88,Windows,10
125,1,null,"""",image-keyboard-response,49,136068,0.0-49.0,"""",jspsych/disgustFaces/AM18DIS.JPG,"""",4,Cue,Practice,null,16,"""","""","""","""","""","""","""","""","""",4/25/2021 1:32,104.190.173.154,Mozilla/5.0 (Windows NT 10.0; Win64; x64; rv:88.0) Gecko/20100101 Firefox/88.0,,Firefox,88,Windows,10
125,1,null,"""",image-keyboard-response,50,136175,0.0-50.0,"""",jspsych/neutralFaces/BM02NES.JPG,"""",4,backwardMask,Practice,null,100,"""","""","""","""","""","""","""","""","""",4/25/2021 1:32,104.190.173.154,Mozilla/5.0 (Windows NT 10.0; Win64; x64; rv:88.0) Gecko/20100101 Firefox/88.0,,Firefox,88,Windows,10
125,1,null,"""",html-keyboard-response,51,137187,0.0-51.0,"""","<div style=""font-size:60px;"">+</div>","""",4,fixationBtwnNeutralMaskAndPrompt,Practice,null,1000,"""","""","""","""","""","""","""","""","""",4/25/2021 1:32,104.190.173.154,Mozilla/5.0 (Windows NT 10.0; Win64; x64; rv:88.0) Gecko/20100101 Firefox/88.0,,Firefox,88,Windows,10
125,1,1961,"""",html-button-response,52,139156,0.0-52.0,"""","<img src='jspsych/CFDfaces/CFD-AM-202-079-N.jpg'height=""250px""></br><b>Marcus</b>",1,4,IntactOrRearranged,Practice,"""","""","""","""",CFD-AM-202-079-N.jpg,Marcus,1,"""","""",1,"""",4/25/2021 1:32,104.190.173.154,Mozilla/5.0 (Windows NT 10.0; Win64; x64; rv:88.0) Gecko/20100101 Firefox/88.0,,Firefox,88,Windows,10
125,1,3276,"""",html-slider-response,53,142438,0.0-53.0,"""","<img src='jspsych/CFDfaces/CFD-AM-202-079-N.jpg'height=""250px""></br><b>Marcus</b>","""",4,ConfidenceQuery,Practice,"""","""","""","""",CFD-BF-009-002-N.jpg,Erin,1,0,100,"""","""",4/25/2021 1:32,104.190.173.154,Mozilla/5.0 (Windows NT 10.0; Win64; x64; rv:88.0) Gecko/20100101 Firefox/88.0,,Firefox,88,Windows,10
125,1,1442,"""",html-button-response,54,143884,0.0-54.0,"""",You are Correct. You Called A Rearranged Pair Rearranged,0,4,feedback,Practice,"""","""","""","""","""","""","""","""","""","""","""",4/25/2021 1:32,104.190.173.154,Mozilla/5.0 (Windows NT 10.0; Win64; x64; rv:88.0) Gecko/20100101 Firefox/88.0,,Firefox,88,Windows,10
125,1,null,"""",html-keyboard-response,55,144892,0.0-55.0,"""","<div style=""font-size:60px;"">+</div>","""",5,ITI,Practice,null,1000,"""","""","""","""","""","""","""","""","""",4/25/2021 1:32,104.190.173.154,Mozilla/5.0 (Windows NT 10.0; Win64; x64; rv:88.0) Gecko/20100101 Firefox/88.0,,Firefox,88,Windows,10
125,1,null,"""",image-keyboard-response,56,145151,0.0-56.0,"""",jspsych/scrambledNeutralFaces/scrambledAF05NES.JPG,"""",5,forwardMask,Practice,null,250,"""",n,"""","""","""","""","""","""","""",4/25/2021 1:32,104.190.173.154,Mozilla/5.0 (Windows NT 10.0; Win64; x64; rv:88.0) Gecko/20100101 Firefox/88.0,,Firefox,88,Windows,10
125,1,null,"""",image-keyboard-response,57,145177,0.0-57.0,"""",jspsych/neutralFaces/AF05NES.JPG,"""",5,Cue,Practice,null,16,"""","""","""","""","""","""","""","""","""",4/25/2021 1:32,104.190.173.154,Mozilla/5.0 (Windows NT 10.0; Win64; x64; rv:88.0) Gecko/20100101 Firefox/88.0,,Firefox,88,Windows,10
125,1,null,"""",image-keyboard-response,58,145284,0.0-58.0,"""",jspsych/neutralFaces/AF29NES.JPG,"""",5,backwardMask,Practice,null,100,"""","""","""","""","""","""","""","""","""",4/25/2021 1:32,104.190.173.154,Mozilla/5.0 (Windows NT 10.0; Win64; x64; rv:88.0) Gecko/20100101 Firefox/88.0,,Firefox,88,Windows,10
125,1,null,"""",html-keyboard-response,59,146298,0.0-59.0,"""","<div style=""font-size:60px;"">+</div>","""",5,fixationBtwnNeutralMaskAndPrompt,Practice,null,1000,"""","""","""","""","""","""","""","""","""",4/25/2021 1:32,104.190.173.154,Mozilla/5.0 (Windows NT 10.0; Win64; x64; rv:88.0) Gecko/20100101 Firefox/88.0,,Firefox,88,Windows,10
125,1,2194,"""",html-button-response,60,148493,0.0-60.0,"""","<img src='jspsych/CFDfaces/CFD-LM-239-075-N.jpg'height=""250px""></br><b>Carlos</b>",1,5,IntactOrRearranged,Practice,"""","""","""","""",CFD-LM-239-075-N.jpg,Carlos,1,"""","""",1,"""",4/25/2021 1:32,104.190.173.154,Mozilla/5.0 (Windows NT 10.0; Win64; x64; rv:88.0) Gecko/20100101 Firefox/88.0,,Firefox,88,Windows,10
125,1,2089,"""",html-slider-response,61,150590,0.0-61.0,"""","<img src='jspsych/CFDfaces/CFD-LM-239-075-N.jpg'height=""250px""></br><b>Carlos</b>","""",5,ConfidenceQuery,Practice,"""","""","""","""",CFD-BF-009-002-N.jpg,Erin,1,0,100,"""","""",4/25/2021 1:32,104.190.173.154,Mozilla/5.0 (Windows NT 10.0; Win64; x64; rv:88.0) Gecko/20100101 Firefox/88.0,,Firefox,88,Windows,10
125,1,775,"""",html-button-response,62,151373,0.0-62.0,"""",You are Correct. You Called A Rearranged Pair Rearranged,0,5,feedback,Practice,"""","""","""","""","""","""","""","""","""","""","""",4/25/2021 1:32,104.190.173.154,Mozilla/5.0 (Windows NT 10.0; Win64; x64; rv:88.0) Gecko/20100101 Firefox/88.0,,Firefox,88,Windows,10
125,1,null,"""",html-keyboard-response,63,152387,0.0-63.0,"""","<div style=""font-size:60px;"">+</div>","""",6,ITI,Practice,null,1000,"""","""","""","""","""","""","""","""","""",4/25/2021 1:32,104.190.173.154,Mozilla/5.0 (Windows NT 10.0; Win64; x64; rv:88.0) Gecko/20100101 Firefox/88.0,,Firefox,88,Windows,10
125,1,null,"""",image-keyboard-response,64,152642,0.0-64.0,"""",jspsych/scrambledDisgustFaces/scrambledAM33DIS.JPG,"""",6,forwardMask,Practice,null,250,"""",d,"""","""","""","""","""","""","""",4/25/2021 1:32,104.190.173.154,Mozilla/5.0 (Windows NT 10.0; Win64; x64; rv:88.0) Gecko/20100101 Firefox/88.0,,Firefox,88,Windows,10
125,1,null,"""",image-keyboard-response,65,152664,0.0-65.0,"""",jspsych/disgustFaces/AM33DIS.JPG,"""",6,Cue,Practice,null,16,"""","""","""","""","""","""","""","""","""",4/25/2021 1:32,104.190.173.154,Mozilla/5.0 (Windows NT 10.0; Win64; x64; rv:88.0) Gecko/20100101 Firefox/88.0,,Firefox,88,Windows,10
125,1,null,"""",image-keyboard-response,66,152778,0.0-66.0,"""",jspsych/neutralFaces/BM21NES.JPG,"""",6,backwardMask,Practice,null,100,"""","""","""","""","""","""","""","""","""",4/25/2021 1:32,104.190.173.154,Mozilla/5.0 (Windows NT 10.0; Win64; x64; rv:88.0) Gecko/20100101 Firefox/88.0,,Firefox,88,Windows,10
125,1,null,"""",html-keyboard-response,67,153787,0.0-67.0,"""","<div style=""font-size:60px;"">+</div>","""",6,fixationBtwnNeutralMaskAndPrompt,Practice,null,1000,"""","""","""","""","""","""","""","""","""",4/25/2021 1:32,104.190.173.154,Mozilla/5.0 (Windows NT 10.0; Win64; x64; rv:88.0) Gecko/20100101 Firefox/88.0,,Firefox,88,Windows,10
125,1,1103,"""",html-button-response,68,154893,0.0-68.0,"""","<img src='jspsych/CFDfaces/CFD-LM-200-045-N.jpg'height=""250px""></br><b>Samuel</b>",0,6,IntactOrRearranged,Practice,"""","""","""","""",CFD-LM-200-045-N.jpg,Samuel,0,"""","""",0,"""",4/25/2021 1:32,104.190.173.154,Mozilla/5.0 (Windows NT 10.0; Win64; x64; rv:88.0) Gecko/20100101 Firefox/88.0,,Firefox,88,Windows,10
125,1,1955,"""",html-slider-response,69,156853,0.0-69.0,"""","<img src='jspsych/CFDfaces/CFD-LM-200-045-N.jpg'height=""250px""></br><b>Samuel</b>","""",6,ConfidenceQuery,Practice,"""","""","""","""",CFD-BF-009-002-N.jpg,Erin,0,0,100,"""","""",4/25/2021 1:32,104.190.173.154,Mozilla/5.0 (Windows NT 10.0; Win64; x64; rv:88.0) Gecko/20100101 Firefox/88.0,,Firefox,88,Windows,10
125,1,976,"""",html-button-response,70,157837,0.0-70.0,"""",You are Correct. You called an Intact Pair Intact,0,6,feedback,Practice,"""","""","""","""","""","""","""","""","""","""","""",4/25/2021 1:32,104.190.173.154,Mozilla/5.0 (Windows NT 10.0; Win64; x64; rv:88.0) Gecko/20100101 Firefox/88.0,,Firefox,88,Windows,10
125,1,null,"""",html-keyboard-response,71,158855,0.0-71.0,"""","<div style=""font-size:60px;"">+</div>","""",7,ITI,Practice,null,1000,"""","""","""","""","""","""","""","""","""",4/25/2021 1:32,104.190.173.154,Mozilla/5.0 (Windows NT 10.0; Win64; x64; rv:88.0) Gecko/20100101 Firefox/88.0,,Firefox,88,Windows,10
125,1,null,"""",image-keyboard-response,72,159109,0.0-72.0,"""",jspsych/scrambledNeutralFaces/scrambledAF14NES.JPG,"""",7,forwardMask,Practice,null,250,"""",n,"""","""","""","""","""","""","""",4/25/2021 1:32,104.190.173.154,Mozilla/5.0 (Windows NT 10.0; Win64; x64; rv:88.0) Gecko/20100101 Firefox/88.0,,Firefox,88,Windows,10
125,1,null,"""",image-keyboard-response,73,159140,0.0-73.0,"""",jspsych/neutralFaces/AF14NES.JPG,"""",7,Cue,Practice,null,16,"""","""","""","""","""","""","""","""","""",4/25/2021 1:32,104.190.173.154,Mozilla/5.0 (Windows NT 10.0; Win64; x64; rv:88.0) Gecko/20100101 Firefox/88.0,,Firefox,88,Windows,10
125,1,null,"""",image-keyboard-response,74,159246,0.0-74.0,"""",jspsych/neutralFaces/AF24NES.JPG,"""",7,backwardMask,Practice,null,100,"""","""","""","""","""","""","""","""","""",4/25/2021 1:32,104.190.173.154,Mozilla/5.0 (Windows NT 10.0; Win64; x64; rv:88.0) Gecko/20100101 Firefox/88.0,,Firefox,88,Windows,10
125,1,null,"""",html-keyboard-response,75,160264,0.0-75.0,"""","<div style=""font-size:60px;"">+</div>","""",7,fixationBtwnNeutralMaskAndPrompt,Practice,null,1000,"""","""","""","""","""","""","""","""","""",4/25/2021 1:32,104.190.173.154,Mozilla/5.0 (Windows NT 10.0; Win64; x64; rv:88.0) Gecko/20100101 Firefox/88.0,,Firefox,88,Windows,10
125,1,2188,"""",html-button-response,76,162453,0.0-76.0,"""","<img src='jspsych/CFDfaces/CFD-AF-239-171-N.jpg'height=""250px""></br><b>Cassandra</b>",0,7,IntactOrRearranged,Practice,"""","""","""","""",CFD-AF-239-171-N.jpg,Cassandra,1,"""","""",0,"""",4/25/2021 1:32,104.190.173.154,Mozilla/5.0 (Windows NT 10.0; Win64; x64; rv:88.0) Gecko/20100101 Firefox/88.0,,Firefox,88,Windows,10
125,1,1959,"""",html-slider-response,77,164420,0.0-77.0,"""","<img src='jspsych/CFDfaces/CFD-AF-239-171-N.jpg'height=""250px""></br><b>Cassandra</b>","""",7,ConfidenceQuery,Practice,"""","""","""","""",CFD-BF-009-002-N.jpg,Erin,1,0,69,"""","""",4/25/2021 1:32,104.190.173.154,Mozilla/5.0 (Windows NT 10.0; Win64; x64; rv:88.0) Gecko/20100101 Firefox/88.0,,Firefox,88,Windows,10
125,1,1012,"""",html-button-response,78,165437,0.0-78.0,"""",You are Incorrect. You called a Rearranged Pair Intact,0,7,feedback,Practice,"""","""","""","""","""","""","""","""","""","""","""",4/25/2021 1:32,104.190.173.154,Mozilla/5.0 (Windows NT 10.0; Win64; x64; rv:88.0) Gecko/20100101 Firefox/88.0,,Firefox,88,Windows,10
125,1,null,"""",html-keyboard-response,79,166454,0.0-79.0,"""","<div style=""font-size:60px;"">+</div>","""",8,ITI,Practice,null,1000,"""","""","""","""","""","""","""","""","""",4/25/2021 1:32,104.190.173.154,Mozilla/5.0 (Windows NT 10.0; Win64; x64; rv:88.0) Gecko/20100101 Firefox/88.0,,Firefox,88,Windows,10
125,1,null,"""",image-keyboard-response,80,166713,0.0-80.0,"""",jspsych/scrambledDisgustFaces/scrambledAM11DIS.JPG,"""",8,forwardMask,Practice,null,250,"""",d,"""","""","""","""","""","""","""",4/25/2021 1:32,104.190.173.154,Mozilla/5.0 (Windows NT 10.0; Win64; x64; rv:88.0) Gecko/20100101 Firefox/88.0,,Firefox,88,Windows,10
125,1,null,"""",image-keyboard-response,81,166745,0.0-81.0,"""",jspsych/disgustFaces/AM11DIS.JPG,"""",8,Cue,Practice,null,16,"""","""","""","""","""","""","""","""","""",4/25/2021 1:32,104.190.173.154,Mozilla/5.0 (Windows NT 10.0; Win64; x64; rv:88.0) Gecko/20100101 Firefox/88.0,,Firefox,88,Windows,10
125,1,null,"""",image-keyboard-response,82,166857,0.0-82.0,"""",jspsych/neutralFaces/AM27NES.JPG,"""",8,backwardMask,Practice,null,100,"""","""","""","""","""","""","""","""","""",4/25/2021 1:32,104.190.173.154,Mozilla/5.0 (Windows NT 10.0; Win64; x64; rv:88.0) Gecko/20100101 Firefox/88.0,,Firefox,88,Windows,10
125,1,null,"""",html-keyboard-response,83,167867,0.0-83.0,"""","<div style=""font-size:60px;"">+</div>","""",8,fixationBtwnNeutralMaskAndPrompt,Practice,null,1000,"""","""","""","""","""","""","""","""","""",4/25/2021 1:32,104.190.173.154,Mozilla/5.0 (Windows NT 10.0; Win64; x64; rv:88.0) Gecko/20100101 Firefox/88.0,,Firefox,88,Windows,10
125,1,1423,"""",html-button-response,84,169292,0.0-84.0,"""","<img src='jspsych/CFDfaces/CFD-AF-226-251-N.jpg'height=""250px""></br><b>Shannon</b>",0,8,IntactOrRearranged,Practice,"""","""","""","""",CFD-AF-226-251-N.jpg,Shannon,0,"""","""",0,"""",4/25/2021 1:32,104.190.173.154,Mozilla/5.0 (Windows NT 10.0; Win64; x64; rv:88.0) Gecko/20100101 Firefox/88.0,,Firefox,88,Windows,10
125,1,1319,"""",html-slider-response,85,170621,0.0-85.0,"""","<img src='jspsych/CFDfaces/CFD-AF-226-251-N.jpg'height=""250px""></br><b>Shannon</b>","""",8,ConfidenceQuery,Practice,"""","""","""","""",CFD-BF-009-002-N.jpg,Erin,0,0,100,"""","""",4/25/2021 1:32,104.190.173.154,Mozilla/5.0 (Windows NT 10.0; Win64; x64; rv:88.0) Gecko/20100101 Firefox/88.0,,Firefox,88,Windows,10
125,1,749,"""",html-button-response,86,171373,0.0-86.0,"""",You are Correct. You called an Intact Pair Intact,0,8,feedback,Practice,"""","""","""","""","""","""","""","""","""","""","""",4/25/2021 1:32,104.190.173.154,Mozilla/5.0 (Windows NT 10.0; Win64; x64; rv:88.0) Gecko/20100101 Firefox/88.0,,Firefox,88,Windows,10
125,1,1353,"""",image-button-response,87,172742,0.0-87.0,"""",directionsMemoryAssociation3.JPG,0,128,DirectionsBeforeActualTEst,Break,"""","""","""","""","""","""","""","""","""","""","""",4/25/2021 1:32,104.190.173.154,Mozilla/5.0 (Windows NT 10.0; Win64; x64; rv:88.0) Gecko/20100101 Firefox/88.0,,Firefox,88,Windows,10
125,1,1924,"""",image-button-response,88,174669,0.0-88.0,"""",directionsForTest2.JPG,0,1,directionsForTest2,break,"""","""","""","""","""","""","""","""","""","""","""",4/25/2021 1:32,104.190.173.154,Mozilla/5.0 (Windows NT 10.0; Win64; x64; rv:88.0) Gecko/20100101 Firefox/88.0,,Firefox,88,Windows,10
125,1,7127,"""",html-button-response,89,181805,0.0-89.0,"""","<p>You will be asked to memorize and then recall four sets of face-name pairs. </p> <p> Each set will have 32 pairs. </p> <p>After the fourth set, there will be a brief follow-up experiment (<40 min alltogether)</p>",0,"""","""","""","""","""","""","""","""","""","""","""","""","""","""",4/25/2021 1:32,104.190.173.154,Mozilla/5.0 (Windows NT 10.0; Win64; x64; rv:88.0) Gecko/20100101 Firefox/88.0,,Firefox,88,Windows,10
125,1,2409,"""",html-keyboard-response,90,186809,0.0-90.0,"""","<img src='jspsych/CFDfaces/CFD-LM-219-295-N.jpg' height=""250px""></br><b>Joshua</b>","""",256,IntactFace,Memorization,70,5000,f,"""",CFD-WF-029-002-N.jpg,Taylor,0,"""","""","""",1,4/25/2021 1:32,104.190.173.154,Mozilla/5.0 (Windows NT 10.0; Win64; x64; rv:88.0) Gecko/20100101 Firefox/88.0,,Firefox,88,Windows,10
125,1,null,"""",html-keyboard-response,91,187327,0.0-91.0,"""","<div style=""font-size:60px;"">+</div>","""",256,fixation,Memorization,null,500,"""","""","""","""","""","""","""","""",1,4/25/2021 1:32,104.190.173.154,Mozilla/5.0 (Windows NT 10.0; Win64; x64; rv:88.0) Gecko/20100101 Firefox/88.0,,Firefox,88,Windows,10
125,1,1239,"""",html-keyboard-response,92,192337,0.0-92.0,"""","<img src='jspsych/CFDfaces/CFD-LF-244-096-N.jpg' height=""250px""></br><b>Andrea</b>","""",256,IntactFace,Memorization,70,5000,f,"""",CFD-AM-228-214-N.jpg,Mark,0,"""","""","""",1,4/25/2021 1:32,104.190.173.154,Mozilla/5.0 (Windows NT 10.0; Win64; x64; rv:88.0) Gecko/20100101 Firefox/88.0,,Firefox,88,Windows,10
125,1,null,"""",html-keyboard-response,93,192853,0.0-93.0,"""","<div style=""font-size:60px;"">+</div>","""",256,fixation,Memorization,null,500,"""","""","""","""","""","""","""","""",1,4/25/2021 1:32,104.190.173.154,Mozilla/5.0 (Windows NT 10.0; Win64; x64; rv:88.0) Gecko/20100101 Firefox/88.0,,Firefox,88,Windows,10
125,1,1331,"""",html-keyboard-response,94,197857,0.0-94.0,"""","<img src='jspsych/CFDfaces/CFD-WF-038-021-N.jpg' height=""250px""></br><b>Amanda</b>","""",256,IntactFace,Memorization,70,5000,f,"""",CFD-LF-230-203-N.jpg,Amy,0,"""","""","""",1,4/25/2021 1:32,104.190.173.154,Mozilla/5.0 (Windows NT 10.0; Win64; x64; rv:88.0) Gecko/20100101 Firefox/88.0,,Firefox,88,Windows,10
125,1,null,"""",html-keyboard-response,95,198364,0.0-95.0,"""","<div style=""font-size:60px;"">+</div>","""",256,fixation,Memorization,null,500,"""","""","""","""","""","""","""","""",1,4/25/2021 1:32,104.190.173.154,Mozilla/5.0 (Windows NT 10.0; Win64; x64; rv:88.0) Gecko/20100101 Firefox/88.0,,Firefox,88,Windows,10
125,1,1536,"""",html-keyboard-response,96,203378,0.0-96.0,"""","<img src='jspsych/CFDfaces/CFD-LM-225-130-N.jpg' height=""250px""></br><b>Gregory</b>","""",256,IntactFace,Memorization,78,5000,n,"""",CFD-BF-221-223-N.jpg,Sara,0,"""","""","""",1,4/25/2021 1:32,104.190.173.154,Mozilla/5.0 (Windows NT 10.0; Win64; x64; rv:88.0) Gecko/20100101 Firefox/88.0,,Firefox,88,Windows,10
125,1,null,"""",html-keyboard-response,97,203888,0.0-97.0,"""","<div style=""font-size:60px;"">+</div>","""",256,fixation,Memorization,null,500,"""","""","""","""","""","""","""","""",1,4/25/2021 1:32,104.190.173.154,Mozilla/5.0 (Windows NT 10.0; Win64; x64; rv:88.0) Gecko/20100101 Firefox/88.0,,Firefox,88,Windows,10
125,1,1678,"""",html-keyboard-response,98,208893,0.0-98.0,"""","<img src='jspsych/CFDfaces/CFD-AF-235-170-N.jpg' height=""250px""></br><b>Kayla</b>","""",256,IntactFace,Memorization,70,5000,f,"""",CFD-WF-200-099-N.jpg,Jenna,0,"""","""","""",1,4/25/2021 1:32,104.190.173.154,Mozilla/5.0 (Windows NT 10.0; Win64; x64; rv:88.0) Gecko/20100101 Firefox/88.0,,Firefox,88,Windows,10
125,1,null,"""",html-keyboard-response,99,209412,0.0-99.0,"""","<div style=""font-size:60px;"">+</div>","""",256,fixation,Memorization,null,500,"""","""","""","""","""","""","""","""",1,4/25/2021 1:32,104.190.173.154,Mozilla/5.0 (Windows NT 10.0; Win64; x64; rv:88.0) Gecko/20100101 Firefox/88.0,,Firefox,88,Windows,10
125,1,1471,"""",html-keyboard-response,100,214425,0.0-100.0,"""","<img src='jspsych/CFDfaces/CFD-WF-019-005-N.jpg' height=""250px""></br><b>Stephanie</b>","""",256,IntactFace,Memorization,70,5000,f,"""",CFD-LM-209-111-N.jpg,Steven,0,"""","""","""",1,4/25/2021 1:32,104.190.173.154,Mozilla/5.0 (Windows NT 10.0; Win64; x64; rv:88.0) Gecko/20100101 Firefox/88.0,,Firefox,88,Windows,10
125,1,null,"""",html-keyboard-response,101,214936,0.0-101.0,"""","<div style=""font-size:60px;"">+</div>","""",256,fixation,Memorization,null,500,"""","""","""","""","""","""","""","""",1,4/25/2021 1:32,104.190.173.154,Mozilla/5.0 (Windows NT 10.0; Win64; x64; rv:88.0) Gecko/20100101 Firefox/88.0,,Firefox,88,Windows,10
125,1,2780,"""",html-keyboard-response,102,219938,0.0-102.0,"""","<img src='jspsych/CFDfaces/CFD-AM-248-104-N.jpg' height=""250px""></br><b>Juan</b>","""",256,IntactFace,Memorization,78,5000,n,"""",CFD-WM-015-002-N.jpg,Jeremy,0,"""","""","""",1,4/25/2021 1:32,104.190.173.154,Mozilla/5.0 (Windows NT 10.0; Win64; x64; rv:88.0) Gecko/20100101 Firefox/88.0,,Firefox,88,Windows,10
125,1,null,"""",html-keyboard-response,103,220453,0.0-103.0,"""","<div style=""font-size:60px;"">+</div>","""",256,fixation,Memorization,null,500,"""","""","""","""","""","""","""","""",1,4/25/2021 1:32,104.190.173.154,Mozilla/5.0 (Windows NT 10.0; Win64; x64; rv:88.0) Gecko/20100101 Firefox/88.0,,Firefox,88,Windows,10
125,1,2841,"""",html-keyboard-response,104,225461,0.0-104.0,"""","<img src='jspsych/CFDfaces/CFD-AM-238-269-N.jpg' height=""250px""></br><b>Jeffrey</b>","""",256,IntactFace,Memorization,78,5000,n,"""",CFD-BF-008-001-N.jpg,Laura,0,"""","""","""",1,4/25/2021 1:32,104.190.173.154,Mozilla/5.0 (Windows NT 10.0; Win64; x64; rv:88.0) Gecko/20100101 Firefox/88.0,,Firefox,88,Windows,10
125,1,null,"""",html-keyboard-response,105,225963,0.0-105.0,"""","<div style=""font-size:60px;"">+</div>","""",256,fixation,Memorization,null,500,"""","""","""","""","""","""","""","""",1,4/25/2021 1:32,104.190.173.154,Mozilla/5.0 (Windows NT 10.0; Win64; x64; rv:88.0) Gecko/20100101 Firefox/88.0,,Firefox,88,Windows,10
125,1,1299,"""",html-keyboard-response,106,230973,0.0-106.0,"""","<img src='jspsych/CFDfaces/CFD-WM-215-041-N.jpg' height=""250px""></br><b>Jason</b>","""",256,IntactFace,Memorization,70,5000,f,"""",CFD-WF-023-003-N.jpg,Erin,0,"""","""","""",1,4/25/2021 1:32,104.190.173.154,Mozilla/5.0 (Windows NT 10.0; Win64; x64; rv:88.0) Gecko/20100101 Firefox/88.0,,Firefox,88,Windows,10
125,1,null,"""",html-keyboard-response,107,231479,0.0-107.0,"""","<div style=""font-size:60px;"">+</div>","""",256,fixation,Memorization,null,500,"""","""","""","""","""","""","""","""",1,4/25/2021 1:32,104.190.173.154,Mozilla/5.0 (Windows NT 10.0; Win64; x64; rv:88.0) Gecko/20100101 Firefox/88.0,,Firefox,88,Windows,10
125,1,3818,"""",html-keyboard-response,108,236493,0.0-108.0,"""","<img src='jspsych/CFDfaces/CFD-AF-200-228-N.jpg' height=""250px""></br><b>Kimberly</b>","""",256,IntactFace,Memorization,70,5000,f,"""",CFD-BM-002-013-N.jpg,Austin,0,"""","""","""",1,4/25/2021 1:32,104.190.173.154,Mozilla/5.0 (Windows NT 10.0; Win64; x64; rv:88.0) Gecko/20100101 Firefox/88.0,,Firefox,88,Windows,10
125,1,null,"""",html-keyboard-response,109,237003,0.0-109.0,"""","<div style=""font-size:60px;"">+</div>","""",256,fixation,Memorization,null,500,"""","""","""","""","""","""","""","""",1,4/25/2021 1:32,104.190.173.154,Mozilla/5.0 (Windows NT 10.0; Win64; x64; rv:88.0) Gecko/20100101 Firefox/88.0,,Firefox,88,Windows,10
125,1,4988,"""",html-keyboard-response,110,242018,0.0-110.0,"""","<img src='jspsych/CFDfaces/CFD-LF-220-120-N.jpg' height=""250px""></br><b>Samantha</b>","""",256,IntactFace,Memorization,70,5000,f,"""",CFD-WF-017-003-N.jpg,Rebecca,0,"""","""","""",1,4/25/2021 1:32,104.190.173.154,Mozilla/5.0 (Windows NT 10.0; Win64; x64; rv:88.0) Gecko/20100101 Firefox/88.0,,Firefox,88,Windows,10
125,1,null,"""",html-keyboard-response,111,242533,0.0-111.0,"""","<div style=""font-size:60px;"">+</div>","""",256,fixation,Memorization,null,500,"""","""","""","""","""","""","""","""",1,4/25/2021 1:32,104.190.173.154,Mozilla/5.0 (Windows NT 10.0; Win64; x64; rv:88.0) Gecko/20100101 Firefox/88.0,,Firefox,88,Windows,10
125,1,1720,"""",html-keyboard-response,112,247547,0.0-112.0,"""","<img src='jspsych/CFDfaces/CFD-BM-011-016-N.jpg' height=""250px""></br><b>Eric</b>","""",256,IntactFace,Memorization,70,5000,f,"""",CFD-BM-211-174-N.jpg,Kenneth,0,"""","""","""",1,4/25/2021 1:32,104.190.173.154,Mozilla/5.0 (Windows NT 10.0; Win64; x64; rv:88.0) Gecko/20100101 Firefox/88.0,,Firefox,88,Windows,10
125,1,null,"""",html-keyboard-response,113,248052,0.0-113.0,"""","<div style=""font-size:60px;"">+</div>","""",256,fixation,Memorization,null,500,"""","""","""","""","""","""","""","""",1,4/25/2021 1:32,104.190.173.154,Mozilla/5.0 (Windows NT 10.0; Win64; x64; rv:88.0) Gecko/20100101 Firefox/88.0,,Firefox,88,Windows,10
125,1,1632,"""",html-keyboard-response,114,253073,0.0-114.0,"""","<img src='jspsych/CFDfaces/CFD-BF-019-001-N.jpg' height=""250px""></br><b>Michelle</b>","""",256,IntactFace,Memorization,70,5000,f,"""",CFD-LM-224-162-N.jpg,Dustin,0,"""","""","""",1,4/25/2021 1:32,104.190.173.154,Mozilla/5.0 (Windows NT 10.0; Win64; x64; rv:88.0) Gecko/20100101 Firefox/88.0,,Firefox,88,Windows,10
125,1,null,"""",html-keyboard-response,115,253582,0.0-115.0,"""","<div style=""font-size:60px;"">+</div>","""",256,fixation,Memorization,null,500,"""","""","""","""","""","""","""","""",1,4/25/2021 1:32,104.190.173.154,Mozilla/5.0 (Windows NT 10.0; Win64; x64; rv:88.0) Gecko/20100101 Firefox/88.0,,Firefox,88,Windows,10
125,1,3296,"""",html-keyboard-response,116,258602,0.0-116.0,"""","<img src='jspsych/CFDfaces/CFD-LM-248-089-N.jpg' height=""250px""></br><b>Richard</b>","""",256,IntactFace,Memorization,70,5000,f,"""",CFD-BM-210-148-N.jpg,Ryan,0,"""","""","""",1,4/25/2021 1:32,104.190.173.154,Mozilla/5.0 (Windows NT 10.0; Win64; x64; rv:88.0) Gecko/20100101 Firefox/88.0,,Firefox,88,Windows,10
125,1,null,"""",html-keyboard-response,117,259114,0.0-117.0,"""","<div style=""font-size:60px;"">+</div>","""",256,fixation,Memorization,null,500,"""","""","""","""","""","""","""","""",1,4/25/2021 1:32,104.190.173.154,Mozilla/5.0 (Windows NT 10.0; Win64; x64; rv:88.0) Gecko/20100101 Firefox/88.0,,Firefox,88,Windows,10
125,1,2715,"""",html-keyboard-response,118,264129,0.0-118.0,"""","<img src='jspsych/CFDfaces/CFD-WF-204-038-N.jpg' height=""250px""></br><b>Victoria</b>","""",256,IntactFace,Memorization,70,5000,f,"""",CFD-LF-231-260-N.jpg,Lauren,0,"""","""","""",1,4/25/2021 1:32,104.190.173.154,Mozilla/5.0 (Windows NT 10.0; Win64; x64; rv:88.0) Gecko/20100101 Firefox/88.0,,Firefox,88,Windows,10
125,1,null,"""",html-keyboard-response,119,264642,0.0-119.0,"""","<div style=""font-size:60px;"">+</div>","""",256,fixation,Memorization,null,500,"""","""","""","""","""","""","""","""",1,4/25/2021 1:32,104.190.173.154,Mozilla/5.0 (Windows NT 10.0; Win64; x64; rv:88.0) Gecko/20100101 Firefox/88.0,,Firefox,88,Windows,10
125,1,1354,"""",html-keyboard-response,120,269658,0.0-120.0,"""","<img src='jspsych/CFDfaces/CFD-AF-228-173-N.jpg' height=""250px""></br><b>Ashley</b>","""",256,IntactFace,Memorization,70,5000,f,"""",CFD-BF-021-013-N.jpg,Jasmine,0,"""","""","""",1,4/25/2021 1:32,104.190.173.154,Mozilla/5.0 (Windows NT 10.0; Win64; x64; rv:88.0) Gecko/20100101 Firefox/88.0,,Firefox,88,Windows,10
125,1,null,"""",html-keyboard-response,121,270160,0.0-121.0,"""","<div style=""font-size:60px;"">+</div>","""",256,fixation,Memorization,null,500,"""","""","""","""","""","""","""","""",1,4/25/2021 1:32,104.190.173.154,Mozilla/5.0 (Windows NT 10.0; Win64; x64; rv:88.0) Gecko/20100101 Firefox/88.0,,Firefox,88,Windows,10
125,1,2483,"""",html-keyboard-response,122,275183,0.0-122.0,"""","<img src='jspsych/CFDfaces/CFD-WM-216-061-N.jpg' height=""250px""></br><b>Peter</b>","""",256,IntactFace,Memorization,70,5000,f,"""",CFD-LM-252-076-N.jpg,Timothy,0,"""","""","""",1,4/25/2021 1:32,104.190.173.154,Mozilla/5.0 (Windows NT 10.0; Win64; x64; rv:88.0) Gecko/20100101 Firefox/88.0,,Firefox,88,Windows,10
125,1,null,"""",html-keyboard-response,123,275699,0.0-123.0,"""","<div style=""font-size:60px;"">+</div>","""",256,fixation,Memorization,null,500,"""","""","""","""","""","""","""","""",1,4/25/2021 1:32,104.190.173.154,Mozilla/5.0 (Windows NT 10.0; Win64; x64; rv:88.0) Gecko/20100101 Firefox/88.0,,Firefox,88,Windows,10
125,1,2521,"""",html-keyboard-response,124,280708,0.0-124.0,"""","<img src='jspsych/CFDfaces/CFD-LF-200-058-N.jpg' height=""250px""></br><b>Brittany</b>","""",256,IntactFace,Memorization,70,5000,f,"""",CFD-BF-039-031-N.jpg,Melissa,0,"""","""","""",1,4/25/2021 1:32,104.190.173.154,Mozilla/5.0 (Windows NT 10.0; Win64; x64; rv:88.0) Gecko/20100101 Firefox/88.0,,Firefox,88,Windows,10
125,1,null,"""",html-keyboard-response,125,281210,0.0-125.0,"""","<div style=""font-size:60px;"">+</div>","""",256,fixation,Memorization,null,500,"""","""","""","""","""","""","""","""",1,4/25/2021 1:32,104.190.173.154,Mozilla/5.0 (Windows NT 10.0; Win64; x64; rv:88.0) Gecko/20100101 Firefox/88.0,,Firefox,88,Windows,10
125,1,2029,"""",html-keyboard-response,126,286222,0.0-126.0,"""","<img src='jspsych/CFDfaces/CFD-AM-230-150-N.jpg' height=""250px""></br><b>Christian</b>","""",256,IntactFace,Memorization,70,5000,f,"""",CFD-WM-032-001-N.jpg,Sean,0,"""","""","""",1,4/25/2021 1:32,104.190.173.154,Mozilla/5.0 (Windows NT 10.0; Win64; x64; rv:88.0) Gecko/20100101 Firefox/88.0,,Firefox,88,Windows,10
125,1,null,"""",html-keyboard-response,127,286734,0.0-127.0,"""","<div style=""font-size:60px;"">+</div>","""",256,fixation,Memorization,null,500,"""","""","""","""","""","""","""","""",1,4/25/2021 1:32,104.190.173.154,Mozilla/5.0 (Windows NT 10.0; Win64; x64; rv:88.0) Gecko/20100101 Firefox/88.0,,Firefox,88,Windows,10
125,1,1954,"""",html-keyboard-response,128,291755,0.0-128.0,"""","<img src='jspsych/CFDfaces/CFD-WF-223-133-N.jpg' height=""250px""></br><b>Elizabeth</b>","""",256,IntactFace,Memorization,70,5000,f,"""",CFD-WM-006-002-N.jpg,Vincent,0,"""","""","""",1,4/25/2021 1:32,104.190.173.154,Mozilla/5.0 (Windows NT 10.0; Win64; x64; rv:88.0) Gecko/20100101 Firefox/88.0,,Firefox,88,Windows,10
125,1,null,"""",html-keyboard-response,129,292268,0.0-129.0,"""","<div style=""font-size:60px;"">+</div>","""",256,fixation,Memorization,null,500,"""","""","""","""","""","""","""","""",1,4/25/2021 1:32,104.190.173.154,Mozilla/5.0 (Windows NT 10.0; Win64; x64; rv:88.0) Gecko/20100101 Firefox/88.0,,Firefox,88,Windows,10
125,1,2434,"""",html-keyboard-response,130,297276,0.0-130.0,"""","<img src='jspsych/CFDfaces/CFD-LM-213-061-N.jpg' height=""250px""></br><b>Brian</b>","""",256,IntactFace,Memorization,70,5000,f,"""",CFD-BF-226-119-N.jpg,Jordan,0,"""","""","""",1,4/25/2021 1:32,104.190.173.154,Mozilla/5.0 (Windows NT 10.0; Win64; x64; rv:88.0) Gecko/20100101 Firefox/88.0,,Firefox,88,Windows,10
125,1,null,"""",html-keyboard-response,131,297783,0.0-131.0,"""","<div style=""font-size:60px;"">+</div>","""",256,fixation,Memorization,null,500,"""","""","""","""","""","""","""","""",1,4/25/2021 1:32,104.190.173.154,Mozilla/5.0 (Windows NT 10.0; Win64; x64; rv:88.0) Gecko/20100101 Firefox/88.0,,Firefox,88,Windows,10
125,1,2260,"""",html-keyboard-response,132,302793,0.0-132.0,"""","<img src='jspsych/CFDfaces/CFD-BM-026-002-N.jpg' height=""250px""></br><b>James</b>","""",256,IntactFace,Memorization,70,5000,f,"""",CFD-WF-205-006-N.jpg,Heather,0,"""","""","""",1,4/25/2021 1:32,104.190.173.154,Mozilla/5.0 (Windows NT 10.0; Win64; x64; rv:88.0) Gecko/20100101 Firefox/88.0,,Firefox,88,Windows,10
125,1,null,"""",html-keyboard-response,133,303304,0.0-133.0,"""","<div style=""font-size:60px;"">+</div>","""",256,fixation,Memorization,null,500,"""","""","""","""","""","""","""","""",1,4/25/2021 1:32,104.190.173.154,Mozilla/5.0 (Windows NT 10.0; Win64; x64; rv:88.0) Gecko/20100101 Firefox/88.0,,Firefox,88,Windows,10
125,1,2063,"""",html-keyboard-response,134,308329,0.0-134.0,"""","<img src='jspsych/CFDfaces/CFD-LF-236-221-N.jpg' height=""250px""></br><b>Julie</b>","""",256,IntactFace,Memorization,70,5000,f,"""",CFD-BM-043-071-N.jpg,Luis,0,"""","""","""",1,4/25/2021 1:32,104.190.173.154,Mozilla/5.0 (Windows NT 10.0; Win64; x64; rv:88.0) Gecko/20100101 Firefox/88.0,,Firefox,88,Windows,10
125,1,null,"""",html-keyboard-response,135,308831,0.0-135.0,"""","<div style=""font-size:60px;"">+</div>","""",256,fixation,Memorization,null,500,"""","""","""","""","""","""","""","""",1,4/25/2021 1:32,104.190.173.154,Mozilla/5.0 (Windows NT 10.0; Win64; x64; rv:88.0) Gecko/20100101 Firefox/88.0,,Firefox,88,Windows,10
125,1,3247,"""",html-keyboard-response,136,313854,0.0-136.0,"""","<img src='jspsych/CFDfaces/CFD-WM-207-048-N.jpg' height=""250px""></br><b>Brandon</b>","""",256,IntactFace,Memorization,78,5000,n,"""",CFD-BF-009-002-N.jpg,Angela,0,"""","""","""",1,4/25/2021 1:32,104.190.173.154,Mozilla/5.0 (Windows NT 10.0; Win64; x64; rv:88.0) Gecko/20100101 Firefox/88.0,,Firefox,88,Windows,10
125,1,null,"""",html-keyboard-response,137,314359,0.0-137.0,"""","<div style=""font-size:60px;"">+</div>","""",256,fixation,Memorization,null,500,"""","""","""","""","""","""","""","""",1,4/25/2021 1:32,104.190.173.154,Mozilla/5.0 (Windows NT 10.0; Win64; x64; rv:88.0) Gecko/20100101 Firefox/88.0,,Firefox,88,Windows,10
125,1,1082,"""",html-keyboard-response,138,319378,0.0-138.0,"""","<img src='jspsych/CFDfaces/CFD-BF-001-025-N.jpg' height=""250px""></br><b>Christina</b>","""",256,IntactFace,Memorization,70,5000,f,"""",CFD-BM-017-021-N.jpg,Jesse,0,"""","""","""",1,4/25/2021 1:32,104.190.173.154,Mozilla/5.0 (Windows NT 10.0; Win64; x64; rv:88.0) Gecko/20100101 Firefox/88.0,,Firefox,88,Windows,10
125,1,null,"""",html-keyboard-response,139,319887,0.0-139.0,"""","<div style=""font-size:60px;"">+</div>","""",256,fixation,Memorization,null,500,"""","""","""","""","""","""","""","""",1,4/25/2021 1:32,104.190.173.154,Mozilla/5.0 (Windows NT 10.0; Win64; x64; rv:88.0) Gecko/20100101 Firefox/88.0,,Firefox,88,Windows,10
125,1,1143,"""",html-keyboard-response,140,324896,0.0-140.0,"""","<img src='jspsych/CFDfaces/CFD-BM-018-001-N.jpg' height=""250px""></br><b>Daniel</b>","""",256,IntactFace,Memorization,70,5000,f,"""",CFD-LF-208-127-N.jpg,Whitney,0,"""","""","""",1,4/25/2021 1:32,104.190.173.154,Mozilla/5.0 (Windows NT 10.0; Win64; x64; rv:88.0) Gecko/20100101 Firefox/88.0,,Firefox,88,Windows,10
125,1,null,"""",html-keyboard-response,141,325398,0.0-141.0,"""","<div style=""font-size:60px;"">+</div>","""",256,fixation,Memorization,null,500,"""","""","""","""","""","""","""","""",1,4/25/2021 1:32,104.190.173.154,Mozilla/5.0 (Windows NT 10.0; Win64; x64; rv:88.0) Gecko/20100101 Firefox/88.0,,Firefox,88,Windows,10
125,1,1100,"""",html-keyboard-response,142,330413,0.0-142.0,"""","<img src='jspsych/CFDfaces/CFD-WF-217-085-N.jpg' height=""250px""></br><b>Vanessa</b>","""",256,IntactFace,Memorization,70,5000,f,"""",CFD-AM-234-355-N.jpg,Jacob,0,"""","""","""",1,4/25/2021 1:32,104.190.173.154,Mozilla/5.0 (Windows NT 10.0; Win64; x64; rv:88.0) Gecko/20100101 Firefox/88.0,,Firefox,88,Windows,10
125,1,null,"""",html-keyboard-response,143,330928,0.0-143.0,"""","<div style=""font-size:60px;"">+</div>","""",256,fixation,Memorization,null,500,"""","""","""","""","""","""","""","""",1,4/25/2021 1:32,104.190.173.154,Mozilla/5.0 (Windows NT 10.0; Win64; x64; rv:88.0) Gecko/20100101 Firefox/88.0,,Firefox,88,Windows,10
125,1,2535,"""",html-keyboard-response,144,335942,0.0-144.0,"""","<img src='jspsych/CFDfaces/CFD-WM-222-057-N.jpg' height=""250px""></br><b>Robert</b>","""",256,IntactFace,Memorization,70,5000,f,"""",CFD-BF-222-240-N.jpg,Lindsey,0,"""","""","""",1,4/25/2021 1:32,104.190.173.154,Mozilla/5.0 (Windows NT 10.0; Win64; x64; rv:88.0) Gecko/20100101 Firefox/88.0,,Firefox,88,Windows,10
125,1,null,"""",html-keyboard-response,145,336444,0.0-145.0,"""","<div style=""font-size:60px;"">+</div>","""",256,fixation,Memorization,null,500,"""","""","""","""","""","""","""","""",1,4/25/2021 1:32,104.190.173.154,Mozilla/5.0 (Windows NT 10.0; Win64; x64; rv:88.0) Gecko/20100101 Firefox/88.0,,Firefox,88,Windows,10
125,1,1404,"""",html-keyboard-response,146,341466,0.0-146.0,"""","<img src='jspsych/CFDfaces/CFD-WM-009-002-N.jpg' height=""250px""></br><b>Ian</b>","""",256,IntactFace,Memorization,70,5000,f,"""",CFD-AF-203-077-N.jpg,Tiffany,0,"""","""","""",1,4/25/2021 1:32,104.190.173.154,Mozilla/5.0 (Windows NT 10.0; Win64; x64; rv:88.0) Gecko/20100101 Firefox/88.0,,Firefox,88,Windows,10
125,1,null,"""",html-keyboard-response,147,341978,0.0-147.0,"""","<div style=""font-size:60px;"">+</div>","""",256,fixation,Memorization,null,500,"""","""","""","""","""","""","""","""",1,4/25/2021 1:32,104.190.173.154,Mozilla/5.0 (Windows NT 10.0; Win64; x64; rv:88.0) Gecko/20100101 Firefox/88.0,,Firefox,88,Windows,10
125,1,2315,"""",html-keyboard-response,148,346996,0.0-148.0,"""","<img src='jspsych/CFDfaces/CFD-BM-027-001-N.jpg' height=""250px""></br><b>Nicholas</b>","""",256,IntactFace,Memorization,70,5000,f,"""",CFD-BM-208-065-N.jpg,Cameron,0,"""","""","""",1,4/25/2021 1:32,104.190.173.154,Mozilla/5.0 (Windows NT 10.0; Win64; x64; rv:88.0) Gecko/20100101 Firefox/88.0,,Firefox,88,Windows,10
125,1,null,"""",html-keyboard-response,149,347508,0.0-149.0,"""","<div style=""font-size:60px;"">+</div>","""",256,fixation,Memorization,null,500,"""","""","""","""","""","""","""","""",1,4/25/2021 1:32,104.190.173.154,Mozilla/5.0 (Windows NT 10.0; Win64; x64; rv:88.0) Gecko/20100101 Firefox/88.0,,Firefox,88,Windows,10
125,1,1185,"""",html-keyboard-response,150,352530,0.0-150.0,"""","<img src='jspsych/CFDfaces/CFD-AF-201-060-N.jpg' height=""250px""></br><b>Meghan</b>","""",256,IntactFace,Memorization,70,5000,f,"""",CFD-BM-041-035-N.jpg,Justin,0,"""","""","""",1,4/25/2021 1:32,104.190.173.154,Mozilla/5.0 (Windows NT 10.0; Win64; x64; rv:88.0) Gecko/20100101 Firefox/88.0,,Firefox,88,Windows,10
125,1,null,"""",html-keyboard-response,151,353047,0.0-151.0,"""","<div style=""font-size:60px;"">+</div>","""",256,fixation,Memorization,null,500,"""","""","""","""","""","""","""","""",1,4/25/2021 1:32,104.190.173.154,Mozilla/5.0 (Windows NT 10.0; Win64; x64; rv:88.0) Gecko/20100101 Firefox/88.0,,Firefox,88,Windows,10
125,1,1180,"""",html-keyboard-response,152,358070,0.0-152.0,"""","<img src='jspsych/CFDfaces/CFD-LF-215-157-N.jpg' height=""250px""></br><b>Emily</b>","""",256,IntactFace,Memorization,70,5000,f,"""",CFD-LM-233-171-N.jpg,Travis,0,"""","""","""",1,4/25/2021 1:32,104.190.173.154,Mozilla/5.0 (Windows NT 10.0; Win64; x64; rv:88.0) Gecko/20100101 Firefox/88.0,,Firefox,88,Windows,10
125,1,null,"""",html-keyboard-response,153,358583,0.0-153.0,"""","<div style=""font-size:60px;"">+</div>","""",256,fixation,Memorization,null,500,"""","""","""","""","""","""","""","""",1,4/25/2021 1:32,104.190.173.154,Mozilla/5.0 (Windows NT 10.0; Win64; x64; rv:88.0) Gecko/20100101 Firefox/88.0,,Firefox,88,Windows,10
125,1,1108,"""",html-keyboard-response,154,359698,0.0-154.0,"""",Press Any Key to Begin Memory Test,"""",1,welcomeScreen,Break,78,"""","""","""","""","""","""","""","""","""",1,4/25/2021 1:32,104.190.173.154,Mozilla/5.0 (Windows NT 10.0; Win64; x64; rv:88.0) Gecko/20100101 Firefox/88.0,,Firefox,88,Windows,10
125,1,null,"""",html-keyboard-response,155,360714,0.0-155.0,"""","<div style=""font-size:60px;"">+</div>","""",256,ITI,Test,null,1000,"""","""","""","""","""","""","""","""",1,4/25/2021 1:32,104.190.173.154,Mozilla/5.0 (Windows NT 10.0; Win64; x64; rv:88.0) Gecko/20100101 Firefox/88.0,,Firefox,88,Windows,10
125,1,null,"""",image-keyboard-response,156,360969,0.0-156.0,"""",jspsych/scrambledDisgustFaces/scrambledAM13DIS.JPG,"""",256,forwardMask,Test,null,250,"""",d,"""","""","""","""","""","""",1,4/25/2021 1:32,104.190.173.154,Mozilla/5.0 (Windows NT 10.0; Win64; x64; rv:88.0) Gecko/20100101 Firefox/88.0,,Firefox,88,Windows,10
125,1,null,"""",image-keyboard-response,157,360994,0.0-157.0,"""",jspsych/disgustFaces/AM13DIS.JPG,"""",256,Cue,Test,null,16,"""","""","""","""","""","""","""","""",1,4/25/2021 1:32,104.190.173.154,Mozilla/5.0 (Windows NT 10.0; Win64; x64; rv:88.0) Gecko/20100101 Firefox/88.0,,Firefox,88,Windows,10
125,1,null,"""",image-keyboard-response,158,361114,0.0-158.0,"""",jspsych/neutralFaces/AM32NES.JPG,"""",256,backwardMask,Test,null,100,"""","""","""","""","""","""","""","""",1,4/25/2021 1:32,104.190.173.154,Mozilla/5.0 (Windows NT 10.0; Win64; x64; rv:88.0) Gecko/20100101 Firefox/88.0,,Firefox,88,Windows,10
125,1,null,"""",html-keyboard-response,159,362128,0.0-159.0,"""","<div style=""font-size:60px;"">+</div>","""",256,fixationBtwnNeutralMaskAndPrompt,Test,null,1000,"""","""","""","""","""","""","""","""",1,4/25/2021 1:32,104.190.173.154,Mozilla/5.0 (Windows NT 10.0; Win64; x64; rv:88.0) Gecko/20100101 Firefox/88.0,,Firefox,88,Windows,10
125,1,1297,"""",html-button-response,160,363428,0.0-160.0,"""","<img src='jspsych/CFDfaces/CFD-BM-027-001-N.jpg' height=""250px"">,</br><b>Nicholas</b>",0,256,IntactOrRearranged,Test,"""","""","""","""",CFD-BF-008-001-N.jpg,Sara,0,"""","""",0,1,4/25/2021 1:32,104.190.173.154,Mozilla/5.0 (Windows NT 10.0; Win64; x64; rv:88.0) Gecko/20100101 Firefox/88.0,,Firefox,88,Windows,10
125,1,1570,"""",html-slider-response,161,365005,0.0-161.0,"""","<img src='jspsych/CFDfaces/CFD-BM-027-001-N.jpg' height=""250px"">,</br><b>Nicholas</b>","""",256,ConfidenceQuery,Test,"""","""","""","""",CFD-BF-008-001-N.jpg,Sara,0,0,100,"""",1,4/25/2021 1:32,104.190.173.154,Mozilla/5.0 (Windows NT 10.0; Win64; x64; rv:88.0) Gecko/20100101 Firefox/88.0,,Firefox,88,Windows,10
125,1,null,"""",html-keyboard-response,162,366018,0.0-162.0,"""","<div style=""font-size:60px;"">+</div>","""",256,ITI,Test,null,1000,"""","""","""","""","""","""","""","""",1,4/25/2021 1:32,104.190.173.154,Mozilla/5.0 (Windows NT 10.0; Win64; x64; rv:88.0) Gecko/20100101 Firefox/88.0,,Firefox,88,Windows,10
125,1,null,"""",image-keyboard-response,163,366283,0.0-163.0,"""",jspsych/scrambledNeutralFaces/scrambledBM33NES.JPG,"""",256,forwardMask,Test,null,250,"""",n,"""","""","""","""","""","""",1,4/25/2021 1:32,104.190.173.154,Mozilla/5.0 (Windows NT 10.0; Win64; x64; rv:88.0) Gecko/20100101 Firefox/88.0,,Firefox,88,Windows,10
125,1,null,"""",image-keyboard-response,164,366314,0.0-164.0,"""",jspsych/neutralFaces/BM33NES.JPG,"""",256,Cue,Test,null,16,"""","""","""","""","""","""","""","""",1,4/25/2021 1:32,104.190.173.154,Mozilla/5.0 (Windows NT 10.0; Win64; x64; rv:88.0) Gecko/20100101 Firefox/88.0,,Firefox,88,Windows,10
125,1,null,"""",image-keyboard-response,165,366421,0.0-165.0,"""",jspsych/neutralFaces/AM32NES.JPG,"""",256,backwardMask,Test,null,100,"""","""","""","""","""","""","""","""",1,4/25/2021 1:32,104.190.173.154,Mozilla/5.0 (Windows NT 10.0; Win64; x64; rv:88.0) Gecko/20100101 Firefox/88.0,,Firefox,88,Windows,10
125,1,null,"""",html-keyboard-response,166,367434,0.0-166.0,"""","<div style=""font-size:60px;"">+</div>","""",256,fixationBtwnNeutralMaskAndPrompt,Test,null,1000,"""","""","""","""","""","""","""","""",1,4/25/2021 1:32,104.190.173.154,Mozilla/5.0 (Windows NT 10.0; Win64; x64; rv:88.0) Gecko/20100101 Firefox/88.0,,Firefox,88,Windows,10
125,1,3696,"""",html-button-response,167,371133,0.0-167.0,"""","<img src='jspsych/CFDfaces/CFD-WM-222-057-N.jpg' height=""250px"">,</br><b>Robert</b>",0,256,IntactOrRearranged,Test,"""","""","""","""",CFD-BF-039-031-N.jpg,Melissa,0,"""","""",0,1,4/25/2021 1:32,104.190.173.154,Mozilla/5.0 (Windows NT 10.0; Win64; x64; rv:88.0) Gecko/20100101 Firefox/88.0,,Firefox,88,Windows,10
125,1,1478,"""",html-slider-response,168,372623,0.0-168.0,"""","<img src='jspsych/CFDfaces/CFD-WM-222-057-N.jpg' height=""250px"">,</br><b>Robert</b>","""",256,ConfidenceQuery,Test,"""","""","""","""",CFD-BF-039-031-N.jpg,Melissa,0,0,100,"""",1,4/25/2021 1:32,104.190.173.154,Mozilla/5.0 (Windows NT 10.0; Win64; x64; rv:88.0) Gecko/20100101 Firefox/88.0,,Firefox,88,Windows,10
125,1,null,"""",html-keyboard-response,169,373638,0.0-169.0,"""","<div style=""font-size:60px;"">+</div>","""",256,ITI,Test,null,1000,"""","""","""","""","""","""","""","""",1,4/25/2021 1:32,104.190.173.154,Mozilla/5.0 (Windows NT 10.0; Win64; x64; rv:88.0) Gecko/20100101 Firefox/88.0,,Firefox,88,Windows,10
125,1,null,"""",image-keyboard-response,170,373900,0.0-170.0,"""",jspsych/scrambledNeutralFaces/scrambledAM17NES.JPG,"""",256,forwardMask,Test,null,250,"""",n,"""","""","""","""","""","""",1,4/25/2021 1:32,104.190.173.154,Mozilla/5.0 (Windows NT 10.0; Win64; x64; rv:88.0) Gecko/20100101 Firefox/88.0,,Firefox,88,Windows,10
125,1,null,"""",image-keyboard-response,171,373922,0.0-171.0,"""",jspsych/neutralFaces/AM17NES.JPG,"""",256,Cue,Test,null,16,"""","""","""","""","""","""","""","""",1,4/25/2021 1:32,104.190.173.154,Mozilla/5.0 (Windows NT 10.0; Win64; x64; rv:88.0) Gecko/20100101 Firefox/88.0,,Firefox,88,Windows,10
125,1,null,"""",image-keyboard-response,172,374029,0.0-172.0,"""",jspsych/neutralFaces/BM06NES.JPG,"""",256,backwardMask,Test,null,100,"""","""","""","""","""","""","""","""",1,4/25/2021 1:32,104.190.173.154,Mozilla/5.0 (Windows NT 10.0; Win64; x64; rv:88.0) Gecko/20100101 Firefox/88.0,,Firefox,88,Windows,10
125,1,null,"""",html-keyboard-response,173,375031,0.0-173.0,"""","<div style=""font-size:60px;"">+</div>","""",256,fixationBtwnNeutralMaskAndPrompt,Test,null,1000,"""","""","""","""","""","""","""","""",1,4/25/2021 1:32,104.190.173.154,Mozilla/5.0 (Windows NT 10.0; Win64; x64; rv:88.0) Gecko/20100101 Firefox/88.0,,Firefox,88,Windows,10
125,1,2498,"""",html-button-response,174,377533,0.0-174.0,"""","<img src='jspsych/CFDfaces/CFD-AM-248-104-N.jpg' height=""250px"">,</br><b>Juan</b>",0,256,IntactOrRearranged,Test,"""","""","""","""",CFD-WF-029-002-N.jpg,Taylor,0,"""","""",0,1,4/25/2021 1:32,104.190.173.154,Mozilla/5.0 (Windows NT 10.0; Win64; x64; rv:88.0) Gecko/20100101 Firefox/88.0,,Firefox,88,Windows,10
125,1,1323,"""",html-slider-response,175,378870,0.0-175.0,"""","<img src='jspsych/CFDfaces/CFD-AM-248-104-N.jpg' height=""250px"">,</br><b>Juan</b>","""",256,ConfidenceQuery,Test,"""","""","""","""",CFD-WF-029-002-N.jpg,Taylor,0,0,100,"""",1,4/25/2021 1:32,104.190.173.154,Mozilla/5.0 (Windows NT 10.0; Win64; x64; rv:88.0) Gecko/20100101 Firefox/88.0,,Firefox,88,Windows,10
125,1,null,"""",html-keyboard-response,176,379884,0.0-176.0,"""","<div style=""font-size:60px;"">+</div>","""",256,ITI,Test,null,1000,"""","""","""","""","""","""","""","""",1,4/25/2021 1:32,104.190.173.154,Mozilla/5.0 (Windows NT 10.0; Win64; x64; rv:88.0) Gecko/20100101 Firefox/88.0,,Firefox,88,Windows,10
125,1,null,"""",image-keyboard-response,177,380144,0.0-177.0,"""",jspsych/scrambledDisgustFaces/scrambledAM18DIS.JPG,"""",256,forwardMask,Test,null,250,"""",d,"""","""","""","""","""","""",1,4/25/2021 1:32,104.190.173.154,Mozilla/5.0 (Windows NT 10.0; Win64; x64; rv:88.0) Gecko/20100101 Firefox/88.0,,Firefox,88,Windows,10
125,1,null,"""",image-keyboard-response,178,380175,0.0-178.0,"""",jspsych/disgustFaces/AM18DIS.JPG,"""",256,Cue,Test,null,16,"""","""","""","""","""","""","""","""",1,4/25/2021 1:32,104.190.173.154,Mozilla/5.0 (Windows NT 10.0; Win64; x64; rv:88.0) Gecko/20100101 Firefox/88.0,,Firefox,88,Windows,10
125,1,null,"""",image-keyboard-response,179,380281,0.0-179.0,"""",jspsych/neutralFaces/BM02NES.JPG,"""",256,backwardMask,Test,null,100,"""","""","""","""","""","""","""","""",1,4/25/2021 1:32,104.190.173.154,Mozilla/5.0 (Windows NT 10.0; Win64; x64; rv:88.0) Gecko/20100101 Firefox/88.0,,Firefox,88,Windows,10
125,1,null,"""",html-keyboard-response,180,381294,0.0-180.0,"""","<div style=""font-size:60px;"">+</div>","""",256,fixationBtwnNeutralMaskAndPrompt,Test,null,1000,"""","""","""","""","""","""","""","""",1,4/25/2021 1:32,104.190.173.154,Mozilla/5.0 (Windows NT 10.0; Win64; x64; rv:88.0) Gecko/20100101 Firefox/88.0,,Firefox,88,Windows,10
125,1,2036,"""",html-button-response,181,383333,0.0-181.0,"""","<img src='jspsych/CFDfaces/CFD-BF-019-001-N.jpg' height=""250px"">,</br><b>Michelle</b>",0,256,IntactOrRearranged,Test,"""","""","""","""",CFD-BM-002-013-N.jpg,Mark,0,"""","""",0,1,4/25/2021 1:32,104.190.173.154,Mozilla/5.0 (Windows NT 10.0; Win64; x64; rv:88.0) Gecko/20100101 Firefox/88.0,,Firefox,88,Windows,10
125,1,1331,"""",html-slider-response,182,384677,0.0-182.0,"""","<img src='jspsych/CFDfaces/CFD-BF-019-001-N.jpg' height=""250px"">,</br><b>Michelle</b>","""",256,ConfidenceQuery,Test,"""","""","""","""",CFD-BM-002-013-N.jpg,Mark,0,0,100,"""",1,4/25/2021 1:32,104.190.173.154,Mozilla/5.0 (Windows NT 10.0; Win64; x64; rv:88.0) Gecko/20100101 Firefox/88.0,,Firefox,88,Windows,10
125,1,null,"""",html-keyboard-response,183,385693,0.0-183.0,"""","<div style=""font-size:60px;"">+</div>","""",256,ITI,Test,null,1000,"""","""","""","""","""","""","""","""",1,4/25/2021 1:32,104.190.173.154,Mozilla/5.0 (Windows NT 10.0; Win64; x64; rv:88.0) Gecko/20100101 Firefox/88.0,,Firefox,88,Windows,10
125,1,null,"""",image-keyboard-response,184,385953,0.0-184.0,"""",jspsych/scrambledNeutralFaces/scrambledAF05NES.JPG,"""",256,forwardMask,Test,null,250,"""",n,"""","""","""","""","""","""",1,4/25/2021 1:32,104.190.173.154,Mozilla/5.0 (Windows NT 10.0; Win64; x64; rv:88.0) Gecko/20100101 Firefox/88.0,,Firefox,88,Windows,10
125,1,null,"""",image-keyboard-response,185,385982,0.0-185.0,"""",jspsych/neutralFaces/AF05NES.JPG,"""",256,Cue,Test,null,16,"""","""","""","""","""","""","""","""",1,4/25/2021 1:32,104.190.173.154,Mozilla/5.0 (Windows NT 10.0; Win64; x64; rv:88.0) Gecko/20100101 Firefox/88.0,,Firefox,88,Windows,10
125,1,null,"""",image-keyboard-response,186,386101,0.0-186.0,"""",jspsych/neutralFaces/AF29NES.JPG,"""",256,backwardMask,Test,null,100,"""","""","""","""","""","""","""","""",1,4/25/2021 1:32,104.190.173.154,Mozilla/5.0 (Windows NT 10.0; Win64; x64; rv:88.0) Gecko/20100101 Firefox/88.0,,Firefox,88,Windows,10
125,1,null,"""",html-keyboard-response,187,387102,0.0-187.0,"""","<div style=""font-size:60px;"">+</div>","""",256,fixationBtwnNeutralMaskAndPrompt,Test,null,1000,"""","""","""","""","""","""","""","""",1,4/25/2021 1:32,104.190.173.154,Mozilla/5.0 (Windows NT 10.0; Win64; x64; rv:88.0) Gecko/20100101 Firefox/88.0,,Firefox,88,Windows,10
125,1,3044,"""",html-button-response,188,390149,0.0-188.0,"""","<img src='jspsych/CFDfaces/CFD-WM-009-002-N.jpg' height=""250px"">,</br><b>Ian</b>",0,256,IntactOrRearranged,Test,"""","""","""","""",CFD-WM-032-001-N.jpg,Sean,0,"""","""",0,1,4/25/2021 1:32,104.190.173.154,Mozilla/5.0 (Windows NT 10.0; Win64; x64; rv:88.0) Gecko/20100101 Firefox/88.0,,Firefox,88,Windows,10
125,1,2372,"""",html-slider-response,189,392533,0.0-189.0,"""","<img src='jspsych/CFDfaces/CFD-WM-009-002-N.jpg' height=""250px"">,</br><b>Ian</b>","""",256,ConfidenceQuery,Test,"""","""","""","""",CFD-WM-032-001-N.jpg,Sean,0,0,61,"""",1,4/25/2021 1:32,104.190.173.154,Mozilla/5.0 (Windows NT 10.0; Win64; x64; rv:88.0) Gecko/20100101 Firefox/88.0,,Firefox,88,Windows,10
125,1,null,"""",html-keyboard-response,190,393538,0.0-190.0,"""","<div style=""font-size:60px;"">+</div>","""",256,ITI,Test,null,1000,"""","""","""","""","""","""","""","""",1,4/25/2021 1:32,104.190.173.154,Mozilla/5.0 (Windows NT 10.0; Win64; x64; rv:88.0) Gecko/20100101 Firefox/88.0,,Firefox,88,Windows,10
125,1,null,"""",image-keyboard-response,191,393794,0.0-191.0,"""",jspsych/scrambledDisgustFaces/scrambledAM33DIS.JPG,"""",256,forwardMask,Test,null,250,"""",d,"""","""","""","""","""","""",1,4/25/2021 1:32,104.190.173.154,Mozilla/5.0 (Windows NT 10.0; Win64; x64; rv:88.0) Gecko/20100101 Firefox/88.0,,Firefox,88,Windows,10
125,1,null,"""",image-keyboard-response,192,393819,0.0-192.0,"""",jspsych/disgustFaces/AM33DIS.JPG,"""",256,Cue,Test,null,16,"""","""","""","""","""","""","""","""",1,4/25/2021 1:32,104.190.173.154,Mozilla/5.0 (Windows NT 10.0; Win64; x64; rv:88.0) Gecko/20100101 Firefox/88.0,,Firefox,88,Windows,10
125,1,null,"""",image-keyboard-response,193,393938,0.0-193.0,"""",jspsych/neutralFaces/BM21NES.JPG,"""",256,backwardMask,Test,null,100,"""","""","""","""","""","""","""","""",1,4/25/2021 1:32,104.190.173.154,Mozilla/5.0 (Windows NT 10.0; Win64; x64; rv:88.0) Gecko/20100101 Firefox/88.0,,Firefox,88,Windows,10
125,1,null,"""",html-keyboard-response,194,394944,0.0-194.0,"""","<div style=""font-size:60px;"">+</div>","""",256,fixationBtwnNeutralMaskAndPrompt,Test,null,1000,"""","""","""","""","""","""","""","""",1,4/25/2021 1:32,104.190.173.154,Mozilla/5.0 (Windows NT 10.0; Win64; x64; rv:88.0) Gecko/20100101 Firefox/88.0,,Firefox,88,Windows,10
125,1,null,"""",html-button-response,195,399948,0.0-195.0,"""","<img src='jspsych/CFDfaces/CFD-LM-213-061-N.jpg' height=""250px"">,</br><b>Brian</b>",null,256,IntactOrRearranged,Test,"""","""","""","""",CFD-BM-041-035-N.jpg,Justin,0,"""","""","""",1,4/25/2021 1:32,104.190.173.154,Mozilla/5.0 (Windows NT 10.0; Win64; x64; rv:88.0) Gecko/20100101 Firefox/88.0,,Firefox,88,Windows,10
125,1,2565,"""",html-slider-response,196,402524,0.0-196.0,"""","<img src='jspsych/CFDfaces/CFD-LM-213-061-N.jpg' height=""250px"">,</br><b>Brian</b>","""",256,ConfidenceQuery,Test,"""","""","""","""",CFD-BM-041-035-N.jpg,Justin,0,0,0,"""",1,4/25/2021 1:32,104.190.173.154,Mozilla/5.0 (Windows NT 10.0; Win64; x64; rv:88.0) Gecko/20100101 Firefox/88.0,,Firefox,88,Windows,10
125,1,null,"""",html-keyboard-response,197,403537,0.0-197.0,"""","<div style=""font-size:60px;"">+</div>","""",256,ITI,Test,null,1000,"""","""","""","""","""","""","""","""",1,4/25/2021 1:32,104.190.173.154,Mozilla/5.0 (Windows NT 10.0; Win64; x64; rv:88.0) Gecko/20100101 Firefox/88.0,,Firefox,88,Windows,10
125,1,null,"""",image-keyboard-response,198,403802,0.0-198.0,"""",jspsych/scrambledNeutralFaces/scrambledAF14NES.JPG,"""",256,forwardMask,Test,null,250,"""",n,"""","""","""","""","""","""",1,4/25/2021 1:32,104.190.173.154,Mozilla/5.0 (Windows NT 10.0; Win64; x64; rv:88.0) Gecko/20100101 Firefox/88.0,,Firefox,88,Windows,10
125,1,null,"""",image-keyboard-response,199,403832,0.0-199.0,"""",jspsych/neutralFaces/AF14NES.JPG,"""",256,Cue,Test,null,16,"""","""","""","""","""","""","""","""",1,4/25/2021 1:32,104.190.173.154,Mozilla/5.0 (Windows NT 10.0; Win64; x64; rv:88.0) Gecko/20100101 Firefox/88.0,,Firefox,88,Windows,10
125,1,null,"""",image-keyboard-response,200,403947,0.0-200.0,"""",jspsych/neutralFaces/AF24NES.JPG,"""",256,backwardMask,Test,null,100,"""","""","""","""","""","""","""","""",1,4/25/2021 1:32,104.190.173.154,Mozilla/5.0 (Windows NT 10.0; Win64; x64; rv:88.0) Gecko/20100101 Firefox/88.0,,Firefox,88,Windows,10
125,1,null,"""",html-keyboard-response,201,404948,0.0-201.0,"""","<div style=""font-size:60px;"">+</div>","""",256,fixationBtwnNeutralMaskAndPrompt,Test,null,1000,"""","""","""","""","""","""","""","""",1,4/25/2021 1:32,104.190.173.154,Mozilla/5.0 (Windows NT 10.0; Win64; x64; rv:88.0) Gecko/20100101 Firefox/88.0,,Firefox,88,Windows,10
125,1,2038,"""",html-button-response,202,406989,0.0-202.0,"""","<img src='jspsych/CFDfaces/CFD-WF-217-085-N.jpg' height=""250px"">,</br><b>Vanessa</b>",0,256,IntactOrRearranged,Test,"""","""","""","""",CFD-LF-208-127-N.jpg,Whitney,0,"""","""",0,1,4/25/2021 1:32,104.190.173.154,Mozilla/5.0 (Windows NT 10.0; Win64; x64; rv:88.0) Gecko/20100101 Firefox/88.0,,Firefox,88,Windows,10
125,1,2419,"""",html-slider-response,203,409421,0.0-203.0,"""","<img src='jspsych/CFDfaces/CFD-WF-217-085-N.jpg' height=""250px"">,</br><b>Vanessa</b>","""",256,ConfidenceQuery,Test,"""","""","""","""",CFD-LF-208-127-N.jpg,Whitney,0,0,78,"""",1,4/25/2021 1:32,104.190.173.154,Mozilla/5.0 (Windows NT 10.0; Win64; x64; rv:88.0) Gecko/20100101 Firefox/88.0,,Firefox,88,Windows,10
125,1,null,"""",html-keyboard-response,204,410430,0.0-204.0,"""","<div style=""font-size:60px;"">+</div>","""",256,ITI,Test,null,1000,"""","""","""","""","""","""","""","""",1,4/25/2021 1:32,104.190.173.154,Mozilla/5.0 (Windows NT 10.0; Win64; x64; rv:88.0) Gecko/20100101 Firefox/88.0,,Firefox,88,Windows,10
125,1,null,"""",image-keyboard-response,205,410698,0.0-205.0,"""",jspsych/scrambledDisgustFaces/scrambledAM11DIS.JPG,"""",256,forwardMask,Test,null,250,"""",d,"""","""","""","""","""","""",1,4/25/2021 1:32,104.190.173.154,Mozilla/5.0 (Windows NT 10.0; Win64; x64; rv:88.0) Gecko/20100101 Firefox/88.0,,Firefox,88,Windows,10
125,1,null,"""",image-keyboard-response,206,410728,0.0-206.0,"""",jspsych/disgustFaces/AM11DIS.JPG,"""",256,Cue,Test,null,16,"""","""","""","""","""","""","""","""",1,4/25/2021 1:32,104.190.173.154,Mozilla/5.0 (Windows NT 10.0; Win64; x64; rv:88.0) Gecko/20100101 Firefox/88.0,,Firefox,88,Windows,10
125,1,null,"""",image-keyboard-response,207,410839,0.0-207.0,"""",jspsych/neutralFaces/AM27NES.JPG,"""",256,backwardMask,Test,null,100,"""","""","""","""","""","""","""","""",1,4/25/2021 1:32,104.190.173.154,Mozilla/5.0 (Windows NT 10.0; Win64; x64; rv:88.0) Gecko/20100101 Firefox/88.0,,Firefox,88,Windows,10
125,1,null,"""",html-keyboard-response,208,411853,0.0-208.0,"""","<div style=""font-size:60px;"">+</div>","""",256,fixationBtwnNeutralMaskAndPrompt,Test,null,1000,"""","""","""","""","""","""","""","""",1,4/25/2021 1:32,104.190.173.154,Mozilla/5.0 (Windows NT 10.0; Win64; x64; rv:88.0) Gecko/20100101 Firefox/88.0,,Firefox,88,Windows,10
125,1,2477,"""",html-button-response,209,414333,0.0-209.0,"""","<img src='jspsych/CFDfaces/CFD-AM-230-150-N.jpg' height=""250px"">,</br><b>Joshua</b>",1,256,IntactOrRearranged,Test,"""","""","""","""",CFD-LM-209-111-N.jpg,Steven,1,"""","""",1,1,4/25/2021 1:32,104.190.173.154,Mozilla/5.0 (Windows NT 10.0; Win64; x64; rv:88.0) Gecko/20100101 Firefox/88.0,,Firefox,88,Windows,10
125,1,1498,"""",html-slider-response,210,415846,0.0-210.0,"""","<img src='jspsych/CFDfaces/CFD-AM-230-150-N.jpg' height=""250px"">,</br><b>Joshua</b>","""",256,ConfidenceQuery,Test,"""","""","""","""",CFD-LM-209-111-N.jpg,Steven,1,0,100,"""",1,4/25/2021 1:32,104.190.173.154,Mozilla/5.0 (Windows NT 10.0; Win64; x64; rv:88.0) Gecko/20100101 Firefox/88.0,,Firefox,88,Windows,10
125,1,null,"""",html-keyboard-response,211,416857,0.0-211.0,"""","<div style=""font-size:60px;"">+</div>","""",256,ITI,Test,null,1000,"""","""","""","""","""","""","""","""",1,4/25/2021 1:32,104.190.173.154,Mozilla/5.0 (Windows NT 10.0; Win64; x64; rv:88.0) Gecko/20100101 Firefox/88.0,,Firefox,88,Windows,10
125,1,null,"""",image-keyboard-response,212,417119,0.0-212.0,"""",jspsych/scrambledDisgustFaces/scrambledAM19DIS.JPG,"""",256,forwardMask,Test,null,250,"""",d,"""","""","""","""","""","""",1,4/25/2021 1:32,104.190.173.154,Mozilla/5.0 (Windows NT 10.0; Win64; x64; rv:88.0) Gecko/20100101 Firefox/88.0,,Firefox,88,Windows,10
125,1,null,"""",image-keyboard-response,213,417149,0.0-213.0,"""",jspsych/disgustFaces/AM19DIS.JPG,"""",256,Cue,Test,null,16,"""","""","""","""","""","""","""","""",1,4/25/2021 1:32,104.190.173.154,Mozilla/5.0 (Windows NT 10.0; Win64; x64; rv:88.0) Gecko/20100101 Firefox/88.0,,Firefox,88,Windows,10
125,1,null,"""",image-keyboard-response,214,417260,0.0-214.0,"""",jspsych/neutralFaces/BM27NES.JPG,"""",256,backwardMask,Test,null,100,"""","""","""","""","""","""","""","""",1,4/25/2021 1:32,104.190.173.154,Mozilla/5.0 (Windows NT 10.0; Win64; x64; rv:88.0) Gecko/20100101 Firefox/88.0,,Firefox,88,Windows,10
125,1,null,"""",html-keyboard-response,215,418263,0.0-215.0,"""","<div style=""font-size:60px;"">+</div>","""",256,fixationBtwnNeutralMaskAndPrompt,Test,null,1000,"""","""","""","""","""","""","""","""",1,4/25/2021 1:32,104.190.173.154,Mozilla/5.0 (Windows NT 10.0; Win64; x64; rv:88.0) Gecko/20100101 Firefox/88.0,,Firefox,88,Windows,10
125,1,3420,"""",html-button-response,216,421685,0.0-216.0,"""","<img src='jspsych/CFDfaces/CFD-BM-011-016-N.jpg' height=""250px"">,</br><b>Gregory</b>",1,256,IntactOrRearranged,Test,"""","""","""","""",CFD-BF-222-240-N.jpg,Lindsey,1,"""","""",1,1,4/25/2021 1:32,104.190.173.154,Mozilla/5.0 (Windows NT 10.0; Win64; x64; rv:88.0) Gecko/20100101 Firefox/88.0,,Firefox,88,Windows,10
125,1,2089,"""",html-slider-response,217,423790,0.0-217.0,"""","<img src='jspsych/CFDfaces/CFD-BM-011-016-N.jpg' height=""250px"">,</br><b>Gregory</b>","""",256,ConfidenceQuery,Test,"""","""","""","""",CFD-BF-222-240-N.jpg,Lindsey,1,0,100,"""",1,4/25/2021 1:32,104.190.173.154,Mozilla/5.0 (Windows NT 10.0; Win64; x64; rv:88.0) Gecko/20100101 Firefox/88.0,,Firefox,88,Windows,10
125,1,null,"""",html-keyboard-response,218,424807,0.0-218.0,"""","<div style=""font-size:60px;"">+</div>","""",256,ITI,Test,null,1000,"""","""","""","""","""","""","""","""",1,4/25/2021 1:32,104.190.173.154,Mozilla/5.0 (Windows NT 10.0; Win64; x64; rv:88.0) Gecko/20100101 Firefox/88.0,,Firefox,88,Windows,10
125,1,null,"""",image-keyboard-response,219,425066,0.0-219.0,"""",jspsych/scrambledNeutralFaces/scrambledAM31NES.JPG,"""",256,forwardMask,Test,null,250,"""",n,"""","""","""","""","""","""",1,4/25/2021 1:32,104.190.173.154,Mozilla/5.0 (Windows NT 10.0; Win64; x64; rv:88.0) Gecko/20100101 Firefox/88.0,,Firefox,88,Windows,10
125,1,null,"""",image-keyboard-response,220,425093,0.0-220.0,"""",jspsych/neutralFaces/AM31NES.JPG,"""",256,Cue,Test,null,16,"""","""","""","""","""","""","""","""",1,4/25/2021 1:32,104.190.173.154,Mozilla/5.0 (Windows NT 10.0; Win64; x64; rv:88.0) Gecko/20100101 Firefox/88.0,,Firefox,88,Windows,10
125,1,null,"""",image-keyboard-response,221,425208,0.0-221.0,"""",jspsych/neutralFaces/AM14NES.JPG,"""",256,backwardMask,Test,null,100,"""","""","""","""","""","""","""","""",1,4/25/2021 1:32,104.190.173.154,Mozilla/5.0 (Windows NT 10.0; Win64; x64; rv:88.0) Gecko/20100101 Firefox/88.0,,Firefox,88,Windows,10
125,1,null,"""",html-keyboard-response,222,426224,0.0-222.0,"""","<div style=""font-size:60px;"">+</div>","""",256,fixationBtwnNeutralMaskAndPrompt,Test,null,1000,"""","""","""","""","""","""","""","""",1,4/25/2021 1:32,104.190.173.154,Mozilla/5.0 (Windows NT 10.0; Win64; x64; rv:88.0) Gecko/20100101 Firefox/88.0,,Firefox,88,Windows,10
125,1,2067,"""",html-button-response,223,428293,0.0-223.0,"""","<img src='jspsych/CFDfaces/CFD-AF-200-228-N.jpg' height=""250px"">,</br><b>Emily</b>",1,256,IntactOrRearranged,Test,"""","""","""","""",CFD-BM-210-148-N.jpg,Cameron,1,"""","""",1,1,4/25/2021 1:32,104.190.173.154,Mozilla/5.0 (Windows NT 10.0; Win64; x64; rv:88.0) Gecko/20100101 Firefox/88.0,,Firefox,88,Windows,10
125,1,3084,"""",html-slider-response,224,431389,0.0-224.0,"""","<img src='jspsych/CFDfaces/CFD-AF-200-228-N.jpg' height=""250px"">,</br><b>Emily</b>","""",256,ConfidenceQuery,Test,"""","""","""","""",CFD-BM-210-148-N.jpg,Cameron,1,0,81,"""",1,4/25/2021 1:32,104.190.173.154,Mozilla/5.0 (Windows NT 10.0; Win64; x64; rv:88.0) Gecko/20100101 Firefox/88.0,,Firefox,88,Windows,10
125,1,null,"""",html-keyboard-response,225,432393,0.0-225.0,"""","<div style=""font-size:60px;"">+</div>","""",256,ITI,Test,null,1000,"""","""","""","""","""","""","""","""",1,4/25/2021 1:32,104.190.173.154,Mozilla/5.0 (Windows NT 10.0; Win64; x64; rv:88.0) Gecko/20100101 Firefox/88.0,,Firefox,88,Windows,10
125,1,null,"""",image-keyboard-response,226,432646,0.0-226.0,"""",jspsych/scrambledNeutralFaces/scrambledAF14NES.JPG,"""",256,forwardMask,Test,null,250,"""",n,"""","""","""","""","""","""",1,4/25/2021 1:32,104.190.173.154,Mozilla/5.0 (Windows NT 10.0; Win64; x64; rv:88.0) Gecko/20100101 Firefox/88.0,,Firefox,88,Windows,10
125,1,null,"""",image-keyboard-response,227,432679,0.0-227.0,"""",jspsych/neutralFaces/AF14NES.JPG,"""",256,Cue,Test,null,16,"""","""","""","""","""","""","""","""",1,4/25/2021 1:32,104.190.173.154,Mozilla/5.0 (Windows NT 10.0; Win64; x64; rv:88.0) Gecko/20100101 Firefox/88.0,,Firefox,88,Windows,10
125,1,null,"""",image-keyboard-response,228,432787,0.0-228.0,"""",jspsych/neutralFaces/AF25NES.JPG,"""",256,backwardMask,Test,null,100,"""","""","""","""","""","""","""","""",1,4/25/2021 1:32,104.190.173.154,Mozilla/5.0 (Windows NT 10.0; Win64; x64; rv:88.0) Gecko/20100101 Firefox/88.0,,Firefox,88,Windows,10
125,1,null,"""",html-keyboard-response,229,433790,0.0-229.0,"""","<div style=""font-size:60px;"">+</div>","""",256,fixationBtwnNeutralMaskAndPrompt,Test,null,1000,"""","""","""","""","""","""","""","""",1,4/25/2021 1:32,104.190.173.154,Mozilla/5.0 (Windows NT 10.0; Win64; x64; rv:88.0) Gecko/20100101 Firefox/88.0,,Firefox,88,Windows,10
125,1,4718,"""",html-button-response,230,438519,0.0-230.0,"""","<img src='jspsych/CFDfaces/CFD-BF-001-025-N.jpg' height=""250px"">,</br><b>Victoria</b>",1,256,IntactOrRearranged,Test,"""","""","""","""",CFD-LM-224-162-N.jpg,Dustin,1,"""","""",1,1,4/25/2021 1:32,104.190.173.154,Mozilla/5.0 (Windows NT 10.0; Win64; x64; rv:88.0) Gecko/20100101 Firefox/88.0,,Firefox,88,Windows,10
125,1,2376,"""",html-slider-response,231,440902,0.0-231.0,"""","<img src='jspsych/CFDfaces/CFD-BF-001-025-N.jpg' height=""250px"">,</br><b>Victoria</b>","""",256,ConfidenceQuery,Test,"""","""","""","""",CFD-LM-224-162-N.jpg,Dustin,1,0,58,"""",1,4/25/2021 1:32,104.190.173.154,Mozilla/5.0 (Windows NT 10.0; Win64; x64; rv:88.0) Gecko/20100101 Firefox/88.0,,Firefox,88,Windows,10
125,1,null,"""",html-keyboard-response,232,441923,0.0-232.0,"""","<div style=""font-size:60px;"">+</div>","""",256,ITI,Test,null,1000,"""","""","""","""","""","""","""","""",1,4/25/2021 1:32,104.190.173.154,Mozilla/5.0 (Windows NT 10.0; Win64; x64; rv:88.0) Gecko/20100101 Firefox/88.0,,Firefox,88,Windows,10
125,1,null,"""",image-keyboard-response,233,442177,0.0-233.0,"""",jspsych/scrambledNeutralFaces/scrambledAF08NES.JPG,"""",256,forwardMask,Test,null,250,"""",n,"""","""","""","""","""","""",1,4/25/2021 1:32,104.190.173.154,Mozilla/5.0 (Windows NT 10.0; Win64; x64; rv:88.0) Gecko/20100101 Firefox/88.0,,Firefox,88,Windows,10
125,1,null,"""",image-keyboard-response,234,442204,0.0-234.0,"""",jspsych/neutralFaces/AF08NES.JPG,"""",256,Cue,Test,null,16,"""","""","""","""","""","""","""","""",1,4/25/2021 1:32,104.190.173.154,Mozilla/5.0 (Windows NT 10.0; Win64; x64; rv:88.0) Gecko/20100101 Firefox/88.0,,Firefox,88,Windows,10
125,1,null,"""",image-keyboard-response,235,442315,0.0-235.0,"""",jspsych/neutralFaces/BF21NES.JPG,"""",256,backwardMask,Test,null,100,"""","""","""","""","""","""","""","""",1,4/25/2021 1:32,104.190.173.154,Mozilla/5.0 (Windows NT 10.0; Win64; x64; rv:88.0) Gecko/20100101 Firefox/88.0,,Firefox,88,Windows,10
125,1,null,"""",html-keyboard-response,236,443323,0.0-236.0,"""","<div style=""font-size:60px;"">+</div>","""",256,fixationBtwnNeutralMaskAndPrompt,Test,null,1000,"""","""","""","""","""","""","""","""",1,4/25/2021 1:32,104.190.173.154,Mozilla/5.0 (Windows NT 10.0; Win64; x64; rv:88.0) Gecko/20100101 Firefox/88.0,,Firefox,88,Windows,10
125,1,3392,"""",html-button-response,237,446717,0.0-237.0,"""","<img src='jspsych/CFDfaces/CFD-AF-235-170-N.jpg' height=""250px"">,</br><b>Kayla</b>",0,256,IntactOrRearranged,Test,"""","""","""","""",CFD-AM-228-214-N.jpg,Jesse,0,"""","""",0,1,4/25/2021 1:32,104.190.173.154,Mozilla/5.0 (Windows NT 10.0; Win64; x64; rv:88.0) Gecko/20100101 Firefox/88.0,,Firefox,88,Windows,10
125,1,1957,"""",html-slider-response,238,448687,0.0-238.0,"""","<img src='jspsych/CFDfaces/CFD-AF-235-170-N.jpg' height=""250px"">,</br><b>Kayla</b>","""",256,ConfidenceQuery,Test,"""","""","""","""",CFD-AM-228-214-N.jpg,Jesse,0,0,80,"""",1,4/25/2021 1:32,104.190.173.154,Mozilla/5.0 (Windows NT 10.0; Win64; x64; rv:88.0) Gecko/20100101 Firefox/88.0,,Firefox,88,Windows,10
125,1,null,"""",html-keyboard-response,239,449702,0.0-239.0,"""","<div style=""font-size:60px;"">+</div>","""",256,ITI,Test,null,1000,"""","""","""","""","""","""","""","""",1,4/25/2021 1:32,104.190.173.154,Mozilla/5.0 (Windows NT 10.0; Win64; x64; rv:88.0) Gecko/20100101 Firefox/88.0,,Firefox,88,Windows,10
125,1,null,"""",image-keyboard-response,240,449954,0.0-240.0,"""",jspsych/scrambledNeutralFaces/scrambledAF08NES.JPG,"""",256,forwardMask,Test,null,250,"""",n,"""","""","""","""","""","""",1,4/25/2021 1:32,104.190.173.154,Mozilla/5.0 (Windows NT 10.0; Win64; x64; rv:88.0) Gecko/20100101 Firefox/88.0,,Firefox,88,Windows,10
125,1,null,"""",image-keyboard-response,241,449979,0.0-241.0,"""",jspsych/neutralFaces/AF08NES.JPG,"""",256,Cue,Test,null,16,"""","""","""","""","""","""","""","""",1,4/25/2021 1:32,104.190.173.154,Mozilla/5.0 (Windows NT 10.0; Win64; x64; rv:88.0) Gecko/20100101 Firefox/88.0,,Firefox,88,Windows,10
125,1,null,"""",image-keyboard-response,242,450087,0.0-242.0,"""",jspsych/neutralFaces/AF17NES.JPG,"""",256,backwardMask,Test,null,100,"""","""","""","""","""","""","""","""",1,4/25/2021 1:32,104.190.173.154,Mozilla/5.0 (Windows NT 10.0; Win64; x64; rv:88.0) Gecko/20100101 Firefox/88.0,,Firefox,88,Windows,10
125,1,null,"""",html-keyboard-response,243,451099,0.0-243.0,"""","<div style=""font-size:60px;"">+</div>","""",256,fixationBtwnNeutralMaskAndPrompt,Test,null,1000,"""","""","""","""","""","""","""","""",1,4/25/2021 1:32,104.190.173.154,Mozilla/5.0 (Windows NT 10.0; Win64; x64; rv:88.0) Gecko/20100101 Firefox/88.0,,Firefox,88,Windows,10
125,1,1222,"""",html-button-response,244,452325,0.0-244.0,"""","<img src='jspsych/CFDfaces/CFD-BM-018-001-N.jpg' height=""250px"">,</br><b>James</b>",0,256,IntactOrRearranged,Test,"""","""","""","""",CFD-BM-208-065-N.jpg,Timothy,1,"""","""",0,1,4/25/2021 1:32,104.190.173.154,Mozilla/5.0 (Windows NT 10.0; Win64; x64; rv:88.0) Gecko/20100101 Firefox/88.0,,Firefox,88,Windows,10
125,1,2043,"""",html-slider-response,245,454381,0.0-245.0,"""","<img src='jspsych/CFDfaces/CFD-BM-018-001-N.jpg' height=""250px"">,</br><b>James</b>","""",256,ConfidenceQuery,Test,"""","""","""","""",CFD-BM-208-065-N.jpg,Timothy,1,0,100,"""",1,4/25/2021 1:32,104.190.173.154,Mozilla/5.0 (Windows NT 10.0; Win64; x64; rv:88.0) Gecko/20100101 Firefox/88.0,,Firefox,88,Windows,10
125,1,null,"""",html-keyboard-response,246,455386,0.0-246.0,"""","<div style=""font-size:60px;"">+</div>","""",256,ITI,Test,null,1000,"""","""","""","""","""","""","""","""",1,4/25/2021 1:32,104.190.173.154,Mozilla/5.0 (Windows NT 10.0; Win64; x64; rv:88.0) Gecko/20100101 Firefox/88.0,,Firefox,88,Windows,10
125,1,null,"""",image-keyboard-response,247,455639,0.0-247.0,"""",jspsych/scrambledNeutralFaces/scrambledAF27NES.JPG,"""",256,forwardMask,Test,null,250,"""",n,"""","""","""","""","""","""",1,4/25/2021 1:32,104.190.173.154,Mozilla/5.0 (Windows NT 10.0; Win64; x64; rv:88.0) Gecko/20100101 Firefox/88.0,,Firefox,88,Windows,10
125,1,null,"""",image-keyboard-response,248,455668,0.0-248.0,"""",jspsych/neutralFaces/AF27NES.JPG,"""",256,Cue,Test,null,16,"""","""","""","""","""","""","""","""",1,4/25/2021 1:32,104.190.173.154,Mozilla/5.0 (Windows NT 10.0; Win64; x64; rv:88.0) Gecko/20100101 Firefox/88.0,,Firefox,88,Windows,10
125,1,null,"""",image-keyboard-response,249,455786,0.0-249.0,"""",jspsych/neutralFaces/AF10NES.JPG,"""",256,backwardMask,Test,null,100,"""","""","""","""","""","""","""","""",1,4/25/2021 1:32,104.190.173.154,Mozilla/5.0 (Windows NT 10.0; Win64; x64; rv:88.0) Gecko/20100101 Firefox/88.0,,Firefox,88,Windows,10
125,1,null,"""",html-keyboard-response,250,456788,0.0-250.0,"""","<div style=""font-size:60px;"">+</div>","""",256,fixationBtwnNeutralMaskAndPrompt,Test,null,1000,"""","""","""","""","""","""","""","""",1,4/25/2021 1:32,104.190.173.154,Mozilla/5.0 (Windows NT 10.0; Win64; x64; rv:88.0) Gecko/20100101 Firefox/88.0,,Firefox,88,Windows,10
125,1,1535,"""",html-button-response,251,458324,0.0-251.0,"""","<img src='jspsych/CFDfaces/CFD-AF-201-060-N.jpg' height=""250px"">,</br><b>Meghan</b>",0,256,IntactOrRearranged,Test,"""","""","""","""",CFD-BF-021-013-N.jpg,Angela,0,"""","""",0,1,4/25/2021 1:32,104.190.173.154,Mozilla/5.0 (Windows NT 10.0; Win64; x64; rv:88.0) Gecko/20100101 Firefox/88.0,,Firefox,88,Windows,10
125,1,2425,"""",html-slider-response,252,460765,0.0-252.0,"""","<img src='jspsych/CFDfaces/CFD-AF-201-060-N.jpg' height=""250px"">,</br><b>Meghan</b>","""",256,ConfidenceQuery,Test,"""","""","""","""",CFD-BF-021-013-N.jpg,Angela,0,0,50,"""",1,4/25/2021 1:32,104.190.173.154,Mozilla/5.0 (Windows NT 10.0; Win64; x64; rv:88.0) Gecko/20100101 Firefox/88.0,,Firefox,88,Windows,10
125,1,null,"""",html-keyboard-response,253,461768,0.0-253.0,"""","<div style=""font-size:60px;"">+</div>","""",256,ITI,Test,null,1000,"""","""","""","""","""","""","""","""",1,4/25/2021 1:32,104.190.173.154,Mozilla/5.0 (Windows NT 10.0; Win64; x64; rv:88.0) Gecko/20100101 Firefox/88.0,,Firefox,88,Windows,10
125,1,null,"""",image-keyboard-response,254,462024,0.0-254.0,"""",jspsych/scrambledNeutralFaces/scrambledAF27NES.JPG,"""",256,forwardMask,Test,null,250,"""",n,"""","""","""","""","""","""",1,4/25/2021 1:32,104.190.173.154,Mozilla/5.0 (Windows NT 10.0; Win64; x64; rv:88.0) Gecko/20100101 Firefox/88.0,,Firefox,88,Windows,10
125,1,null,"""",image-keyboard-response,255,462054,0.0-255.0,"""",jspsych/neutralFaces/AF27NES.JPG,"""",256,Cue,Test,null,16,"""","""","""","""","""","""","""","""",1,4/25/2021 1:32,104.190.173.154,Mozilla/5.0 (Windows NT 10.0; Win64; x64; rv:88.0) Gecko/20100101 Firefox/88.0,,Firefox,88,Windows,10
125,1,null,"""",image-keyboard-response,256,462163,0.0-256.0,"""",jspsych/neutralFaces/BF18NES.JPG,"""",256,backwardMask,Test,null,100,"""","""","""","""","""","""","""","""",1,4/25/2021 1:32,104.190.173.154,Mozilla/5.0 (Windows NT 10.0; Win64; x64; rv:88.0) Gecko/20100101 Firefox/88.0,,Firefox,88,Windows,10
125,1,null,"""",html-keyboard-response,257,463176,0.0-257.0,"""","<div style=""font-size:60px;"">+</div>","""",256,fixationBtwnNeutralMaskAndPrompt,Test,null,1000,"""","""","""","""","""","""","""","""",1,4/25/2021 1:32,104.190.173.154,Mozilla/5.0 (Windows NT 10.0; Win64; x64; rv:88.0) Gecko/20100101 Firefox/88.0,,Firefox,88,Windows,10
125,1,2538,"""",html-button-response,258,465717,0.0-258.0,"""","<img src='jspsych/CFDfaces/CFD-LM-219-295-N.jpg' height=""250px"">,</br><b>Eric</b>",0,256,IntactOrRearranged,Test,"""","""","""","""",CFD-LM-252-076-N.jpg,Austin,1,"""","""",0,1,4/25/2021 1:32,104.190.173.154,Mozilla/5.0 (Windows NT 10.0; Win64; x64; rv:88.0) Gecko/20100101 Firefox/88.0,,Firefox,88,Windows,10
125,1,2385,"""",html-slider-response,259,468117,0.0-259.0,"""","<img src='jspsych/CFDfaces/CFD-LM-219-295-N.jpg' height=""250px"">,</br><b>Eric</b>","""",256,ConfidenceQuery,Test,"""","""","""","""",CFD-LM-252-076-N.jpg,Austin,1,0,49,"""",1,4/25/2021 1:32,104.190.173.154,Mozilla/5.0 (Windows NT 10.0; Win64; x64; rv:88.0) Gecko/20100101 Firefox/88.0,,Firefox,88,Windows,10
125,1,null,"""",html-keyboard-response,260,469129,0.0-260.0,"""","<div style=""font-size:60px;"">+</div>","""",256,ITI,Test,null,1000,"""","""","""","""","""","""","""","""",1,4/25/2021 1:32,104.190.173.154,Mozilla/5.0 (Windows NT 10.0; Win64; x64; rv:88.0) Gecko/20100101 Firefox/88.0,,Firefox,88,Windows,10
125,1,null,"""",image-keyboard-response,261,469387,0.0-261.0,"""",jspsych/scrambledNeutralFaces/scrambledAF03NES.JPG,"""",256,forwardMask,Test,null,250,"""",n,"""","""","""","""","""","""",1,4/25/2021 1:32,104.190.173.154,Mozilla/5.0 (Windows NT 10.0; Win64; x64; rv:88.0) Gecko/20100101 Firefox/88.0,,Firefox,88,Windows,10
125,1,null,"""",image-keyboard-response,262,469419,0.0-262.0,"""",jspsych/neutralFaces/AF03NES.JPG,"""",256,Cue,Test,null,16,"""","""","""","""","""","""","""","""",1,4/25/2021 1:32,104.190.173.154,Mozilla/5.0 (Windows NT 10.0; Win64; x64; rv:88.0) Gecko/20100101 Firefox/88.0,,Firefox,88,Windows,10
125,1,null,"""",image-keyboard-response,263,469527,0.0-263.0,"""",jspsych/neutralFaces/BF04NES.JPG,"""",256,backwardMask,Test,null,100,"""","""","""","""","""","""","""","""",1,4/25/2021 1:32,104.190.173.154,Mozilla/5.0 (Windows NT 10.0; Win64; x64; rv:88.0) Gecko/20100101 Firefox/88.0,,Firefox,88,Windows,10
125,1,null,"""",html-keyboard-response,264,470537,0.0-264.0,"""","<div style=""font-size:60px;"">+</div>","""",256,fixationBtwnNeutralMaskAndPrompt,Test,null,1000,"""","""","""","""","""","""","""","""",1,4/25/2021 1:32,104.190.173.154,Mozilla/5.0 (Windows NT 10.0; Win64; x64; rv:88.0) Gecko/20100101 Firefox/88.0,,Firefox,88,Windows,10
125,1,1664,"""",html-button-response,265,472205,0.0-265.0,"""","<img src='jspsych/CFDfaces/CFD-LF-220-120-N.jpg' height=""250px"">,</br><b>Samantha</b>",1,256,IntactOrRearranged,Test,"""","""","""","""",CFD-WF-205-006-N.jpg,Heather,0,"""","""",1,1,4/25/2021 1:32,104.190.173.154,Mozilla/5.0 (Windows NT 10.0; Win64; x64; rv:88.0) Gecko/20100101 Firefox/88.0,,Firefox,88,Windows,10
125,1,1834,"""",html-slider-response,266,474053,0.0-266.0,"""","<img src='jspsych/CFDfaces/CFD-LF-220-120-N.jpg' height=""250px"">,</br><b>Samantha</b>","""",256,ConfidenceQuery,Test,"""","""","""","""",CFD-WF-205-006-N.jpg,Heather,0,0,80,"""",1,4/25/2021 1:32,104.190.173.154,Mozilla/5.0 (Windows NT 10.0; Win64; x64; rv:88.0) Gecko/20100101 Firefox/88.0,,Firefox,88,Windows,10
125,1,null,"""",html-keyboard-response,267,475058,0.0-267.0,"""","<div style=""font-size:60px;"">+</div>","""",256,ITI,Test,null,1000,"""","""","""","""","""","""","""","""",1,4/25/2021 1:32,104.190.173.154,Mozilla/5.0 (Windows NT 10.0; Win64; x64; rv:88.0) Gecko/20100101 Firefox/88.0,,Firefox,88,Windows,10
125,1,null,"""",image-keyboard-response,268,475312,0.0-268.0,"""",jspsych/scrambledNeutralFaces/scrambledBF01NES.JPG,"""",256,forwardMask,Test,null,250,"""",n,"""","""","""","""","""","""",1,4/25/2021 1:32,104.190.173.154,Mozilla/5.0 (Windows NT 10.0; Win64; x64; rv:88.0) Gecko/20100101 Firefox/88.0,,Firefox,88,Windows,10
125,1,null,"""",image-keyboard-response,269,475344,0.0-269.0,"""",jspsych/neutralFaces/BF01NES.JPG,"""",256,Cue,Test,null,16,"""","""","""","""","""","""","""","""",1,4/25/2021 1:32,104.190.173.154,Mozilla/5.0 (Windows NT 10.0; Win64; x64; rv:88.0) Gecko/20100101 Firefox/88.0,,Firefox,88,Windows,10
125,1,null,"""",image-keyboard-response,270,475457,0.0-270.0,"""",jspsych/neutralFaces/BF17NES.JPG,"""",256,backwardMask,Test,null,100,"""","""","""","""","""","""","""","""",1,4/25/2021 1:32,104.190.173.154,Mozilla/5.0 (Windows NT 10.0; Win64; x64; rv:88.0) Gecko/20100101 Firefox/88.0,,Firefox,88,Windows,10
125,1,null,"""",html-keyboard-response,271,476463,0.0-271.0,"""","<div style=""font-size:60px;"">+</div>","""",256,fixationBtwnNeutralMaskAndPrompt,Test,null,1000,"""","""","""","""","""","""","""","""",1,4/25/2021 1:32,104.190.173.154,Mozilla/5.0 (Windows NT 10.0; Win64; x64; rv:88.0) Gecko/20100101 Firefox/88.0,,Firefox,88,Windows,10
125,1,1995,"""",html-button-response,272,478462,0.0-272.0,"""","<img src='jspsych/CFDfaces/CFD-LF-215-157-N.jpg' height=""250px"">,</br><b>Andrea</b>",0,256,IntactOrRearranged,Test,"""","""","""","""",CFD-LM-233-171-N.jpg,Travis,1,"""","""",0,1,4/25/2021 1:32,104.190.173.154,Mozilla/5.0 (Windows NT 10.0; Win64; x64; rv:88.0) Gecko/20100101 Firefox/88.0,,Firefox,88,Windows,10
125,1,1561,"""",html-slider-response,273,480038,0.0-273.0,"""","<img src='jspsych/CFDfaces/CFD-LF-215-157-N.jpg' height=""250px"">,</br><b>Andrea</b>","""",256,ConfidenceQuery,Test,"""","""","""","""",CFD-LM-233-171-N.jpg,Travis,1,0,89,"""",1,4/25/2021 1:32,104.190.173.154,Mozilla/5.0 (Windows NT 10.0; Win64; x64; rv:88.0) Gecko/20100101 Firefox/88.0,,Firefox,88,Windows,10
125,1,null,"""",html-keyboard-response,274,481046,0.0-274.0,"""","<div style=""font-size:60px;"">+</div>","""",256,ITI,Test,null,1000,"""","""","""","""","""","""","""","""",1,4/25/2021 1:32,104.190.173.154,Mozilla/5.0 (Windows NT 10.0; Win64; x64; rv:88.0) Gecko/20100101 Firefox/88.0,,Firefox,88,Windows,10
125,1,null,"""",image-keyboard-response,275,481302,0.0-275.0,"""",jspsych/scrambledDisgustFaces/scrambledBF05DIS.JPG,"""",256,forwardMask,Test,null,250,"""",d,"""","""","""","""","""","""",1,4/25/2021 1:32,104.190.173.154,Mozilla/5.0 (Windows NT 10.0; Win64; x64; rv:88.0) Gecko/20100101 Firefox/88.0,,Firefox,88,Windows,10
125,1,null,"""",image-keyboard-response,276,481332,0.0-276.0,"""",jspsych/disgustFaces/BF05DIS.JPG,"""",256,Cue,Test,null,16,"""","""","""","""","""","""","""","""",1,4/25/2021 1:32,104.190.173.154,Mozilla/5.0 (Windows NT 10.0; Win64; x64; rv:88.0) Gecko/20100101 Firefox/88.0,,Firefox,88,Windows,10
125,1,null,"""",image-keyboard-response,277,481444,0.0-277.0,"""",jspsych/neutralFaces/BF10NES.JPG,"""",256,backwardMask,Test,null,100,"""","""","""","""","""","""","""","""",1,4/25/2021 1:32,104.190.173.154,Mozilla/5.0 (Windows NT 10.0; Win64; x64; rv:88.0) Gecko/20100101 Firefox/88.0,,Firefox,88,Windows,10
125,1,null,"""",html-keyboard-response,278,482448,0.0-278.0,"""","<div style=""font-size:60px;"">+</div>","""",256,fixationBtwnNeutralMaskAndPrompt,Test,null,1000,"""","""","""","""","""","""","""","""",1,4/25/2021 1:32,104.190.173.154,Mozilla/5.0 (Windows NT 10.0; Win64; x64; rv:88.0) Gecko/20100101 Firefox/88.0,,Firefox,88,Windows,10
125,1,1538,"""",html-button-response,279,483989,0.0-279.0,"""","<img src='jspsych/CFDfaces/CFD-LM-248-089-N.jpg' height=""250px"">,</br><b>Christian</b>",1,256,IntactOrRearranged,Test,"""","""","""","""",CFD-AF-203-077-N.jpg,Tiffany,1,"""","""",1,1,4/25/2021 1:32,104.190.173.154,Mozilla/5.0 (Windows NT 10.0; Win64; x64; rv:88.0) Gecko/20100101 Firefox/88.0,,Firefox,88,Windows,10
125,1,1370,"""",html-slider-response,280,485365,0.0-280.0,"""","<img src='jspsych/CFDfaces/CFD-LM-248-089-N.jpg' height=""250px"">,</br><b>Christian</b>","""",256,ConfidenceQuery,Test,"""","""","""","""",CFD-AF-203-077-N.jpg,Tiffany,1,0,100,"""",1,4/25/2021 1:32,104.190.173.154,Mozilla/5.0 (Windows NT 10.0; Win64; x64; rv:88.0) Gecko/20100101 Firefox/88.0,,Firefox,88,Windows,10
125,1,null,"""",html-keyboard-response,281,486388,0.0-281.0,"""","<div style=""font-size:60px;"">+</div>","""",256,ITI,Test,null,1000,"""","""","""","""","""","""","""","""",1,4/25/2021 1:32,104.190.173.154,Mozilla/5.0 (Windows NT 10.0; Win64; x64; rv:88.0) Gecko/20100101 Firefox/88.0,,Firefox,88,Windows,10
125,1,null,"""",image-keyboard-response,282,486644,0.0-282.0,"""",jspsych/scrambledNeutralFaces/scrambledBM05NES.JPG,"""",256,forwardMask,Test,null,250,"""",n,"""","""","""","""","""","""",1,4/25/2021 1:32,104.190.173.154,Mozilla/5.0 (Windows NT 10.0; Win64; x64; rv:88.0) Gecko/20100101 Firefox/88.0,,Firefox,88,Windows,10
125,1,null,"""",image-keyboard-response,283,486673,0.0-283.0,"""",jspsych/neutralFaces/BM05NES.JPG,"""",256,Cue,Test,null,16,"""","""","""","""","""","""","""","""",1,4/25/2021 1:32,104.190.173.154,Mozilla/5.0 (Windows NT 10.0; Win64; x64; rv:88.0) Gecko/20100101 Firefox/88.0,,Firefox,88,Windows,10
125,1,null,"""",image-keyboard-response,284,486787,0.0-284.0,"""",jspsych/neutralFaces/AM07NES.JPG,"""",256,backwardMask,Test,null,100,"""","""","""","""","""","""","""","""",1,4/25/2021 1:32,104.190.173.154,Mozilla/5.0 (Windows NT 10.0; Win64; x64; rv:88.0) Gecko/20100101 Firefox/88.0,,Firefox,88,Windows,10
125,1,null,"""",html-keyboard-response,285,487789,0.0-285.0,"""","<div style=""font-size:60px;"">+</div>","""",256,fixationBtwnNeutralMaskAndPrompt,Test,null,1000,"""","""","""","""","""","""","""","""",1,4/25/2021 1:32,104.190.173.154,Mozilla/5.0 (Windows NT 10.0; Win64; x64; rv:88.0) Gecko/20100101 Firefox/88.0,,Firefox,88,Windows,10
125,1,4766,"""",html-button-response,286,492557,0.0-286.0,"""","<img src='jspsych/CFDfaces/CFD-AM-238-269-N.jpg' height=""250px"">,</br><b>Richard</b>",1,256,IntactOrRearranged,Test,"""","""","""","""",CFD-BM-043-071-N.jpg,Luis,1,"""","""",1,1,4/25/2021 1:32,104.190.173.154,Mozilla/5.0 (Windows NT 10.0; Win64; x64; rv:88.0) Gecko/20100101 Firefox/88.0,,Firefox,88,Windows,10
125,1,2305,"""",html-slider-response,287,494877,0.0-287.0,"""","<img src='jspsych/CFDfaces/CFD-AM-238-269-N.jpg' height=""250px"">,</br><b>Richard</b>","""",256,ConfidenceQuery,Test,"""","""","""","""",CFD-BM-043-071-N.jpg,Luis,1,0,52,"""",1,4/25/2021 1:32,104.190.173.154,Mozilla/5.0 (Windows NT 10.0; Win64; x64; rv:88.0) Gecko/20100101 Firefox/88.0,,Firefox,88,Windows,10
125,1,null,"""",html-keyboard-response,288,495883,0.0-288.0,"""","<div style=""font-size:60px;"">+</div>","""",256,ITI,Test,null,1000,"""","""","""","""","""","""","""","""",1,4/25/2021 1:32,104.190.173.154,Mozilla/5.0 (Windows NT 10.0; Win64; x64; rv:88.0) Gecko/20100101 Firefox/88.0,,Firefox,88,Windows,10
125,1,null,"""",image-keyboard-response,289,496141,0.0-289.0,"""",jspsych/scrambledNeutralFaces/scrambledBF16NES.JPG,"""",256,forwardMask,Test,null,250,"""",n,"""","""","""","""","""","""",1,4/25/2021 1:32,104.190.173.154,Mozilla/5.0 (Windows NT 10.0; Win64; x64; rv:88.0) Gecko/20100101 Firefox/88.0,,Firefox,88,Windows,10
125,1,null,"""",image-keyboard-response,290,496168,0.0-290.0,"""",jspsych/neutralFaces/BF16NES.JPG,"""",256,Cue,Test,null,16,"""","""","""","""","""","""","""","""",1,4/25/2021 1:32,104.190.173.154,Mozilla/5.0 (Windows NT 10.0; Win64; x64; rv:88.0) Gecko/20100101 Firefox/88.0,,Firefox,88,Windows,10
125,1,null,"""",image-keyboard-response,291,496270,0.0-291.0,"""",jspsych/neutralFaces/BF01NES.JPG,"""",256,backwardMask,Test,null,100,"""","""","""","""","""","""","""","""",1,4/25/2021 1:32,104.190.173.154,Mozilla/5.0 (Windows NT 10.0; Win64; x64; rv:88.0) Gecko/20100101 Firefox/88.0,,Firefox,88,Windows,10
125,1,null,"""",html-keyboard-response,292,497272,0.0-292.0,"""","<div style=""font-size:60px;"">+</div>","""",256,fixationBtwnNeutralMaskAndPrompt,Test,null,1000,"""","""","""","""","""","""","""","""",1,4/25/2021 1:32,104.190.173.154,Mozilla/5.0 (Windows NT 10.0; Win64; x64; rv:88.0) Gecko/20100101 Firefox/88.0,,Firefox,88,Windows,10
125,1,3410,"""",html-button-response,293,500685,0.0-293.0,"""","<img src='jspsych/CFDfaces/CFD-WF-038-021-N.jpg' height=""250px"">,</br><b>Christina</b>",1,256,IntactOrRearranged,Test,"""","""","""","""",CFD-BF-221-223-N.jpg,Lauren,1,"""","""",1,1,4/25/2021 1:32,104.190.173.154,Mozilla/5.0 (Windows NT 10.0; Win64; x64; rv:88.0) Gecko/20100101 Firefox/88.0,,Firefox,88,Windows,10
125,1,1584,"""",html-slider-response,294,502286,0.0-294.0,"""","<img src='jspsych/CFDfaces/CFD-WF-038-021-N.jpg' height=""250px"">,</br><b>Christina</b>","""",256,ConfidenceQuery,Test,"""","""","""","""",CFD-BF-221-223-N.jpg,Lauren,1,0,70,"""",1,4/25/2021 1:32,104.190.173.154,Mozilla/5.0 (Windows NT 10.0; Win64; x64; rv:88.0) Gecko/20100101 Firefox/88.0,,Firefox,88,Windows,10
