run_id,condition,rt,responses,trial_type,trial_index,time_elapsed,internal_node_id,question_order,stimulus,button_pressed,iTrial,Phase,ExperimentPhase,key_press,StimulusDurationSetting,CharacterResponse,correctResponse,Face,Name,rearranged,slider_start,response,didSubjectEnterRearranged,Block,recorded_at,ip,user_agent,device,browser,browser_version,platform,platform_version
191,1,9655,"{""Q0"":""A1EAWRUHTI367P""}",survey-text,0,9659,0.0-0.0,"""","""","""","""","""","""","""","""","""","""","""","""","""","""","""","""","""",4/28/2021 22:11,198.254.125.219,Mozilla/5.0 (Macintosh; Intel Mac OS X 10.12; rv:88.0) Gecko/20100101 Firefox/88.0,Macintosh,Firefox,88,OS X,10.12
191,1,3631,"{""Q0"":""31""}",survey-text,1,13303,0.0-1.0,"""","""","""","""","""","""","""","""","""","""","""","""","""","""","""","""","""",4/28/2021 22:11,198.254.125.219,Mozilla/5.0 (Macintosh; Intel Mac OS X 10.12; rv:88.0) Gecko/20100101 Firefox/88.0,Macintosh,Firefox,88,OS X,10.12
191,1,14645,"{""Q0"":""female"",""Q1"":""Not Hispanic/Latino"",""Q2"":""Other""}",survey-multi-choice,2,27953,0.0-2.0,"[0,1,2]","""","""","""","""","""","""","""","""","""","""","""","""","""","""","""","""",4/28/2021 22:11,198.254.125.219,Mozilla/5.0 (Macintosh; Intel Mac OS X 10.12; rv:88.0) Gecko/20100101 Firefox/88.0,Macintosh,Firefox,88,OS X,10.12
191,1,24342,"""",image-button-response,3,52315,0.0-3.0,"""",directionsMemoryAssociation1.JPG,0,1,IntroDirections1,break,"""","""","""","""","""","""","""","""","""","""","""",4/28/2021 22:11,198.254.125.219,Mozilla/5.0 (Macintosh; Intel Mac OS X 10.12; rv:88.0) Gecko/20100101 Firefox/88.0,Macintosh,Firefox,88,OS X,10.12
191,1,22097,"""",image-button-response,4,74426,0.0-4.0,"""",directionsMemoryAssociation2.JPG,0,1,IntroDirections2,break,"""","""","""","""","""","""","""","""","""","""","""",4/28/2021 22:11,198.254.125.219,Mozilla/5.0 (Macintosh; Intel Mac OS X 10.12; rv:88.0) Gecko/20100101 Firefox/88.0,Macintosh,Firefox,88,OS X,10.12
191,1,null,"""",html-keyboard-response,5,79439,0.0-5.0,"""","<img src='jspsych/CFDfaces/CFD-LF-236-221-N.jpg' height=""250px"">,</br><b>Katelyn</b>","""",1,IntactFace,Practice,null,5000,"""","""","""","""","""","""","""","""","""",4/28/2021 22:11,198.254.125.219,Mozilla/5.0 (Macintosh; Intel Mac OS X 10.12; rv:88.0) Gecko/20100101 Firefox/88.0,Macintosh,Firefox,88,OS X,10.12
191,1,null,"""",html-keyboard-response,6,79948,0.0-6.0,"""","<div style=""font-size:60px;"">+</div>","""",1,ITI,Practice,null,1000,"""","""","""","""","""","""","""","""","""",4/28/2021 22:11,198.254.125.219,Mozilla/5.0 (Macintosh; Intel Mac OS X 10.12; rv:88.0) Gecko/20100101 Firefox/88.0,Macintosh,Firefox,88,OS X,10.12
191,1,2672,"""",html-keyboard-response,7,84953,0.0-7.0,"""","<img src='jspsych/CFDfaces/CFD-WM-022-001-N.jpg' height=""250px"">,</br><b>Marcus</b>","""",2,IntactFace,Practice,70,5000,f,"""","""","""","""","""","""","""","""",4/28/2021 22:11,198.254.125.219,Mozilla/5.0 (Macintosh; Intel Mac OS X 10.12; rv:88.0) Gecko/20100101 Firefox/88.0,Macintosh,Firefox,88,OS X,10.12
191,1,null,"""",html-keyboard-response,8,85461,0.0-8.0,"""","<div style=""font-size:60px;"">+</div>","""",2,ITI,Practice,null,1000,"""","""","""","""","""","""","""","""","""",4/28/2021 22:11,198.254.125.219,Mozilla/5.0 (Macintosh; Intel Mac OS X 10.12; rv:88.0) Gecko/20100101 Firefox/88.0,Macintosh,Firefox,88,OS X,10.12
191,1,2998,"""",html-keyboard-response,9,90468,0.0-9.0,"""","<img src='jspsych/CFDfaces/CFD-AM-229-224-N.jpg' height=""250px"">,</br><b>Patrick</b>","""",3,IntactFace,Practice,78,5000,n,"""","""","""","""","""","""","""","""",4/28/2021 22:11,198.254.125.219,Mozilla/5.0 (Macintosh; Intel Mac OS X 10.12; rv:88.0) Gecko/20100101 Firefox/88.0,Macintosh,Firefox,88,OS X,10.12
191,1,null,"""",html-keyboard-response,10,90970,0.0-10.0,"""","<div style=""font-size:60px;"">+</div>","""",3,ITI,Practice,null,1000,"""","""","""","""","""","""","""","""","""",4/28/2021 22:11,198.254.125.219,Mozilla/5.0 (Macintosh; Intel Mac OS X 10.12; rv:88.0) Gecko/20100101 Firefox/88.0,Macintosh,Firefox,88,OS X,10.12
191,1,2269,"""",html-keyboard-response,11,95980,0.0-11.0,"""","<img src='jspsych/CFDfaces/CFD-LM-233-171-N.jpg' height=""250px"">,</br><b>Carlos</b>","""",4,IntactFace,Practice,70,5000,f,"""","""","""","""","""","""","""","""",4/28/2021 22:11,198.254.125.219,Mozilla/5.0 (Macintosh; Intel Mac OS X 10.12; rv:88.0) Gecko/20100101 Firefox/88.0,Macintosh,Firefox,88,OS X,10.12
191,1,null,"""",html-keyboard-response,12,96486,0.0-12.0,"""","<div style=""font-size:60px;"">+</div>","""",4,ITI,Practice,null,1000,"""","""","""","""","""","""","""","""","""",4/28/2021 22:11,198.254.125.219,Mozilla/5.0 (Macintosh; Intel Mac OS X 10.12; rv:88.0) Gecko/20100101 Firefox/88.0,Macintosh,Firefox,88,OS X,10.12
191,1,2021,"""",html-keyboard-response,13,101495,0.0-13.0,"""","<img src='jspsych/CFDfaces/CFD-WF-202-056-N.jpg' height=""250px"">,</br><b>Tara</b>","""",5,IntactFace,Practice,70,5000,f,"""","""","""","""","""","""","""","""",4/28/2021 22:11,198.254.125.219,Mozilla/5.0 (Macintosh; Intel Mac OS X 10.12; rv:88.0) Gecko/20100101 Firefox/88.0,Macintosh,Firefox,88,OS X,10.12
191,1,null,"""",html-keyboard-response,14,101998,0.0-14.0,"""","<div style=""font-size:60px;"">+</div>","""",5,ITI,Practice,null,1000,"""","""","""","""","""","""","""","""","""",4/28/2021 22:11,198.254.125.219,Mozilla/5.0 (Macintosh; Intel Mac OS X 10.12; rv:88.0) Gecko/20100101 Firefox/88.0,Macintosh,Firefox,88,OS X,10.12
191,1,2844,"""",html-keyboard-response,15,107008,0.0-15.0,"""","<img src='jspsych/CFDfaces/CFD-BF-047-003-N.jpg' height=""250px"">,</br><b>Shannon</b>","""",6,IntactFace,Practice,78,5000,n,"""","""","""","""","""","""","""","""",4/28/2021 22:11,198.254.125.219,Mozilla/5.0 (Macintosh; Intel Mac OS X 10.12; rv:88.0) Gecko/20100101 Firefox/88.0,Macintosh,Firefox,88,OS X,10.12
191,1,null,"""",html-keyboard-response,16,107514,0.0-16.0,"""","<div style=""font-size:60px;"">+</div>","""",6,ITI,Practice,null,1000,"""","""","""","""","""","""","""","""","""",4/28/2021 22:11,198.254.125.219,Mozilla/5.0 (Macintosh; Intel Mac OS X 10.12; rv:88.0) Gecko/20100101 Firefox/88.0,Macintosh,Firefox,88,OS X,10.12
191,1,2003,"""",html-keyboard-response,17,112523,0.0-17.0,"""","<img src='jspsych/CFDfaces/CFD-BM-010-003-N.jpg' height=""250px"">,</br><b>Samuel</b>","""",7,IntactFace,Practice,70,5000,f,"""","""","""","""","""","""","""","""",4/28/2021 22:11,198.254.125.219,Mozilla/5.0 (Macintosh; Intel Mac OS X 10.12; rv:88.0) Gecko/20100101 Firefox/88.0,Macintosh,Firefox,88,OS X,10.12
191,1,null,"""",html-keyboard-response,18,113028,0.0-18.0,"""","<div style=""font-size:60px;"">+</div>","""",7,ITI,Practice,null,1000,"""","""","""","""","""","""","""","""","""",4/28/2021 22:11,198.254.125.219,Mozilla/5.0 (Macintosh; Intel Mac OS X 10.12; rv:88.0) Gecko/20100101 Firefox/88.0,Macintosh,Firefox,88,OS X,10.12
191,1,1985,"""",html-keyboard-response,19,118038,0.0-19.0,"""","<img src='jspsych/CFDfaces/CFD-LF-218-072-N.jpg' height=""250px"">,</br><b>Cassandra</b>","""",8,IntactFace,Practice,70,5000,f,"""","""","""","""","""","""","""","""",4/28/2021 22:11,198.254.125.219,Mozilla/5.0 (Macintosh; Intel Mac OS X 10.12; rv:88.0) Gecko/20100101 Firefox/88.0,Macintosh,Firefox,88,OS X,10.12
191,1,null,"""",html-keyboard-response,20,118542,0.0-20.0,"""","<div style=""font-size:60px;"">+</div>","""",8,ITI,Practice,null,1000,"""","""","""","""","""","""","""","""","""",4/28/2021 22:11,198.254.125.219,Mozilla/5.0 (Macintosh; Intel Mac OS X 10.12; rv:88.0) Gecko/20100101 Firefox/88.0,Macintosh,Firefox,88,OS X,10.12
191,1,43320,"""",image-button-response,21,161875,0.0-21.0,"""",directionsForTest.JPG,0,1,directionsForTest,break,"""","""","""","""","""","""","""","""","""","""","""",4/28/2021 22:11,198.254.125.219,Mozilla/5.0 (Macintosh; Intel Mac OS X 10.12; rv:88.0) Gecko/20100101 Firefox/88.0,Macintosh,Firefox,88,OS X,10.12
191,1,12153,"""",image-button-response,22,174042,0.0-22.0,"""",directionsForTest2.JPG,0,1,directionsForTest2,break,"""","""","""","""","""","""","""","""","""","""","""",4/28/2021 22:11,198.254.125.219,Mozilla/5.0 (Macintosh; Intel Mac OS X 10.12; rv:88.0) Gecko/20100101 Firefox/88.0,Macintosh,Firefox,88,OS X,10.12
191,1,null,"""",html-keyboard-response,23,175046,0.0-23.0,"""","<div style=""font-size:60px;"">+</div>","""",1,ITI,Practice,null,1000,"""","""","""","""","""","""","""","""","""",4/28/2021 22:11,198.254.125.219,Mozilla/5.0 (Macintosh; Intel Mac OS X 10.12; rv:88.0) Gecko/20100101 Firefox/88.0,Macintosh,Firefox,88,OS X,10.12
191,1,null,"""",image-keyboard-response,24,175305,0.0-24.0,"""",jspsych/scrambledDisgustFaces/scrambledAM03DIS.JPG,"""",1,forwardMask,Practice,null,250,"""",d,"""","""","""","""","""","""","""",4/28/2021 22:11,198.254.125.219,Mozilla/5.0 (Macintosh; Intel Mac OS X 10.12; rv:88.0) Gecko/20100101 Firefox/88.0,Macintosh,Firefox,88,OS X,10.12
191,1,null,"""",image-keyboard-response,25,175329,0.0-25.0,"""",jspsych/disgustFaces/AM03DIS.JPG,"""",1,Cue,Practice,null,16,"""","""","""","""","""","""","""","""","""",4/28/2021 22:11,198.254.125.219,Mozilla/5.0 (Macintosh; Intel Mac OS X 10.12; rv:88.0) Gecko/20100101 Firefox/88.0,Macintosh,Firefox,88,OS X,10.12
191,1,null,"""",image-keyboard-response,26,175439,0.0-26.0,"""",jspsych/neutralFaces/BM30NES.JPG,"""",1,backwardMask,Practice,null,100,"""","""","""","""","""","""","""","""","""",4/28/2021 22:11,198.254.125.219,Mozilla/5.0 (Macintosh; Intel Mac OS X 10.12; rv:88.0) Gecko/20100101 Firefox/88.0,Macintosh,Firefox,88,OS X,10.12
191,1,null,"""",html-keyboard-response,27,176443,0.0-27.0,"""","<div style=""font-size:60px;"">+</div>","""",1,fixationBtwnNeutralMaskAndPrompt,Practice,null,1000,"""","""","""","""","""","""","""","""","""",4/28/2021 22:11,198.254.125.219,Mozilla/5.0 (Macintosh; Intel Mac OS X 10.12; rv:88.0) Gecko/20100101 Firefox/88.0,Macintosh,Firefox,88,OS X,10.12
191,1,null,"""",html-button-response,28,181447,0.0-28.0,"""","<img src='jspsych/CFDfaces/CFD-LM-233-171-N.jpg'height=""250px""></br><b>Marcus</b>",null,1,IntactOrRearranged,Practice,"""","""","""","""",CFD-LM-233-171-N.jpg,Marcus,1,"""","""","""","""",4/28/2021 22:11,198.254.125.219,Mozilla/5.0 (Macintosh; Intel Mac OS X 10.12; rv:88.0) Gecko/20100101 Firefox/88.0,Macintosh,Firefox,88,OS X,10.12
191,1,3967,"""",html-slider-response,29,185423,0.0-29.0,"""","<img src='jspsych/CFDfaces/CFD-LM-233-171-N.jpg'height=""250px""></br><b>Marcus</b>","""",1,ConfidenceQuery,Practice,"""","""","""","""",CFD-AM-221-184-N.jpg,Justin,1,0,100,"""","""",4/28/2021 22:11,198.254.125.219,Mozilla/5.0 (Macintosh; Intel Mac OS X 10.12; rv:88.0) Gecko/20100101 Firefox/88.0,Macintosh,Firefox,88,OS X,10.12
191,1,3292,"""",html-button-response,30,188719,0.0-30.0,"""",<p>Please click either button: REARRANGED or INTACT before the 5-second time limit.</p>,0,1,feedback,Practice,"""","""","""","""","""","""","""","""","""","""","""",4/28/2021 22:11,198.254.125.219,Mozilla/5.0 (Macintosh; Intel Mac OS X 10.12; rv:88.0) Gecko/20100101 Firefox/88.0,Macintosh,Firefox,88,OS X,10.12
191,1,null,"""",html-keyboard-response,31,189725,0.0-31.0,"""","<div style=""font-size:60px;"">+</div>","""",2,ITI,Practice,null,1000,"""","""","""","""","""","""","""","""","""",4/28/2021 22:11,198.254.125.219,Mozilla/5.0 (Macintosh; Intel Mac OS X 10.12; rv:88.0) Gecko/20100101 Firefox/88.0,Macintosh,Firefox,88,OS X,10.12
191,1,null,"""",image-keyboard-response,32,189980,0.0-32.0,"""",jspsych/scrambledDisgustFaces/scrambledBF22DIS.JPG,"""",2,forwardMask,Practice,null,250,"""",d,"""","""","""","""","""","""","""",4/28/2021 22:11,198.254.125.219,Mozilla/5.0 (Macintosh; Intel Mac OS X 10.12; rv:88.0) Gecko/20100101 Firefox/88.0,Macintosh,Firefox,88,OS X,10.12
191,1,null,"""",image-keyboard-response,33,190004,0.0-33.0,"""",jspsych/disgustFaces/BF22DIS.JPG,"""",2,Cue,Practice,null,16,"""","""","""","""","""","""","""","""","""",4/28/2021 22:11,198.254.125.219,Mozilla/5.0 (Macintosh; Intel Mac OS X 10.12; rv:88.0) Gecko/20100101 Firefox/88.0,Macintosh,Firefox,88,OS X,10.12
191,1,null,"""",image-keyboard-response,34,190114,0.0-34.0,"""",jspsych/neutralFaces/BF02NES.JPG,"""",2,backwardMask,Practice,null,100,"""","""","""","""","""","""","""","""","""",4/28/2021 22:11,198.254.125.219,Mozilla/5.0 (Macintosh; Intel Mac OS X 10.12; rv:88.0) Gecko/20100101 Firefox/88.0,Macintosh,Firefox,88,OS X,10.12
191,1,null,"""",html-keyboard-response,35,191119,0.0-35.0,"""","<div style=""font-size:60px;"">+</div>","""",2,fixationBtwnNeutralMaskAndPrompt,Practice,null,1000,"""","""","""","""","""","""","""","""","""",4/28/2021 22:11,198.254.125.219,Mozilla/5.0 (Macintosh; Intel Mac OS X 10.12; rv:88.0) Gecko/20100101 Firefox/88.0,Macintosh,Firefox,88,OS X,10.12
191,1,1457,"""",html-button-response,36,192578,0.0-36.0,"""","<img src='jspsych/CFDfaces/CFD-WF-202-056-N.jpg'height=""250px""></br><b>Tara</b>",0,2,IntactOrRearranged,Practice,"""","""","""","""",CFD-WF-202-056-N.jpg,Tara,0,"""","""",0,"""",4/28/2021 22:11,198.254.125.219,Mozilla/5.0 (Macintosh; Intel Mac OS X 10.12; rv:88.0) Gecko/20100101 Firefox/88.0,Macintosh,Firefox,88,OS X,10.12
191,1,2655,"""",html-slider-response,37,195237,0.0-37.0,"""","<img src='jspsych/CFDfaces/CFD-WF-202-056-N.jpg'height=""250px""></br><b>Tara</b>","""",2,ConfidenceQuery,Practice,"""","""","""","""",CFD-AM-221-184-N.jpg,Justin,0,0,100,"""","""",4/28/2021 22:11,198.254.125.219,Mozilla/5.0 (Macintosh; Intel Mac OS X 10.12; rv:88.0) Gecko/20100101 Firefox/88.0,Macintosh,Firefox,88,OS X,10.12
191,1,1325,"""",html-button-response,38,196565,0.0-38.0,"""",You are Correct. You called an Intact Pair Intact,0,2,feedback,Practice,"""","""","""","""","""","""","""","""","""","""","""",4/28/2021 22:11,198.254.125.219,Mozilla/5.0 (Macintosh; Intel Mac OS X 10.12; rv:88.0) Gecko/20100101 Firefox/88.0,Macintosh,Firefox,88,OS X,10.12
191,1,null,"""",html-keyboard-response,39,197571,0.0-39.0,"""","<div style=""font-size:60px;"">+</div>","""",3,ITI,Practice,null,1000,"""","""","""","""","""","""","""","""","""",4/28/2021 22:11,198.254.125.219,Mozilla/5.0 (Macintosh; Intel Mac OS X 10.12; rv:88.0) Gecko/20100101 Firefox/88.0,Macintosh,Firefox,88,OS X,10.12
191,1,null,"""",image-keyboard-response,40,197829,0.0-40.0,"""",jspsych/scrambledDisgustFaces/scrambledBM08DIS.JPG,"""",3,forwardMask,Practice,null,250,"""",d,"""","""","""","""","""","""","""",4/28/2021 22:11,198.254.125.219,Mozilla/5.0 (Macintosh; Intel Mac OS X 10.12; rv:88.0) Gecko/20100101 Firefox/88.0,Macintosh,Firefox,88,OS X,10.12
191,1,null,"""",image-keyboard-response,41,197854,0.0-41.0,"""",jspsych/disgustFaces/BM09DIS.JPG,"""",3,Cue,Practice,null,16,"""","""","""","""","""","""","""","""","""",4/28/2021 22:11,198.254.125.219,Mozilla/5.0 (Macintosh; Intel Mac OS X 10.12; rv:88.0) Gecko/20100101 Firefox/88.0,Macintosh,Firefox,88,OS X,10.12
191,1,null,"""",image-keyboard-response,42,197964,0.0-42.0,"""",jspsych/neutralFaces/AM05NES.JPG,"""",3,backwardMask,Practice,null,100,"""","""","""","""","""","""","""","""","""",4/28/2021 22:11,198.254.125.219,Mozilla/5.0 (Macintosh; Intel Mac OS X 10.12; rv:88.0) Gecko/20100101 Firefox/88.0,Macintosh,Firefox,88,OS X,10.12
191,1,null,"""",html-keyboard-response,43,198967,0.0-43.0,"""","<div style=""font-size:60px;"">+</div>","""",3,fixationBtwnNeutralMaskAndPrompt,Practice,null,1000,"""","""","""","""","""","""","""","""","""",4/28/2021 22:11,198.254.125.219,Mozilla/5.0 (Macintosh; Intel Mac OS X 10.12; rv:88.0) Gecko/20100101 Firefox/88.0,Macintosh,Firefox,88,OS X,10.12
191,1,2183,"""",html-button-response,44,201151,0.0-44.0,"""","<img src='jspsych/CFDfaces/CFD-LF-236-221-N.jpg'height=""250px""></br><b>Cassandra</b>",0,3,IntactOrRearranged,Practice,"""","""","""","""",CFD-LF-236-221-N.jpg,Cassandra,1,"""","""",0,"""",4/28/2021 22:11,198.254.125.219,Mozilla/5.0 (Macintosh; Intel Mac OS X 10.12; rv:88.0) Gecko/20100101 Firefox/88.0,Macintosh,Firefox,88,OS X,10.12
191,1,2269,"""",html-slider-response,45,203426,0.0-45.0,"""","<img src='jspsych/CFDfaces/CFD-LF-236-221-N.jpg'height=""250px""></br><b>Cassandra</b>","""",3,ConfidenceQuery,Practice,"""","""","""","""",CFD-AM-221-184-N.jpg,Justin,1,0,100,"""","""",4/28/2021 22:11,198.254.125.219,Mozilla/5.0 (Macintosh; Intel Mac OS X 10.12; rv:88.0) Gecko/20100101 Firefox/88.0,Macintosh,Firefox,88,OS X,10.12
191,1,1964,"""",html-button-response,46,205393,0.0-46.0,"""",You are Incorrect. You called a Rearranged Pair Intact,0,3,feedback,Practice,"""","""","""","""","""","""","""","""","""","""","""",4/28/2021 22:11,198.254.125.219,Mozilla/5.0 (Macintosh; Intel Mac OS X 10.12; rv:88.0) Gecko/20100101 Firefox/88.0,Macintosh,Firefox,88,OS X,10.12
191,1,null,"""",html-keyboard-response,47,206398,0.0-47.0,"""","<div style=""font-size:60px;"">+</div>","""",4,ITI,Practice,null,1000,"""","""","""","""","""","""","""","""","""",4/28/2021 22:11,198.254.125.219,Mozilla/5.0 (Macintosh; Intel Mac OS X 10.12; rv:88.0) Gecko/20100101 Firefox/88.0,Macintosh,Firefox,88,OS X,10.12
191,1,null,"""",image-keyboard-response,48,206660,0.0-48.0,"""",jspsych/scrambledNeutralFaces/scrambledBF06NES.JPG,"""",4,forwardMask,Practice,null,250,"""",n,"""","""","""","""","""","""","""",4/28/2021 22:11,198.254.125.219,Mozilla/5.0 (Macintosh; Intel Mac OS X 10.12; rv:88.0) Gecko/20100101 Firefox/88.0,Macintosh,Firefox,88,OS X,10.12
191,1,null,"""",image-keyboard-response,49,206686,0.0-49.0,"""",jspsych/neutralFaces/BF06NES.JPG,"""",4,Cue,Practice,null,16,"""","""","""","""","""","""","""","""","""",4/28/2021 22:11,198.254.125.219,Mozilla/5.0 (Macintosh; Intel Mac OS X 10.12; rv:88.0) Gecko/20100101 Firefox/88.0,Macintosh,Firefox,88,OS X,10.12
191,1,null,"""",image-keyboard-response,50,206792,0.0-50.0,"""",jspsych/neutralFaces/BF22NES.JPG,"""",4,backwardMask,Practice,null,100,"""","""","""","""","""","""","""","""","""",4/28/2021 22:11,198.254.125.219,Mozilla/5.0 (Macintosh; Intel Mac OS X 10.12; rv:88.0) Gecko/20100101 Firefox/88.0,Macintosh,Firefox,88,OS X,10.12
191,1,null,"""",html-keyboard-response,51,207799,0.0-51.0,"""","<div style=""font-size:60px;"">+</div>","""",4,fixationBtwnNeutralMaskAndPrompt,Practice,null,1000,"""","""","""","""","""","""","""","""","""",4/28/2021 22:11,198.254.125.219,Mozilla/5.0 (Macintosh; Intel Mac OS X 10.12; rv:88.0) Gecko/20100101 Firefox/88.0,Macintosh,Firefox,88,OS X,10.12
191,1,1542,"""",html-button-response,52,209343,0.0-52.0,"""","<img src='jspsych/CFDfaces/CFD-BF-047-003-N.jpg'height=""250px""></br><b>Shannon</b>",0,4,IntactOrRearranged,Practice,"""","""","""","""",CFD-BF-047-003-N.jpg,Shannon,0,"""","""",0,"""",4/28/2021 22:11,198.254.125.219,Mozilla/5.0 (Macintosh; Intel Mac OS X 10.12; rv:88.0) Gecko/20100101 Firefox/88.0,Macintosh,Firefox,88,OS X,10.12
191,1,2096,"""",html-slider-response,53,211443,0.0-53.0,"""","<img src='jspsych/CFDfaces/CFD-BF-047-003-N.jpg'height=""250px""></br><b>Shannon</b>","""",4,ConfidenceQuery,Practice,"""","""","""","""",CFD-AM-221-184-N.jpg,Justin,0,0,100,"""","""",4/28/2021 22:11,198.254.125.219,Mozilla/5.0 (Macintosh; Intel Mac OS X 10.12; rv:88.0) Gecko/20100101 Firefox/88.0,Macintosh,Firefox,88,OS X,10.12
191,1,1150,"""",html-button-response,54,212595,0.0-54.0,"""",You are Correct. You called an Intact Pair Intact,0,4,feedback,Practice,"""","""","""","""","""","""","""","""","""","""","""",4/28/2021 22:11,198.254.125.219,Mozilla/5.0 (Macintosh; Intel Mac OS X 10.12; rv:88.0) Gecko/20100101 Firefox/88.0,Macintosh,Firefox,88,OS X,10.12
191,1,null,"""",html-keyboard-response,55,213602,0.0-55.0,"""","<div style=""font-size:60px;"">+</div>","""",5,ITI,Practice,null,1000,"""","""","""","""","""","""","""","""","""",4/28/2021 22:11,198.254.125.219,Mozilla/5.0 (Macintosh; Intel Mac OS X 10.12; rv:88.0) Gecko/20100101 Firefox/88.0,Macintosh,Firefox,88,OS X,10.12
191,1,null,"""",image-keyboard-response,56,213863,0.0-56.0,"""",jspsych/scrambledDisgustFaces/scrambledAF30DIS.JPG,"""",5,forwardMask,Practice,null,250,"""",d,"""","""","""","""","""","""","""",4/28/2021 22:11,198.254.125.219,Mozilla/5.0 (Macintosh; Intel Mac OS X 10.12; rv:88.0) Gecko/20100101 Firefox/88.0,Macintosh,Firefox,88,OS X,10.12
191,1,null,"""",image-keyboard-response,57,213887,0.0-57.0,"""",jspsych/disgustFaces/AF30DIS.JPG,"""",5,Cue,Practice,null,16,"""","""","""","""","""","""","""","""","""",4/28/2021 22:11,198.254.125.219,Mozilla/5.0 (Macintosh; Intel Mac OS X 10.12; rv:88.0) Gecko/20100101 Firefox/88.0,Macintosh,Firefox,88,OS X,10.12
191,1,null,"""",image-keyboard-response,58,213996,0.0-58.0,"""",jspsych/neutralFaces/BF31NES.JPG,"""",5,backwardMask,Practice,null,100,"""","""","""","""","""","""","""","""","""",4/28/2021 22:11,198.254.125.219,Mozilla/5.0 (Macintosh; Intel Mac OS X 10.12; rv:88.0) Gecko/20100101 Firefox/88.0,Macintosh,Firefox,88,OS X,10.12
191,1,null,"""",html-keyboard-response,59,215001,0.0-59.0,"""","<div style=""font-size:60px;"">+</div>","""",5,fixationBtwnNeutralMaskAndPrompt,Practice,null,1000,"""","""","""","""","""","""","""","""","""",4/28/2021 22:11,198.254.125.219,Mozilla/5.0 (Macintosh; Intel Mac OS X 10.12; rv:88.0) Gecko/20100101 Firefox/88.0,Macintosh,Firefox,88,OS X,10.12
191,1,1417,"""",html-button-response,60,216420,0.0-60.0,"""","<img src='jspsych/CFDfaces/CFD-BM-010-003-N.jpg'height=""250px""></br><b>Samuel</b>",0,5,IntactOrRearranged,Practice,"""","""","""","""",CFD-BM-010-003-N.jpg,Samuel,0,"""","""",0,"""",4/28/2021 22:11,198.254.125.219,Mozilla/5.0 (Macintosh; Intel Mac OS X 10.12; rv:88.0) Gecko/20100101 Firefox/88.0,Macintosh,Firefox,88,OS X,10.12
191,1,2032,"""",html-slider-response,61,218456,0.0-61.0,"""","<img src='jspsych/CFDfaces/CFD-BM-010-003-N.jpg'height=""250px""></br><b>Samuel</b>","""",5,ConfidenceQuery,Practice,"""","""","""","""",CFD-AM-221-184-N.jpg,Justin,0,0,100,"""","""",4/28/2021 22:11,198.254.125.219,Mozilla/5.0 (Macintosh; Intel Mac OS X 10.12; rv:88.0) Gecko/20100101 Firefox/88.0,Macintosh,Firefox,88,OS X,10.12
191,1,1618,"""",html-button-response,62,220080,0.0-62.0,"""",You are Correct. You called an Intact Pair Intact,0,5,feedback,Practice,"""","""","""","""","""","""","""","""","""","""","""",4/28/2021 22:11,198.254.125.219,Mozilla/5.0 (Macintosh; Intel Mac OS X 10.12; rv:88.0) Gecko/20100101 Firefox/88.0,Macintosh,Firefox,88,OS X,10.12
191,1,null,"""",html-keyboard-response,63,221086,0.0-63.0,"""","<div style=""font-size:60px;"">+</div>","""",6,ITI,Practice,null,1000,"""","""","""","""","""","""","""","""","""",4/28/2021 22:11,198.254.125.219,Mozilla/5.0 (Macintosh; Intel Mac OS X 10.12; rv:88.0) Gecko/20100101 Firefox/88.0,Macintosh,Firefox,88,OS X,10.12
191,1,null,"""",image-keyboard-response,64,221341,0.0-64.0,"""",jspsych/scrambledDisgustFaces/scrambledAF34DIS.JPG,"""",6,forwardMask,Practice,null,250,"""",d,"""","""","""","""","""","""","""",4/28/2021 22:11,198.254.125.219,Mozilla/5.0 (Macintosh; Intel Mac OS X 10.12; rv:88.0) Gecko/20100101 Firefox/88.0,Macintosh,Firefox,88,OS X,10.12
191,1,null,"""",image-keyboard-response,65,221364,0.0-65.0,"""",jspsych/disgustFaces/AF34DIS.JPG,"""",6,Cue,Practice,null,16,"""","""","""","""","""","""","""","""","""",4/28/2021 22:11,198.254.125.219,Mozilla/5.0 (Macintosh; Intel Mac OS X 10.12; rv:88.0) Gecko/20100101 Firefox/88.0,Macintosh,Firefox,88,OS X,10.12
191,1,null,"""",image-keyboard-response,66,221474,0.0-66.0,"""",jspsych/neutralFaces/AF26NES.JPG,"""",6,backwardMask,Practice,null,100,"""","""","""","""","""","""","""","""","""",4/28/2021 22:11,198.254.125.219,Mozilla/5.0 (Macintosh; Intel Mac OS X 10.12; rv:88.0) Gecko/20100101 Firefox/88.0,Macintosh,Firefox,88,OS X,10.12
191,1,null,"""",html-keyboard-response,67,222478,0.0-67.0,"""","<div style=""font-size:60px;"">+</div>","""",6,fixationBtwnNeutralMaskAndPrompt,Practice,null,1000,"""","""","""","""","""","""","""","""","""",4/28/2021 22:11,198.254.125.219,Mozilla/5.0 (Macintosh; Intel Mac OS X 10.12; rv:88.0) Gecko/20100101 Firefox/88.0,Macintosh,Firefox,88,OS X,10.12
191,1,2334,"""",html-button-response,68,224814,0.0-68.0,"""","<img src='jspsych/CFDfaces/CFD-LF-218-072-N.jpg'height=""250px""></br><b>Katelyn</b>",1,6,IntactOrRearranged,Practice,"""","""","""","""",CFD-LF-218-072-N.jpg,Katelyn,1,"""","""",1,"""",4/28/2021 22:11,198.254.125.219,Mozilla/5.0 (Macintosh; Intel Mac OS X 10.12; rv:88.0) Gecko/20100101 Firefox/88.0,Macintosh,Firefox,88,OS X,10.12
191,1,2149,"""",html-slider-response,69,226970,0.0-69.0,"""","<img src='jspsych/CFDfaces/CFD-LF-218-072-N.jpg'height=""250px""></br><b>Katelyn</b>","""",6,ConfidenceQuery,Practice,"""","""","""","""",CFD-AM-221-184-N.jpg,Justin,1,0,100,"""","""",4/28/2021 22:11,198.254.125.219,Mozilla/5.0 (Macintosh; Intel Mac OS X 10.12; rv:88.0) Gecko/20100101 Firefox/88.0,Macintosh,Firefox,88,OS X,10.12
191,1,1950,"""",html-button-response,70,228922,0.0-70.0,"""",You are Correct. You Called A Rearranged Pair Rearranged,0,6,feedback,Practice,"""","""","""","""","""","""","""","""","""","""","""",4/28/2021 22:11,198.254.125.219,Mozilla/5.0 (Macintosh; Intel Mac OS X 10.12; rv:88.0) Gecko/20100101 Firefox/88.0,Macintosh,Firefox,88,OS X,10.12
191,1,null,"""",html-keyboard-response,71,229926,0.0-71.0,"""","<div style=""font-size:60px;"">+</div>","""",7,ITI,Practice,null,1000,"""","""","""","""","""","""","""","""","""",4/28/2021 22:11,198.254.125.219,Mozilla/5.0 (Macintosh; Intel Mac OS X 10.12; rv:88.0) Gecko/20100101 Firefox/88.0,Macintosh,Firefox,88,OS X,10.12
191,1,null,"""",image-keyboard-response,72,230180,0.0-72.0,"""",jspsych/scrambledDisgustFaces/scrambledBF15DIS.JPG,"""",7,forwardMask,Practice,null,250,"""",d,"""","""","""","""","""","""","""",4/28/2021 22:11,198.254.125.219,Mozilla/5.0 (Macintosh; Intel Mac OS X 10.12; rv:88.0) Gecko/20100101 Firefox/88.0,Macintosh,Firefox,88,OS X,10.12
191,1,null,"""",image-keyboard-response,73,230209,0.0-73.0,"""",jspsych/disgustFaces/BF15DIS.JPG,"""",7,Cue,Practice,null,16,"""","""","""","""","""","""","""","""","""",4/28/2021 22:11,198.254.125.219,Mozilla/5.0 (Macintosh; Intel Mac OS X 10.12; rv:88.0) Gecko/20100101 Firefox/88.0,Macintosh,Firefox,88,OS X,10.12
191,1,null,"""",image-keyboard-response,74,230316,0.0-74.0,"""",jspsych/neutralFaces/AF28NES.JPG,"""",7,backwardMask,Practice,null,100,"""","""","""","""","""","""","""","""","""",4/28/2021 22:11,198.254.125.219,Mozilla/5.0 (Macintosh; Intel Mac OS X 10.12; rv:88.0) Gecko/20100101 Firefox/88.0,Macintosh,Firefox,88,OS X,10.12
191,1,null,"""",html-keyboard-response,75,231321,0.0-75.0,"""","<div style=""font-size:60px;"">+</div>","""",7,fixationBtwnNeutralMaskAndPrompt,Practice,null,1000,"""","""","""","""","""","""","""","""","""",4/28/2021 22:11,198.254.125.219,Mozilla/5.0 (Macintosh; Intel Mac OS X 10.12; rv:88.0) Gecko/20100101 Firefox/88.0,Macintosh,Firefox,88,OS X,10.12
191,1,1564,"""",html-button-response,76,232886,0.0-76.0,"""","<img src='jspsych/CFDfaces/CFD-AM-229-224-N.jpg'height=""250px""></br><b>Patrick</b>",0,7,IntactOrRearranged,Practice,"""","""","""","""",CFD-AM-229-224-N.jpg,Patrick,0,"""","""",0,"""",4/28/2021 22:11,198.254.125.219,Mozilla/5.0 (Macintosh; Intel Mac OS X 10.12; rv:88.0) Gecko/20100101 Firefox/88.0,Macintosh,Firefox,88,OS X,10.12
191,1,2776,"""",html-slider-response,77,235666,0.0-77.0,"""","<img src='jspsych/CFDfaces/CFD-AM-229-224-N.jpg'height=""250px""></br><b>Patrick</b>","""",7,ConfidenceQuery,Practice,"""","""","""","""",CFD-AM-221-184-N.jpg,Justin,0,0,100,"""","""",4/28/2021 22:11,198.254.125.219,Mozilla/5.0 (Macintosh; Intel Mac OS X 10.12; rv:88.0) Gecko/20100101 Firefox/88.0,Macintosh,Firefox,88,OS X,10.12
191,1,1443,"""",html-button-response,78,237114,0.0-78.0,"""",You are Correct. You called an Intact Pair Intact,0,7,feedback,Practice,"""","""","""","""","""","""","""","""","""","""","""",4/28/2021 22:11,198.254.125.219,Mozilla/5.0 (Macintosh; Intel Mac OS X 10.12; rv:88.0) Gecko/20100101 Firefox/88.0,Macintosh,Firefox,88,OS X,10.12
191,1,null,"""",html-keyboard-response,79,238118,0.0-79.0,"""","<div style=""font-size:60px;"">+</div>","""",8,ITI,Practice,null,1000,"""","""","""","""","""","""","""","""","""",4/28/2021 22:11,198.254.125.219,Mozilla/5.0 (Macintosh; Intel Mac OS X 10.12; rv:88.0) Gecko/20100101 Firefox/88.0,Macintosh,Firefox,88,OS X,10.12
191,1,null,"""",image-keyboard-response,80,238373,0.0-80.0,"""",jspsych/scrambledDisgustFaces/scrambledAM27DIS.JPG,"""",8,forwardMask,Practice,null,250,"""",d,"""","""","""","""","""","""","""",4/28/2021 22:11,198.254.125.219,Mozilla/5.0 (Macintosh; Intel Mac OS X 10.12; rv:88.0) Gecko/20100101 Firefox/88.0,Macintosh,Firefox,88,OS X,10.12
191,1,null,"""",image-keyboard-response,81,238394,0.0-81.0,"""",jspsych/disgustFaces/AM27DIS.JPG,"""",8,Cue,Practice,null,16,"""","""","""","""","""","""","""","""","""",4/28/2021 22:11,198.254.125.219,Mozilla/5.0 (Macintosh; Intel Mac OS X 10.12; rv:88.0) Gecko/20100101 Firefox/88.0,Macintosh,Firefox,88,OS X,10.12
191,1,null,"""",image-keyboard-response,82,238505,0.0-82.0,"""",jspsych/neutralFaces/AM10NES.JPG,"""",8,backwardMask,Practice,null,100,"""","""","""","""","""","""","""","""","""",4/28/2021 22:11,198.254.125.219,Mozilla/5.0 (Macintosh; Intel Mac OS X 10.12; rv:88.0) Gecko/20100101 Firefox/88.0,Macintosh,Firefox,88,OS X,10.12
191,1,null,"""",html-keyboard-response,83,239511,0.0-83.0,"""","<div style=""font-size:60px;"">+</div>","""",8,fixationBtwnNeutralMaskAndPrompt,Practice,null,1000,"""","""","""","""","""","""","""","""","""",4/28/2021 22:11,198.254.125.219,Mozilla/5.0 (Macintosh; Intel Mac OS X 10.12; rv:88.0) Gecko/20100101 Firefox/88.0,Macintosh,Firefox,88,OS X,10.12
191,1,2800,"""",html-button-response,84,242314,0.0-84.0,"""","<img src='jspsych/CFDfaces/CFD-WM-022-001-N.jpg'height=""250px""></br><b>Carlos</b>",1,8,IntactOrRearranged,Practice,"""","""","""","""",CFD-WM-022-001-N.jpg,Carlos,1,"""","""",1,"""",4/28/2021 22:11,198.254.125.219,Mozilla/5.0 (Macintosh; Intel Mac OS X 10.12; rv:88.0) Gecko/20100101 Firefox/88.0,Macintosh,Firefox,88,OS X,10.12
191,1,2444,"""",html-slider-response,85,244767,0.0-85.0,"""","<img src='jspsych/CFDfaces/CFD-WM-022-001-N.jpg'height=""250px""></br><b>Carlos</b>","""",8,ConfidenceQuery,Practice,"""","""","""","""",CFD-AM-221-184-N.jpg,Justin,1,0,100,"""","""",4/28/2021 22:11,198.254.125.219,Mozilla/5.0 (Macintosh; Intel Mac OS X 10.12; rv:88.0) Gecko/20100101 Firefox/88.0,Macintosh,Firefox,88,OS X,10.12
191,1,1307,"""",html-button-response,86,246079,0.0-86.0,"""",You are Correct. You Called A Rearranged Pair Rearranged,0,8,feedback,Practice,"""","""","""","""","""","""","""","""","""","""","""",4/28/2021 22:11,198.254.125.219,Mozilla/5.0 (Macintosh; Intel Mac OS X 10.12; rv:88.0) Gecko/20100101 Firefox/88.0,Macintosh,Firefox,88,OS X,10.12
191,1,4920,"""",image-button-response,87,251012,0.0-87.0,"""",directionsMemoryAssociation3.JPG,0,128,DirectionsBeforeActualTEst,Break,"""","""","""","""","""","""","""","""","""","""","""",4/28/2021 22:11,198.254.125.219,Mozilla/5.0 (Macintosh; Intel Mac OS X 10.12; rv:88.0) Gecko/20100101 Firefox/88.0,Macintosh,Firefox,88,OS X,10.12
191,1,3880,"""",image-button-response,88,254911,0.0-88.0,"""",directionsForTest2.JPG,0,1,directionsForTest2,break,"""","""","""","""","""","""","""","""","""","""","""",4/28/2021 22:11,198.254.125.219,Mozilla/5.0 (Macintosh; Intel Mac OS X 10.12; rv:88.0) Gecko/20100101 Firefox/88.0,Macintosh,Firefox,88,OS X,10.12
191,1,2359,"""",html-button-response,89,257275,0.0-89.0,"""","<p>You will be asked to memorize and then recall four sets of face-name pairs. </p> <p> Each set will have 32 pairs. </p> <p>After the fourth set, there will be a brief follow-up experiment (<40 min alltogether)</p>",0,"""","""","""","""","""","""","""","""","""","""","""","""","""","""",4/28/2021 22:11,198.254.125.219,Mozilla/5.0 (Macintosh; Intel Mac OS X 10.12; rv:88.0) Gecko/20100101 Firefox/88.0,Macintosh,Firefox,88,OS X,10.12
191,1,1949,"""",html-keyboard-response,90,262288,0.0-90.0,"""","<img src='jspsych/CFDfaces/CFD-BM-001-014-N.jpg' height=""250px""></br><b>James</b>","""",256,IntactFace,Memorization,70,5000,f,"""",CFD-BF-201-080-N.jpg,Erin,0,"""","""","""",1,4/28/2021 22:11,198.254.125.219,Mozilla/5.0 (Macintosh; Intel Mac OS X 10.12; rv:88.0) Gecko/20100101 Firefox/88.0,Macintosh,Firefox,88,OS X,10.12
191,1,null,"""",html-keyboard-response,91,262795,0.0-91.0,"""","<div style=""font-size:60px;"">+</div>","""",256,fixation,Memorization,null,500,"""","""","""","""","""","""","""","""",1,4/28/2021 22:11,198.254.125.219,Mozilla/5.0 (Macintosh; Intel Mac OS X 10.12; rv:88.0) Gecko/20100101 Firefox/88.0,Macintosh,Firefox,88,OS X,10.12
191,1,3393,"""",html-keyboard-response,92,267806,0.0-92.0,"""","<img src='jspsych/CFDfaces/CFD-LM-209-111-N.jpg' height=""250px""></br><b>Joshua</b>","""",256,IntactFace,Memorization,70,5000,f,"""",CFD-LF-206-078-N.jpg,Melissa,0,"""","""","""",1,4/28/2021 22:11,198.254.125.219,Mozilla/5.0 (Macintosh; Intel Mac OS X 10.12; rv:88.0) Gecko/20100101 Firefox/88.0,Macintosh,Firefox,88,OS X,10.12
191,1,null,"""",html-keyboard-response,93,268313,0.0-93.0,"""","<div style=""font-size:60px;"">+</div>","""",256,fixation,Memorization,null,500,"""","""","""","""","""","""","""","""",1,4/28/2021 22:11,198.254.125.219,Mozilla/5.0 (Macintosh; Intel Mac OS X 10.12; rv:88.0) Gecko/20100101 Firefox/88.0,Macintosh,Firefox,88,OS X,10.12
191,1,2322,"""",html-keyboard-response,94,273321,0.0-94.0,"""","<img src='jspsych/CFDfaces/CFD-BM-039-029-N.jpg' height=""250px""></br><b>Daniel</b>","""",256,IntactFace,Memorization,70,5000,f,"""",CFD-BF-004-014-N.jpg,Rebecca,0,"""","""","""",1,4/28/2021 22:11,198.254.125.219,Mozilla/5.0 (Macintosh; Intel Mac OS X 10.12; rv:88.0) Gecko/20100101 Firefox/88.0,Macintosh,Firefox,88,OS X,10.12
191,1,null,"""",html-keyboard-response,95,273823,0.0-95.0,"""","<div style=""font-size:60px;"">+</div>","""",256,fixation,Memorization,null,500,"""","""","""","""","""","""","""","""",1,4/28/2021 22:11,198.254.125.219,Mozilla/5.0 (Macintosh; Intel Mac OS X 10.12; rv:88.0) Gecko/20100101 Firefox/88.0,Macintosh,Firefox,88,OS X,10.12
191,1,2438,"""",html-keyboard-response,96,278835,0.0-96.0,"""","<img src='jspsych/CFDfaces/CFD-AM-230-150-N.jpg' height=""250px""></br><b>Juan</b>","""",256,IntactFace,Memorization,78,5000,n,"""",CFD-AF-214-139-N.jpg,Heather,0,"""","""","""",1,4/28/2021 22:11,198.254.125.219,Mozilla/5.0 (Macintosh; Intel Mac OS X 10.12; rv:88.0) Gecko/20100101 Firefox/88.0,Macintosh,Firefox,88,OS X,10.12
191,1,null,"""",html-keyboard-response,97,279342,0.0-97.0,"""","<div style=""font-size:60px;"">+</div>","""",256,fixation,Memorization,null,500,"""","""","""","""","""","""","""","""",1,4/28/2021 22:11,198.254.125.219,Mozilla/5.0 (Macintosh; Intel Mac OS X 10.12; rv:88.0) Gecko/20100101 Firefox/88.0,Macintosh,Firefox,88,OS X,10.12
191,1,1365,"""",html-keyboard-response,98,284351,0.0-98.0,"""","<img src='jspsych/CFDfaces/CFD-WF-205-006-N.jpg' height=""250px""></br><b>Ashley</b>","""",256,IntactFace,Memorization,70,5000,f,"""",CFD-AM-212-050-N.jpg,Steven,0,"""","""","""",1,4/28/2021 22:11,198.254.125.219,Mozilla/5.0 (Macintosh; Intel Mac OS X 10.12; rv:88.0) Gecko/20100101 Firefox/88.0,Macintosh,Firefox,88,OS X,10.12
191,1,null,"""",html-keyboard-response,99,284857,0.0-99.0,"""","<div style=""font-size:60px;"">+</div>","""",256,fixation,Memorization,null,500,"""","""","""","""","""","""","""","""",1,4/28/2021 22:11,198.254.125.219,Mozilla/5.0 (Macintosh; Intel Mac OS X 10.12; rv:88.0) Gecko/20100101 Firefox/88.0,Macintosh,Firefox,88,OS X,10.12
191,1,2123,"""",html-keyboard-response,100,289865,0.0-100.0,"""","<img src='jspsych/CFDfaces/CFD-LF-232-199-N.jpg' height=""250px""></br><b>Emily</b>","""",256,IntactFace,Memorization,78,5000,n,"""",CFD-BF-025-002-N.jpg,Jasmine,0,"""","""","""",1,4/28/2021 22:11,198.254.125.219,Mozilla/5.0 (Macintosh; Intel Mac OS X 10.12; rv:88.0) Gecko/20100101 Firefox/88.0,Macintosh,Firefox,88,OS X,10.12
191,1,null,"""",html-keyboard-response,101,290372,0.0-101.0,"""","<div style=""font-size:60px;"">+</div>","""",256,fixation,Memorization,null,500,"""","""","""","""","""","""","""","""",1,4/28/2021 22:11,198.254.125.219,Mozilla/5.0 (Macintosh; Intel Mac OS X 10.12; rv:88.0) Gecko/20100101 Firefox/88.0,Macintosh,Firefox,88,OS X,10.12
191,1,1564,"""",html-keyboard-response,102,295381,0.0-102.0,"""","<img src='jspsych/CFDfaces/CFD-WM-232-070-N.jpg' height=""250px""></br><b>Brandon</b>","""",256,IntactFace,Memorization,70,5000,f,"""",CFD-BM-032-024-N.jpg,Luis,0,"""","""","""",1,4/28/2021 22:11,198.254.125.219,Mozilla/5.0 (Macintosh; Intel Mac OS X 10.12; rv:88.0) Gecko/20100101 Firefox/88.0,Macintosh,Firefox,88,OS X,10.12
191,1,null,"""",html-keyboard-response,103,295887,0.0-103.0,"""","<div style=""font-size:60px;"">+</div>","""",256,fixation,Memorization,null,500,"""","""","""","""","""","""","""","""",1,4/28/2021 22:11,198.254.125.219,Mozilla/5.0 (Macintosh; Intel Mac OS X 10.12; rv:88.0) Gecko/20100101 Firefox/88.0,Macintosh,Firefox,88,OS X,10.12
191,1,2876,"""",html-keyboard-response,104,300896,0.0-104.0,"""","<img src='jspsych/CFDfaces/CFD-AF-222-134-N.jpg' height=""250px""></br><b>Victoria</b>","""",256,IntactFace,Memorization,70,5000,f,"""",CFD-WF-204-038-N.jpg,Lindsey,0,"""","""","""",1,4/28/2021 22:11,198.254.125.219,Mozilla/5.0 (Macintosh; Intel Mac OS X 10.12; rv:88.0) Gecko/20100101 Firefox/88.0,Macintosh,Firefox,88,OS X,10.12
191,1,null,"""",html-keyboard-response,105,301402,0.0-105.0,"""","<div style=""font-size:60px;"">+</div>","""",256,fixation,Memorization,null,500,"""","""","""","""","""","""","""","""",1,4/28/2021 22:11,198.254.125.219,Mozilla/5.0 (Macintosh; Intel Mac OS X 10.12; rv:88.0) Gecko/20100101 Firefox/88.0,Macintosh,Firefox,88,OS X,10.12
191,1,1642,"""",html-keyboard-response,106,306412,0.0-106.0,"""","<img src='jspsych/CFDfaces/CFD-LM-252-076-N.jpg' height=""250px""></br><b>Nicholas</b>","""",256,IntactFace,Memorization,78,5000,n,"""",CFD-BM-043-071-N.jpg,Timothy,0,"""","""","""",1,4/28/2021 22:11,198.254.125.219,Mozilla/5.0 (Macintosh; Intel Mac OS X 10.12; rv:88.0) Gecko/20100101 Firefox/88.0,Macintosh,Firefox,88,OS X,10.12
191,1,null,"""",html-keyboard-response,107,306919,0.0-107.0,"""","<div style=""font-size:60px;"">+</div>","""",256,fixation,Memorization,null,500,"""","""","""","""","""","""","""","""",1,4/28/2021 22:11,198.254.125.219,Mozilla/5.0 (Macintosh; Intel Mac OS X 10.12; rv:88.0) Gecko/20100101 Firefox/88.0,Macintosh,Firefox,88,OS X,10.12
191,1,1936,"""",html-keyboard-response,108,311937,0.0-108.0,"""","<img src='jspsych/CFDfaces/CFD-LF-239-148-N.jpg' height=""250px""></br><b>Kimberly</b>","""",256,IntactFace,Memorization,78,5000,n,"""",CFD-AM-207-108-N.jpg,Cameron,0,"""","""","""",1,4/28/2021 22:11,198.254.125.219,Mozilla/5.0 (Macintosh; Intel Mac OS X 10.12; rv:88.0) Gecko/20100101 Firefox/88.0,Macintosh,Firefox,88,OS X,10.12
191,1,null,"""",html-keyboard-response,109,312445,0.0-109.0,"""","<div style=""font-size:60px;"">+</div>","""",256,fixation,Memorization,null,500,"""","""","""","""","""","""","""","""",1,4/28/2021 22:11,198.254.125.219,Mozilla/5.0 (Macintosh; Intel Mac OS X 10.12; rv:88.0) Gecko/20100101 Firefox/88.0,Macintosh,Firefox,88,OS X,10.12
191,1,1205,"""",html-keyboard-response,110,317455,0.0-110.0,"""","<img src='jspsych/CFDfaces/CFD-LF-230-203-N.jpg' height=""250px""></br><b>Brittany</b>","""",256,IntactFace,Memorization,70,5000,f,"""",CFD-WF-220-101-N.jpg,Jordan,0,"""","""","""",1,4/28/2021 22:11,198.254.125.219,Mozilla/5.0 (Macintosh; Intel Mac OS X 10.12; rv:88.0) Gecko/20100101 Firefox/88.0,Macintosh,Firefox,88,OS X,10.12
191,1,null,"""",html-keyboard-response,111,317962,0.0-111.0,"""","<div style=""font-size:60px;"">+</div>","""",256,fixation,Memorization,null,500,"""","""","""","""","""","""","""","""",1,4/28/2021 22:11,198.254.125.219,Mozilla/5.0 (Macintosh; Intel Mac OS X 10.12; rv:88.0) Gecko/20100101 Firefox/88.0,Macintosh,Firefox,88,OS X,10.12
191,1,2038,"""",html-keyboard-response,112,322975,0.0-112.0,"""","<img src='jspsych/CFDfaces/CFD-LF-213-079-N.jpg' height=""250px""></br><b>Michelle</b>","""",256,IntactFace,Memorization,78,5000,n,"""",CFD-WF-215-145-N.jpg,Amy,0,"""","""","""",1,4/28/2021 22:11,198.254.125.219,Mozilla/5.0 (Macintosh; Intel Mac OS X 10.12; rv:88.0) Gecko/20100101 Firefox/88.0,Macintosh,Firefox,88,OS X,10.12
191,1,null,"""",html-keyboard-response,113,323478,0.0-113.0,"""","<div style=""font-size:60px;"">+</div>","""",256,fixation,Memorization,null,500,"""","""","""","""","""","""","""","""",1,4/28/2021 22:11,198.254.125.219,Mozilla/5.0 (Macintosh; Intel Mac OS X 10.12; rv:88.0) Gecko/20100101 Firefox/88.0,Macintosh,Firefox,88,OS X,10.12
191,1,2932,"""",html-keyboard-response,114,328485,0.0-114.0,"""","<img src='jspsych/CFDfaces/CFD-WF-024-003-N.jpg' height=""250px""></br><b>Andrea</b>","""",256,IntactFace,Memorization,70,5000,f,"""",CFD-BM-208-065-N.jpg,Mark,0,"""","""","""",1,4/28/2021 22:11,198.254.125.219,Mozilla/5.0 (Macintosh; Intel Mac OS X 10.12; rv:88.0) Gecko/20100101 Firefox/88.0,Macintosh,Firefox,88,OS X,10.12
191,1,null,"""",html-keyboard-response,115,328992,0.0-115.0,"""","<div style=""font-size:60px;"">+</div>","""",256,fixation,Memorization,null,500,"""","""","""","""","""","""","""","""",1,4/28/2021 22:11,198.254.125.219,Mozilla/5.0 (Macintosh; Intel Mac OS X 10.12; rv:88.0) Gecko/20100101 Firefox/88.0,Macintosh,Firefox,88,OS X,10.12
191,1,1416,"""",html-keyboard-response,116,334004,0.0-116.0,"""","<img src='jspsych/CFDfaces/CFD-AM-213-056-N.jpg' height=""250px""></br><b>Ian</b>","""",256,IntactFace,Memorization,78,5000,n,"""",CFD-AF-241-141-N.jpg,Sara,0,"""","""","""",1,4/28/2021 22:11,198.254.125.219,Mozilla/5.0 (Macintosh; Intel Mac OS X 10.12; rv:88.0) Gecko/20100101 Firefox/88.0,Macintosh,Firefox,88,OS X,10.12
191,1,null,"""",html-keyboard-response,117,334507,0.0-117.0,"""","<div style=""font-size:60px;"">+</div>","""",256,fixation,Memorization,null,500,"""","""","""","""","""","""","""","""",1,4/28/2021 22:11,198.254.125.219,Mozilla/5.0 (Macintosh; Intel Mac OS X 10.12; rv:88.0) Gecko/20100101 Firefox/88.0,Macintosh,Firefox,88,OS X,10.12
191,1,1610,"""",html-keyboard-response,118,339516,0.0-118.0,"""","<img src='jspsych/CFDfaces/CFD-WM-009-002-N.jpg' height=""250px""></br><b>Jason</b>","""",256,IntactFace,Memorization,70,5000,f,"""",CFD-WM-006-002-N.jpg,Jeremy,0,"""","""","""",1,4/28/2021 22:11,198.254.125.219,Mozilla/5.0 (Macintosh; Intel Mac OS X 10.12; rv:88.0) Gecko/20100101 Firefox/88.0,Macintosh,Firefox,88,OS X,10.12
191,1,null,"""",html-keyboard-response,119,340018,0.0-119.0,"""","<div style=""font-size:60px;"">+</div>","""",256,fixation,Memorization,null,500,"""","""","""","""","""","""","""","""",1,4/28/2021 22:11,198.254.125.219,Mozilla/5.0 (Macintosh; Intel Mac OS X 10.12; rv:88.0) Gecko/20100101 Firefox/88.0,Macintosh,Firefox,88,OS X,10.12
191,1,2112,"""",html-keyboard-response,120,345025,0.0-120.0,"""","<img src='jspsych/CFDfaces/CFD-BM-022-022-N.jpg' height=""250px""></br><b>Jeffrey</b>","""",256,IntactFace,Memorization,78,5000,n,"""",CFD-AM-220-134-N.jpg,Kenneth,0,"""","""","""",1,4/28/2021 22:11,198.254.125.219,Mozilla/5.0 (Macintosh; Intel Mac OS X 10.12; rv:88.0) Gecko/20100101 Firefox/88.0,Macintosh,Firefox,88,OS X,10.12
191,1,null,"""",html-keyboard-response,121,345532,0.0-121.0,"""","<div style=""font-size:60px;"">+</div>","""",256,fixation,Memorization,null,500,"""","""","""","""","""","""","""","""",1,4/28/2021 22:11,198.254.125.219,Mozilla/5.0 (Macintosh; Intel Mac OS X 10.12; rv:88.0) Gecko/20100101 Firefox/88.0,Macintosh,Firefox,88,OS X,10.12
191,1,1382,"""",html-keyboard-response,122,350542,0.0-122.0,"""","<img src='jspsych/CFDfaces/CFD-BF-226-119-N.jpg' height=""250px""></br><b>Julie</b>","""",256,IntactFace,Memorization,78,5000,n,"""",CFD-BM-026-002-N.jpg,Jesse,0,"""","""","""",1,4/28/2021 22:11,198.254.125.219,Mozilla/5.0 (Macintosh; Intel Mac OS X 10.12; rv:88.0) Gecko/20100101 Firefox/88.0,Macintosh,Firefox,88,OS X,10.12
191,1,null,"""",html-keyboard-response,123,351048,0.0-123.0,"""","<div style=""font-size:60px;"">+</div>","""",256,fixation,Memorization,null,500,"""","""","""","""","""","""","""","""",1,4/28/2021 22:11,198.254.125.219,Mozilla/5.0 (Macintosh; Intel Mac OS X 10.12; rv:88.0) Gecko/20100101 Firefox/88.0,Macintosh,Firefox,88,OS X,10.12
191,1,1242,"""",html-keyboard-response,124,356056,0.0-124.0,"""","<img src='jspsych/CFDfaces/CFD-WM-237-052-N.jpg' height=""250px""></br><b>Eric</b>","""",256,IntactFace,Memorization,70,5000,f,"""",CFD-BF-221-223-N.jpg,Jenna,0,"""","""","""",1,4/28/2021 22:11,198.254.125.219,Mozilla/5.0 (Macintosh; Intel Mac OS X 10.12; rv:88.0) Gecko/20100101 Firefox/88.0,Macintosh,Firefox,88,OS X,10.12
191,1,null,"""",html-keyboard-response,125,356562,0.0-125.0,"""","<div style=""font-size:60px;"">+</div>","""",256,fixation,Memorization,null,500,"""","""","""","""","""","""","""","""",1,4/28/2021 22:11,198.254.125.219,Mozilla/5.0 (Macintosh; Intel Mac OS X 10.12; rv:88.0) Gecko/20100101 Firefox/88.0,Macintosh,Firefox,88,OS X,10.12
191,1,1729,"""",html-keyboard-response,126,361571,0.0-126.0,"""","<img src='jspsych/CFDfaces/CFD-WF-029-002-N.jpg' height=""250px""></br><b>Meghan</b>","""",256,IntactFace,Memorization,70,5000,f,"""",CFD-WF-006-002-N.jpg,Tiffany,0,"""","""","""",1,4/28/2021 22:11,198.254.125.219,Mozilla/5.0 (Macintosh; Intel Mac OS X 10.12; rv:88.0) Gecko/20100101 Firefox/88.0,Macintosh,Firefox,88,OS X,10.12
191,1,null,"""",html-keyboard-response,127,362078,0.0-127.0,"""","<div style=""font-size:60px;"">+</div>","""",256,fixation,Memorization,null,500,"""","""","""","""","""","""","""","""",1,4/28/2021 22:11,198.254.125.219,Mozilla/5.0 (Macintosh; Intel Mac OS X 10.12; rv:88.0) Gecko/20100101 Firefox/88.0,Macintosh,Firefox,88,OS X,10.12
191,1,2574,"""",html-keyboard-response,128,367086,0.0-128.0,"""","<img src='jspsych/CFDfaces/CFD-BF-008-001-N.jpg' height=""250px""></br><b>Stephanie</b>","""",256,IntactFace,Memorization,78,5000,n,"""",CFD-BM-011-016-N.jpg,Jacob,0,"""","""","""",1,4/28/2021 22:11,198.254.125.219,Mozilla/5.0 (Macintosh; Intel Mac OS X 10.12; rv:88.0) Gecko/20100101 Firefox/88.0,Macintosh,Firefox,88,OS X,10.12
191,1,null,"""",html-keyboard-response,129,367596,0.0-129.0,"""","<div style=""font-size:60px;"">+</div>","""",256,fixation,Memorization,null,500,"""","""","""","""","""","""","""","""",1,4/28/2021 22:11,198.254.125.219,Mozilla/5.0 (Macintosh; Intel Mac OS X 10.12; rv:88.0) Gecko/20100101 Firefox/88.0,Macintosh,Firefox,88,OS X,10.12
191,1,3844,"""",html-keyboard-response,130,372602,0.0-130.0,"""","<img src='jspsych/CFDfaces/CFD-LM-234-176-N.jpg' height=""250px""></br><b>Richard</b>","""",256,IntactFace,Memorization,78,5000,n,"""",CFD-BF-039-031-N.jpg,Angela,0,"""","""","""",1,4/28/2021 22:11,198.254.125.219,Mozilla/5.0 (Macintosh; Intel Mac OS X 10.12; rv:88.0) Gecko/20100101 Firefox/88.0,Macintosh,Firefox,88,OS X,10.12
191,1,null,"""",html-keyboard-response,131,373112,0.0-131.0,"""","<div style=""font-size:60px;"">+</div>","""",256,fixation,Memorization,null,500,"""","""","""","""","""","""","""","""",1,4/28/2021 22:11,198.254.125.219,Mozilla/5.0 (Macintosh; Intel Mac OS X 10.12; rv:88.0) Gecko/20100101 Firefox/88.0,Macintosh,Firefox,88,OS X,10.12
191,1,1397,"""",html-keyboard-response,132,378116,0.0-132.0,"""","<img src='jspsych/CFDfaces/CFD-WF-200-099-N.jpg' height=""250px""></br><b>Vanessa</b>","""",256,IntactFace,Memorization,78,5000,n,"""",CFD-WM-213-076-N.jpg,Sean,0,"""","""","""",1,4/28/2021 22:11,198.254.125.219,Mozilla/5.0 (Macintosh; Intel Mac OS X 10.12; rv:88.0) Gecko/20100101 Firefox/88.0,Macintosh,Firefox,88,OS X,10.12
191,1,null,"""",html-keyboard-response,133,378627,0.0-133.0,"""","<div style=""font-size:60px;"">+</div>","""",256,fixation,Memorization,null,500,"""","""","""","""","""","""","""","""",1,4/28/2021 22:11,198.254.125.219,Mozilla/5.0 (Macintosh; Intel Mac OS X 10.12; rv:88.0) Gecko/20100101 Firefox/88.0,Macintosh,Firefox,88,OS X,10.12
191,1,1019,"""",html-keyboard-response,134,383632,0.0-134.0,"""","<img src='jspsych/CFDfaces/CFD-WM-216-061-N.jpg' height=""250px""></br><b>Christian</b>","""",256,IntactFace,Memorization,70,5000,f,"""",CFD-BM-207-024-N.jpg,Dustin,0,"""","""","""",1,4/28/2021 22:11,198.254.125.219,Mozilla/5.0 (Macintosh; Intel Mac OS X 10.12; rv:88.0) Gecko/20100101 Firefox/88.0,Macintosh,Firefox,88,OS X,10.12
191,1,null,"""",html-keyboard-response,135,384141,0.0-135.0,"""","<div style=""font-size:60px;"">+</div>","""",256,fixation,Memorization,null,500,"""","""","""","""","""","""","""","""",1,4/28/2021 22:11,198.254.125.219,Mozilla/5.0 (Macintosh; Intel Mac OS X 10.12; rv:88.0) Gecko/20100101 Firefox/88.0,Macintosh,Firefox,88,OS X,10.12
191,1,1906,"""",html-keyboard-response,136,389145,0.0-136.0,"""","<img src='jspsych/CFDfaces/CFD-LM-219-295-N.jpg' height=""250px""></br><b>Peter</b>","""",256,IntactFace,Memorization,78,5000,n,"""",CFD-AM-243-212-N.jpg,Travis,0,"""","""","""",1,4/28/2021 22:11,198.254.125.219,Mozilla/5.0 (Macintosh; Intel Mac OS X 10.12; rv:88.0) Gecko/20100101 Firefox/88.0,Macintosh,Firefox,88,OS X,10.12
191,1,null,"""",html-keyboard-response,137,389657,0.0-137.0,"""","<div style=""font-size:60px;"">+</div>","""",256,fixation,Memorization,null,500,"""","""","""","""","""","""","""","""",1,4/28/2021 22:11,198.254.125.219,Mozilla/5.0 (Macintosh; Intel Mac OS X 10.12; rv:88.0) Gecko/20100101 Firefox/88.0,Macintosh,Firefox,88,OS X,10.12
191,1,2884,"""",html-keyboard-response,138,394661,0.0-138.0,"""","<img src='jspsych/CFDfaces/CFD-AM-237-154-N.jpg' height=""250px""></br><b>Robert</b>","""",256,IntactFace,Memorization,78,5000,n,"""",CFD-LM-221-216-N.jpg,Vincent,0,"""","""","""",1,4/28/2021 22:11,198.254.125.219,Mozilla/5.0 (Macintosh; Intel Mac OS X 10.12; rv:88.0) Gecko/20100101 Firefox/88.0,Macintosh,Firefox,88,OS X,10.12
191,1,null,"""",html-keyboard-response,139,395172,0.0-139.0,"""","<div style=""font-size:60px;"">+</div>","""",256,fixation,Memorization,null,500,"""","""","""","""","""","""","""","""",1,4/28/2021 22:11,198.254.125.219,Mozilla/5.0 (Macintosh; Intel Mac OS X 10.12; rv:88.0) Gecko/20100101 Firefox/88.0,Macintosh,Firefox,88,OS X,10.12
191,1,1252,"""",html-keyboard-response,140,400179,0.0-140.0,"""","<img src='jspsych/CFDfaces/CFD-AF-220-107-N.jpg' height=""250px""></br><b>Kayla</b>","""",256,IntactFace,Memorization,78,5000,n,"""",CFD-BF-005-001-N.jpg,Taylor,0,"""","""","""",1,4/28/2021 22:11,198.254.125.219,Mozilla/5.0 (Macintosh; Intel Mac OS X 10.12; rv:88.0) Gecko/20100101 Firefox/88.0,Macintosh,Firefox,88,OS X,10.12
191,1,null,"""",html-keyboard-response,141,400686,0.0-141.0,"""","<div style=""font-size:60px;"">+</div>","""",256,fixation,Memorization,null,500,"""","""","""","""","""","""","""","""",1,4/28/2021 22:11,198.254.125.219,Mozilla/5.0 (Macintosh; Intel Mac OS X 10.12; rv:88.0) Gecko/20100101 Firefox/88.0,Macintosh,Firefox,88,OS X,10.12
191,1,1865,"""",html-keyboard-response,142,405691,0.0-142.0,"""","<img src='jspsych/CFDfaces/CFD-BM-210-148-N.jpg' height=""250px""></br><b>Gregory</b>","""",256,IntactFace,Memorization,78,5000,n,"""",CFD-WF-217-085-N.jpg,Laura,0,"""","""","""",1,4/28/2021 22:11,198.254.125.219,Mozilla/5.0 (Macintosh; Intel Mac OS X 10.12; rv:88.0) Gecko/20100101 Firefox/88.0,Macintosh,Firefox,88,OS X,10.12
191,1,null,"""",html-keyboard-response,143,406202,0.0-143.0,"""","<div style=""font-size:60px;"">+</div>","""",256,fixation,Memorization,null,500,"""","""","""","""","""","""","""","""",1,4/28/2021 22:11,198.254.125.219,Mozilla/5.0 (Macintosh; Intel Mac OS X 10.12; rv:88.0) Gecko/20100101 Firefox/88.0,Macintosh,Firefox,88,OS X,10.12
191,1,3871,"""",html-keyboard-response,144,411206,0.0-144.0,"""","<img src='jspsych/CFDfaces/CFD-AM-228-214-N.jpg' height=""250px""></br><b>Brian</b>","""",256,IntactFace,Memorization,78,5000,n,"""",CFD-AM-221-184-N.jpg,Justin,0,"""","""","""",1,4/28/2021 22:11,198.254.125.219,Mozilla/5.0 (Macintosh; Intel Mac OS X 10.12; rv:88.0) Gecko/20100101 Firefox/88.0,Macintosh,Firefox,88,OS X,10.12
191,1,null,"""",html-keyboard-response,145,411717,0.0-145.0,"""","<div style=""font-size:60px;"">+</div>","""",256,fixation,Memorization,null,500,"""","""","""","""","""","""","""","""",1,4/28/2021 22:11,198.254.125.219,Mozilla/5.0 (Macintosh; Intel Mac OS X 10.12; rv:88.0) Gecko/20100101 Firefox/88.0,Macintosh,Firefox,88,OS X,10.12
191,1,2385,"""",html-keyboard-response,146,416721,0.0-146.0,"""","<img src='jspsych/CFDfaces/CFD-BF-009-002-N.jpg' height=""250px""></br><b>Christina</b>","""",256,IntactFace,Memorization,70,5000,f,"""",CFD-LM-225-130-N.jpg,Ryan,0,"""","""","""",1,4/28/2021 22:11,198.254.125.219,Mozilla/5.0 (Macintosh; Intel Mac OS X 10.12; rv:88.0) Gecko/20100101 Firefox/88.0,Macintosh,Firefox,88,OS X,10.12
191,1,null,"""",html-keyboard-response,147,417231,0.0-147.0,"""","<div style=""font-size:60px;"">+</div>","""",256,fixation,Memorization,null,500,"""","""","""","""","""","""","""","""",1,4/28/2021 22:11,198.254.125.219,Mozilla/5.0 (Macintosh; Intel Mac OS X 10.12; rv:88.0) Gecko/20100101 Firefox/88.0,Macintosh,Firefox,88,OS X,10.12
191,1,890,"""",html-keyboard-response,148,422235,0.0-148.0,"""","<img src='jspsych/CFDfaces/CFD-WF-038-021-N.jpg' height=""250px""></br><b>Elizabeth</b>","""",256,IntactFace,Memorization,70,5000,f,"""",CFD-LF-231-260-N.jpg,Lauren,0,"""","""","""",1,4/28/2021 22:11,198.254.125.219,Mozilla/5.0 (Macintosh; Intel Mac OS X 10.12; rv:88.0) Gecko/20100101 Firefox/88.0,Macintosh,Firefox,88,OS X,10.12
191,1,null,"""",html-keyboard-response,149,422746,0.0-149.0,"""","<div style=""font-size:60px;"">+</div>","""",256,fixation,Memorization,null,500,"""","""","""","""","""","""","""","""",1,4/28/2021 22:11,198.254.125.219,Mozilla/5.0 (Macintosh; Intel Mac OS X 10.12; rv:88.0) Gecko/20100101 Firefox/88.0,Macintosh,Firefox,88,OS X,10.12
191,1,1961,"""",html-keyboard-response,150,427750,0.0-150.0,"""","<img src='jspsych/CFDfaces/CFD-AF-226-251-N.jpg' height=""250px""></br><b>Samantha</b>","""",256,IntactFace,Memorization,78,5000,n,"""",CFD-LF-243-175-N.jpg,Whitney,0,"""","""","""",1,4/28/2021 22:11,198.254.125.219,Mozilla/5.0 (Macintosh; Intel Mac OS X 10.12; rv:88.0) Gecko/20100101 Firefox/88.0,Macintosh,Firefox,88,OS X,10.12
191,1,null,"""",html-keyboard-response,151,428262,0.0-151.0,"""","<div style=""font-size:60px;"">+</div>","""",256,fixation,Memorization,null,500,"""","""","""","""","""","""","""","""",1,4/28/2021 22:11,198.254.125.219,Mozilla/5.0 (Macintosh; Intel Mac OS X 10.12; rv:88.0) Gecko/20100101 Firefox/88.0,Macintosh,Firefox,88,OS X,10.12
191,1,3063,"""",html-keyboard-response,152,433266,0.0-152.0,"""","<img src='jspsych/CFDfaces/CFD-BF-001-025-N.jpg' height=""250px""></br><b>Amanda</b>","""",256,IntactFace,Memorization,78,5000,n,"""",CFD-WM-207-048-N.jpg,Austin,0,"""","""","""",1,4/28/2021 22:11,198.254.125.219,Mozilla/5.0 (Macintosh; Intel Mac OS X 10.12; rv:88.0) Gecko/20100101 Firefox/88.0,Macintosh,Firefox,88,OS X,10.12
191,1,null,"""",html-keyboard-response,153,433776,0.0-153.0,"""","<div style=""font-size:60px;"">+</div>","""",256,fixation,Memorization,null,500,"""","""","""","""","""","""","""","""",1,4/28/2021 22:11,198.254.125.219,Mozilla/5.0 (Macintosh; Intel Mac OS X 10.12; rv:88.0) Gecko/20100101 Firefox/88.0,Macintosh,Firefox,88,OS X,10.12
191,1,1974,"""",html-keyboard-response,154,435753,0.0-154.0,"""",Press Any Key to Begin Memory Test,"""",1,welcomeScreen,Break,32,"""","""","""","""","""","""","""","""","""",1,4/28/2021 22:11,198.254.125.219,Mozilla/5.0 (Macintosh; Intel Mac OS X 10.12; rv:88.0) Gecko/20100101 Firefox/88.0,Macintosh,Firefox,88,OS X,10.12
191,1,null,"""",html-keyboard-response,155,436760,0.0-155.0,"""","<div style=""font-size:60px;"">+</div>","""",256,ITI,Test,null,1000,"""","""","""","""","""","""","""","""",1,4/28/2021 22:11,198.254.125.219,Mozilla/5.0 (Macintosh; Intel Mac OS X 10.12; rv:88.0) Gecko/20100101 Firefox/88.0,Macintosh,Firefox,88,OS X,10.12
191,1,null,"""",image-keyboard-response,156,437017,0.0-156.0,"""",jspsych/scrambledDisgustFaces/scrambledAM03DIS.JPG,"""",256,forwardMask,Test,null,250,"""",d,"""","""","""","""","""","""",1,4/28/2021 22:11,198.254.125.219,Mozilla/5.0 (Macintosh; Intel Mac OS X 10.12; rv:88.0) Gecko/20100101 Firefox/88.0,Macintosh,Firefox,88,OS X,10.12
191,1,null,"""",image-keyboard-response,157,437039,0.0-157.0,"""",jspsych/disgustFaces/AM03DIS.JPG,"""",256,Cue,Test,null,16,"""","""","""","""","""","""","""","""",1,4/28/2021 22:11,198.254.125.219,Mozilla/5.0 (Macintosh; Intel Mac OS X 10.12; rv:88.0) Gecko/20100101 Firefox/88.0,Macintosh,Firefox,88,OS X,10.12
191,1,null,"""",image-keyboard-response,158,437145,0.0-158.0,"""",jspsych/neutralFaces/BM30NES.JPG,"""",256,backwardMask,Test,null,100,"""","""","""","""","""","""","""","""",1,4/28/2021 22:11,198.254.125.219,Mozilla/5.0 (Macintosh; Intel Mac OS X 10.12; rv:88.0) Gecko/20100101 Firefox/88.0,Macintosh,Firefox,88,OS X,10.12
191,1,null,"""",html-keyboard-response,159,438151,0.0-159.0,"""","<div style=""font-size:60px;"">+</div>","""",256,fixationBtwnNeutralMaskAndPrompt,Test,null,1000,"""","""","""","""","""","""","""","""",1,4/28/2021 22:11,198.254.125.219,Mozilla/5.0 (Macintosh; Intel Mac OS X 10.12; rv:88.0) Gecko/20100101 Firefox/88.0,Macintosh,Firefox,88,OS X,10.12
191,1,3452,"""",html-button-response,160,441604,0.0-160.0,"""","<img src='jspsych/CFDfaces/CFD-LF-232-199-N.jpg' height=""250px"">,</br><b>Andrea</b>",1,256,IntactOrRearranged,Test,"""","""","""","""",CFD-LF-206-078-N.jpg,Melissa,1,"""","""",1,1,4/28/2021 22:11,198.254.125.219,Mozilla/5.0 (Macintosh; Intel Mac OS X 10.12; rv:88.0) Gecko/20100101 Firefox/88.0,Macintosh,Firefox,88,OS X,10.12
191,1,3207,"""",html-slider-response,161,444821,0.0-161.0,"""","<img src='jspsych/CFDfaces/CFD-LF-232-199-N.jpg' height=""250px"">,</br><b>Andrea</b>","""",256,ConfidenceQuery,Test,"""","""","""","""",CFD-LF-206-078-N.jpg,Melissa,1,0,51,"""",1,4/28/2021 22:11,198.254.125.219,Mozilla/5.0 (Macintosh; Intel Mac OS X 10.12; rv:88.0) Gecko/20100101 Firefox/88.0,Macintosh,Firefox,88,OS X,10.12
191,1,null,"""",html-keyboard-response,162,445829,0.0-162.0,"""","<div style=""font-size:60px;"">+</div>","""",256,ITI,Test,null,1000,"""","""","""","""","""","""","""","""",1,4/28/2021 22:11,198.254.125.219,Mozilla/5.0 (Macintosh; Intel Mac OS X 10.12; rv:88.0) Gecko/20100101 Firefox/88.0,Macintosh,Firefox,88,OS X,10.12
191,1,null,"""",image-keyboard-response,163,446083,0.0-163.0,"""",jspsych/scrambledDisgustFaces/scrambledBF22DIS.JPG,"""",256,forwardMask,Test,null,250,"""",d,"""","""","""","""","""","""",1,4/28/2021 22:11,198.254.125.219,Mozilla/5.0 (Macintosh; Intel Mac OS X 10.12; rv:88.0) Gecko/20100101 Firefox/88.0,Macintosh,Firefox,88,OS X,10.12
191,1,null,"""",image-keyboard-response,164,446108,0.0-164.0,"""",jspsych/disgustFaces/BF22DIS.JPG,"""",256,Cue,Test,null,16,"""","""","""","""","""","""","""","""",1,4/28/2021 22:11,198.254.125.219,Mozilla/5.0 (Macintosh; Intel Mac OS X 10.12; rv:88.0) Gecko/20100101 Firefox/88.0,Macintosh,Firefox,88,OS X,10.12
191,1,null,"""",image-keyboard-response,165,446219,0.0-165.0,"""",jspsych/neutralFaces/BF02NES.JPG,"""",256,backwardMask,Test,null,100,"""","""","""","""","""","""","""","""",1,4/28/2021 22:11,198.254.125.219,Mozilla/5.0 (Macintosh; Intel Mac OS X 10.12; rv:88.0) Gecko/20100101 Firefox/88.0,Macintosh,Firefox,88,OS X,10.12
191,1,null,"""",html-keyboard-response,166,447224,0.0-166.0,"""","<div style=""font-size:60px;"">+</div>","""",256,fixationBtwnNeutralMaskAndPrompt,Test,null,1000,"""","""","""","""","""","""","""","""",1,4/28/2021 22:11,198.254.125.219,Mozilla/5.0 (Macintosh; Intel Mac OS X 10.12; rv:88.0) Gecko/20100101 Firefox/88.0,Macintosh,Firefox,88,OS X,10.12
191,1,2657,"""",html-button-response,167,449889,0.0-167.0,"""","<img src='jspsych/CFDfaces/CFD-WM-237-052-N.jpg' height=""250px"">,</br><b>Gregory</b>",0,256,IntactOrRearranged,Test,"""","""","""","""",CFD-BM-032-024-N.jpg,Luis,1,"""","""",0,1,4/28/2021 22:11,198.254.125.219,Mozilla/5.0 (Macintosh; Intel Mac OS X 10.12; rv:88.0) Gecko/20100101 Firefox/88.0,Macintosh,Firefox,88,OS X,10.12
191,1,2716,"""",html-slider-response,168,452609,0.0-168.0,"""","<img src='jspsych/CFDfaces/CFD-WM-237-052-N.jpg' height=""250px"">,</br><b>Gregory</b>","""",256,ConfidenceQuery,Test,"""","""","""","""",CFD-BM-032-024-N.jpg,Luis,1,0,70,"""",1,4/28/2021 22:11,198.254.125.219,Mozilla/5.0 (Macintosh; Intel Mac OS X 10.12; rv:88.0) Gecko/20100101 Firefox/88.0,Macintosh,Firefox,88,OS X,10.12
191,1,null,"""",html-keyboard-response,169,453618,0.0-169.0,"""","<div style=""font-size:60px;"">+</div>","""",256,ITI,Test,null,1000,"""","""","""","""","""","""","""","""",1,4/28/2021 22:11,198.254.125.219,Mozilla/5.0 (Macintosh; Intel Mac OS X 10.12; rv:88.0) Gecko/20100101 Firefox/88.0,Macintosh,Firefox,88,OS X,10.12
191,1,null,"""",image-keyboard-response,170,453874,0.0-170.0,"""",jspsych/scrambledDisgustFaces/scrambledBM08DIS.JPG,"""",256,forwardMask,Test,null,250,"""",d,"""","""","""","""","""","""",1,4/28/2021 22:11,198.254.125.219,Mozilla/5.0 (Macintosh; Intel Mac OS X 10.12; rv:88.0) Gecko/20100101 Firefox/88.0,Macintosh,Firefox,88,OS X,10.12
191,1,null,"""",image-keyboard-response,171,453898,0.0-171.0,"""",jspsych/disgustFaces/BM09DIS.JPG,"""",256,Cue,Test,null,16,"""","""","""","""","""","""","""","""",1,4/28/2021 22:11,198.254.125.219,Mozilla/5.0 (Macintosh; Intel Mac OS X 10.12; rv:88.0) Gecko/20100101 Firefox/88.0,Macintosh,Firefox,88,OS X,10.12
191,1,null,"""",image-keyboard-response,172,454007,0.0-172.0,"""",jspsych/neutralFaces/AM05NES.JPG,"""",256,backwardMask,Test,null,100,"""","""","""","""","""","""","""","""",1,4/28/2021 22:11,198.254.125.219,Mozilla/5.0 (Macintosh; Intel Mac OS X 10.12; rv:88.0) Gecko/20100101 Firefox/88.0,Macintosh,Firefox,88,OS X,10.12
191,1,null,"""",html-keyboard-response,173,455012,0.0-173.0,"""","<div style=""font-size:60px;"">+</div>","""",256,fixationBtwnNeutralMaskAndPrompt,Test,null,1000,"""","""","""","""","""","""","""","""",1,4/28/2021 22:11,198.254.125.219,Mozilla/5.0 (Macintosh; Intel Mac OS X 10.12; rv:88.0) Gecko/20100101 Firefox/88.0,Macintosh,Firefox,88,OS X,10.12
191,1,1988,"""",html-button-response,174,457001,0.0-174.0,"""","<img src='jspsych/CFDfaces/CFD-WM-232-070-N.jpg' height=""250px"">,</br><b>Brandon</b>",0,256,IntactOrRearranged,Test,"""","""","""","""",CFD-LM-221-216-N.jpg,Vincent,0,"""","""",0,1,4/28/2021 22:11,198.254.125.219,Mozilla/5.0 (Macintosh; Intel Mac OS X 10.12; rv:88.0) Gecko/20100101 Firefox/88.0,Macintosh,Firefox,88,OS X,10.12
191,1,2050,"""",html-slider-response,175,459055,0.0-175.0,"""","<img src='jspsych/CFDfaces/CFD-WM-232-070-N.jpg' height=""250px"">,</br><b>Brandon</b>","""",256,ConfidenceQuery,Test,"""","""","""","""",CFD-LM-221-216-N.jpg,Vincent,0,0,100,"""",1,4/28/2021 22:11,198.254.125.219,Mozilla/5.0 (Macintosh; Intel Mac OS X 10.12; rv:88.0) Gecko/20100101 Firefox/88.0,Macintosh,Firefox,88,OS X,10.12
191,1,null,"""",html-keyboard-response,176,460063,0.0-176.0,"""","<div style=""font-size:60px;"">+</div>","""",256,ITI,Test,null,1000,"""","""","""","""","""","""","""","""",1,4/28/2021 22:11,198.254.125.219,Mozilla/5.0 (Macintosh; Intel Mac OS X 10.12; rv:88.0) Gecko/20100101 Firefox/88.0,Macintosh,Firefox,88,OS X,10.12
191,1,null,"""",image-keyboard-response,177,460317,0.0-177.0,"""",jspsych/scrambledNeutralFaces/scrambledBF06NES.JPG,"""",256,forwardMask,Test,null,250,"""",n,"""","""","""","""","""","""",1,4/28/2021 22:11,198.254.125.219,Mozilla/5.0 (Macintosh; Intel Mac OS X 10.12; rv:88.0) Gecko/20100101 Firefox/88.0,Macintosh,Firefox,88,OS X,10.12
191,1,null,"""",image-keyboard-response,178,460341,0.0-178.0,"""",jspsych/neutralFaces/BF06NES.JPG,"""",256,Cue,Test,null,16,"""","""","""","""","""","""","""","""",1,4/28/2021 22:11,198.254.125.219,Mozilla/5.0 (Macintosh; Intel Mac OS X 10.12; rv:88.0) Gecko/20100101 Firefox/88.0,Macintosh,Firefox,88,OS X,10.12
191,1,null,"""",image-keyboard-response,179,460449,0.0-179.0,"""",jspsych/neutralFaces/BF22NES.JPG,"""",256,backwardMask,Test,null,100,"""","""","""","""","""","""","""","""",1,4/28/2021 22:11,198.254.125.219,Mozilla/5.0 (Macintosh; Intel Mac OS X 10.12; rv:88.0) Gecko/20100101 Firefox/88.0,Macintosh,Firefox,88,OS X,10.12
191,1,null,"""",html-keyboard-response,180,461456,0.0-180.0,"""","<div style=""font-size:60px;"">+</div>","""",256,fixationBtwnNeutralMaskAndPrompt,Test,null,1000,"""","""","""","""","""","""","""","""",1,4/28/2021 22:11,198.254.125.219,Mozilla/5.0 (Macintosh; Intel Mac OS X 10.12; rv:88.0) Gecko/20100101 Firefox/88.0,Macintosh,Firefox,88,OS X,10.12
191,1,4492,"""",html-button-response,181,465949,0.0-181.0,"""","<img src='jspsych/CFDfaces/CFD-AF-222-134-N.jpg' height=""250px"">,</br><b>Ashley</b>",0,256,IntactOrRearranged,Test,"""","""","""","""",CFD-BM-011-016-N.jpg,Jacob,1,"""","""",0,1,4/28/2021 22:11,198.254.125.219,Mozilla/5.0 (Macintosh; Intel Mac OS X 10.12; rv:88.0) Gecko/20100101 Firefox/88.0,Macintosh,Firefox,88,OS X,10.12
191,1,2070,"""",html-slider-response,182,468030,0.0-182.0,"""","<img src='jspsych/CFDfaces/CFD-AF-222-134-N.jpg' height=""250px"">,</br><b>Ashley</b>","""",256,ConfidenceQuery,Test,"""","""","""","""",CFD-BM-011-016-N.jpg,Jacob,1,0,48,"""",1,4/28/2021 22:11,198.254.125.219,Mozilla/5.0 (Macintosh; Intel Mac OS X 10.12; rv:88.0) Gecko/20100101 Firefox/88.0,Macintosh,Firefox,88,OS X,10.12
191,1,null,"""",html-keyboard-response,183,469033,0.0-183.0,"""","<div style=""font-size:60px;"">+</div>","""",256,ITI,Test,null,1000,"""","""","""","""","""","""","""","""",1,4/28/2021 22:11,198.254.125.219,Mozilla/5.0 (Macintosh; Intel Mac OS X 10.12; rv:88.0) Gecko/20100101 Firefox/88.0,Macintosh,Firefox,88,OS X,10.12
191,1,null,"""",image-keyboard-response,184,469292,0.0-184.0,"""",jspsych/scrambledDisgustFaces/scrambledAF30DIS.JPG,"""",256,forwardMask,Test,null,250,"""",d,"""","""","""","""","""","""",1,4/28/2021 22:11,198.254.125.219,Mozilla/5.0 (Macintosh; Intel Mac OS X 10.12; rv:88.0) Gecko/20100101 Firefox/88.0,Macintosh,Firefox,88,OS X,10.12
191,1,null,"""",image-keyboard-response,185,469315,0.0-185.0,"""",jspsych/disgustFaces/AF30DIS.JPG,"""",256,Cue,Test,null,16,"""","""","""","""","""","""","""","""",1,4/28/2021 22:11,198.254.125.219,Mozilla/5.0 (Macintosh; Intel Mac OS X 10.12; rv:88.0) Gecko/20100101 Firefox/88.0,Macintosh,Firefox,88,OS X,10.12
191,1,null,"""",image-keyboard-response,186,469426,0.0-186.0,"""",jspsych/neutralFaces/BF31NES.JPG,"""",256,backwardMask,Test,null,100,"""","""","""","""","""","""","""","""",1,4/28/2021 22:11,198.254.125.219,Mozilla/5.0 (Macintosh; Intel Mac OS X 10.12; rv:88.0) Gecko/20100101 Firefox/88.0,Macintosh,Firefox,88,OS X,10.12
191,1,null,"""",html-keyboard-response,187,470430,0.0-187.0,"""","<div style=""font-size:60px;"">+</div>","""",256,fixationBtwnNeutralMaskAndPrompt,Test,null,1000,"""","""","""","""","""","""","""","""",1,4/28/2021 22:11,198.254.125.219,Mozilla/5.0 (Macintosh; Intel Mac OS X 10.12; rv:88.0) Gecko/20100101 Firefox/88.0,Macintosh,Firefox,88,OS X,10.12
191,1,3862,"""",html-button-response,188,474294,0.0-188.0,"""","<img src='jspsych/CFDfaces/CFD-WM-009-002-N.jpg' height=""250px"">,</br><b>Jason</b>",1,256,IntactOrRearranged,Test,"""","""","""","""",CFD-BM-026-002-N.jpg,Kenneth,0,"""","""",1,1,4/28/2021 22:11,198.254.125.219,Mozilla/5.0 (Macintosh; Intel Mac OS X 10.12; rv:88.0) Gecko/20100101 Firefox/88.0,Macintosh,Firefox,88,OS X,10.12
191,1,2294,"""",html-slider-response,189,476598,0.0-189.0,"""","<img src='jspsych/CFDfaces/CFD-WM-009-002-N.jpg' height=""250px"">,</br><b>Jason</b>","""",256,ConfidenceQuery,Test,"""","""","""","""",CFD-BM-026-002-N.jpg,Kenneth,0,0,46,"""",1,4/28/2021 22:11,198.254.125.219,Mozilla/5.0 (Macintosh; Intel Mac OS X 10.12; rv:88.0) Gecko/20100101 Firefox/88.0,Macintosh,Firefox,88,OS X,10.12
191,1,null,"""",html-keyboard-response,190,477603,0.0-190.0,"""","<div style=""font-size:60px;"">+</div>","""",256,ITI,Test,null,1000,"""","""","""","""","""","""","""","""",1,4/28/2021 22:11,198.254.125.219,Mozilla/5.0 (Macintosh; Intel Mac OS X 10.12; rv:88.0) Gecko/20100101 Firefox/88.0,Macintosh,Firefox,88,OS X,10.12
191,1,null,"""",image-keyboard-response,191,477861,0.0-191.0,"""",jspsych/scrambledDisgustFaces/scrambledAF34DIS.JPG,"""",256,forwardMask,Test,null,250,"""",d,"""","""","""","""","""","""",1,4/28/2021 22:11,198.254.125.219,Mozilla/5.0 (Macintosh; Intel Mac OS X 10.12; rv:88.0) Gecko/20100101 Firefox/88.0,Macintosh,Firefox,88,OS X,10.12
191,1,null,"""",image-keyboard-response,192,477884,0.0-192.0,"""",jspsych/disgustFaces/AF34DIS.JPG,"""",256,Cue,Test,null,16,"""","""","""","""","""","""","""","""",1,4/28/2021 22:11,198.254.125.219,Mozilla/5.0 (Macintosh; Intel Mac OS X 10.12; rv:88.0) Gecko/20100101 Firefox/88.0,Macintosh,Firefox,88,OS X,10.12
191,1,null,"""",image-keyboard-response,193,477990,0.0-193.0,"""",jspsych/neutralFaces/AF26NES.JPG,"""",256,backwardMask,Test,null,100,"""","""","""","""","""","""","""","""",1,4/28/2021 22:11,198.254.125.219,Mozilla/5.0 (Macintosh; Intel Mac OS X 10.12; rv:88.0) Gecko/20100101 Firefox/88.0,Macintosh,Firefox,88,OS X,10.12
191,1,null,"""",html-keyboard-response,194,478996,0.0-194.0,"""","<div style=""font-size:60px;"">+</div>","""",256,fixationBtwnNeutralMaskAndPrompt,Test,null,1000,"""","""","""","""","""","""","""","""",1,4/28/2021 22:11,198.254.125.219,Mozilla/5.0 (Macintosh; Intel Mac OS X 10.12; rv:88.0) Gecko/20100101 Firefox/88.0,Macintosh,Firefox,88,OS X,10.12
191,1,1999,"""",html-button-response,195,480997,0.0-195.0,"""","<img src='jspsych/CFDfaces/CFD-WF-029-002-N.jpg' height=""250px"">,</br><b>Meghan</b>",0,256,IntactOrRearranged,Test,"""","""","""","""",CFD-AM-220-134-N.jpg,Jeremy,0,"""","""",0,1,4/28/2021 22:11,198.254.125.219,Mozilla/5.0 (Macintosh; Intel Mac OS X 10.12; rv:88.0) Gecko/20100101 Firefox/88.0,Macintosh,Firefox,88,OS X,10.12
191,1,2281,"""",html-slider-response,196,483288,0.0-196.0,"""","<img src='jspsych/CFDfaces/CFD-WF-029-002-N.jpg' height=""250px"">,</br><b>Meghan</b>","""",256,ConfidenceQuery,Test,"""","""","""","""",CFD-AM-220-134-N.jpg,Jeremy,0,0,100,"""",1,4/28/2021 22:11,198.254.125.219,Mozilla/5.0 (Macintosh; Intel Mac OS X 10.12; rv:88.0) Gecko/20100101 Firefox/88.0,Macintosh,Firefox,88,OS X,10.12
191,1,null,"""",html-keyboard-response,197,484294,0.0-197.0,"""","<div style=""font-size:60px;"">+</div>","""",256,ITI,Test,null,1000,"""","""","""","""","""","""","""","""",1,4/28/2021 22:11,198.254.125.219,Mozilla/5.0 (Macintosh; Intel Mac OS X 10.12; rv:88.0) Gecko/20100101 Firefox/88.0,Macintosh,Firefox,88,OS X,10.12
191,1,null,"""",image-keyboard-response,198,484549,0.0-198.0,"""",jspsych/scrambledDisgustFaces/scrambledBF15DIS.JPG,"""",256,forwardMask,Test,null,250,"""",d,"""","""","""","""","""","""",1,4/28/2021 22:11,198.254.125.219,Mozilla/5.0 (Macintosh; Intel Mac OS X 10.12; rv:88.0) Gecko/20100101 Firefox/88.0,Macintosh,Firefox,88,OS X,10.12
191,1,null,"""",image-keyboard-response,199,484573,0.0-199.0,"""",jspsych/disgustFaces/BF15DIS.JPG,"""",256,Cue,Test,null,16,"""","""","""","""","""","""","""","""",1,4/28/2021 22:11,198.254.125.219,Mozilla/5.0 (Macintosh; Intel Mac OS X 10.12; rv:88.0) Gecko/20100101 Firefox/88.0,Macintosh,Firefox,88,OS X,10.12
191,1,null,"""",image-keyboard-response,200,484683,0.0-200.0,"""",jspsych/neutralFaces/AF28NES.JPG,"""",256,backwardMask,Test,null,100,"""","""","""","""","""","""","""","""",1,4/28/2021 22:11,198.254.125.219,Mozilla/5.0 (Macintosh; Intel Mac OS X 10.12; rv:88.0) Gecko/20100101 Firefox/88.0,Macintosh,Firefox,88,OS X,10.12
191,1,null,"""",html-keyboard-response,201,485687,0.0-201.0,"""","<div style=""font-size:60px;"">+</div>","""",256,fixationBtwnNeutralMaskAndPrompt,Test,null,1000,"""","""","""","""","""","""","""","""",1,4/28/2021 22:11,198.254.125.219,Mozilla/5.0 (Macintosh; Intel Mac OS X 10.12; rv:88.0) Gecko/20100101 Firefox/88.0,Macintosh,Firefox,88,OS X,10.12
191,1,3310,"""",html-button-response,202,488999,0.0-202.0,"""","<img src='jspsych/CFDfaces/CFD-BM-001-014-N.jpg' height=""250px"">,</br><b>Jeffrey</b>",1,256,IntactOrRearranged,Test,"""","""","""","""",CFD-WF-215-145-N.jpg,Amy,1,"""","""",1,1,4/28/2021 22:11,198.254.125.219,Mozilla/5.0 (Macintosh; Intel Mac OS X 10.12; rv:88.0) Gecko/20100101 Firefox/88.0,Macintosh,Firefox,88,OS X,10.12
191,1,3195,"""",html-slider-response,203,492204,0.0-203.0,"""","<img src='jspsych/CFDfaces/CFD-BM-001-014-N.jpg' height=""250px"">,</br><b>Jeffrey</b>","""",256,ConfidenceQuery,Test,"""","""","""","""",CFD-WF-215-145-N.jpg,Amy,1,0,78,"""",1,4/28/2021 22:11,198.254.125.219,Mozilla/5.0 (Macintosh; Intel Mac OS X 10.12; rv:88.0) Gecko/20100101 Firefox/88.0,Macintosh,Firefox,88,OS X,10.12
191,1,null,"""",html-keyboard-response,204,493210,0.0-204.0,"""","<div style=""font-size:60px;"">+</div>","""",256,ITI,Test,null,1000,"""","""","""","""","""","""","""","""",1,4/28/2021 22:11,198.254.125.219,Mozilla/5.0 (Macintosh; Intel Mac OS X 10.12; rv:88.0) Gecko/20100101 Firefox/88.0,Macintosh,Firefox,88,OS X,10.12
191,1,null,"""",image-keyboard-response,205,493465,0.0-205.0,"""",jspsych/scrambledDisgustFaces/scrambledAM27DIS.JPG,"""",256,forwardMask,Test,null,250,"""",d,"""","""","""","""","""","""",1,4/28/2021 22:11,198.254.125.219,Mozilla/5.0 (Macintosh; Intel Mac OS X 10.12; rv:88.0) Gecko/20100101 Firefox/88.0,Macintosh,Firefox,88,OS X,10.12
191,1,null,"""",image-keyboard-response,206,493487,0.0-206.0,"""",jspsych/disgustFaces/AM27DIS.JPG,"""",256,Cue,Test,null,16,"""","""","""","""","""","""","""","""",1,4/28/2021 22:11,198.254.125.219,Mozilla/5.0 (Macintosh; Intel Mac OS X 10.12; rv:88.0) Gecko/20100101 Firefox/88.0,Macintosh,Firefox,88,OS X,10.12
191,1,null,"""",image-keyboard-response,207,493597,0.0-207.0,"""",jspsych/neutralFaces/AM10NES.JPG,"""",256,backwardMask,Test,null,100,"""","""","""","""","""","""","""","""",1,4/28/2021 22:11,198.254.125.219,Mozilla/5.0 (Macintosh; Intel Mac OS X 10.12; rv:88.0) Gecko/20100101 Firefox/88.0,Macintosh,Firefox,88,OS X,10.12
191,1,null,"""",html-keyboard-response,208,494603,0.0-208.0,"""","<div style=""font-size:60px;"">+</div>","""",256,fixationBtwnNeutralMaskAndPrompt,Test,null,1000,"""","""","""","""","""","""","""","""",1,4/28/2021 22:11,198.254.125.219,Mozilla/5.0 (Macintosh; Intel Mac OS X 10.12; rv:88.0) Gecko/20100101 Firefox/88.0,Macintosh,Firefox,88,OS X,10.12
191,1,2371,"""",html-button-response,209,496983,0.0-209.0,"""","<img src='jspsych/CFDfaces/CFD-AM-237-154-N.jpg' height=""250px"">,</br><b>Robert</b>",0,256,IntactOrRearranged,Test,"""","""","""","""",CFD-WM-213-076-N.jpg,Sean,0,"""","""",0,1,4/28/2021 22:11,198.254.125.219,Mozilla/5.0 (Macintosh; Intel Mac OS X 10.12; rv:88.0) Gecko/20100101 Firefox/88.0,Macintosh,Firefox,88,OS X,10.12
191,1,2750,"""",html-slider-response,210,499738,0.0-210.0,"""","<img src='jspsych/CFDfaces/CFD-AM-237-154-N.jpg' height=""250px"">,</br><b>Robert</b>","""",256,ConfidenceQuery,Test,"""","""","""","""",CFD-WM-213-076-N.jpg,Sean,0,0,79,"""",1,4/28/2021 22:11,198.254.125.219,Mozilla/5.0 (Macintosh; Intel Mac OS X 10.12; rv:88.0) Gecko/20100101 Firefox/88.0,Macintosh,Firefox,88,OS X,10.12
191,1,null,"""",html-keyboard-response,211,500745,0.0-211.0,"""","<div style=""font-size:60px;"">+</div>","""",256,ITI,Test,null,1000,"""","""","""","""","""","""","""","""",1,4/28/2021 22:11,198.254.125.219,Mozilla/5.0 (Macintosh; Intel Mac OS X 10.12; rv:88.0) Gecko/20100101 Firefox/88.0,Macintosh,Firefox,88,OS X,10.12
191,1,null,"""",image-keyboard-response,212,501009,0.0-212.0,"""",jspsych/scrambledNeutralFaces/scrambledAF24NES.JPG,"""",256,forwardMask,Test,null,250,"""",n,"""","""","""","""","""","""",1,4/28/2021 22:11,198.254.125.219,Mozilla/5.0 (Macintosh; Intel Mac OS X 10.12; rv:88.0) Gecko/20100101 Firefox/88.0,Macintosh,Firefox,88,OS X,10.12
191,1,null,"""",image-keyboard-response,213,501033,0.0-213.0,"""",jspsych/neutralFaces/AF24NES.JPG,"""",256,Cue,Test,null,16,"""","""","""","""","""","""","""","""",1,4/28/2021 22:11,198.254.125.219,Mozilla/5.0 (Macintosh; Intel Mac OS X 10.12; rv:88.0) Gecko/20100101 Firefox/88.0,Macintosh,Firefox,88,OS X,10.12
191,1,null,"""",image-keyboard-response,214,501139,0.0-214.0,"""",jspsych/neutralFaces/AF14NES.JPG,"""",256,backwardMask,Test,null,100,"""","""","""","""","""","""","""","""",1,4/28/2021 22:11,198.254.125.219,Mozilla/5.0 (Macintosh; Intel Mac OS X 10.12; rv:88.0) Gecko/20100101 Firefox/88.0,Macintosh,Firefox,88,OS X,10.12
191,1,null,"""",html-keyboard-response,215,502143,0.0-215.0,"""","<div style=""font-size:60px;"">+</div>","""",256,fixationBtwnNeutralMaskAndPrompt,Test,null,1000,"""","""","""","""","""","""","""","""",1,4/28/2021 22:11,198.254.125.219,Mozilla/5.0 (Macintosh; Intel Mac OS X 10.12; rv:88.0) Gecko/20100101 Firefox/88.0,Macintosh,Firefox,88,OS X,10.12
191,1,1940,"""",html-button-response,216,504084,0.0-216.0,"""","<img src='jspsych/CFDfaces/CFD-WF-200-099-N.jpg' height=""250px"">,</br><b>Vanessa</b>",0,256,IntactOrRearranged,Test,"""","""","""","""",CFD-WF-217-085-N.jpg,Sara,0,"""","""",0,1,4/28/2021 22:11,198.254.125.219,Mozilla/5.0 (Macintosh; Intel Mac OS X 10.12; rv:88.0) Gecko/20100101 Firefox/88.0,Macintosh,Firefox,88,OS X,10.12
191,1,1724,"""",html-slider-response,217,505812,0.0-217.0,"""","<img src='jspsych/CFDfaces/CFD-WF-200-099-N.jpg' height=""250px"">,</br><b>Vanessa</b>","""",256,ConfidenceQuery,Test,"""","""","""","""",CFD-WF-217-085-N.jpg,Sara,0,0,100,"""",1,4/28/2021 22:11,198.254.125.219,Mozilla/5.0 (Macintosh; Intel Mac OS X 10.12; rv:88.0) Gecko/20100101 Firefox/88.0,Macintosh,Firefox,88,OS X,10.12
191,1,null,"""",html-keyboard-response,218,506818,0.0-218.0,"""","<div style=""font-size:60px;"">+</div>","""",256,ITI,Test,null,1000,"""","""","""","""","""","""","""","""",1,4/28/2021 22:11,198.254.125.219,Mozilla/5.0 (Macintosh; Intel Mac OS X 10.12; rv:88.0) Gecko/20100101 Firefox/88.0,Macintosh,Firefox,88,OS X,10.12
191,1,null,"""",image-keyboard-response,219,507083,0.0-219.0,"""",jspsych/scrambledNeutralFaces/scrambledBM22NES.JPG,"""",256,forwardMask,Test,null,250,"""",n,"""","""","""","""","""","""",1,4/28/2021 22:11,198.254.125.219,Mozilla/5.0 (Macintosh; Intel Mac OS X 10.12; rv:88.0) Gecko/20100101 Firefox/88.0,Macintosh,Firefox,88,OS X,10.12
191,1,null,"""",image-keyboard-response,220,507109,0.0-220.0,"""",jspsych/neutralFaces/BM22NES.JPG,"""",256,Cue,Test,null,16,"""","""","""","""","""","""","""","""",1,4/28/2021 22:11,198.254.125.219,Mozilla/5.0 (Macintosh; Intel Mac OS X 10.12; rv:88.0) Gecko/20100101 Firefox/88.0,Macintosh,Firefox,88,OS X,10.12
191,1,null,"""",image-keyboard-response,221,507218,0.0-221.0,"""",jspsych/neutralFaces/AM27NES.JPG,"""",256,backwardMask,Test,null,100,"""","""","""","""","""","""","""","""",1,4/28/2021 22:11,198.254.125.219,Mozilla/5.0 (Macintosh; Intel Mac OS X 10.12; rv:88.0) Gecko/20100101 Firefox/88.0,Macintosh,Firefox,88,OS X,10.12
191,1,null,"""",html-keyboard-response,222,508222,0.0-222.0,"""","<div style=""font-size:60px;"">+</div>","""",256,fixationBtwnNeutralMaskAndPrompt,Test,null,1000,"""","""","""","""","""","""","""","""",1,4/28/2021 22:11,198.254.125.219,Mozilla/5.0 (Macintosh; Intel Mac OS X 10.12; rv:88.0) Gecko/20100101 Firefox/88.0,Macintosh,Firefox,88,OS X,10.12
191,1,2091,"""",html-button-response,223,510314,0.0-223.0,"""","<img src='jspsych/CFDfaces/CFD-WM-216-061-N.jpg' height=""250px"">,</br><b>Joshua</b>",0,256,IntactOrRearranged,Test,"""","""","""","""",CFD-BM-208-065-N.jpg,Jesse,1,"""","""",0,1,4/28/2021 22:11,198.254.125.219,Mozilla/5.0 (Macintosh; Intel Mac OS X 10.12; rv:88.0) Gecko/20100101 Firefox/88.0,Macintosh,Firefox,88,OS X,10.12
191,1,1992,"""",html-slider-response,224,512310,0.0-224.0,"""","<img src='jspsych/CFDfaces/CFD-WM-216-061-N.jpg' height=""250px"">,</br><b>Joshua</b>","""",256,ConfidenceQuery,Test,"""","""","""","""",CFD-BM-208-065-N.jpg,Jesse,1,0,89,"""",1,4/28/2021 22:11,198.254.125.219,Mozilla/5.0 (Macintosh; Intel Mac OS X 10.12; rv:88.0) Gecko/20100101 Firefox/88.0,Macintosh,Firefox,88,OS X,10.12
191,1,null,"""",html-keyboard-response,225,513322,0.0-225.0,"""","<div style=""font-size:60px;"">+</div>","""",256,ITI,Test,null,1000,"""","""","""","""","""","""","""","""",1,4/28/2021 22:11,198.254.125.219,Mozilla/5.0 (Macintosh; Intel Mac OS X 10.12; rv:88.0) Gecko/20100101 Firefox/88.0,Macintosh,Firefox,88,OS X,10.12
191,1,null,"""",image-keyboard-response,226,513581,0.0-226.0,"""",jspsych/scrambledNeutralFaces/scrambledBF24NES.JPG,"""",256,forwardMask,Test,null,250,"""",n,"""","""","""","""","""","""",1,4/28/2021 22:11,198.254.125.219,Mozilla/5.0 (Macintosh; Intel Mac OS X 10.12; rv:88.0) Gecko/20100101 Firefox/88.0,Macintosh,Firefox,88,OS X,10.12
191,1,null,"""",image-keyboard-response,227,513602,0.0-227.0,"""",jspsych/neutralFaces/BF24NES.JPG,"""",256,Cue,Test,null,16,"""","""","""","""","""","""","""","""",1,4/28/2021 22:11,198.254.125.219,Mozilla/5.0 (Macintosh; Intel Mac OS X 10.12; rv:88.0) Gecko/20100101 Firefox/88.0,Macintosh,Firefox,88,OS X,10.12
191,1,null,"""",image-keyboard-response,228,513713,0.0-228.0,"""",jspsych/neutralFaces/AF31NES.JPG,"""",256,backwardMask,Test,null,100,"""","""","""","""","""","""","""","""",1,4/28/2021 22:11,198.254.125.219,Mozilla/5.0 (Macintosh; Intel Mac OS X 10.12; rv:88.0) Gecko/20100101 Firefox/88.0,Macintosh,Firefox,88,OS X,10.12
191,1,null,"""",html-keyboard-response,229,514719,0.0-229.0,"""","<div style=""font-size:60px;"">+</div>","""",256,fixationBtwnNeutralMaskAndPrompt,Test,null,1000,"""","""","""","""","""","""","""","""",1,4/28/2021 22:11,198.254.125.219,Mozilla/5.0 (Macintosh; Intel Mac OS X 10.12; rv:88.0) Gecko/20100101 Firefox/88.0,Macintosh,Firefox,88,OS X,10.12
191,1,2567,"""",html-button-response,230,517288,0.0-230.0,"""","<img src='jspsych/CFDfaces/CFD-WF-205-006-N.jpg' height=""250px"">,</br><b>Elizabeth</b>",0,256,IntactOrRearranged,Test,"""","""","""","""",CFD-AM-212-050-N.jpg,Steven,1,"""","""",0,1,4/28/2021 22:11,198.254.125.219,Mozilla/5.0 (Macintosh; Intel Mac OS X 10.12; rv:88.0) Gecko/20100101 Firefox/88.0,Macintosh,Firefox,88,OS X,10.12
191,1,3096,"""",html-slider-response,231,520388,0.0-231.0,"""","<img src='jspsych/CFDfaces/CFD-WF-205-006-N.jpg' height=""250px"">,</br><b>Elizabeth</b>","""",256,ConfidenceQuery,Test,"""","""","""","""",CFD-AM-212-050-N.jpg,Steven,1,0,66,"""",1,4/28/2021 22:11,198.254.125.219,Mozilla/5.0 (Macintosh; Intel Mac OS X 10.12; rv:88.0) Gecko/20100101 Firefox/88.0,Macintosh,Firefox,88,OS X,10.12
191,1,null,"""",html-keyboard-response,232,521400,0.0-232.0,"""","<div style=""font-size:60px;"">+</div>","""",256,ITI,Test,null,1000,"""","""","""","""","""","""","""","""",1,4/28/2021 22:11,198.254.125.219,Mozilla/5.0 (Macintosh; Intel Mac OS X 10.12; rv:88.0) Gecko/20100101 Firefox/88.0,Macintosh,Firefox,88,OS X,10.12
191,1,null,"""",image-keyboard-response,233,521655,0.0-233.0,"""",jspsych/scrambledNeutralFaces/scrambledAM10NES.JPG,"""",256,forwardMask,Test,null,250,"""",n,"""","""","""","""","""","""",1,4/28/2021 22:11,198.254.125.219,Mozilla/5.0 (Macintosh; Intel Mac OS X 10.12; rv:88.0) Gecko/20100101 Firefox/88.0,Macintosh,Firefox,88,OS X,10.12
191,1,null,"""",image-keyboard-response,234,521679,0.0-234.0,"""",jspsych/neutralFaces/AM10NES.JPG,"""",256,Cue,Test,null,16,"""","""","""","""","""","""","""","""",1,4/28/2021 22:11,198.254.125.219,Mozilla/5.0 (Macintosh; Intel Mac OS X 10.12; rv:88.0) Gecko/20100101 Firefox/88.0,Macintosh,Firefox,88,OS X,10.12
191,1,null,"""",image-keyboard-response,235,521789,0.0-235.0,"""",jspsych/neutralFaces/BM25NES.JPG,"""",256,backwardMask,Test,null,100,"""","""","""","""","""","""","""","""",1,4/28/2021 22:11,198.254.125.219,Mozilla/5.0 (Macintosh; Intel Mac OS X 10.12; rv:88.0) Gecko/20100101 Firefox/88.0,Macintosh,Firefox,88,OS X,10.12
191,1,null,"""",html-keyboard-response,236,522793,0.0-236.0,"""","<div style=""font-size:60px;"">+</div>","""",256,fixationBtwnNeutralMaskAndPrompt,Test,null,1000,"""","""","""","""","""","""","""","""",1,4/28/2021 22:11,198.254.125.219,Mozilla/5.0 (Macintosh; Intel Mac OS X 10.12; rv:88.0) Gecko/20100101 Firefox/88.0,Macintosh,Firefox,88,OS X,10.12
191,1,null,"""",html-button-response,237,527798,0.0-237.0,"""","<img src='jspsych/CFDfaces/CFD-BM-210-148-N.jpg' height=""250px"">,</br><b>Daniel</b>",null,256,IntactOrRearranged,Test,"""","""","""","""",CFD-BF-201-080-N.jpg,Laura,1,"""","""","""",1,4/28/2021 22:11,198.254.125.219,Mozilla/5.0 (Macintosh; Intel Mac OS X 10.12; rv:88.0) Gecko/20100101 Firefox/88.0,Macintosh,Firefox,88,OS X,10.12
191,1,null,"""",html-slider-response,238,532814,0.0-238.0,"""","<img src='jspsych/CFDfaces/CFD-BM-210-148-N.jpg' height=""250px"">,</br><b>Daniel</b>","""",256,ConfidenceQuery,Test,"""","""","""","""",CFD-BF-201-080-N.jpg,Laura,1,0,null,"""",1,4/28/2021 22:11,198.254.125.219,Mozilla/5.0 (Macintosh; Intel Mac OS X 10.12; rv:88.0) Gecko/20100101 Firefox/88.0,Macintosh,Firefox,88,OS X,10.12
191,1,null,"""",html-keyboard-response,239,533820,0.0-239.0,"""","<div style=""font-size:60px;"">+</div>","""",256,ITI,Test,null,1000,"""","""","""","""","""","""","""","""",1,4/28/2021 22:11,198.254.125.219,Mozilla/5.0 (Macintosh; Intel Mac OS X 10.12; rv:88.0) Gecko/20100101 Firefox/88.0,Macintosh,Firefox,88,OS X,10.12
191,1,null,"""",image-keyboard-response,240,534088,0.0-240.0,"""",jspsych/scrambledNeutralFaces/scrambledAM02NES.JPG,"""",256,forwardMask,Test,null,250,"""",n,"""","""","""","""","""","""",1,4/28/2021 22:11,198.254.125.219,Mozilla/5.0 (Macintosh; Intel Mac OS X 10.12; rv:88.0) Gecko/20100101 Firefox/88.0,Macintosh,Firefox,88,OS X,10.12
191,1,null,"""",image-keyboard-response,241,534110,0.0-241.0,"""",jspsych/neutralFaces/AM02NES.JPG,"""",256,Cue,Test,null,16,"""","""","""","""","""","""","""","""",1,4/28/2021 22:11,198.254.125.219,Mozilla/5.0 (Macintosh; Intel Mac OS X 10.12; rv:88.0) Gecko/20100101 Firefox/88.0,Macintosh,Firefox,88,OS X,10.12
191,1,null,"""",image-keyboard-response,242,534218,0.0-242.0,"""",jspsych/neutralFaces/BM03NES.JPG,"""",256,backwardMask,Test,null,100,"""","""","""","""","""","""","""","""",1,4/28/2021 22:11,198.254.125.219,Mozilla/5.0 (Macintosh; Intel Mac OS X 10.12; rv:88.0) Gecko/20100101 Firefox/88.0,Macintosh,Firefox,88,OS X,10.12
191,1,null,"""",html-keyboard-response,243,535224,0.0-243.0,"""","<div style=""font-size:60px;"">+</div>","""",256,fixationBtwnNeutralMaskAndPrompt,Test,null,1000,"""","""","""","""","""","""","""","""",1,4/28/2021 22:11,198.254.125.219,Mozilla/5.0 (Macintosh; Intel Mac OS X 10.12; rv:88.0) Gecko/20100101 Firefox/88.0,Macintosh,Firefox,88,OS X,10.12
191,1,2199,"""",html-button-response,244,537424,0.0-244.0,"""","<img src='jspsych/CFDfaces/CFD-BM-022-022-N.jpg' height=""250px"">,</br><b>Richard</b>",0,256,IntactOrRearranged,Test,"""","""","""","""",CFD-AM-243-212-N.jpg,Travis,1,"""","""",0,1,4/28/2021 22:11,198.254.125.219,Mozilla/5.0 (Macintosh; Intel Mac OS X 10.12; rv:88.0) Gecko/20100101 Firefox/88.0,Macintosh,Firefox,88,OS X,10.12
191,1,2408,"""",html-slider-response,245,539835,0.0-245.0,"""","<img src='jspsych/CFDfaces/CFD-BM-022-022-N.jpg' height=""250px"">,</br><b>Richard</b>","""",256,ConfidenceQuery,Test,"""","""","""","""",CFD-AM-243-212-N.jpg,Travis,1,0,27,"""",1,4/28/2021 22:11,198.254.125.219,Mozilla/5.0 (Macintosh; Intel Mac OS X 10.12; rv:88.0) Gecko/20100101 Firefox/88.0,Macintosh,Firefox,88,OS X,10.12
191,1,null,"""",html-keyboard-response,246,540849,0.0-246.0,"""","<div style=""font-size:60px;"">+</div>","""",256,ITI,Test,null,1000,"""","""","""","""","""","""","""","""",1,4/28/2021 22:11,198.254.125.219,Mozilla/5.0 (Macintosh; Intel Mac OS X 10.12; rv:88.0) Gecko/20100101 Firefox/88.0,Macintosh,Firefox,88,OS X,10.12
191,1,null,"""",image-keyboard-response,247,541110,0.0-247.0,"""",jspsych/scrambledNeutralFaces/scrambledAF21NES.JPG,"""",256,forwardMask,Test,null,250,"""",n,"""","""","""","""","""","""",1,4/28/2021 22:11,198.254.125.219,Mozilla/5.0 (Macintosh; Intel Mac OS X 10.12; rv:88.0) Gecko/20100101 Firefox/88.0,Macintosh,Firefox,88,OS X,10.12
191,1,null,"""",image-keyboard-response,248,541133,0.0-248.0,"""",jspsych/neutralFaces/AF21NES.JPG,"""",256,Cue,Test,null,16,"""","""","""","""","""","""","""","""",1,4/28/2021 22:11,198.254.125.219,Mozilla/5.0 (Macintosh; Intel Mac OS X 10.12; rv:88.0) Gecko/20100101 Firefox/88.0,Macintosh,Firefox,88,OS X,10.12
191,1,null,"""",image-keyboard-response,249,541242,0.0-249.0,"""",jspsych/neutralFaces/AF25NES.JPG,"""",256,backwardMask,Test,null,100,"""","""","""","""","""","""","""","""",1,4/28/2021 22:11,198.254.125.219,Mozilla/5.0 (Macintosh; Intel Mac OS X 10.12; rv:88.0) Gecko/20100101 Firefox/88.0,Macintosh,Firefox,88,OS X,10.12
191,1,null,"""",html-keyboard-response,250,542249,0.0-250.0,"""","<div style=""font-size:60px;"">+</div>","""",256,fixationBtwnNeutralMaskAndPrompt,Test,null,1000,"""","""","""","""","""","""","""","""",1,4/28/2021 22:11,198.254.125.219,Mozilla/5.0 (Macintosh; Intel Mac OS X 10.12; rv:88.0) Gecko/20100101 Firefox/88.0,Macintosh,Firefox,88,OS X,10.12
191,1,2889,"""",html-button-response,251,545139,0.0-251.0,"""","<img src='jspsych/CFDfaces/CFD-LF-213-079-N.jpg' height=""250px"">,</br><b>Michelle</b>",1,256,IntactOrRearranged,Test,"""","""","""","""",CFD-WF-006-002-N.jpg,Tiffany,0,"""","""",1,1,4/28/2021 22:11,198.254.125.219,Mozilla/5.0 (Macintosh; Intel Mac OS X 10.12; rv:88.0) Gecko/20100101 Firefox/88.0,Macintosh,Firefox,88,OS X,10.12
191,1,1668,"""",html-slider-response,252,546817,0.0-252.0,"""","<img src='jspsych/CFDfaces/CFD-LF-213-079-N.jpg' height=""250px"">,</br><b>Michelle</b>","""",256,ConfidenceQuery,Test,"""","""","""","""",CFD-WF-006-002-N.jpg,Tiffany,0,0,48,"""",1,4/28/2021 22:11,198.254.125.219,Mozilla/5.0 (Macintosh; Intel Mac OS X 10.12; rv:88.0) Gecko/20100101 Firefox/88.0,Macintosh,Firefox,88,OS X,10.12
191,1,null,"""",html-keyboard-response,253,547824,0.0-253.0,"""","<div style=""font-size:60px;"">+</div>","""",256,ITI,Test,null,1000,"""","""","""","""","""","""","""","""",1,4/28/2021 22:11,198.254.125.219,Mozilla/5.0 (Macintosh; Intel Mac OS X 10.12; rv:88.0) Gecko/20100101 Firefox/88.0,Macintosh,Firefox,88,OS X,10.12
191,1,null,"""",image-keyboard-response,254,548083,0.0-254.0,"""",jspsych/scrambledNeutralFaces/scrambledBM27NES.JPG,"""",256,forwardMask,Test,null,250,"""",n,"""","""","""","""","""","""",1,4/28/2021 22:11,198.254.125.219,Mozilla/5.0 (Macintosh; Intel Mac OS X 10.12; rv:88.0) Gecko/20100101 Firefox/88.0,Macintosh,Firefox,88,OS X,10.12
191,1,null,"""",image-keyboard-response,255,548105,0.0-255.0,"""",jspsych/neutralFaces/BM27NES.JPG,"""",256,Cue,Test,null,16,"""","""","""","""","""","""","""","""",1,4/28/2021 22:11,198.254.125.219,Mozilla/5.0 (Macintosh; Intel Mac OS X 10.12; rv:88.0) Gecko/20100101 Firefox/88.0,Macintosh,Firefox,88,OS X,10.12
191,1,null,"""",image-keyboard-response,256,548213,0.0-256.0,"""",jspsych/neutralFaces/BM01NES.JPG,"""",256,backwardMask,Test,null,100,"""","""","""","""","""","""","""","""",1,4/28/2021 22:11,198.254.125.219,Mozilla/5.0 (Macintosh; Intel Mac OS X 10.12; rv:88.0) Gecko/20100101 Firefox/88.0,Macintosh,Firefox,88,OS X,10.12
191,1,null,"""",html-keyboard-response,257,549218,0.0-257.0,"""","<div style=""font-size:60px;"">+</div>","""",256,fixationBtwnNeutralMaskAndPrompt,Test,null,1000,"""","""","""","""","""","""","""","""",1,4/28/2021 22:11,198.254.125.219,Mozilla/5.0 (Macintosh; Intel Mac OS X 10.12; rv:88.0) Gecko/20100101 Firefox/88.0,Macintosh,Firefox,88,OS X,10.12
191,1,3727,"""",html-button-response,258,552948,0.0-258.0,"""","<img src='jspsych/CFDfaces/CFD-LM-209-111-N.jpg' height=""250px"">,</br><b>Eric</b>",0,256,IntactOrRearranged,Test,"""","""","""","""",CFD-BF-221-223-N.jpg,Jasmine,1,"""","""",0,1,4/28/2021 22:11,198.254.125.219,Mozilla/5.0 (Macintosh; Intel Mac OS X 10.12; rv:88.0) Gecko/20100101 Firefox/88.0,Macintosh,Firefox,88,OS X,10.12
191,1,2890,"""",html-slider-response,259,555847,0.0-259.0,"""","<img src='jspsych/CFDfaces/CFD-LM-209-111-N.jpg' height=""250px"">,</br><b>Eric</b>","""",256,ConfidenceQuery,Test,"""","""","""","""",CFD-BF-221-223-N.jpg,Jasmine,1,0,41,"""",1,4/28/2021 22:11,198.254.125.219,Mozilla/5.0 (Macintosh; Intel Mac OS X 10.12; rv:88.0) Gecko/20100101 Firefox/88.0,Macintosh,Firefox,88,OS X,10.12
191,1,null,"""",html-keyboard-response,260,556854,0.0-260.0,"""","<div style=""font-size:60px;"">+</div>","""",256,ITI,Test,null,1000,"""","""","""","""","""","""","""","""",1,4/28/2021 22:11,198.254.125.219,Mozilla/5.0 (Macintosh; Intel Mac OS X 10.12; rv:88.0) Gecko/20100101 Firefox/88.0,Macintosh,Firefox,88,OS X,10.12
191,1,null,"""",image-keyboard-response,261,557110,0.0-261.0,"""",jspsych/scrambledNeutralFaces/scrambledBF01NES.JPG,"""",256,forwardMask,Test,null,250,"""",n,"""","""","""","""","""","""",1,4/28/2021 22:11,198.254.125.219,Mozilla/5.0 (Macintosh; Intel Mac OS X 10.12; rv:88.0) Gecko/20100101 Firefox/88.0,Macintosh,Firefox,88,OS X,10.12
191,1,null,"""",image-keyboard-response,262,557135,0.0-262.0,"""",jspsych/neutralFaces/BF01NES.JPG,"""",256,Cue,Test,null,16,"""","""","""","""","""","""","""","""",1,4/28/2021 22:11,198.254.125.219,Mozilla/5.0 (Macintosh; Intel Mac OS X 10.12; rv:88.0) Gecko/20100101 Firefox/88.0,Macintosh,Firefox,88,OS X,10.12
191,1,null,"""",image-keyboard-response,263,557241,0.0-263.0,"""",jspsych/neutralFaces/BF21NES.JPG,"""",256,backwardMask,Test,null,100,"""","""","""","""","""","""","""","""",1,4/28/2021 22:11,198.254.125.219,Mozilla/5.0 (Macintosh; Intel Mac OS X 10.12; rv:88.0) Gecko/20100101 Firefox/88.0,Macintosh,Firefox,88,OS X,10.12
191,1,null,"""",html-keyboard-response,264,558243,0.0-264.0,"""","<div style=""font-size:60px;"">+</div>","""",256,fixationBtwnNeutralMaskAndPrompt,Test,null,1000,"""","""","""","""","""","""","""","""",1,4/28/2021 22:11,198.254.125.219,Mozilla/5.0 (Macintosh; Intel Mac OS X 10.12; rv:88.0) Gecko/20100101 Firefox/88.0,Macintosh,Firefox,88,OS X,10.12
191,1,2498,"""",html-button-response,265,560742,0.0-265.0,"""","<img src='jspsych/CFDfaces/CFD-BF-008-001-N.jpg' height=""250px"">,</br><b>Stephanie</b>",0,256,IntactOrRearranged,Test,"""","""","""","""",CFD-LF-243-175-N.jpg,Whitney,0,"""","""",0,1,4/28/2021 22:11,198.254.125.219,Mozilla/5.0 (Macintosh; Intel Mac OS X 10.12; rv:88.0) Gecko/20100101 Firefox/88.0,Macintosh,Firefox,88,OS X,10.12
191,1,3200,"""",html-slider-response,266,563953,0.0-266.0,"""","<img src='jspsych/CFDfaces/CFD-BF-008-001-N.jpg' height=""250px"">,</br><b>Stephanie</b>","""",256,ConfidenceQuery,Test,"""","""","""","""",CFD-LF-243-175-N.jpg,Whitney,0,0,50,"""",1,4/28/2021 22:11,198.254.125.219,Mozilla/5.0 (Macintosh; Intel Mac OS X 10.12; rv:88.0) Gecko/20100101 Firefox/88.0,Macintosh,Firefox,88,OS X,10.12
191,1,null,"""",html-keyboard-response,267,564959,0.0-267.0,"""","<div style=""font-size:60px;"">+</div>","""",256,ITI,Test,null,1000,"""","""","""","""","""","""","""","""",1,4/28/2021 22:11,198.254.125.219,Mozilla/5.0 (Macintosh; Intel Mac OS X 10.12; rv:88.0) Gecko/20100101 Firefox/88.0,Macintosh,Firefox,88,OS X,10.12
191,1,null,"""",image-keyboard-response,268,565217,0.0-268.0,"""",jspsych/scrambledNeutralFaces/scrambledBM13NES.JPG,"""",256,forwardMask,Test,null,250,"""",n,"""","""","""","""","""","""",1,4/28/2021 22:11,198.254.125.219,Mozilla/5.0 (Macintosh; Intel Mac OS X 10.12; rv:88.0) Gecko/20100101 Firefox/88.0,Macintosh,Firefox,88,OS X,10.12
191,1,null,"""",image-keyboard-response,269,565240,0.0-269.0,"""",jspsych/neutralFaces/BM13NES.JPG,"""",256,Cue,Test,null,16,"""","""","""","""","""","""","""","""",1,4/28/2021 22:11,198.254.125.219,Mozilla/5.0 (Macintosh; Intel Mac OS X 10.12; rv:88.0) Gecko/20100101 Firefox/88.0,Macintosh,Firefox,88,OS X,10.12
191,1,null,"""",image-keyboard-response,270,565345,0.0-270.0,"""",jspsych/neutralFaces/AM05NES.JPG,"""",256,backwardMask,Test,null,100,"""","""","""","""","""","""","""","""",1,4/28/2021 22:11,198.254.125.219,Mozilla/5.0 (Macintosh; Intel Mac OS X 10.12; rv:88.0) Gecko/20100101 Firefox/88.0,Macintosh,Firefox,88,OS X,10.12
191,1,null,"""",html-keyboard-response,271,566352,0.0-271.0,"""","<div style=""font-size:60px;"">+</div>","""",256,fixationBtwnNeutralMaskAndPrompt,Test,null,1000,"""","""","""","""","""","""","""","""",1,4/28/2021 22:11,198.254.125.219,Mozilla/5.0 (Macintosh; Intel Mac OS X 10.12; rv:88.0) Gecko/20100101 Firefox/88.0,Macintosh,Firefox,88,OS X,10.12
191,1,2348,"""",html-button-response,272,568710,0.0-272.0,"""","<img src='jspsych/CFDfaces/CFD-AM-230-150-N.jpg' height=""250px"">,</br><b>Juan</b>",0,256,IntactOrRearranged,Test,"""","""","""","""",CFD-LF-231-260-N.jpg,Jordan,0,"""","""",0,1,4/28/2021 22:11,198.254.125.219,Mozilla/5.0 (Macintosh; Intel Mac OS X 10.12; rv:88.0) Gecko/20100101 Firefox/88.0,Macintosh,Firefox,88,OS X,10.12
191,1,2114,"""",html-slider-response,273,570828,0.0-273.0,"""","<img src='jspsych/CFDfaces/CFD-AM-230-150-N.jpg' height=""250px"">,</br><b>Juan</b>","""",256,ConfidenceQuery,Test,"""","""","""","""",CFD-LF-231-260-N.jpg,Jordan,0,0,100,"""",1,4/28/2021 22:11,198.254.125.219,Mozilla/5.0 (Macintosh; Intel Mac OS X 10.12; rv:88.0) Gecko/20100101 Firefox/88.0,Macintosh,Firefox,88,OS X,10.12
191,1,null,"""",html-keyboard-response,274,571834,0.0-274.0,"""","<div style=""font-size:60px;"">+</div>","""",256,ITI,Test,null,1000,"""","""","""","""","""","""","""","""",1,4/28/2021 22:11,198.254.125.219,Mozilla/5.0 (Macintosh; Intel Mac OS X 10.12; rv:88.0) Gecko/20100101 Firefox/88.0,Macintosh,Firefox,88,OS X,10.12
191,1,null,"""",image-keyboard-response,275,572098,0.0-275.0,"""",jspsych/scrambledDisgustFaces/scrambledAF19DIS.JPG,"""",256,forwardMask,Test,null,250,"""",d,"""","""","""","""","""","""",1,4/28/2021 22:11,198.254.125.219,Mozilla/5.0 (Macintosh; Intel Mac OS X 10.12; rv:88.0) Gecko/20100101 Firefox/88.0,Macintosh,Firefox,88,OS X,10.12
191,1,null,"""",image-keyboard-response,276,572122,0.0-276.0,"""",jspsych/disgustFaces/AF19DIS.JPG,"""",256,Cue,Test,null,16,"""","""","""","""","""","""","""","""",1,4/28/2021 22:11,198.254.125.219,Mozilla/5.0 (Macintosh; Intel Mac OS X 10.12; rv:88.0) Gecko/20100101 Firefox/88.0,Macintosh,Firefox,88,OS X,10.12
191,1,null,"""",image-keyboard-response,277,572230,0.0-277.0,"""",jspsych/neutralFaces/BF13NES.JPG,"""",256,backwardMask,Test,null,100,"""","""","""","""","""","""","""","""",1,4/28/2021 22:11,198.254.125.219,Mozilla/5.0 (Macintosh; Intel Mac OS X 10.12; rv:88.0) Gecko/20100101 Firefox/88.0,Macintosh,Firefox,88,OS X,10.12
191,1,null,"""",html-keyboard-response,278,573234,0.0-278.0,"""","<div style=""font-size:60px;"">+</div>","""",256,fixationBtwnNeutralMaskAndPrompt,Test,null,1000,"""","""","""","""","""","""","""","""",1,4/28/2021 22:11,198.254.125.219,Mozilla/5.0 (Macintosh; Intel Mac OS X 10.12; rv:88.0) Gecko/20100101 Firefox/88.0,Macintosh,Firefox,88,OS X,10.12
191,1,2468,"""",html-button-response,279,575703,0.0-279.0,"""","<img src='jspsych/CFDfaces/CFD-BF-226-119-N.jpg' height=""250px"">,</br><b>Julie</b>",0,256,IntactOrRearranged,Test,"""","""","""","""",CFD-BM-043-071-N.jpg,Austin,0,"""","""",0,1,4/28/2021 22:11,198.254.125.219,Mozilla/5.0 (Macintosh; Intel Mac OS X 10.12; rv:88.0) Gecko/20100101 Firefox/88.0,Macintosh,Firefox,88,OS X,10.12
191,1,2099,"""",html-slider-response,280,577806,0.0-280.0,"""","<img src='jspsych/CFDfaces/CFD-BF-226-119-N.jpg' height=""250px"">,</br><b>Julie</b>","""",256,ConfidenceQuery,Test,"""","""","""","""",CFD-BM-043-071-N.jpg,Austin,0,0,43,"""",1,4/28/2021 22:11,198.254.125.219,Mozilla/5.0 (Macintosh; Intel Mac OS X 10.12; rv:88.0) Gecko/20100101 Firefox/88.0,Macintosh,Firefox,88,OS X,10.12
191,1,null,"""",html-keyboard-response,281,578821,0.0-281.0,"""","<div style=""font-size:60px;"">+</div>","""",256,ITI,Test,null,1000,"""","""","""","""","""","""","""","""",1,4/28/2021 22:11,198.254.125.219,Mozilla/5.0 (Macintosh; Intel Mac OS X 10.12; rv:88.0) Gecko/20100101 Firefox/88.0,Macintosh,Firefox,88,OS X,10.12
191,1,null,"""",image-keyboard-response,282,579080,0.0-282.0,"""",jspsych/scrambledNeutralFaces/scrambledBF33NES.JPG,"""",256,forwardMask,Test,null,250,"""",n,"""","""","""","""","""","""",1,4/28/2021 22:11,198.254.125.219,Mozilla/5.0 (Macintosh; Intel Mac OS X 10.12; rv:88.0) Gecko/20100101 Firefox/88.0,Macintosh,Firefox,88,OS X,10.12
