run_id,condition,rt,responses,trial_type,trial_index,time_elapsed,internal_node_id,question_order,stimulus,button_pressed,iTrial,Phase,ExperimentPhase,key_press,StimulusDurationSetting,CharacterResponse,correctResponse,Face,Name,rearranged,didSubjectEnterRearranged,slider_start,response,Block,recorded_at,ip,user_agent,device,browser,browser_version,platform,platform_version
117,1,7247,"{""Q0"":""A1Q0TDPZW53SSJ""}",survey-text,0,7247,0.0-0.0,"""","""","""","""","""","""","""","""","""","""","""","""","""","""","""","""","""",4/24/2021 13:13,93.40.224.54,Mozilla/5.0 (Windows NT 10.0; Win64; x64; rv:88.0) Gecko/20100101 Firefox/88.0,,Firefox,88,Windows,10
117,1,3115,"{""Q0"":""26""}",survey-text,1,10366,0.0-1.0,"""","""","""","""","""","""","""","""","""","""","""","""","""","""","""","""","""",4/24/2021 13:13,93.40.224.54,Mozilla/5.0 (Windows NT 10.0; Win64; x64; rv:88.0) Gecko/20100101 Firefox/88.0,,Firefox,88,Windows,10
117,1,5090,"{""Q0"":""male"",""Q1"":""Not Hispanic/Latino"",""Q2"":""White or Caucasian""}",survey-multi-choice,2,15459,0.0-2.0,"[0,1,2]","""","""","""","""","""","""","""","""","""","""","""","""","""","""","""","""",4/24/2021 13:13,93.40.224.54,Mozilla/5.0 (Windows NT 10.0; Win64; x64; rv:88.0) Gecko/20100101 Firefox/88.0,,Firefox,88,Windows,10
117,1,908,"""",image-button-response,3,16379,0.0-3.0,"""",directionsMemoryAssociation1.JPG,0,1,IntroDirections1,break,"""","""","""","""","""","""","""","""","""","""","""",4/24/2021 13:13,93.40.224.54,Mozilla/5.0 (Windows NT 10.0; Win64; x64; rv:88.0) Gecko/20100101 Firefox/88.0,,Firefox,88,Windows,10
117,1,582,"""",image-button-response,4,16968,0.0-4.0,"""",directionsMemoryAssociation2.JPG,0,1,IntroDirections2,break,"""","""","""","""","""","""","""","""","""","""","""",4/24/2021 13:13,93.40.224.54,Mozilla/5.0 (Windows NT 10.0; Win64; x64; rv:88.0) Gecko/20100101 Firefox/88.0,,Firefox,88,Windows,10
117,1,2543,"""",html-keyboard-response,5,21984,0.0-5.0,"""","<img src='jspsych/CFDfaces/CFD-AM-234-355-N.jpg' height=""250px"">,</br><b>Carlos</b>","""",1,IntactFace,Practice,78,5000,n,"""","""","""","""","""","""","""","""",4/24/2021 13:13,93.40.224.54,Mozilla/5.0 (Windows NT 10.0; Win64; x64; rv:88.0) Gecko/20100101 Firefox/88.0,,Firefox,88,Windows,10
117,1,null,"""",html-keyboard-response,6,22498,0.0-6.0,"""","<div style=""font-size:60px;"">+</div>","""",1,ITI,Practice,null,1000,"""","""","""","""","""","""","""","""","""",4/24/2021 13:13,93.40.224.54,Mozilla/5.0 (Windows NT 10.0; Win64; x64; rv:88.0) Gecko/20100101 Firefox/88.0,,Firefox,88,Windows,10
117,1,1094,"""",html-keyboard-response,7,27509,0.0-7.0,"""","<img src='jspsych/CFDfaces/CFD-LM-213-061-N.jpg' height=""250px"">,</br><b>Marcus</b>","""",2,IntactFace,Practice,70,5000,f,"""","""","""","""","""","""","""","""",4/24/2021 13:13,93.40.224.54,Mozilla/5.0 (Windows NT 10.0; Win64; x64; rv:88.0) Gecko/20100101 Firefox/88.0,,Firefox,88,Windows,10
117,1,null,"""",html-keyboard-response,8,28020,0.0-8.0,"""","<div style=""font-size:60px;"">+</div>","""",2,ITI,Practice,null,1000,"""","""","""","""","""","""","""","""","""",4/24/2021 13:13,93.40.224.54,Mozilla/5.0 (Windows NT 10.0; Win64; x64; rv:88.0) Gecko/20100101 Firefox/88.0,,Firefox,88,Windows,10
117,1,1161,"""",html-keyboard-response,9,33024,0.0-9.0,"""","<img src='jspsych/CFDfaces/CFD-BF-005-001-N.jpg' height=""250px"">,</br><b>Cassandra</b>","""",3,IntactFace,Practice,70,5000,f,"""","""","""","""","""","""","""","""",4/24/2021 13:13,93.40.224.54,Mozilla/5.0 (Windows NT 10.0; Win64; x64; rv:88.0) Gecko/20100101 Firefox/88.0,,Firefox,88,Windows,10
117,1,null,"""",html-keyboard-response,10,33533,0.0-10.0,"""","<div style=""font-size:60px;"">+</div>","""",3,ITI,Practice,null,1000,"""","""","""","""","""","""","""","""","""",4/24/2021 13:13,93.40.224.54,Mozilla/5.0 (Windows NT 10.0; Win64; x64; rv:88.0) Gecko/20100101 Firefox/88.0,,Firefox,88,Windows,10
117,1,1900,"""",html-keyboard-response,11,38536,0.0-11.0,"""","<img src='jspsych/CFDfaces/CFD-BM-011-016-N.jpg' height=""250px"">,</br><b>Samuel</b>","""",4,IntactFace,Practice,70,5000,f,"""","""","""","""","""","""","""","""",4/24/2021 13:13,93.40.224.54,Mozilla/5.0 (Windows NT 10.0; Win64; x64; rv:88.0) Gecko/20100101 Firefox/88.0,,Firefox,88,Windows,10
117,1,null,"""",html-keyboard-response,12,39047,0.0-12.0,"""","<div style=""font-size:60px;"">+</div>","""",4,ITI,Practice,null,1000,"""","""","""","""","""","""","""","""","""",4/24/2021 13:13,93.40.224.54,Mozilla/5.0 (Windows NT 10.0; Win64; x64; rv:88.0) Gecko/20100101 Firefox/88.0,,Firefox,88,Windows,10
117,1,1424,"""",html-keyboard-response,13,44055,0.0-13.0,"""","<img src='jspsych/CFDfaces/CFD-AF-230-193-N.jpg' height=""250px"">,</br><b>Shannon</b>","""",5,IntactFace,Practice,78,5000,n,"""","""","""","""","""","""","""","""",4/24/2021 13:13,93.40.224.54,Mozilla/5.0 (Windows NT 10.0; Win64; x64; rv:88.0) Gecko/20100101 Firefox/88.0,,Firefox,88,Windows,10
117,1,null,"""",html-keyboard-response,14,44568,0.0-14.0,"""","<div style=""font-size:60px;"">+</div>","""",5,ITI,Practice,null,1000,"""","""","""","""","""","""","""","""","""",4/24/2021 13:13,93.40.224.54,Mozilla/5.0 (Windows NT 10.0; Win64; x64; rv:88.0) Gecko/20100101 Firefox/88.0,,Firefox,88,Windows,10
117,1,2686,"""",html-keyboard-response,15,49584,0.0-15.0,"""","<img src='jspsych/CFDfaces/CFD-LF-203-066-N.jpg' height=""250px"">,</br><b>Katelyn</b>","""",6,IntactFace,Practice,70,5000,f,"""","""","""","""","""","""","""","""",4/24/2021 13:13,93.40.224.54,Mozilla/5.0 (Windows NT 10.0; Win64; x64; rv:88.0) Gecko/20100101 Firefox/88.0,,Firefox,88,Windows,10
117,1,null,"""",html-keyboard-response,16,50098,0.0-16.0,"""","<div style=""font-size:60px;"">+</div>","""",6,ITI,Practice,null,1000,"""","""","""","""","""","""","""","""","""",4/24/2021 13:13,93.40.224.54,Mozilla/5.0 (Windows NT 10.0; Win64; x64; rv:88.0) Gecko/20100101 Firefox/88.0,,Firefox,88,Windows,10
117,1,1748,"""",html-keyboard-response,17,55108,0.0-17.0,"""","<img src='jspsych/CFDfaces/CFD-AM-228-214-N.jpg' height=""250px"">,</br><b>Patrick</b>","""",7,IntactFace,Practice,70,5000,f,"""","""","""","""","""","""","""","""",4/24/2021 13:13,93.40.224.54,Mozilla/5.0 (Windows NT 10.0; Win64; x64; rv:88.0) Gecko/20100101 Firefox/88.0,,Firefox,88,Windows,10
117,1,null,"""",html-keyboard-response,18,55619,0.0-18.0,"""","<div style=""font-size:60px;"">+</div>","""",7,ITI,Practice,null,1000,"""","""","""","""","""","""","""","""","""",4/24/2021 13:13,93.40.224.54,Mozilla/5.0 (Windows NT 10.0; Win64; x64; rv:88.0) Gecko/20100101 Firefox/88.0,,Firefox,88,Windows,10
117,1,1468,"""",html-keyboard-response,19,60628,0.0-19.0,"""","<img src='jspsych/CFDfaces/CFD-WF-202-056-N.jpg' height=""250px"">,</br><b>Tara</b>","""",8,IntactFace,Practice,78,5000,n,"""","""","""","""","""","""","""","""",4/24/2021 13:13,93.40.224.54,Mozilla/5.0 (Windows NT 10.0; Win64; x64; rv:88.0) Gecko/20100101 Firefox/88.0,,Firefox,88,Windows,10
117,1,null,"""",html-keyboard-response,20,61139,0.0-20.0,"""","<div style=""font-size:60px;"">+</div>","""",8,ITI,Practice,null,1000,"""","""","""","""","""","""","""","""","""",4/24/2021 13:13,93.40.224.54,Mozilla/5.0 (Windows NT 10.0; Win64; x64; rv:88.0) Gecko/20100101 Firefox/88.0,,Firefox,88,Windows,10
117,1,829518,"""",image-button-response,21,890663,0.0-21.0,"""",directionsForTest.JPG,0,1,directionsForTest,break,"""","""","""","""","""","""","""","""","""","""","""",4/24/2021 13:13,93.40.224.54,Mozilla/5.0 (Windows NT 10.0; Win64; x64; rv:88.0) Gecko/20100101 Firefox/88.0,,Firefox,88,Windows,10
117,1,874,"""",image-button-response,22,891554,0.0-22.0,"""",directionsForTest2.JPG,0,1,directionsForTest2,break,"""","""","""","""","""","""","""","""","""","""","""",4/24/2021 13:13,93.40.224.54,Mozilla/5.0 (Windows NT 10.0; Win64; x64; rv:88.0) Gecko/20100101 Firefox/88.0,,Firefox,88,Windows,10
117,1,null,"""",html-keyboard-response,23,892555,0.0-23.0,"""","<div style=""font-size:60px;"">+</div>","""",1,ITI,Practice,null,1000,"""","""","""","""","""","""","""","""","""",4/24/2021 13:13,93.40.224.54,Mozilla/5.0 (Windows NT 10.0; Win64; x64; rv:88.0) Gecko/20100101 Firefox/88.0,,Firefox,88,Windows,10
117,1,null,"""",image-keyboard-response,24,892817,0.0-24.0,"""",jspsych/scrambledNeutralFaces/scrambledBF12NES.JPG,"""",1,forwardMask,Practice,null,250,"""",n,"""","""","""","""","""","""","""",4/24/2021 13:13,93.40.224.54,Mozilla/5.0 (Windows NT 10.0; Win64; x64; rv:88.0) Gecko/20100101 Firefox/88.0,,Firefox,88,Windows,10
117,1,null,"""",image-keyboard-response,25,892848,0.0-25.0,"""",jspsych/neutralFaces/BF12NES.JPG,"""",1,Cue,Practice,null,16,"""","""","""","""","""","""","""","""","""",4/24/2021 13:13,93.40.224.54,Mozilla/5.0 (Windows NT 10.0; Win64; x64; rv:88.0) Gecko/20100101 Firefox/88.0,,Firefox,88,Windows,10
117,1,null,"""",image-keyboard-response,26,892950,0.0-26.0,"""",jspsych/neutralFaces/AF12NES.JPG,"""",1,backwardMask,Practice,null,100,"""","""","""","""","""","""","""","""","""",4/24/2021 13:13,93.40.224.54,Mozilla/5.0 (Windows NT 10.0; Win64; x64; rv:88.0) Gecko/20100101 Firefox/88.0,,Firefox,88,Windows,10
117,1,null,"""",html-keyboard-response,27,893954,0.0-27.0,"""","<div style=""font-size:60px;"">+</div>","""",1,fixationBtwnNeutralMaskAndPrompt,Practice,null,1000,"""","""","""","""","""","""","""","""","""",4/24/2021 13:13,93.40.224.54,Mozilla/5.0 (Windows NT 10.0; Win64; x64; rv:88.0) Gecko/20100101 Firefox/88.0,,Firefox,88,Windows,10
117,1,1538,"""",html-button-response,28,895494,0.0-28.0,"""","<img src='jspsych/CFDfaces/CFD-WF-202-056-N.jpg'height=""250px""></br><b>Tara</b>",1,1,IntactOrRearranged,Practice,"""","""","""","""",CFD-WF-202-056-N.jpg,Tara,0,1,"""","""","""",4/24/2021 13:13,93.40.224.54,Mozilla/5.0 (Windows NT 10.0; Win64; x64; rv:88.0) Gecko/20100101 Firefox/88.0,,Firefox,88,Windows,10
117,1,892,"""",html-slider-response,29,896398,0.0-29.0,"""","<img src='jspsych/CFDfaces/CFD-WF-202-056-N.jpg'height=""250px""></br><b>Tara</b>","""",1,ConfidenceQuery,Practice,"""","""","""","""",CFD-BM-207-024-N.jpg,Travis,0,"""",0,66,"""",4/24/2021 13:13,93.40.224.54,Mozilla/5.0 (Windows NT 10.0; Win64; x64; rv:88.0) Gecko/20100101 Firefox/88.0,,Firefox,88,Windows,10
117,1,699,"""",html-button-response,30,897101,0.0-30.0,"""",You are Incorrect. You Called an Intact Pair Rearranged,0,1,feedback,Practice,"""","""","""","""","""","""","""","""","""","""","""",4/24/2021 13:13,93.40.224.54,Mozilla/5.0 (Windows NT 10.0; Win64; x64; rv:88.0) Gecko/20100101 Firefox/88.0,,Firefox,88,Windows,10
117,1,null,"""",html-keyboard-response,31,898117,0.0-31.0,"""","<div style=""font-size:60px;"">+</div>","""",2,ITI,Practice,null,1000,"""","""","""","""","""","""","""","""","""",4/24/2021 13:13,93.40.224.54,Mozilla/5.0 (Windows NT 10.0; Win64; x64; rv:88.0) Gecko/20100101 Firefox/88.0,,Firefox,88,Windows,10
117,1,null,"""",image-keyboard-response,32,898381,0.0-32.0,"""",jspsych/scrambledNeutralFaces/scrambledBF09NES.JPG,"""",2,forwardMask,Practice,null,250,"""",n,"""","""","""","""","""","""","""",4/24/2021 13:13,93.40.224.54,Mozilla/5.0 (Windows NT 10.0; Win64; x64; rv:88.0) Gecko/20100101 Firefox/88.0,,Firefox,88,Windows,10
117,1,null,"""",image-keyboard-response,33,898410,0.0-33.0,"""",jspsych/neutralFaces/BF09NES.JPG,"""",2,Cue,Practice,null,16,"""","""","""","""","""","""","""","""","""",4/24/2021 13:13,93.40.224.54,Mozilla/5.0 (Windows NT 10.0; Win64; x64; rv:88.0) Gecko/20100101 Firefox/88.0,,Firefox,88,Windows,10
117,1,null,"""",image-keyboard-response,34,898521,0.0-34.0,"""",jspsych/neutralFaces/AF35NES.JPG,"""",2,backwardMask,Practice,null,100,"""","""","""","""","""","""","""","""","""",4/24/2021 13:13,93.40.224.54,Mozilla/5.0 (Windows NT 10.0; Win64; x64; rv:88.0) Gecko/20100101 Firefox/88.0,,Firefox,88,Windows,10
117,1,null,"""",html-keyboard-response,35,899534,0.0-35.0,"""","<div style=""font-size:60px;"">+</div>","""",2,fixationBtwnNeutralMaskAndPrompt,Practice,null,1000,"""","""","""","""","""","""","""","""","""",4/24/2021 13:13,93.40.224.54,Mozilla/5.0 (Windows NT 10.0; Win64; x64; rv:88.0) Gecko/20100101 Firefox/88.0,,Firefox,88,Windows,10
117,1,936,"""",html-button-response,36,900470,0.0-36.0,"""","<img src='jspsych/CFDfaces/CFD-AM-234-355-N.jpg'height=""250px""></br><b>Marcus</b>",0,2,IntactOrRearranged,Practice,"""","""","""","""",CFD-AM-234-355-N.jpg,Marcus,1,0,"""","""","""",4/24/2021 13:13,93.40.224.54,Mozilla/5.0 (Windows NT 10.0; Win64; x64; rv:88.0) Gecko/20100101 Firefox/88.0,,Firefox,88,Windows,10
117,1,3412,"""",html-slider-response,37,903884,0.0-37.0,"""","<img src='jspsych/CFDfaces/CFD-AM-234-355-N.jpg'height=""250px""></br><b>Marcus</b>","""",2,ConfidenceQuery,Practice,"""","""","""","""",CFD-BM-207-024-N.jpg,Travis,1,"""",0,59,"""",4/24/2021 13:13,93.40.224.54,Mozilla/5.0 (Windows NT 10.0; Win64; x64; rv:88.0) Gecko/20100101 Firefox/88.0,,Firefox,88,Windows,10
117,1,1166,"""",html-button-response,38,905051,0.0-38.0,"""",You are Incorrect. You called a Rearranged Pair Intact,0,2,feedback,Practice,"""","""","""","""","""","""","""","""","""","""","""",4/24/2021 13:13,93.40.224.54,Mozilla/5.0 (Windows NT 10.0; Win64; x64; rv:88.0) Gecko/20100101 Firefox/88.0,,Firefox,88,Windows,10
117,1,null,"""",html-keyboard-response,39,906059,0.0-39.0,"""","<div style=""font-size:60px;"">+</div>","""",3,ITI,Practice,null,1000,"""","""","""","""","""","""","""","""","""",4/24/2021 13:13,93.40.224.54,Mozilla/5.0 (Windows NT 10.0; Win64; x64; rv:88.0) Gecko/20100101 Firefox/88.0,,Firefox,88,Windows,10
117,1,null,"""",image-keyboard-response,40,906326,0.0-40.0,"""",jspsych/scrambledDisgustFaces/scrambledAM09DIS.JPG,"""",3,forwardMask,Practice,null,250,"""",d,"""","""","""","""","""","""","""",4/24/2021 13:13,93.40.224.54,Mozilla/5.0 (Windows NT 10.0; Win64; x64; rv:88.0) Gecko/20100101 Firefox/88.0,,Firefox,88,Windows,10
117,1,null,"""",image-keyboard-response,41,906356,0.0-41.0,"""",jspsych/disgustFaces/AM09DIS.JPG,"""",3,Cue,Practice,null,16,"""","""","""","""","""","""","""","""","""",4/24/2021 13:13,93.40.224.54,Mozilla/5.0 (Windows NT 10.0; Win64; x64; rv:88.0) Gecko/20100101 Firefox/88.0,,Firefox,88,Windows,10
117,1,null,"""",image-keyboard-response,42,906467,0.0-42.0,"""",jspsych/neutralFaces/AM03NES.JPG,"""",3,backwardMask,Practice,null,100,"""","""","""","""","""","""","""","""","""",4/24/2021 13:13,93.40.224.54,Mozilla/5.0 (Windows NT 10.0; Win64; x64; rv:88.0) Gecko/20100101 Firefox/88.0,,Firefox,88,Windows,10
117,1,null,"""",html-keyboard-response,43,907483,0.0-43.0,"""","<div style=""font-size:60px;"">+</div>","""",3,fixationBtwnNeutralMaskAndPrompt,Practice,null,1000,"""","""","""","""","""","""","""","""","""",4/24/2021 13:13,93.40.224.54,Mozilla/5.0 (Windows NT 10.0; Win64; x64; rv:88.0) Gecko/20100101 Firefox/88.0,,Firefox,88,Windows,10
117,1,1338,"""",html-button-response,44,908822,0.0-44.0,"""","<img src='jspsych/CFDfaces/CFD-AF-230-193-N.jpg'height=""250px""></br><b>Shannon</b>",0,3,IntactOrRearranged,Practice,"""","""","""","""",CFD-AF-230-193-N.jpg,Shannon,0,0,"""","""","""",4/24/2021 13:13,93.40.224.54,Mozilla/5.0 (Windows NT 10.0; Win64; x64; rv:88.0) Gecko/20100101 Firefox/88.0,,Firefox,88,Windows,10
117,1,1634,"""",html-slider-response,45,910455,0.0-45.0,"""","<img src='jspsych/CFDfaces/CFD-AF-230-193-N.jpg'height=""250px""></br><b>Shannon</b>","""",3,ConfidenceQuery,Practice,"""","""","""","""",CFD-BM-207-024-N.jpg,Travis,0,"""",0,43,"""",4/24/2021 13:13,93.40.224.54,Mozilla/5.0 (Windows NT 10.0; Win64; x64; rv:88.0) Gecko/20100101 Firefox/88.0,,Firefox,88,Windows,10
117,1,902,"""",html-button-response,46,911360,0.0-46.0,"""",You are Correct. You called an Intact Pair Intact,0,3,feedback,Practice,"""","""","""","""","""","""","""","""","""","""","""",4/24/2021 13:13,93.40.224.54,Mozilla/5.0 (Windows NT 10.0; Win64; x64; rv:88.0) Gecko/20100101 Firefox/88.0,,Firefox,88,Windows,10
117,1,null,"""",html-keyboard-response,47,912362,0.0-47.0,"""","<div style=""font-size:60px;"">+</div>","""",4,ITI,Practice,null,1000,"""","""","""","""","""","""","""","""","""",4/24/2021 13:13,93.40.224.54,Mozilla/5.0 (Windows NT 10.0; Win64; x64; rv:88.0) Gecko/20100101 Firefox/88.0,,Firefox,88,Windows,10
117,1,null,"""",image-keyboard-response,48,912614,0.0-48.0,"""",jspsych/scrambledDisgustFaces/scrambledBM17DIS.JPG,"""",4,forwardMask,Practice,null,250,"""",d,"""","""","""","""","""","""","""",4/24/2021 13:13,93.40.224.54,Mozilla/5.0 (Windows NT 10.0; Win64; x64; rv:88.0) Gecko/20100101 Firefox/88.0,,Firefox,88,Windows,10
117,1,null,"""",image-keyboard-response,49,912640,0.0-49.0,"""",jspsych/disgustFaces/BM18DIS.JPG,"""",4,Cue,Practice,null,16,"""","""","""","""","""","""","""","""","""",4/24/2021 13:13,93.40.224.54,Mozilla/5.0 (Windows NT 10.0; Win64; x64; rv:88.0) Gecko/20100101 Firefox/88.0,,Firefox,88,Windows,10
117,1,null,"""",image-keyboard-response,50,912751,0.0-50.0,"""",jspsych/neutralFaces/AM22NES.JPG,"""",4,backwardMask,Practice,null,100,"""","""","""","""","""","""","""","""","""",4/24/2021 13:13,93.40.224.54,Mozilla/5.0 (Windows NT 10.0; Win64; x64; rv:88.0) Gecko/20100101 Firefox/88.0,,Firefox,88,Windows,10
117,1,null,"""",html-keyboard-response,51,913758,0.0-51.0,"""","<div style=""font-size:60px;"">+</div>","""",4,fixationBtwnNeutralMaskAndPrompt,Practice,null,1000,"""","""","""","""","""","""","""","""","""",4/24/2021 13:13,93.40.224.54,Mozilla/5.0 (Windows NT 10.0; Win64; x64; rv:88.0) Gecko/20100101 Firefox/88.0,,Firefox,88,Windows,10
117,1,1073,"""",html-button-response,52,914832,0.0-52.0,"""","<img src='jspsych/CFDfaces/CFD-LM-213-061-N.jpg'height=""250px""></br><b>Carlos</b>",0,4,IntactOrRearranged,Practice,"""","""","""","""",CFD-LM-213-061-N.jpg,Carlos,1,0,"""","""","""",4/24/2021 13:13,93.40.224.54,Mozilla/5.0 (Windows NT 10.0; Win64; x64; rv:88.0) Gecko/20100101 Firefox/88.0,,Firefox,88,Windows,10
117,1,1203,"""",html-slider-response,53,916035,0.0-53.0,"""","<img src='jspsych/CFDfaces/CFD-LM-213-061-N.jpg'height=""250px""></br><b>Carlos</b>","""",4,ConfidenceQuery,Practice,"""","""","""","""",CFD-BM-207-024-N.jpg,Travis,1,"""",0,66,"""",4/24/2021 13:13,93.40.224.54,Mozilla/5.0 (Windows NT 10.0; Win64; x64; rv:88.0) Gecko/20100101 Firefox/88.0,,Firefox,88,Windows,10
117,1,791,"""",html-button-response,54,916827,0.0-54.0,"""",You are Incorrect. You called a Rearranged Pair Intact,0,4,feedback,Practice,"""","""","""","""","""","""","""","""","""","""","""",4/24/2021 13:13,93.40.224.54,Mozilla/5.0 (Windows NT 10.0; Win64; x64; rv:88.0) Gecko/20100101 Firefox/88.0,,Firefox,88,Windows,10
117,1,null,"""",html-keyboard-response,55,917840,0.0-55.0,"""","<div style=""font-size:60px;"">+</div>","""",5,ITI,Practice,null,1000,"""","""","""","""","""","""","""","""","""",4/24/2021 13:13,93.40.224.54,Mozilla/5.0 (Windows NT 10.0; Win64; x64; rv:88.0) Gecko/20100101 Firefox/88.0,,Firefox,88,Windows,10
117,1,null,"""",image-keyboard-response,56,918105,0.0-56.0,"""",jspsych/scrambledDisgustFaces/scrambledBM08DIS.JPG,"""",5,forwardMask,Practice,null,250,"""",d,"""","""","""","""","""","""","""",4/24/2021 13:13,93.40.224.54,Mozilla/5.0 (Windows NT 10.0; Win64; x64; rv:88.0) Gecko/20100101 Firefox/88.0,,Firefox,88,Windows,10
117,1,null,"""",image-keyboard-response,57,918135,0.0-57.0,"""",jspsych/disgustFaces/BM09DIS.JPG,"""",5,Cue,Practice,null,16,"""","""","""","""","""","""","""","""","""",4/24/2021 13:13,93.40.224.54,Mozilla/5.0 (Windows NT 10.0; Win64; x64; rv:88.0) Gecko/20100101 Firefox/88.0,,Firefox,88,Windows,10
117,1,null,"""",image-keyboard-response,58,918244,0.0-58.0,"""",jspsych/neutralFaces/AM11NES.JPG,"""",5,backwardMask,Practice,null,100,"""","""","""","""","""","""","""","""","""",4/24/2021 13:13,93.40.224.54,Mozilla/5.0 (Windows NT 10.0; Win64; x64; rv:88.0) Gecko/20100101 Firefox/88.0,,Firefox,88,Windows,10
117,1,null,"""",html-keyboard-response,59,919247,0.0-59.0,"""","<div style=""font-size:60px;"">+</div>","""",5,fixationBtwnNeutralMaskAndPrompt,Practice,null,1000,"""","""","""","""","""","""","""","""","""",4/24/2021 13:13,93.40.224.54,Mozilla/5.0 (Windows NT 10.0; Win64; x64; rv:88.0) Gecko/20100101 Firefox/88.0,,Firefox,88,Windows,10
117,1,1118,"""",html-button-response,60,920365,0.0-60.0,"""","<img src='jspsych/CFDfaces/CFD-AM-228-214-N.jpg'height=""250px""></br><b>Patrick</b>",1,5,IntactOrRearranged,Practice,"""","""","""","""",CFD-AM-228-214-N.jpg,Patrick,0,1,"""","""","""",4/24/2021 13:13,93.40.224.54,Mozilla/5.0 (Windows NT 10.0; Win64; x64; rv:88.0) Gecko/20100101 Firefox/88.0,,Firefox,88,Windows,10
117,1,1111,"""",html-slider-response,61,921477,0.0-61.0,"""","<img src='jspsych/CFDfaces/CFD-AM-228-214-N.jpg'height=""250px""></br><b>Patrick</b>","""",5,ConfidenceQuery,Practice,"""","""","""","""",CFD-BM-207-024-N.jpg,Travis,0,"""",0,54,"""",4/24/2021 13:13,93.40.224.54,Mozilla/5.0 (Windows NT 10.0; Win64; x64; rv:88.0) Gecko/20100101 Firefox/88.0,,Firefox,88,Windows,10
117,1,795,"""",html-button-response,62,922274,0.0-62.0,"""",You are Incorrect. You Called an Intact Pair Rearranged,0,5,feedback,Practice,"""","""","""","""","""","""","""","""","""","""","""",4/24/2021 13:13,93.40.224.54,Mozilla/5.0 (Windows NT 10.0; Win64; x64; rv:88.0) Gecko/20100101 Firefox/88.0,,Firefox,88,Windows,10
117,1,null,"""",html-keyboard-response,63,923289,0.0-63.0,"""","<div style=""font-size:60px;"">+</div>","""",6,ITI,Practice,null,1000,"""","""","""","""","""","""","""","""","""",4/24/2021 13:13,93.40.224.54,Mozilla/5.0 (Windows NT 10.0; Win64; x64; rv:88.0) Gecko/20100101 Firefox/88.0,,Firefox,88,Windows,10
117,1,null,"""",image-keyboard-response,64,923551,0.0-64.0,"""",jspsych/scrambledNeutralFaces/scrambledAM11NES.JPG,"""",6,forwardMask,Practice,null,250,"""",n,"""","""","""","""","""","""","""",4/24/2021 13:13,93.40.224.54,Mozilla/5.0 (Windows NT 10.0; Win64; x64; rv:88.0) Gecko/20100101 Firefox/88.0,,Firefox,88,Windows,10
117,1,null,"""",image-keyboard-response,65,923581,0.0-65.0,"""",jspsych/neutralFaces/AM11NES.JPG,"""",6,Cue,Practice,null,16,"""","""","""","""","""","""","""","""","""",4/24/2021 13:13,93.40.224.54,Mozilla/5.0 (Windows NT 10.0; Win64; x64; rv:88.0) Gecko/20100101 Firefox/88.0,,Firefox,88,Windows,10
117,1,null,"""",image-keyboard-response,66,923690,0.0-66.0,"""",jspsych/neutralFaces/AM25NES.JPG,"""",6,backwardMask,Practice,null,100,"""","""","""","""","""","""","""","""","""",4/24/2021 13:13,93.40.224.54,Mozilla/5.0 (Windows NT 10.0; Win64; x64; rv:88.0) Gecko/20100101 Firefox/88.0,,Firefox,88,Windows,10
117,1,null,"""",html-keyboard-response,67,924701,0.0-67.0,"""","<div style=""font-size:60px;"">+</div>","""",6,fixationBtwnNeutralMaskAndPrompt,Practice,null,1000,"""","""","""","""","""","""","""","""","""",4/24/2021 13:13,93.40.224.54,Mozilla/5.0 (Windows NT 10.0; Win64; x64; rv:88.0) Gecko/20100101 Firefox/88.0,,Firefox,88,Windows,10
117,1,1200,"""",html-button-response,68,925901,0.0-68.0,"""","<img src='jspsych/CFDfaces/CFD-LF-203-066-N.jpg'height=""250px""></br><b>Cassandra</b>",1,6,IntactOrRearranged,Practice,"""","""","""","""",CFD-LF-203-066-N.jpg,Cassandra,1,1,"""","""","""",4/24/2021 13:13,93.40.224.54,Mozilla/5.0 (Windows NT 10.0; Win64; x64; rv:88.0) Gecko/20100101 Firefox/88.0,,Firefox,88,Windows,10
117,1,1118,"""",html-slider-response,69,927022,0.0-69.0,"""","<img src='jspsych/CFDfaces/CFD-LF-203-066-N.jpg'height=""250px""></br><b>Cassandra</b>","""",6,ConfidenceQuery,Practice,"""","""","""","""",CFD-BM-207-024-N.jpg,Travis,1,"""",0,67,"""",4/24/2021 13:13,93.40.224.54,Mozilla/5.0 (Windows NT 10.0; Win64; x64; rv:88.0) Gecko/20100101 Firefox/88.0,,Firefox,88,Windows,10
117,1,835,"""",html-button-response,70,927859,0.0-70.0,"""",You are Correct. You Called A Rearranged Pair Rearranged,0,6,feedback,Practice,"""","""","""","""","""","""","""","""","""","""","""",4/24/2021 13:13,93.40.224.54,Mozilla/5.0 (Windows NT 10.0; Win64; x64; rv:88.0) Gecko/20100101 Firefox/88.0,,Firefox,88,Windows,10
117,1,null,"""",html-keyboard-response,71,928872,0.0-71.0,"""","<div style=""font-size:60px;"">+</div>","""",7,ITI,Practice,null,1000,"""","""","""","""","""","""","""","""","""",4/24/2021 13:13,93.40.224.54,Mozilla/5.0 (Windows NT 10.0; Win64; x64; rv:88.0) Gecko/20100101 Firefox/88.0,,Firefox,88,Windows,10
117,1,null,"""",image-keyboard-response,72,929137,0.0-72.0,"""",jspsych/scrambledDisgustFaces/scrambledAM11DIS.JPG,"""",7,forwardMask,Practice,null,250,"""",d,"""","""","""","""","""","""","""",4/24/2021 13:13,93.40.224.54,Mozilla/5.0 (Windows NT 10.0; Win64; x64; rv:88.0) Gecko/20100101 Firefox/88.0,,Firefox,88,Windows,10
117,1,null,"""",image-keyboard-response,73,929168,0.0-73.0,"""",jspsych/disgustFaces/AM11DIS.JPG,"""",7,Cue,Practice,null,16,"""","""","""","""","""","""","""","""","""",4/24/2021 13:13,93.40.224.54,Mozilla/5.0 (Windows NT 10.0; Win64; x64; rv:88.0) Gecko/20100101 Firefox/88.0,,Firefox,88,Windows,10
117,1,null,"""",image-keyboard-response,74,929274,0.0-74.0,"""",jspsych/neutralFaces/BM14NES.JPG,"""",7,backwardMask,Practice,null,100,"""","""","""","""","""","""","""","""","""",4/24/2021 13:13,93.40.224.54,Mozilla/5.0 (Windows NT 10.0; Win64; x64; rv:88.0) Gecko/20100101 Firefox/88.0,,Firefox,88,Windows,10
117,1,null,"""",html-keyboard-response,75,930282,0.0-75.0,"""","<div style=""font-size:60px;"">+</div>","""",7,fixationBtwnNeutralMaskAndPrompt,Practice,null,1000,"""","""","""","""","""","""","""","""","""",4/24/2021 13:13,93.40.224.54,Mozilla/5.0 (Windows NT 10.0; Win64; x64; rv:88.0) Gecko/20100101 Firefox/88.0,,Firefox,88,Windows,10
117,1,null,"""",html-button-response,76,935297,0.0-76.0,"""","<img src='jspsych/CFDfaces/CFD-BM-011-016-N.jpg'height=""250px""></br><b>Samuel</b>",null,7,IntactOrRearranged,Practice,"""","""","""","""",CFD-BM-011-016-N.jpg,Samuel,0,"""","""","""","""",4/24/2021 13:13,93.40.224.54,Mozilla/5.0 (Windows NT 10.0; Win64; x64; rv:88.0) Gecko/20100101 Firefox/88.0,,Firefox,88,Windows,10
117,1,2753,"""",html-slider-response,77,938058,0.0-77.0,"""","<img src='jspsych/CFDfaces/CFD-BM-011-016-N.jpg'height=""250px""></br><b>Samuel</b>","""",7,ConfidenceQuery,Practice,"""","""","""","""",CFD-BM-207-024-N.jpg,Travis,0,"""",0,65,"""",4/24/2021 13:13,93.40.224.54,Mozilla/5.0 (Windows NT 10.0; Win64; x64; rv:88.0) Gecko/20100101 Firefox/88.0,,Firefox,88,Windows,10
117,1,6783,"""",html-button-response,78,944843,0.0-78.0,"""",<p>Please click either button: REARRANGED or INTACT before the 5-second time limit.</p>,0,7,feedback,Practice,"""","""","""","""","""","""","""","""","""","""","""",4/24/2021 13:13,93.40.224.54,Mozilla/5.0 (Windows NT 10.0; Win64; x64; rv:88.0) Gecko/20100101 Firefox/88.0,,Firefox,88,Windows,10
117,1,null,"""",html-keyboard-response,79,945856,0.0-79.0,"""","<div style=""font-size:60px;"">+</div>","""",8,ITI,Practice,null,1000,"""","""","""","""","""","""","""","""","""",4/24/2021 13:13,93.40.224.54,Mozilla/5.0 (Windows NT 10.0; Win64; x64; rv:88.0) Gecko/20100101 Firefox/88.0,,Firefox,88,Windows,10
117,1,null,"""",image-keyboard-response,80,946122,0.0-80.0,"""",jspsych/scrambledNeutralFaces/scrambledAM14NES.JPG,"""",8,forwardMask,Practice,null,250,"""",n,"""","""","""","""","""","""","""",4/24/2021 13:13,93.40.224.54,Mozilla/5.0 (Windows NT 10.0; Win64; x64; rv:88.0) Gecko/20100101 Firefox/88.0,,Firefox,88,Windows,10
117,1,null,"""",image-keyboard-response,81,946152,0.0-81.0,"""",jspsych/neutralFaces/AM14NES.JPG,"""",8,Cue,Practice,null,16,"""","""","""","""","""","""","""","""","""",4/24/2021 13:13,93.40.224.54,Mozilla/5.0 (Windows NT 10.0; Win64; x64; rv:88.0) Gecko/20100101 Firefox/88.0,,Firefox,88,Windows,10
117,1,null,"""",image-keyboard-response,82,946262,0.0-82.0,"""",jspsych/neutralFaces/BM11NES.JPG,"""",8,backwardMask,Practice,null,100,"""","""","""","""","""","""","""","""","""",4/24/2021 13:13,93.40.224.54,Mozilla/5.0 (Windows NT 10.0; Win64; x64; rv:88.0) Gecko/20100101 Firefox/88.0,,Firefox,88,Windows,10
117,1,null,"""",html-keyboard-response,83,947273,0.0-83.0,"""","<div style=""font-size:60px;"">+</div>","""",8,fixationBtwnNeutralMaskAndPrompt,Practice,null,1000,"""","""","""","""","""","""","""","""","""",4/24/2021 13:13,93.40.224.54,Mozilla/5.0 (Windows NT 10.0; Win64; x64; rv:88.0) Gecko/20100101 Firefox/88.0,,Firefox,88,Windows,10
117,1,904,"""",html-button-response,84,948177,0.0-84.0,"""","<img src='jspsych/CFDfaces/CFD-BF-005-001-N.jpg'height=""250px""></br><b>Katelyn</b>",0,8,IntactOrRearranged,Practice,"""","""","""","""",CFD-BF-005-001-N.jpg,Katelyn,1,0,"""","""","""",4/24/2021 13:13,93.40.224.54,Mozilla/5.0 (Windows NT 10.0; Win64; x64; rv:88.0) Gecko/20100101 Firefox/88.0,,Firefox,88,Windows,10
117,1,1347,"""",html-slider-response,85,949525,0.0-85.0,"""","<img src='jspsych/CFDfaces/CFD-BF-005-001-N.jpg'height=""250px""></br><b>Katelyn</b>","""",8,ConfidenceQuery,Practice,"""","""","""","""",CFD-BM-207-024-N.jpg,Travis,1,"""",0,81,"""",4/24/2021 13:13,93.40.224.54,Mozilla/5.0 (Windows NT 10.0; Win64; x64; rv:88.0) Gecko/20100101 Firefox/88.0,,Firefox,88,Windows,10
117,1,893,"""",html-button-response,86,950420,0.0-86.0,"""",You are Incorrect. You called a Rearranged Pair Intact,0,8,feedback,Practice,"""","""","""","""","""","""","""","""","""","""","""",4/24/2021 13:13,93.40.224.54,Mozilla/5.0 (Windows NT 10.0; Win64; x64; rv:88.0) Gecko/20100101 Firefox/88.0,,Firefox,88,Windows,10
117,1,1952,"""",image-button-response,87,952377,0.0-87.0,"""",directionsMemoryAssociation3.JPG,0,128,DirectionsBeforeActualTEst,Break,"""","""","""","""","""","""","""","""","""","""","""",4/24/2021 13:13,93.40.224.54,Mozilla/5.0 (Windows NT 10.0; Win64; x64; rv:88.0) Gecko/20100101 Firefox/88.0,,Firefox,88,Windows,10
117,1,143934,"""",image-button-response,88,1096312,0.0-88.0,"""",directionsForTest2.JPG,0,1,directionsForTest2,break,"""","""","""","""","""","""","""","""","""","""","""",4/24/2021 13:13,93.40.224.54,Mozilla/5.0 (Windows NT 10.0; Win64; x64; rv:88.0) Gecko/20100101 Firefox/88.0,,Firefox,88,Windows,10
117,1,2533,"""",html-button-response,89,1098848,0.0-89.0,"""","<p>You will be asked to memorize and then recall four sets of face-name pairs. </p> <p> Each set will have 32 pairs. </p> <p>After the fourth set, there will be a brief follow-up experiment (<40 min alltogether)</p>",0,"""","""","""","""","""","""","""","""","""","""","""","""","""","""",4/24/2021 13:13,93.40.224.54,Mozilla/5.0 (Windows NT 10.0; Win64; x64; rv:88.0) Gecko/20100101 Firefox/88.0,,Firefox,88,Windows,10
117,1,512,"""",html-keyboard-response,90,1103857,0.0-90.0,"""","<img src='jspsych/CFDfaces/CFD-LM-200-045-N.jpg' height=""250px""></br><b>Daniel</b>","""",256,IntactFace,Memorization,70,5000,f,"""",CFD-LM-252-076-N.jpg,Dustin,0,"""","""","""",1,4/24/2021 13:13,93.40.224.54,Mozilla/5.0 (Windows NT 10.0; Win64; x64; rv:88.0) Gecko/20100101 Firefox/88.0,,Firefox,88,Windows,10
117,1,null,"""",html-keyboard-response,91,1104369,0.0-91.0,"""","<div style=""font-size:60px;"">+</div>","""",256,fixation,Memorization,null,500,"""","""","""","""","""","""","""","""",1,4/24/2021 13:13,93.40.224.54,Mozilla/5.0 (Windows NT 10.0; Win64; x64; rv:88.0) Gecko/20100101 Firefox/88.0,,Firefox,88,Windows,10
117,1,986,"""",html-keyboard-response,92,1109374,0.0-92.0,"""","<img src='jspsych/CFDfaces/CFD-AM-214-168-N.jpg' height=""250px""></br><b>Richard</b>","""",256,IntactFace,Memorization,78,5000,n,"""",CFD-BF-009-002-N.jpg,Melissa,0,"""","""","""",1,4/24/2021 13:13,93.40.224.54,Mozilla/5.0 (Windows NT 10.0; Win64; x64; rv:88.0) Gecko/20100101 Firefox/88.0,,Firefox,88,Windows,10
117,1,null,"""",html-keyboard-response,93,1109886,0.0-93.0,"""","<div style=""font-size:60px;"">+</div>","""",256,fixation,Memorization,null,500,"""","""","""","""","""","""","""","""",1,4/24/2021 13:13,93.40.224.54,Mozilla/5.0 (Windows NT 10.0; Win64; x64; rv:88.0) Gecko/20100101 Firefox/88.0,,Firefox,88,Windows,10
117,1,433,"""",html-keyboard-response,94,1114891,0.0-94.0,"""","<img src='jspsych/CFDfaces/CFD-BF-025-002-N.jpg' height=""250px""></br><b>Samantha</b>","""",256,IntactFace,Memorization,70,5000,f,"""",CFD-BF-226-119-N.jpg,Laura,0,"""","""","""",1,4/24/2021 13:13,93.40.224.54,Mozilla/5.0 (Windows NT 10.0; Win64; x64; rv:88.0) Gecko/20100101 Firefox/88.0,,Firefox,88,Windows,10
117,1,null,"""",html-keyboard-response,95,1115403,0.0-95.0,"""","<div style=""font-size:60px;"">+</div>","""",256,fixation,Memorization,null,500,"""","""","""","""","""","""","""","""",1,4/24/2021 13:13,93.40.224.54,Mozilla/5.0 (Windows NT 10.0; Win64; x64; rv:88.0) Gecko/20100101 Firefox/88.0,,Firefox,88,Windows,10
117,1,1078,"""",html-keyboard-response,96,1120414,0.0-96.0,"""","<img src='jspsych/CFDfaces/CFD-WF-217-085-N.jpg' height=""250px""></br><b>Brittany</b>","""",256,IntactFace,Memorization,70,5000,f,"""",CFD-AF-235-170-N.jpg,Amy,0,"""","""","""",1,4/24/2021 13:13,93.40.224.54,Mozilla/5.0 (Windows NT 10.0; Win64; x64; rv:88.0) Gecko/20100101 Firefox/88.0,,Firefox,88,Windows,10
117,1,null,"""",html-keyboard-response,97,1120925,0.0-97.0,"""","<div style=""font-size:60px;"">+</div>","""",256,fixation,Memorization,null,500,"""","""","""","""","""","""","""","""",1,4/24/2021 13:13,93.40.224.54,Mozilla/5.0 (Windows NT 10.0; Win64; x64; rv:88.0) Gecko/20100101 Firefox/88.0,,Firefox,88,Windows,10
117,1,406,"""",html-keyboard-response,98,1125930,0.0-98.0,"""","<img src='jspsych/CFDfaces/CFD-WF-016-015-N.jpg' height=""250px""></br><b>Julie</b>","""",256,IntactFace,Memorization,78,5000,n,"""",CFD-AM-221-184-N.jpg,Austin,0,"""","""","""",1,4/24/2021 13:13,93.40.224.54,Mozilla/5.0 (Windows NT 10.0; Win64; x64; rv:88.0) Gecko/20100101 Firefox/88.0,,Firefox,88,Windows,10
117,1,null,"""",html-keyboard-response,99,1126443,0.0-99.0,"""","<div style=""font-size:60px;"">+</div>","""",256,fixation,Memorization,null,500,"""","""","""","""","""","""","""","""",1,4/24/2021 13:13,93.40.224.54,Mozilla/5.0 (Windows NT 10.0; Win64; x64; rv:88.0) Gecko/20100101 Firefox/88.0,,Firefox,88,Windows,10
117,1,1212,"""",html-keyboard-response,100,1131446,0.0-100.0,"""","<img src='jspsych/CFDfaces/CFD-LM-221-216-N.jpg' height=""250px""></br><b>Jeffrey</b>","""",256,IntactFace,Memorization,70,5000,f,"""",CFD-LF-201-035-N.jpg,Lauren,0,"""","""","""",1,4/24/2021 13:13,93.40.224.54,Mozilla/5.0 (Windows NT 10.0; Win64; x64; rv:88.0) Gecko/20100101 Firefox/88.0,,Firefox,88,Windows,10
117,1,null,"""",html-keyboard-response,101,1131955,0.0-101.0,"""","<div style=""font-size:60px;"">+</div>","""",256,fixation,Memorization,null,500,"""","""","""","""","""","""","""","""",1,4/24/2021 13:13,93.40.224.54,Mozilla/5.0 (Windows NT 10.0; Win64; x64; rv:88.0) Gecko/20100101 Firefox/88.0,,Firefox,88,Windows,10
117,1,272,"""",html-keyboard-response,102,1136965,0.0-102.0,"""","<img src='jspsych/CFDfaces/CFD-WF-204-038-N.jpg' height=""250px""></br><b>Vanessa</b>","""",256,IntactFace,Memorization,70,5000,f,"""",CFD-AM-231-136-N.jpg,Jesse,0,"""","""","""",1,4/24/2021 13:13,93.40.224.54,Mozilla/5.0 (Windows NT 10.0; Win64; x64; rv:88.0) Gecko/20100101 Firefox/88.0,,Firefox,88,Windows,10
117,1,null,"""",html-keyboard-response,103,1137473,0.0-103.0,"""","<div style=""font-size:60px;"">+</div>","""",256,fixation,Memorization,null,500,"""","""","""","""","""","""","""","""",1,4/24/2021 13:13,93.40.224.54,Mozilla/5.0 (Windows NT 10.0; Win64; x64; rv:88.0) Gecko/20100101 Firefox/88.0,,Firefox,88,Windows,10
117,1,1084,"""",html-keyboard-response,104,1142484,0.0-104.0,"""","<img src='jspsych/CFDfaces/CFD-BM-205-001-N.jpg' height=""250px""></br><b>Joshua</b>","""",256,IntactFace,Memorization,70,5000,f,"""",CFD-WM-022-001-N.jpg,Timothy,0,"""","""","""",1,4/24/2021 13:13,93.40.224.54,Mozilla/5.0 (Windows NT 10.0; Win64; x64; rv:88.0) Gecko/20100101 Firefox/88.0,,Firefox,88,Windows,10
117,1,null,"""",html-keyboard-response,105,1142997,0.0-105.0,"""","<div style=""font-size:60px;"">+</div>","""",256,fixation,Memorization,null,500,"""","""","""","""","""","""","""","""",1,4/24/2021 13:13,93.40.224.54,Mozilla/5.0 (Windows NT 10.0; Win64; x64; rv:88.0) Gecko/20100101 Firefox/88.0,,Firefox,88,Windows,10
117,1,817,"""",html-keyboard-response,106,1148008,0.0-106.0,"""","<img src='jspsych/CFDfaces/CFD-LF-243-175-N.jpg' height=""250px""></br><b>Ashley</b>","""",256,IntactFace,Memorization,70,5000,f,"""",CFD-WM-032-001-N.jpg,Justin,0,"""","""","""",1,4/24/2021 13:13,93.40.224.54,Mozilla/5.0 (Windows NT 10.0; Win64; x64; rv:88.0) Gecko/20100101 Firefox/88.0,,Firefox,88,Windows,10
117,1,null,"""",html-keyboard-response,107,1148515,0.0-107.0,"""","<div style=""font-size:60px;"">+</div>","""",256,fixation,Memorization,null,500,"""","""","""","""","""","""","""","""",1,4/24/2021 13:13,93.40.224.54,Mozilla/5.0 (Windows NT 10.0; Win64; x64; rv:88.0) Gecko/20100101 Firefox/88.0,,Firefox,88,Windows,10
117,1,865,"""",html-keyboard-response,108,1153519,0.0-108.0,"""","<img src='jspsych/CFDfaces/CFD-WM-213-076-N.jpg' height=""250px""></br><b>Brian</b>","""",256,IntactFace,Memorization,78,5000,n,"""",CFD-BM-041-035-N.jpg,Jeremy,0,"""","""","""",1,4/24/2021 13:13,93.40.224.54,Mozilla/5.0 (Windows NT 10.0; Win64; x64; rv:88.0) Gecko/20100101 Firefox/88.0,,Firefox,88,Windows,10
117,1,null,"""",html-keyboard-response,109,1154034,0.0-109.0,"""","<div style=""font-size:60px;"">+</div>","""",256,fixation,Memorization,null,500,"""","""","""","""","""","""","""","""",1,4/24/2021 13:13,93.40.224.54,Mozilla/5.0 (Windows NT 10.0; Win64; x64; rv:88.0) Gecko/20100101 Firefox/88.0,,Firefox,88,Windows,10
117,1,470,"""",html-keyboard-response,110,1159046,0.0-110.0,"""","<img src='jspsych/CFDfaces/CFD-BM-029-024-N.jpg' height=""250px""></br><b>Juan</b>","""",256,IntactFace,Memorization,78,5000,n,"""",CFD-BF-201-080-N.jpg,Erin,0,"""","""","""",1,4/24/2021 13:13,93.40.224.54,Mozilla/5.0 (Windows NT 10.0; Win64; x64; rv:88.0) Gecko/20100101 Firefox/88.0,,Firefox,88,Windows,10
117,1,null,"""",html-keyboard-response,111,1159553,0.0-111.0,"""","<div style=""font-size:60px;"">+</div>","""",256,fixation,Memorization,null,500,"""","""","""","""","""","""","""","""",1,4/24/2021 13:13,93.40.224.54,Mozilla/5.0 (Windows NT 10.0; Win64; x64; rv:88.0) Gecko/20100101 Firefox/88.0,,Firefox,88,Windows,10
117,1,1386,"""",html-keyboard-response,112,1164564,0.0-112.0,"""","<img src='jspsych/CFDfaces/CFD-LM-220-329-N.jpg' height=""250px""></br><b>Gregory</b>","""",256,IntactFace,Memorization,70,5000,f,"""",CFD-BM-032-024-N.jpg,Ryan,0,"""","""","""",1,4/24/2021 13:13,93.40.224.54,Mozilla/5.0 (Windows NT 10.0; Win64; x64; rv:88.0) Gecko/20100101 Firefox/88.0,,Firefox,88,Windows,10
117,1,null,"""",html-keyboard-response,113,1165078,0.0-113.0,"""","<div style=""font-size:60px;"">+</div>","""",256,fixation,Memorization,null,500,"""","""","""","""","""","""","""","""",1,4/24/2021 13:13,93.40.224.54,Mozilla/5.0 (Windows NT 10.0; Win64; x64; rv:88.0) Gecko/20100101 Firefox/88.0,,Firefox,88,Windows,10
117,1,702,"""",html-keyboard-response,114,1170079,0.0-114.0,"""","<img src='jspsych/CFDfaces/CFD-LM-246-087-N.jpg' height=""250px""></br><b>Nicholas</b>","""",256,IntactFace,Memorization,78,5000,n,"""",CFD-BM-207-024-N.jpg,Travis,0,"""","""","""",1,4/24/2021 13:13,93.40.224.54,Mozilla/5.0 (Windows NT 10.0; Win64; x64; rv:88.0) Gecko/20100101 Firefox/88.0,,Firefox,88,Windows,10
117,1,null,"""",html-keyboard-response,115,1170588,0.0-115.0,"""","<div style=""font-size:60px;"">+</div>","""",256,fixation,Memorization,null,500,"""","""","""","""","""","""","""","""",1,4/24/2021 13:13,93.40.224.54,Mozilla/5.0 (Windows NT 10.0; Win64; x64; rv:88.0) Gecko/20100101 Firefox/88.0,,Firefox,88,Windows,10
117,1,244,"""",html-keyboard-response,116,1175596,0.0-116.0,"""","<img src='jspsych/CFDfaces/CFD-WM-222-057-N.jpg' height=""250px""></br><b>Brandon</b>","""",256,IntactFace,Memorization,70,5000,f,"""",CFD-AF-203-077-N.jpg,Taylor,0,"""","""","""",1,4/24/2021 13:13,93.40.224.54,Mozilla/5.0 (Windows NT 10.0; Win64; x64; rv:88.0) Gecko/20100101 Firefox/88.0,,Firefox,88,Windows,10
117,1,null,"""",html-keyboard-response,117,1176111,0.0-117.0,"""","<div style=""font-size:60px;"">+</div>","""",256,fixation,Memorization,null,500,"""","""","""","""","""","""","""","""",1,4/24/2021 13:13,93.40.224.54,Mozilla/5.0 (Windows NT 10.0; Win64; x64; rv:88.0) Gecko/20100101 Firefox/88.0,,Firefox,88,Windows,10
117,1,2801,"""",html-keyboard-response,118,1181117,0.0-118.0,"""","<img src='jspsych/CFDfaces/CFD-BF-212-315-N.jpg' height=""250px""></br><b>Christina</b>","""",256,IntactFace,Memorization,78,5000,n,"""",CFD-AM-237-154-N.jpg,Kenneth,0,"""","""","""",1,4/24/2021 13:13,93.40.224.54,Mozilla/5.0 (Windows NT 10.0; Win64; x64; rv:88.0) Gecko/20100101 Firefox/88.0,,Firefox,88,Windows,10
117,1,null,"""",html-keyboard-response,119,1181628,0.0-119.0,"""","<div style=""font-size:60px;"">+</div>","""",256,fixation,Memorization,null,500,"""","""","""","""","""","""","""","""",1,4/24/2021 13:13,93.40.224.54,Mozilla/5.0 (Windows NT 10.0; Win64; x64; rv:88.0) Gecko/20100101 Firefox/88.0,,Firefox,88,Windows,10
117,1,818,"""",html-keyboard-response,120,1186642,0.0-120.0,"""","<img src='jspsych/CFDfaces/CFD-LM-209-111-N.jpg' height=""250px""></br><b>Jason</b>","""",256,IntactFace,Memorization,70,5000,f,"""",CFD-BF-218-207-N.jpg,Angela,0,"""","""","""",1,4/24/2021 13:13,93.40.224.54,Mozilla/5.0 (Windows NT 10.0; Win64; x64; rv:88.0) Gecko/20100101 Firefox/88.0,,Firefox,88,Windows,10
117,1,null,"""",html-keyboard-response,121,1187149,0.0-121.0,"""","<div style=""font-size:60px;"">+</div>","""",256,fixation,Memorization,null,500,"""","""","""","""","""","""","""","""",1,4/24/2021 13:13,93.40.224.54,Mozilla/5.0 (Windows NT 10.0; Win64; x64; rv:88.0) Gecko/20100101 Firefox/88.0,,Firefox,88,Windows,10
117,1,3921,"""",html-keyboard-response,122,1192156,0.0-122.0,"""","<img src='jspsych/CFDfaces/CFD-LF-204-133-N.jpg' height=""250px""></br><b>Michelle</b>","""",256,IntactFace,Memorization,70,5000,f,"""",CFD-LF-200-058-N.jpg,Jordan,0,"""","""","""",1,4/24/2021 13:13,93.40.224.54,Mozilla/5.0 (Windows NT 10.0; Win64; x64; rv:88.0) Gecko/20100101 Firefox/88.0,,Firefox,88,Windows,10
117,1,null,"""",html-keyboard-response,123,1192669,0.0-123.0,"""","<div style=""font-size:60px;"">+</div>","""",256,fixation,Memorization,null,500,"""","""","""","""","""","""","""","""",1,4/24/2021 13:13,93.40.224.54,Mozilla/5.0 (Windows NT 10.0; Win64; x64; rv:88.0) Gecko/20100101 Firefox/88.0,,Firefox,88,Windows,10
117,1,1726,"""",html-keyboard-response,124,1197672,0.0-124.0,"""","<img src='jspsych/CFDfaces/CFD-BM-208-065-N.jpg' height=""250px""></br><b>Peter</b>","""",256,IntactFace,Memorization,70,5000,f,"""",CFD-BM-039-029-N.jpg,Mark,0,"""","""","""",1,4/24/2021 13:13,93.40.224.54,Mozilla/5.0 (Windows NT 10.0; Win64; x64; rv:88.0) Gecko/20100101 Firefox/88.0,,Firefox,88,Windows,10
117,1,null,"""",html-keyboard-response,125,1198182,0.0-125.0,"""","<div style=""font-size:60px;"">+</div>","""",256,fixation,Memorization,null,500,"""","""","""","""","""","""","""","""",1,4/24/2021 13:13,93.40.224.54,Mozilla/5.0 (Windows NT 10.0; Win64; x64; rv:88.0) Gecko/20100101 Firefox/88.0,,Firefox,88,Windows,10
117,1,459,"""",html-keyboard-response,126,1203197,0.0-126.0,"""","<img src='jspsych/CFDfaces/CFD-BF-021-013-N.jpg' height=""250px""></br><b>Meghan</b>","""",256,IntactFace,Memorization,70,5000,f,"""",CFD-BM-018-001-N.jpg,Steven,0,"""","""","""",1,4/24/2021 13:13,93.40.224.54,Mozilla/5.0 (Windows NT 10.0; Win64; x64; rv:88.0) Gecko/20100101 Firefox/88.0,,Firefox,88,Windows,10
117,1,null,"""",html-keyboard-response,127,1203709,0.0-127.0,"""","<div style=""font-size:60px;"">+</div>","""",256,fixation,Memorization,null,500,"""","""","""","""","""","""","""","""",1,4/24/2021 13:13,93.40.224.54,Mozilla/5.0 (Windows NT 10.0; Win64; x64; rv:88.0) Gecko/20100101 Firefox/88.0,,Firefox,88,Windows,10
117,1,712,"""",html-keyboard-response,128,1208714,0.0-128.0,"""","<img src='jspsych/CFDfaces/CFD-AF-242-158-N.jpg' height=""250px""></br><b>Kimberly</b>","""",256,IntactFace,Memorization,70,5000,f,"""",CFD-BF-209-172-N.jpg,Lindsey,0,"""","""","""",1,4/24/2021 13:13,93.40.224.54,Mozilla/5.0 (Windows NT 10.0; Win64; x64; rv:88.0) Gecko/20100101 Firefox/88.0,,Firefox,88,Windows,10
117,1,null,"""",html-keyboard-response,129,1209224,0.0-129.0,"""","<div style=""font-size:60px;"">+</div>","""",256,fixation,Memorization,null,500,"""","""","""","""","""","""","""","""",1,4/24/2021 13:13,93.40.224.54,Mozilla/5.0 (Windows NT 10.0; Win64; x64; rv:88.0) Gecko/20100101 Firefox/88.0,,Firefox,88,Windows,10
117,1,996,"""",html-keyboard-response,130,1214228,0.0-130.0,"""","<img src='jspsych/CFDfaces/CFD-BM-026-002-N.jpg' height=""250px""></br><b>Ian</b>","""",256,IntactFace,Memorization,70,5000,f,"""",CFD-WM-015-002-N.jpg,Vincent,0,"""","""","""",1,4/24/2021 13:13,93.40.224.54,Mozilla/5.0 (Windows NT 10.0; Win64; x64; rv:88.0) Gecko/20100101 Firefox/88.0,,Firefox,88,Windows,10
117,1,null,"""",html-keyboard-response,131,1214737,0.0-131.0,"""","<div style=""font-size:60px;"">+</div>","""",256,fixation,Memorization,null,500,"""","""","""","""","""","""","""","""",1,4/24/2021 13:13,93.40.224.54,Mozilla/5.0 (Windows NT 10.0; Win64; x64; rv:88.0) Gecko/20100101 Firefox/88.0,,Firefox,88,Windows,10
117,1,568,"""",html-keyboard-response,132,1219753,0.0-132.0,"""","<img src='jspsych/CFDfaces/CFD-WM-041-021-N.jpg' height=""250px""></br><b>Robert</b>","""",256,IntactFace,Memorization,78,5000,n,"""",CFD-BF-019-001-N.jpg,Whitney,0,"""","""","""",1,4/24/2021 13:13,93.40.224.54,Mozilla/5.0 (Windows NT 10.0; Win64; x64; rv:88.0) Gecko/20100101 Firefox/88.0,,Firefox,88,Windows,10
117,1,null,"""",html-keyboard-response,133,1220267,0.0-133.0,"""","<div style=""font-size:60px;"">+</div>","""",256,fixation,Memorization,null,500,"""","""","""","""","""","""","""","""",1,4/24/2021 13:13,93.40.224.54,Mozilla/5.0 (Windows NT 10.0; Win64; x64; rv:88.0) Gecko/20100101 Firefox/88.0,,Firefox,88,Windows,10
117,1,null,"""",html-keyboard-response,134,1225282,0.0-134.0,"""","<img src='jspsych/CFDfaces/CFD-AM-229-224-N.jpg' height=""250px""></br><b>James</b>","""",256,IntactFace,Memorization,null,5000,"""","""",CFD-BM-027-001-N.jpg,Jacob,0,"""","""","""",1,4/24/2021 13:13,93.40.224.54,Mozilla/5.0 (Windows NT 10.0; Win64; x64; rv:88.0) Gecko/20100101 Firefox/88.0,,Firefox,88,Windows,10
117,1,null,"""",html-keyboard-response,135,1225793,0.0-135.0,"""","<div style=""font-size:60px;"">+</div>","""",256,fixation,Memorization,null,500,"""","""","""","""","""","""","""","""",1,4/24/2021 13:13,93.40.224.54,Mozilla/5.0 (Windows NT 10.0; Win64; x64; rv:88.0) Gecko/20100101 Firefox/88.0,,Firefox,88,Windows,10
117,1,131,"""",html-keyboard-response,136,1230803,0.0-136.0,"""","<img src='jspsych/CFDfaces/CFD-BF-004-014-N.jpg' height=""250px""></br><b>Elizabeth</b>","""",256,IntactFace,Memorization,70,5000,f,"""",CFD-WF-023-003-N.jpg,Tiffany,0,"""","""","""",1,4/24/2021 13:13,93.40.224.54,Mozilla/5.0 (Windows NT 10.0; Win64; x64; rv:88.0) Gecko/20100101 Firefox/88.0,,Firefox,88,Windows,10
117,1,null,"""",html-keyboard-response,137,1231316,0.0-137.0,"""","<div style=""font-size:60px;"">+</div>","""",256,fixation,Memorization,null,500,"""","""","""","""","""","""","""","""",1,4/24/2021 13:13,93.40.224.54,Mozilla/5.0 (Windows NT 10.0; Win64; x64; rv:88.0) Gecko/20100101 Firefox/88.0,,Firefox,88,Windows,10
117,1,1217,"""",html-keyboard-response,138,1236316,0.0-138.0,"""","<img src='jspsych/CFDfaces/CFD-BF-008-001-N.jpg' height=""250px""></br><b>Victoria</b>","""",256,IntactFace,Memorization,70,5000,f,"""",CFD-WF-207-014-N.jpg,Rebecca,0,"""","""","""",1,4/24/2021 13:13,93.40.224.54,Mozilla/5.0 (Windows NT 10.0; Win64; x64; rv:88.0) Gecko/20100101 Firefox/88.0,,Firefox,88,Windows,10
117,1,null,"""",html-keyboard-response,139,1236832,0.0-139.0,"""","<div style=""font-size:60px;"">+</div>","""",256,fixation,Memorization,null,500,"""","""","""","""","""","""","""","""",1,4/24/2021 13:13,93.40.224.54,Mozilla/5.0 (Windows NT 10.0; Win64; x64; rv:88.0) Gecko/20100101 Firefox/88.0,,Firefox,88,Windows,10
117,1,2362,"""",html-keyboard-response,140,1241834,0.0-140.0,"""","<img src='jspsych/CFDfaces/CFD-LF-205-100-N.jpg' height=""250px""></br><b>Andrea</b>","""",256,IntactFace,Memorization,70,5000,f,"""",CFD-WF-003-003-N.jpg,Jasmine,0,"""","""","""",1,4/24/2021 13:13,93.40.224.54,Mozilla/5.0 (Windows NT 10.0; Win64; x64; rv:88.0) Gecko/20100101 Firefox/88.0,,Firefox,88,Windows,10
117,1,null,"""",html-keyboard-response,141,1242344,0.0-141.0,"""","<div style=""font-size:60px;"">+</div>","""",256,fixation,Memorization,null,500,"""","""","""","""","""","""","""","""",1,4/24/2021 13:13,93.40.224.54,Mozilla/5.0 (Windows NT 10.0; Win64; x64; rv:88.0) Gecko/20100101 Firefox/88.0,,Firefox,88,Windows,10
117,1,1359,"""",html-keyboard-response,142,1247356,0.0-142.0,"""","<img src='jspsych/CFDfaces/CFD-AF-237-223-N.jpg' height=""250px""></br><b>Kayla</b>","""",256,IntactFace,Memorization,78,5000,n,"""",CFD-LM-239-075-N.jpg,Sean,0,"""","""","""",1,4/24/2021 13:13,93.40.224.54,Mozilla/5.0 (Windows NT 10.0; Win64; x64; rv:88.0) Gecko/20100101 Firefox/88.0,,Firefox,88,Windows,10
117,1,null,"""",html-keyboard-response,143,1247873,0.0-143.0,"""","<div style=""font-size:60px;"">+</div>","""",256,fixation,Memorization,null,500,"""","""","""","""","""","""","""","""",1,4/24/2021 13:13,93.40.224.54,Mozilla/5.0 (Windows NT 10.0; Win64; x64; rv:88.0) Gecko/20100101 Firefox/88.0,,Firefox,88,Windows,10
117,1,901,"""",html-keyboard-response,144,1252879,0.0-144.0,"""","<img src='jspsych/CFDfaces/CFD-WM-207-048-N.jpg' height=""250px""></br><b>Christian</b>","""",256,IntactFace,Memorization,70,5000,f,"""",CFD-AF-240-206-N.jpg,Sara,0,"""","""","""",1,4/24/2021 13:13,93.40.224.54,Mozilla/5.0 (Windows NT 10.0; Win64; x64; rv:88.0) Gecko/20100101 Firefox/88.0,,Firefox,88,Windows,10
117,1,null,"""",html-keyboard-response,145,1253393,0.0-145.0,"""","<div style=""font-size:60px;"">+</div>","""",256,fixation,Memorization,null,500,"""","""","""","""","""","""","""","""",1,4/24/2021 13:13,93.40.224.54,Mozilla/5.0 (Windows NT 10.0; Win64; x64; rv:88.0) Gecko/20100101 Firefox/88.0,,Firefox,88,Windows,10
117,1,858,"""",html-keyboard-response,146,1258395,0.0-146.0,"""","<img src='jspsych/CFDfaces/CFD-AF-208-003-N.jpg' height=""250px""></br><b>Amanda</b>","""",256,IntactFace,Memorization,70,5000,f,"""",CFD-WM-232-070-N.jpg,Cameron,0,"""","""","""",1,4/24/2021 13:13,93.40.224.54,Mozilla/5.0 (Windows NT 10.0; Win64; x64; rv:88.0) Gecko/20100101 Firefox/88.0,,Firefox,88,Windows,10
117,1,null,"""",html-keyboard-response,147,1258907,0.0-147.0,"""","<div style=""font-size:60px;"">+</div>","""",256,fixation,Memorization,null,500,"""","""","""","""","""","""","""","""",1,4/24/2021 13:13,93.40.224.54,Mozilla/5.0 (Windows NT 10.0; Win64; x64; rv:88.0) Gecko/20100101 Firefox/88.0,,Firefox,88,Windows,10
117,1,1440,"""",html-keyboard-response,148,1263912,0.0-148.0,"""","<img src='jspsych/CFDfaces/CFD-AF-201-060-N.jpg' height=""250px""></br><b>Stephanie</b>","""",256,IntactFace,Memorization,70,5000,f,"""",CFD-LF-208-127-N.jpg,Heather,0,"""","""","""",1,4/24/2021 13:13,93.40.224.54,Mozilla/5.0 (Windows NT 10.0; Win64; x64; rv:88.0) Gecko/20100101 Firefox/88.0,,Firefox,88,Windows,10
117,1,null,"""",html-keyboard-response,149,1264425,0.0-149.0,"""","<div style=""font-size:60px;"">+</div>","""",256,fixation,Memorization,null,500,"""","""","""","""","""","""","""","""",1,4/24/2021 13:13,93.40.224.54,Mozilla/5.0 (Windows NT 10.0; Win64; x64; rv:88.0) Gecko/20100101 Firefox/88.0,,Firefox,88,Windows,10
117,1,481,"""",html-keyboard-response,150,1269430,0.0-150.0,"""","<img src='jspsych/CFDfaces/CFD-LM-225-130-N.jpg' height=""250px""></br><b>Eric</b>","""",256,IntactFace,Memorization,78,5000,n,"""",CFD-WM-216-061-N.jpg,Luis,0,"""","""","""",1,4/24/2021 13:13,93.40.224.54,Mozilla/5.0 (Windows NT 10.0; Win64; x64; rv:88.0) Gecko/20100101 Firefox/88.0,,Firefox,88,Windows,10
117,1,null,"""",html-keyboard-response,151,1269941,0.0-151.0,"""","<div style=""font-size:60px;"">+</div>","""",256,fixation,Memorization,null,500,"""","""","""","""","""","""","""","""",1,4/24/2021 13:13,93.40.224.54,Mozilla/5.0 (Windows NT 10.0; Win64; x64; rv:88.0) Gecko/20100101 Firefox/88.0,,Firefox,88,Windows,10
117,1,727,"""",html-keyboard-response,152,1274948,0.0-152.0,"""","<img src='jspsych/CFDfaces/CFD-BF-039-031-N.jpg' height=""250px""></br><b>Emily</b>","""",256,IntactFace,Memorization,70,5000,f,"""",CFD-WF-220-101-N.jpg,Jenna,0,"""","""","""",1,4/24/2021 13:13,93.40.224.54,Mozilla/5.0 (Windows NT 10.0; Win64; x64; rv:88.0) Gecko/20100101 Firefox/88.0,,Firefox,88,Windows,10
117,1,null,"""",html-keyboard-response,153,1275463,0.0-153.0,"""","<div style=""font-size:60px;"">+</div>","""",256,fixation,Memorization,null,500,"""","""","""","""","""","""","""","""",1,4/24/2021 13:13,93.40.224.54,Mozilla/5.0 (Windows NT 10.0; Win64; x64; rv:88.0) Gecko/20100101 Firefox/88.0,,Firefox,88,Windows,10
117,1,508,"""",html-keyboard-response,154,1275971,0.0-154.0,"""",Press Any Key to Begin Memory Test,"""",1,welcomeScreen,Break,70,"""","""","""","""","""","""","""","""","""",1,4/24/2021 13:13,93.40.224.54,Mozilla/5.0 (Windows NT 10.0; Win64; x64; rv:88.0) Gecko/20100101 Firefox/88.0,,Firefox,88,Windows,10
117,1,null,"""",html-keyboard-response,155,1276973,0.0-155.0,"""","<div style=""font-size:60px;"">+</div>","""",256,ITI,Test,null,1000,"""","""","""","""","""","""","""","""",1,4/24/2021 13:13,93.40.224.54,Mozilla/5.0 (Windows NT 10.0; Win64; x64; rv:88.0) Gecko/20100101 Firefox/88.0,,Firefox,88,Windows,10
117,1,null,"""",image-keyboard-response,156,1277241,0.0-156.0,"""",jspsych/scrambledNeutralFaces/scrambledBF12NES.JPG,"""",256,forwardMask,Test,null,250,"""",n,"""","""","""","""","""","""",1,4/24/2021 13:13,93.40.224.54,Mozilla/5.0 (Windows NT 10.0; Win64; x64; rv:88.0) Gecko/20100101 Firefox/88.0,,Firefox,88,Windows,10
117,1,null,"""",image-keyboard-response,157,1277270,0.0-157.0,"""",jspsych/neutralFaces/BF12NES.JPG,"""",256,Cue,Test,null,16,"""","""","""","""","""","""","""","""",1,4/24/2021 13:13,93.40.224.54,Mozilla/5.0 (Windows NT 10.0; Win64; x64; rv:88.0) Gecko/20100101 Firefox/88.0,,Firefox,88,Windows,10
117,1,null,"""",image-keyboard-response,158,1277379,0.0-158.0,"""",jspsych/neutralFaces/AF12NES.JPG,"""",256,backwardMask,Test,null,100,"""","""","""","""","""","""","""","""",1,4/24/2021 13:13,93.40.224.54,Mozilla/5.0 (Windows NT 10.0; Win64; x64; rv:88.0) Gecko/20100101 Firefox/88.0,,Firefox,88,Windows,10
117,1,null,"""",html-keyboard-response,159,1278382,0.0-159.0,"""","<div style=""font-size:60px;"">+</div>","""",256,fixationBtwnNeutralMaskAndPrompt,Test,null,1000,"""","""","""","""","""","""","""","""",1,4/24/2021 13:13,93.40.224.54,Mozilla/5.0 (Windows NT 10.0; Win64; x64; rv:88.0) Gecko/20100101 Firefox/88.0,,Firefox,88,Windows,10
117,1,1626,"""",html-button-response,160,1280009,0.0-160.0,"""","<img src='jspsych/CFDfaces/CFD-BF-004-014-N.jpg' height=""250px"">,</br><b>Kimberly</b>",1,256,IntactOrRearranged,Test,"""","""","""","""",CFD-LF-201-035-N.jpg,Jordan,1,1,"""","""",1,4/24/2021 13:13,93.40.224.54,Mozilla/5.0 (Windows NT 10.0; Win64; x64; rv:88.0) Gecko/20100101 Firefox/88.0,,Firefox,88,Windows,10
117,1,1669,"""",html-slider-response,161,1281680,0.0-161.0,"""","<img src='jspsych/CFDfaces/CFD-BF-004-014-N.jpg' height=""250px"">,</br><b>Kimberly</b>","""",256,ConfidenceQuery,Test,"""","""","""","""",CFD-LF-201-035-N.jpg,Jordan,1,"""",0,53,1,4/24/2021 13:13,93.40.224.54,Mozilla/5.0 (Windows NT 10.0; Win64; x64; rv:88.0) Gecko/20100101 Firefox/88.0,,Firefox,88,Windows,10
117,1,null,"""",html-keyboard-response,162,1282687,0.0-162.0,"""","<div style=""font-size:60px;"">+</div>","""",256,ITI,Test,null,1000,"""","""","""","""","""","""","""","""",1,4/24/2021 13:13,93.40.224.54,Mozilla/5.0 (Windows NT 10.0; Win64; x64; rv:88.0) Gecko/20100101 Firefox/88.0,,Firefox,88,Windows,10
117,1,null,"""",image-keyboard-response,163,1282948,0.0-163.0,"""",jspsych/scrambledNeutralFaces/scrambledBF09NES.JPG,"""",256,forwardMask,Test,null,250,"""",n,"""","""","""","""","""","""",1,4/24/2021 13:13,93.40.224.54,Mozilla/5.0 (Windows NT 10.0; Win64; x64; rv:88.0) Gecko/20100101 Firefox/88.0,,Firefox,88,Windows,10
117,1,null,"""",image-keyboard-response,164,1282980,0.0-164.0,"""",jspsych/neutralFaces/BF09NES.JPG,"""",256,Cue,Test,null,16,"""","""","""","""","""","""","""","""",1,4/24/2021 13:13,93.40.224.54,Mozilla/5.0 (Windows NT 10.0; Win64; x64; rv:88.0) Gecko/20100101 Firefox/88.0,,Firefox,88,Windows,10
117,1,null,"""",image-keyboard-response,165,1283089,0.0-165.0,"""",jspsych/neutralFaces/AF35NES.JPG,"""",256,backwardMask,Test,null,100,"""","""","""","""","""","""","""","""",1,4/24/2021 13:13,93.40.224.54,Mozilla/5.0 (Windows NT 10.0; Win64; x64; rv:88.0) Gecko/20100101 Firefox/88.0,,Firefox,88,Windows,10
117,1,null,"""",html-keyboard-response,166,1284090,0.0-166.0,"""","<div style=""font-size:60px;"">+</div>","""",256,fixationBtwnNeutralMaskAndPrompt,Test,null,1000,"""","""","""","""","""","""","""","""",1,4/24/2021 13:13,93.40.224.54,Mozilla/5.0 (Windows NT 10.0; Win64; x64; rv:88.0) Gecko/20100101 Firefox/88.0,,Firefox,88,Windows,10
117,1,857,"""",html-button-response,167,1284947,0.0-167.0,"""","<img src='jspsych/CFDfaces/CFD-BF-025-002-N.jpg' height=""250px"">,</br><b>Samantha</b>",0,256,IntactOrRearranged,Test,"""","""","""","""",CFD-WF-207-014-N.jpg,Rebecca,0,0,"""","""",1,4/24/2021 13:13,93.40.224.54,Mozilla/5.0 (Windows NT 10.0; Win64; x64; rv:88.0) Gecko/20100101 Firefox/88.0,,Firefox,88,Windows,10
117,1,1220,"""",html-slider-response,168,1286168,0.0-168.0,"""","<img src='jspsych/CFDfaces/CFD-BF-025-002-N.jpg' height=""250px"">,</br><b>Samantha</b>","""",256,ConfidenceQuery,Test,"""","""","""","""",CFD-WF-207-014-N.jpg,Rebecca,0,"""",0,73,1,4/24/2021 13:13,93.40.224.54,Mozilla/5.0 (Windows NT 10.0; Win64; x64; rv:88.0) Gecko/20100101 Firefox/88.0,,Firefox,88,Windows,10
117,1,null,"""",html-keyboard-response,169,1287172,0.0-169.0,"""","<div style=""font-size:60px;"">+</div>","""",256,ITI,Test,null,1000,"""","""","""","""","""","""","""","""",1,4/24/2021 13:13,93.40.224.54,Mozilla/5.0 (Windows NT 10.0; Win64; x64; rv:88.0) Gecko/20100101 Firefox/88.0,,Firefox,88,Windows,10
117,1,null,"""",image-keyboard-response,170,1287435,0.0-170.0,"""",jspsych/scrambledDisgustFaces/scrambledAM09DIS.JPG,"""",256,forwardMask,Test,null,250,"""",d,"""","""","""","""","""","""",1,4/24/2021 13:13,93.40.224.54,Mozilla/5.0 (Windows NT 10.0; Win64; x64; rv:88.0) Gecko/20100101 Firefox/88.0,,Firefox,88,Windows,10
117,1,null,"""",image-keyboard-response,171,1287465,0.0-171.0,"""",jspsych/disgustFaces/AM09DIS.JPG,"""",256,Cue,Test,null,16,"""","""","""","""","""","""","""","""",1,4/24/2021 13:13,93.40.224.54,Mozilla/5.0 (Windows NT 10.0; Win64; x64; rv:88.0) Gecko/20100101 Firefox/88.0,,Firefox,88,Windows,10
117,1,null,"""",image-keyboard-response,172,1287574,0.0-172.0,"""",jspsych/neutralFaces/AM03NES.JPG,"""",256,backwardMask,Test,null,100,"""","""","""","""","""","""","""","""",1,4/24/2021 13:13,93.40.224.54,Mozilla/5.0 (Windows NT 10.0; Win64; x64; rv:88.0) Gecko/20100101 Firefox/88.0,,Firefox,88,Windows,10
117,1,null,"""",html-keyboard-response,173,1288576,0.0-173.0,"""","<div style=""font-size:60px;"">+</div>","""",256,fixationBtwnNeutralMaskAndPrompt,Test,null,1000,"""","""","""","""","""","""","""","""",1,4/24/2021 13:13,93.40.224.54,Mozilla/5.0 (Windows NT 10.0; Win64; x64; rv:88.0) Gecko/20100101 Firefox/88.0,,Firefox,88,Windows,10
117,1,889,"""",html-button-response,174,1289465,0.0-174.0,"""","<img src='jspsych/CFDfaces/CFD-BM-029-024-N.jpg' height=""250px"">,</br><b>Juan</b>",0,256,IntactOrRearranged,Test,"""","""","""","""",CFD-BM-039-029-N.jpg,Jesse,0,0,"""","""",1,4/24/2021 13:13,93.40.224.54,Mozilla/5.0 (Windows NT 10.0; Win64; x64; rv:88.0) Gecko/20100101 Firefox/88.0,,Firefox,88,Windows,10
117,1,2310,"""",html-slider-response,175,1291776,0.0-175.0,"""","<img src='jspsych/CFDfaces/CFD-BM-029-024-N.jpg' height=""250px"">,</br><b>Juan</b>","""",256,ConfidenceQuery,Test,"""","""","""","""",CFD-BM-039-029-N.jpg,Jesse,0,"""",0,69,1,4/24/2021 13:13,93.40.224.54,Mozilla/5.0 (Windows NT 10.0; Win64; x64; rv:88.0) Gecko/20100101 Firefox/88.0,,Firefox,88,Windows,10
117,1,null,"""",html-keyboard-response,176,1292782,0.0-176.0,"""","<div style=""font-size:60px;"">+</div>","""",256,ITI,Test,null,1000,"""","""","""","""","""","""","""","""",1,4/24/2021 13:13,93.40.224.54,Mozilla/5.0 (Windows NT 10.0; Win64; x64; rv:88.0) Gecko/20100101 Firefox/88.0,,Firefox,88,Windows,10
117,1,null,"""",image-keyboard-response,177,1293039,0.0-177.0,"""",jspsych/scrambledDisgustFaces/scrambledBM17DIS.JPG,"""",256,forwardMask,Test,null,250,"""",d,"""","""","""","""","""","""",1,4/24/2021 13:13,93.40.224.54,Mozilla/5.0 (Windows NT 10.0; Win64; x64; rv:88.0) Gecko/20100101 Firefox/88.0,,Firefox,88,Windows,10
117,1,null,"""",image-keyboard-response,178,1293066,0.0-178.0,"""",jspsych/disgustFaces/BM18DIS.JPG,"""",256,Cue,Test,null,16,"""","""","""","""","""","""","""","""",1,4/24/2021 13:13,93.40.224.54,Mozilla/5.0 (Windows NT 10.0; Win64; x64; rv:88.0) Gecko/20100101 Firefox/88.0,,Firefox,88,Windows,10
117,1,null,"""",image-keyboard-response,179,1293171,0.0-179.0,"""",jspsych/neutralFaces/AM22NES.JPG,"""",256,backwardMask,Test,null,100,"""","""","""","""","""","""","""","""",1,4/24/2021 13:13,93.40.224.54,Mozilla/5.0 (Windows NT 10.0; Win64; x64; rv:88.0) Gecko/20100101 Firefox/88.0,,Firefox,88,Windows,10
117,1,null,"""",html-keyboard-response,180,1294178,0.0-180.0,"""","<div style=""font-size:60px;"">+</div>","""",256,fixationBtwnNeutralMaskAndPrompt,Test,null,1000,"""","""","""","""","""","""","""","""",1,4/24/2021 13:13,93.40.224.54,Mozilla/5.0 (Windows NT 10.0; Win64; x64; rv:88.0) Gecko/20100101 Firefox/88.0,,Firefox,88,Windows,10
117,1,909,"""",html-button-response,181,1295087,0.0-181.0,"""","<img src='jspsych/CFDfaces/CFD-LM-246-087-N.jpg' height=""250px"">,</br><b>Nicholas</b>",0,256,IntactOrRearranged,Test,"""","""","""","""",CFD-WM-015-002-N.jpg,Vincent,0,0,"""","""",1,4/24/2021 13:13,93.40.224.54,Mozilla/5.0 (Windows NT 10.0; Win64; x64; rv:88.0) Gecko/20100101 Firefox/88.0,,Firefox,88,Windows,10
117,1,1339,"""",html-slider-response,182,1296429,0.0-182.0,"""","<img src='jspsych/CFDfaces/CFD-LM-246-087-N.jpg' height=""250px"">,</br><b>Nicholas</b>","""",256,ConfidenceQuery,Test,"""","""","""","""",CFD-WM-015-002-N.jpg,Vincent,0,"""",0,58,1,4/24/2021 13:13,93.40.224.54,Mozilla/5.0 (Windows NT 10.0; Win64; x64; rv:88.0) Gecko/20100101 Firefox/88.0,,Firefox,88,Windows,10
117,1,null,"""",html-keyboard-response,183,1297442,0.0-183.0,"""","<div style=""font-size:60px;"">+</div>","""",256,ITI,Test,null,1000,"""","""","""","""","""","""","""","""",1,4/24/2021 13:13,93.40.224.54,Mozilla/5.0 (Windows NT 10.0; Win64; x64; rv:88.0) Gecko/20100101 Firefox/88.0,,Firefox,88,Windows,10
117,1,null,"""",image-keyboard-response,184,1297698,0.0-184.0,"""",jspsych/scrambledDisgustFaces/scrambledBM08DIS.JPG,"""",256,forwardMask,Test,null,250,"""",d,"""","""","""","""","""","""",1,4/24/2021 13:13,93.40.224.54,Mozilla/5.0 (Windows NT 10.0; Win64; x64; rv:88.0) Gecko/20100101 Firefox/88.0,,Firefox,88,Windows,10
117,1,null,"""",image-keyboard-response,185,1297719,0.0-185.0,"""",jspsych/disgustFaces/BM09DIS.JPG,"""",256,Cue,Test,null,16,"""","""","""","""","""","""","""","""",1,4/24/2021 13:13,93.40.224.54,Mozilla/5.0 (Windows NT 10.0; Win64; x64; rv:88.0) Gecko/20100101 Firefox/88.0,,Firefox,88,Windows,10
117,1,null,"""",image-keyboard-response,186,1297823,0.0-186.0,"""",jspsych/neutralFaces/AM11NES.JPG,"""",256,backwardMask,Test,null,100,"""","""","""","""","""","""","""","""",1,4/24/2021 13:13,93.40.224.54,Mozilla/5.0 (Windows NT 10.0; Win64; x64; rv:88.0) Gecko/20100101 Firefox/88.0,,Firefox,88,Windows,10
117,1,null,"""",html-keyboard-response,187,1298825,0.0-187.0,"""","<div style=""font-size:60px;"">+</div>","""",256,fixationBtwnNeutralMaskAndPrompt,Test,null,1000,"""","""","""","""","""","""","""","""",1,4/24/2021 13:13,93.40.224.54,Mozilla/5.0 (Windows NT 10.0; Win64; x64; rv:88.0) Gecko/20100101 Firefox/88.0,,Firefox,88,Windows,10
117,1,679,"""",html-button-response,188,1299508,0.0-188.0,"""","<img src='jspsych/CFDfaces/CFD-LM-221-216-N.jpg' height=""250px"">,</br><b>Richard</b>",1,256,IntactOrRearranged,Test,"""","""","""","""",CFD-AM-237-154-N.jpg,Jeremy,1,1,"""","""",1,4/24/2021 13:13,93.40.224.54,Mozilla/5.0 (Windows NT 10.0; Win64; x64; rv:88.0) Gecko/20100101 Firefox/88.0,,Firefox,88,Windows,10
117,1,1539,"""",html-slider-response,189,1301048,0.0-189.0,"""","<img src='jspsych/CFDfaces/CFD-LM-221-216-N.jpg' height=""250px"">,</br><b>Richard</b>","""",256,ConfidenceQuery,Test,"""","""","""","""",CFD-AM-237-154-N.jpg,Jeremy,1,"""",0,74,1,4/24/2021 13:13,93.40.224.54,Mozilla/5.0 (Windows NT 10.0; Win64; x64; rv:88.0) Gecko/20100101 Firefox/88.0,,Firefox,88,Windows,10
117,1,null,"""",html-keyboard-response,190,1302058,0.0-190.0,"""","<div style=""font-size:60px;"">+</div>","""",256,ITI,Test,null,1000,"""","""","""","""","""","""","""","""",1,4/24/2021 13:13,93.40.224.54,Mozilla/5.0 (Windows NT 10.0; Win64; x64; rv:88.0) Gecko/20100101 Firefox/88.0,,Firefox,88,Windows,10
117,1,null,"""",image-keyboard-response,191,1302320,0.0-191.0,"""",jspsych/scrambledNeutralFaces/scrambledAM11NES.JPG,"""",256,forwardMask,Test,null,250,"""",n,"""","""","""","""","""","""",1,4/24/2021 13:13,93.40.224.54,Mozilla/5.0 (Windows NT 10.0; Win64; x64; rv:88.0) Gecko/20100101 Firefox/88.0,,Firefox,88,Windows,10
117,1,null,"""",image-keyboard-response,192,1302351,0.0-192.0,"""",jspsych/neutralFaces/AM11NES.JPG,"""",256,Cue,Test,null,16,"""","""","""","""","""","""","""","""",1,4/24/2021 13:13,93.40.224.54,Mozilla/5.0 (Windows NT 10.0; Win64; x64; rv:88.0) Gecko/20100101 Firefox/88.0,,Firefox,88,Windows,10
117,1,null,"""",image-keyboard-response,193,1302454,0.0-193.0,"""",jspsych/neutralFaces/AM25NES.JPG,"""",256,backwardMask,Test,null,100,"""","""","""","""","""","""","""","""",1,4/24/2021 13:13,93.40.224.54,Mozilla/5.0 (Windows NT 10.0; Win64; x64; rv:88.0) Gecko/20100101 Firefox/88.0,,Firefox,88,Windows,10
117,1,null,"""",html-keyboard-response,194,1303462,0.0-194.0,"""","<div style=""font-size:60px;"">+</div>","""",256,fixationBtwnNeutralMaskAndPrompt,Test,null,1000,"""","""","""","""","""","""","""","""",1,4/24/2021 13:13,93.40.224.54,Mozilla/5.0 (Windows NT 10.0; Win64; x64; rv:88.0) Gecko/20100101 Firefox/88.0,,Firefox,88,Windows,10
117,1,504,"""",html-button-response,195,1303966,0.0-195.0,"""","<img src='jspsych/CFDfaces/CFD-WF-016-015-N.jpg' height=""250px"">,</br><b>Julie</b>",0,256,IntactOrRearranged,Test,"""","""","""","""",CFD-BM-032-024-N.jpg,Cameron,0,0,"""","""",1,4/24/2021 13:13,93.40.224.54,Mozilla/5.0 (Windows NT 10.0; Win64; x64; rv:88.0) Gecko/20100101 Firefox/88.0,,Firefox,88,Windows,10
117,1,1316,"""",html-slider-response,196,1305282,0.0-196.0,"""","<img src='jspsych/CFDfaces/CFD-WF-016-015-N.jpg' height=""250px"">,</br><b>Julie</b>","""",256,ConfidenceQuery,Test,"""","""","""","""",CFD-BM-032-024-N.jpg,Cameron,0,"""",0,52,1,4/24/2021 13:13,93.40.224.54,Mozilla/5.0 (Windows NT 10.0; Win64; x64; rv:88.0) Gecko/20100101 Firefox/88.0,,Firefox,88,Windows,10
117,1,null,"""",html-keyboard-response,197,1306288,0.0-197.0,"""","<div style=""font-size:60px;"">+</div>","""",256,ITI,Test,null,1000,"""","""","""","""","""","""","""","""",1,4/24/2021 13:13,93.40.224.54,Mozilla/5.0 (Windows NT 10.0; Win64; x64; rv:88.0) Gecko/20100101 Firefox/88.0,,Firefox,88,Windows,10
117,1,null,"""",image-keyboard-response,198,1306544,0.0-198.0,"""",jspsych/scrambledDisgustFaces/scrambledAM11DIS.JPG,"""",256,forwardMask,Test,null,250,"""",d,"""","""","""","""","""","""",1,4/24/2021 13:13,93.40.224.54,Mozilla/5.0 (Windows NT 10.0; Win64; x64; rv:88.0) Gecko/20100101 Firefox/88.0,,Firefox,88,Windows,10
117,1,null,"""",image-keyboard-response,199,1306570,0.0-199.0,"""",jspsych/disgustFaces/AM11DIS.JPG,"""",256,Cue,Test,null,16,"""","""","""","""","""","""","""","""",1,4/24/2021 13:13,93.40.224.54,Mozilla/5.0 (Windows NT 10.0; Win64; x64; rv:88.0) Gecko/20100101 Firefox/88.0,,Firefox,88,Windows,10
117,1,null,"""",image-keyboard-response,200,1306679,0.0-200.0,"""",jspsych/neutralFaces/BM14NES.JPG,"""",256,backwardMask,Test,null,100,"""","""","""","""","""","""","""","""",1,4/24/2021 13:13,93.40.224.54,Mozilla/5.0 (Windows NT 10.0; Win64; x64; rv:88.0) Gecko/20100101 Firefox/88.0,,Firefox,88,Windows,10
117,1,null,"""",html-keyboard-response,201,1307680,0.0-201.0,"""","<div style=""font-size:60px;"">+</div>","""",256,fixationBtwnNeutralMaskAndPrompt,Test,null,1000,"""","""","""","""","""","""","""","""",1,4/24/2021 13:13,93.40.224.54,Mozilla/5.0 (Windows NT 10.0; Win64; x64; rv:88.0) Gecko/20100101 Firefox/88.0,,Firefox,88,Windows,10
117,1,588,"""",html-button-response,202,1308269,0.0-202.0,"""","<img src='jspsych/CFDfaces/CFD-WF-204-038-N.jpg' height=""250px"">,</br><b>Vanessa</b>",0,256,IntactOrRearranged,Test,"""","""","""","""",CFD-BF-019-001-N.jpg,Whitney,0,0,"""","""",1,4/24/2021 13:13,93.40.224.54,Mozilla/5.0 (Windows NT 10.0; Win64; x64; rv:88.0) Gecko/20100101 Firefox/88.0,,Firefox,88,Windows,10
117,1,1745,"""",html-slider-response,203,1310016,0.0-203.0,"""","<img src='jspsych/CFDfaces/CFD-WF-204-038-N.jpg' height=""250px"">,</br><b>Vanessa</b>","""",256,ConfidenceQuery,Test,"""","""","""","""",CFD-BF-019-001-N.jpg,Whitney,0,"""",0,69,1,4/24/2021 13:13,93.40.224.54,Mozilla/5.0 (Windows NT 10.0; Win64; x64; rv:88.0) Gecko/20100101 Firefox/88.0,,Firefox,88,Windows,10
117,1,null,"""",html-keyboard-response,204,1311026,0.0-204.0,"""","<div style=""font-size:60px;"">+</div>","""",256,ITI,Test,null,1000,"""","""","""","""","""","""","""","""",1,4/24/2021 13:13,93.40.224.54,Mozilla/5.0 (Windows NT 10.0; Win64; x64; rv:88.0) Gecko/20100101 Firefox/88.0,,Firefox,88,Windows,10
117,1,null,"""",image-keyboard-response,205,1311290,0.0-205.0,"""",jspsych/scrambledNeutralFaces/scrambledAM14NES.JPG,"""",256,forwardMask,Test,null,250,"""",n,"""","""","""","""","""","""",1,4/24/2021 13:13,93.40.224.54,Mozilla/5.0 (Windows NT 10.0; Win64; x64; rv:88.0) Gecko/20100101 Firefox/88.0,,Firefox,88,Windows,10
117,1,null,"""",image-keyboard-response,206,1311321,0.0-206.0,"""",jspsych/neutralFaces/AM14NES.JPG,"""",256,Cue,Test,null,16,"""","""","""","""","""","""","""","""",1,4/24/2021 13:13,93.40.224.54,Mozilla/5.0 (Windows NT 10.0; Win64; x64; rv:88.0) Gecko/20100101 Firefox/88.0,,Firefox,88,Windows,10
117,1,null,"""",image-keyboard-response,207,1311425,0.0-207.0,"""",jspsych/neutralFaces/BM11NES.JPG,"""",256,backwardMask,Test,null,100,"""","""","""","""","""","""","""","""",1,4/24/2021 13:13,93.40.224.54,Mozilla/5.0 (Windows NT 10.0; Win64; x64; rv:88.0) Gecko/20100101 Firefox/88.0,,Firefox,88,Windows,10
117,1,null,"""",html-keyboard-response,208,1312426,0.0-208.0,"""","<div style=""font-size:60px;"">+</div>","""",256,fixationBtwnNeutralMaskAndPrompt,Test,null,1000,"""","""","""","""","""","""","""","""",1,4/24/2021 13:13,93.40.224.54,Mozilla/5.0 (Windows NT 10.0; Win64; x64; rv:88.0) Gecko/20100101 Firefox/88.0,,Firefox,88,Windows,10
117,1,793,"""",html-button-response,209,1313221,0.0-209.0,"""","<img src='jspsych/CFDfaces/CFD-BM-026-002-N.jpg' height=""250px"">,</br><b>Ian</b>",1,256,IntactOrRearranged,Test,"""","""","""","""",CFD-LF-208-127-N.jpg,Heather,0,1,"""","""",1,4/24/2021 13:13,93.40.224.54,Mozilla/5.0 (Windows NT 10.0; Win64; x64; rv:88.0) Gecko/20100101 Firefox/88.0,,Firefox,88,Windows,10
117,1,1196,"""",html-slider-response,210,1314418,0.0-210.0,"""","<img src='jspsych/CFDfaces/CFD-BM-026-002-N.jpg' height=""250px"">,</br><b>Ian</b>","""",256,ConfidenceQuery,Test,"""","""","""","""",CFD-LF-208-127-N.jpg,Heather,0,"""",0,74,1,4/24/2021 13:13,93.40.224.54,Mozilla/5.0 (Windows NT 10.0; Win64; x64; rv:88.0) Gecko/20100101 Firefox/88.0,,Firefox,88,Windows,10
117,1,null,"""",html-keyboard-response,211,1315423,0.0-211.0,"""","<div style=""font-size:60px;"">+</div>","""",256,ITI,Test,null,1000,"""","""","""","""","""","""","""","""",1,4/24/2021 13:13,93.40.224.54,Mozilla/5.0 (Windows NT 10.0; Win64; x64; rv:88.0) Gecko/20100101 Firefox/88.0,,Firefox,88,Windows,10
117,1,null,"""",image-keyboard-response,212,1315687,0.0-212.0,"""",jspsych/scrambledDisgustFaces/scrambledBF24DIS.JPG,"""",256,forwardMask,Test,null,250,"""",d,"""","""","""","""","""","""",1,4/24/2021 13:13,93.40.224.54,Mozilla/5.0 (Windows NT 10.0; Win64; x64; rv:88.0) Gecko/20100101 Firefox/88.0,,Firefox,88,Windows,10
117,1,null,"""",image-keyboard-response,213,1315720,0.0-213.0,"""",jspsych/disgustFaces/BF24DIS.JPG,"""",256,Cue,Test,null,16,"""","""","""","""","""","""","""","""",1,4/24/2021 13:13,93.40.224.54,Mozilla/5.0 (Windows NT 10.0; Win64; x64; rv:88.0) Gecko/20100101 Firefox/88.0,,Firefox,88,Windows,10
117,1,null,"""",image-keyboard-response,214,1315828,0.0-214.0,"""",jspsych/neutralFaces/BF32NES.JPG,"""",256,backwardMask,Test,null,100,"""","""","""","""","""","""","""","""",1,4/24/2021 13:13,93.40.224.54,Mozilla/5.0 (Windows NT 10.0; Win64; x64; rv:88.0) Gecko/20100101 Firefox/88.0,,Firefox,88,Windows,10
117,1,null,"""",html-keyboard-response,215,1316840,0.0-215.0,"""","<div style=""font-size:60px;"">+</div>","""",256,fixationBtwnNeutralMaskAndPrompt,Test,null,1000,"""","""","""","""","""","""","""","""",1,4/24/2021 13:13,93.40.224.54,Mozilla/5.0 (Windows NT 10.0; Win64; x64; rv:88.0) Gecko/20100101 Firefox/88.0,,Firefox,88,Windows,10
117,1,506,"""",html-button-response,216,1317350,0.0-216.0,"""","<img src='jspsych/CFDfaces/CFD-WM-041-021-N.jpg' height=""250px"">,</br><b>Robert</b>",0,256,IntactOrRearranged,Test,"""","""","""","""",CFD-BM-041-035-N.jpg,Ryan,0,0,"""","""",1,4/24/2021 13:13,93.40.224.54,Mozilla/5.0 (Windows NT 10.0; Win64; x64; rv:88.0) Gecko/20100101 Firefox/88.0,,Firefox,88,Windows,10
117,1,1392,"""",html-slider-response,217,1318744,0.0-217.0,"""","<img src='jspsych/CFDfaces/CFD-WM-041-021-N.jpg' height=""250px"">,</br><b>Robert</b>","""",256,ConfidenceQuery,Test,"""","""","""","""",CFD-BM-041-035-N.jpg,Ryan,0,"""",0,71,1,4/24/2021 13:13,93.40.224.54,Mozilla/5.0 (Windows NT 10.0; Win64; x64; rv:88.0) Gecko/20100101 Firefox/88.0,,Firefox,88,Windows,10
117,1,null,"""",html-keyboard-response,218,1319750,0.0-218.0,"""","<div style=""font-size:60px;"">+</div>","""",256,ITI,Test,null,1000,"""","""","""","""","""","""","""","""",1,4/24/2021 13:13,93.40.224.54,Mozilla/5.0 (Windows NT 10.0; Win64; x64; rv:88.0) Gecko/20100101 Firefox/88.0,,Firefox,88,Windows,10
117,1,null,"""",image-keyboard-response,219,1320001,0.0-219.0,"""",jspsych/scrambledNeutralFaces/scrambledBM11NES.JPG,"""",256,forwardMask,Test,null,250,"""",n,"""","""","""","""","""","""",1,4/24/2021 13:13,93.40.224.54,Mozilla/5.0 (Windows NT 10.0; Win64; x64; rv:88.0) Gecko/20100101 Firefox/88.0,,Firefox,88,Windows,10
117,1,null,"""",image-keyboard-response,220,1320031,0.0-220.0,"""",jspsych/neutralFaces/BM11NES.JPG,"""",256,Cue,Test,null,16,"""","""","""","""","""","""","""","""",1,4/24/2021 13:13,93.40.224.54,Mozilla/5.0 (Windows NT 10.0; Win64; x64; rv:88.0) Gecko/20100101 Firefox/88.0,,Firefox,88,Windows,10
117,1,null,"""",image-keyboard-response,221,1320142,0.0-221.0,"""",jspsych/neutralFaces/BM14NES.JPG,"""",256,backwardMask,Test,null,100,"""","""","""","""","""","""","""","""",1,4/24/2021 13:13,93.40.224.54,Mozilla/5.0 (Windows NT 10.0; Win64; x64; rv:88.0) Gecko/20100101 Firefox/88.0,,Firefox,88,Windows,10
117,1,null,"""",html-keyboard-response,222,1321155,0.0-222.0,"""","<div style=""font-size:60px;"">+</div>","""",256,fixationBtwnNeutralMaskAndPrompt,Test,null,1000,"""","""","""","""","""","""","""","""",1,4/24/2021 13:13,93.40.224.54,Mozilla/5.0 (Windows NT 10.0; Win64; x64; rv:88.0) Gecko/20100101 Firefox/88.0,,Firefox,88,Windows,10
117,1,1232,"""",html-button-response,223,1322388,0.0-223.0,"""","<img src='jspsych/CFDfaces/CFD-BF-212-315-N.jpg' height=""250px"">,</br><b>Victoria</b>",0,256,IntactOrRearranged,Test,"""","""","""","""",CFD-BF-218-207-N.jpg,Erin,1,0,"""","""",1,4/24/2021 13:13,93.40.224.54,Mozilla/5.0 (Windows NT 10.0; Win64; x64; rv:88.0) Gecko/20100101 Firefox/88.0,,Firefox,88,Windows,10
117,1,1548,"""",html-slider-response,224,1323940,0.0-224.0,"""","<img src='jspsych/CFDfaces/CFD-BF-212-315-N.jpg' height=""250px"">,</br><b>Victoria</b>","""",256,ConfidenceQuery,Test,"""","""","""","""",CFD-BF-218-207-N.jpg,Erin,1,"""",0,53,1,4/24/2021 13:13,93.40.224.54,Mozilla/5.0 (Windows NT 10.0; Win64; x64; rv:88.0) Gecko/20100101 Firefox/88.0,,Firefox,88,Windows,10
117,1,null,"""",html-keyboard-response,225,1324953,0.0-225.0,"""","<div style=""font-size:60px;"">+</div>","""",256,ITI,Test,null,1000,"""","""","""","""","""","""","""","""",1,4/24/2021 13:13,93.40.224.54,Mozilla/5.0 (Windows NT 10.0; Win64; x64; rv:88.0) Gecko/20100101 Firefox/88.0,,Firefox,88,Windows,10
117,1,null,"""",image-keyboard-response,226,1325219,0.0-226.0,"""",jspsych/scrambledDisgustFaces/scrambledAM20DIS.JPG,"""",256,forwardMask,Test,null,250,"""",d,"""","""","""","""","""","""",1,4/24/2021 13:13,93.40.224.54,Mozilla/5.0 (Windows NT 10.0; Win64; x64; rv:88.0) Gecko/20100101 Firefox/88.0,,Firefox,88,Windows,10
117,1,null,"""",image-keyboard-response,227,1325250,0.0-227.0,"""",jspsych/disgustFaces/AM20DIS.JPG,"""",256,Cue,Test,null,16,"""","""","""","""","""","""","""","""",1,4/24/2021 13:13,93.40.224.54,Mozilla/5.0 (Windows NT 10.0; Win64; x64; rv:88.0) Gecko/20100101 Firefox/88.0,,Firefox,88,Windows,10
117,1,null,"""",image-keyboard-response,228,1325360,0.0-228.0,"""",jspsych/neutralFaces/BM30NES.JPG,"""",256,backwardMask,Test,null,100,"""","""","""","""","""","""","""","""",1,4/24/2021 13:13,93.40.224.54,Mozilla/5.0 (Windows NT 10.0; Win64; x64; rv:88.0) Gecko/20100101 Firefox/88.0,,Firefox,88,Windows,10
117,1,null,"""",html-keyboard-response,229,1326367,0.0-229.0,"""","<div style=""font-size:60px;"">+</div>","""",256,fixationBtwnNeutralMaskAndPrompt,Test,null,1000,"""","""","""","""","""","""","""","""",1,4/24/2021 13:13,93.40.224.54,Mozilla/5.0 (Windows NT 10.0; Win64; x64; rv:88.0) Gecko/20100101 Firefox/88.0,,Firefox,88,Windows,10
117,1,448,"""",html-button-response,230,1326814,0.0-230.0,"""","<img src='jspsych/CFDfaces/CFD-LF-205-100-N.jpg' height=""250px"">,</br><b>Amanda</b>",0,256,IntactOrRearranged,Test,"""","""","""","""",CFD-BF-226-119-N.jpg,Sara,1,0,"""","""",1,4/24/2021 13:13,93.40.224.54,Mozilla/5.0 (Windows NT 10.0; Win64; x64; rv:88.0) Gecko/20100101 Firefox/88.0,,Firefox,88,Windows,10
117,1,1358,"""",html-slider-response,231,1328175,0.0-231.0,"""","<img src='jspsych/CFDfaces/CFD-LF-205-100-N.jpg' height=""250px"">,</br><b>Amanda</b>","""",256,ConfidenceQuery,Test,"""","""","""","""",CFD-BF-226-119-N.jpg,Sara,1,"""",0,65,1,4/24/2021 13:13,93.40.224.54,Mozilla/5.0 (Windows NT 10.0; Win64; x64; rv:88.0) Gecko/20100101 Firefox/88.0,,Firefox,88,Windows,10
117,1,null,"""",html-keyboard-response,232,1329184,0.0-232.0,"""","<div style=""font-size:60px;"">+</div>","""",256,ITI,Test,null,1000,"""","""","""","""","""","""","""","""",1,4/24/2021 13:13,93.40.224.54,Mozilla/5.0 (Windows NT 10.0; Win64; x64; rv:88.0) Gecko/20100101 Firefox/88.0,,Firefox,88,Windows,10
117,1,null,"""",image-keyboard-response,233,1329439,0.0-233.0,"""",jspsych/scrambledNeutralFaces/scrambledAM33NES.JPG,"""",256,forwardMask,Test,null,250,"""",n,"""","""","""","""","""","""",1,4/24/2021 13:13,93.40.224.54,Mozilla/5.0 (Windows NT 10.0; Win64; x64; rv:88.0) Gecko/20100101 Firefox/88.0,,Firefox,88,Windows,10
117,1,null,"""",image-keyboard-response,234,1329470,0.0-234.0,"""",jspsych/neutralFaces/AM33NES.JPG,"""",256,Cue,Test,null,16,"""","""","""","""","""","""","""","""",1,4/24/2021 13:13,93.40.224.54,Mozilla/5.0 (Windows NT 10.0; Win64; x64; rv:88.0) Gecko/20100101 Firefox/88.0,,Firefox,88,Windows,10
117,1,null,"""",image-keyboard-response,235,1329578,0.0-235.0,"""",jspsych/neutralFaces/BM12NES.JPG,"""",256,backwardMask,Test,null,100,"""","""","""","""","""","""","""","""",1,4/24/2021 13:13,93.40.224.54,Mozilla/5.0 (Windows NT 10.0; Win64; x64; rv:88.0) Gecko/20100101 Firefox/88.0,,Firefox,88,Windows,10
117,1,null,"""",html-keyboard-response,236,1330589,0.0-236.0,"""","<div style=""font-size:60px;"">+</div>","""",256,fixationBtwnNeutralMaskAndPrompt,Test,null,1000,"""","""","""","""","""","""","""","""",1,4/24/2021 13:13,93.40.224.54,Mozilla/5.0 (Windows NT 10.0; Win64; x64; rv:88.0) Gecko/20100101 Firefox/88.0,,Firefox,88,Windows,10
117,1,1749,"""",html-button-response,237,1332339,0.0-237.0,"""","<img src='jspsych/CFDfaces/CFD-AF-201-060-N.jpg' height=""250px"">,</br><b>Stephanie</b>",1,256,IntactOrRearranged,Test,"""","""","""","""",CFD-AF-235-170-N.jpg,Amy,0,1,"""","""",1,4/24/2021 13:13,93.40.224.54,Mozilla/5.0 (Windows NT 10.0; Win64; x64; rv:88.0) Gecko/20100101 Firefox/88.0,,Firefox,88,Windows,10
117,1,1460,"""",html-slider-response,238,1333801,0.0-238.0,"""","<img src='jspsych/CFDfaces/CFD-AF-201-060-N.jpg' height=""250px"">,</br><b>Stephanie</b>","""",256,ConfidenceQuery,Test,"""","""","""","""",CFD-AF-235-170-N.jpg,Amy,0,"""",0,61,1,4/24/2021 13:13,93.40.224.54,Mozilla/5.0 (Windows NT 10.0; Win64; x64; rv:88.0) Gecko/20100101 Firefox/88.0,,Firefox,88,Windows,10
117,1,null,"""",html-keyboard-response,239,1334805,0.0-239.0,"""","<div style=""font-size:60px;"">+</div>","""",256,ITI,Test,null,1000,"""","""","""","""","""","""","""","""",1,4/24/2021 13:13,93.40.224.54,Mozilla/5.0 (Windows NT 10.0; Win64; x64; rv:88.0) Gecko/20100101 Firefox/88.0,,Firefox,88,Windows,10
117,1,null,"""",image-keyboard-response,240,1335059,0.0-240.0,"""",jspsych/scrambledNeutralFaces/scrambledBF11NES.JPG,"""",256,forwardMask,Test,null,250,"""",n,"""","""","""","""","""","""",1,4/24/2021 13:13,93.40.224.54,Mozilla/5.0 (Windows NT 10.0; Win64; x64; rv:88.0) Gecko/20100101 Firefox/88.0,,Firefox,88,Windows,10
117,1,null,"""",image-keyboard-response,241,1335079,0.0-241.0,"""",jspsych/neutralFaces/BF11NES.JPG,"""",256,Cue,Test,null,16,"""","""","""","""","""","""","""","""",1,4/24/2021 13:13,93.40.224.54,Mozilla/5.0 (Windows NT 10.0; Win64; x64; rv:88.0) Gecko/20100101 Firefox/88.0,,Firefox,88,Windows,10
117,1,null,"""",image-keyboard-response,242,1335195,0.0-242.0,"""",jspsych/neutralFaces/BF03NES.JPG,"""",256,backwardMask,Test,null,100,"""","""","""","""","""","""","""","""",1,4/24/2021 13:13,93.40.224.54,Mozilla/5.0 (Windows NT 10.0; Win64; x64; rv:88.0) Gecko/20100101 Firefox/88.0,,Firefox,88,Windows,10
117,1,null,"""",html-keyboard-response,243,1336198,0.0-243.0,"""","<div style=""font-size:60px;"">+</div>","""",256,fixationBtwnNeutralMaskAndPrompt,Test,null,1000,"""","""","""","""","""","""","""","""",1,4/24/2021 13:13,93.40.224.54,Mozilla/5.0 (Windows NT 10.0; Win64; x64; rv:88.0) Gecko/20100101 Firefox/88.0,,Firefox,88,Windows,10
117,1,832,"""",html-button-response,244,1337031,0.0-244.0,"""","<img src='jspsych/CFDfaces/CFD-WM-222-057-N.jpg' height=""250px"">,</br><b>Brandon</b>",0,256,IntactOrRearranged,Test,"""","""","""","""",CFD-WM-022-001-N.jpg,Austin,0,0,"""","""",1,4/24/2021 13:13,93.40.224.54,Mozilla/5.0 (Windows NT 10.0; Win64; x64; rv:88.0) Gecko/20100101 Firefox/88.0,,Firefox,88,Windows,10
117,1,1750,"""",html-slider-response,245,1338782,0.0-245.0,"""","<img src='jspsych/CFDfaces/CFD-WM-222-057-N.jpg' height=""250px"">,</br><b>Brandon</b>","""",256,ConfidenceQuery,Test,"""","""","""","""",CFD-WM-022-001-N.jpg,Austin,0,"""",0,58,1,4/24/2021 13:13,93.40.224.54,Mozilla/5.0 (Windows NT 10.0; Win64; x64; rv:88.0) Gecko/20100101 Firefox/88.0,,Firefox,88,Windows,10
117,1,null,"""",html-keyboard-response,246,1339793,0.0-246.0,"""","<div style=""font-size:60px;"">+</div>","""",256,ITI,Test,null,1000,"""","""","""","""","""","""","""","""",1,4/24/2021 13:13,93.40.224.54,Mozilla/5.0 (Windows NT 10.0; Win64; x64; rv:88.0) Gecko/20100101 Firefox/88.0,,Firefox,88,Windows,10
117,1,null,"""",image-keyboard-response,247,1340046,0.0-247.0,"""",jspsych/scrambledDisgustFaces/scrambledAM06DIS.JPG,"""",256,forwardMask,Test,null,250,"""",d,"""","""","""","""","""","""",1,4/24/2021 13:13,93.40.224.54,Mozilla/5.0 (Windows NT 10.0; Win64; x64; rv:88.0) Gecko/20100101 Firefox/88.0,,Firefox,88,Windows,10
117,1,null,"""",image-keyboard-response,248,1340079,0.0-248.0,"""",jspsych/disgustFaces/AM06DIS.JPG,"""",256,Cue,Test,null,16,"""","""","""","""","""","""","""","""",1,4/24/2021 13:13,93.40.224.54,Mozilla/5.0 (Windows NT 10.0; Win64; x64; rv:88.0) Gecko/20100101 Firefox/88.0,,Firefox,88,Windows,10
117,1,null,"""",image-keyboard-response,249,1340189,0.0-249.0,"""",jspsych/neutralFaces/BM04NES.JPG,"""",256,backwardMask,Test,null,100,"""","""","""","""","""","""","""","""",1,4/24/2021 13:13,93.40.224.54,Mozilla/5.0 (Windows NT 10.0; Win64; x64; rv:88.0) Gecko/20100101 Firefox/88.0,,Firefox,88,Windows,10
117,1,null,"""",html-keyboard-response,250,1341189,0.0-250.0,"""","<div style=""font-size:60px;"">+</div>","""",256,fixationBtwnNeutralMaskAndPrompt,Test,null,1000,"""","""","""","""","""","""","""","""",1,4/24/2021 13:13,93.40.224.54,Mozilla/5.0 (Windows NT 10.0; Win64; x64; rv:88.0) Gecko/20100101 Firefox/88.0,,Firefox,88,Windows,10
117,1,1259,"""",html-button-response,251,1342449,0.0-251.0,"""","<img src='jspsych/CFDfaces/CFD-AM-214-168-N.jpg' height=""250px"">,</br><b>Christian</b>",0,256,IntactOrRearranged,Test,"""","""","""","""",CFD-BF-009-002-N.jpg,Melissa,1,0,"""","""",1,4/24/2021 13:13,93.40.224.54,Mozilla/5.0 (Windows NT 10.0; Win64; x64; rv:88.0) Gecko/20100101 Firefox/88.0,,Firefox,88,Windows,10
117,1,1627,"""",html-slider-response,252,1344077,0.0-252.0,"""","<img src='jspsych/CFDfaces/CFD-AM-214-168-N.jpg' height=""250px"">,</br><b>Christian</b>","""",256,ConfidenceQuery,Test,"""","""","""","""",CFD-BF-009-002-N.jpg,Melissa,1,"""",0,64,1,4/24/2021 13:13,93.40.224.54,Mozilla/5.0 (Windows NT 10.0; Win64; x64; rv:88.0) Gecko/20100101 Firefox/88.0,,Firefox,88,Windows,10
117,1,null,"""",html-keyboard-response,253,1345091,0.0-253.0,"""","<div style=""font-size:60px;"">+</div>","""",256,ITI,Test,null,1000,"""","""","""","""","""","""","""","""",1,4/24/2021 13:13,93.40.224.54,Mozilla/5.0 (Windows NT 10.0; Win64; x64; rv:88.0) Gecko/20100101 Firefox/88.0,,Firefox,88,Windows,10
117,1,null,"""",image-keyboard-response,254,1345354,0.0-254.0,"""",jspsych/scrambledNeutralFaces/scrambledBF09NES.JPG,"""",256,forwardMask,Test,null,250,"""",n,"""","""","""","""","""","""",1,4/24/2021 13:13,93.40.224.54,Mozilla/5.0 (Windows NT 10.0; Win64; x64; rv:88.0) Gecko/20100101 Firefox/88.0,,Firefox,88,Windows,10
117,1,null,"""",image-keyboard-response,255,1345376,0.0-255.0,"""",jspsych/neutralFaces/BF09NES.JPG,"""",256,Cue,Test,null,16,"""","""","""","""","""","""","""","""",1,4/24/2021 13:13,93.40.224.54,Mozilla/5.0 (Windows NT 10.0; Win64; x64; rv:88.0) Gecko/20100101 Firefox/88.0,,Firefox,88,Windows,10
117,1,null,"""",image-keyboard-response,256,1345481,0.0-256.0,"""",jspsych/neutralFaces/AF16NES.JPG,"""",256,backwardMask,Test,null,100,"""","""","""","""","""","""","""","""",1,4/24/2021 13:13,93.40.224.54,Mozilla/5.0 (Windows NT 10.0; Win64; x64; rv:88.0) Gecko/20100101 Firefox/88.0,,Firefox,88,Windows,10
117,1,null,"""",html-keyboard-response,257,1346484,0.0-257.0,"""","<div style=""font-size:60px;"">+</div>","""",256,fixationBtwnNeutralMaskAndPrompt,Test,null,1000,"""","""","""","""","""","""","""","""",1,4/24/2021 13:13,93.40.224.54,Mozilla/5.0 (Windows NT 10.0; Win64; x64; rv:88.0) Gecko/20100101 Firefox/88.0,,Firefox,88,Windows,10
117,1,1421,"""",html-button-response,258,1347906,0.0-258.0,"""","<img src='jspsych/CFDfaces/CFD-WM-207-048-N.jpg' height=""250px"">,</br><b>Joshua</b>",0,256,IntactOrRearranged,Test,"""","""","""","""",CFD-WM-216-061-N.jpg,Luis,1,0,"""","""",1,4/24/2021 13:13,93.40.224.54,Mozilla/5.0 (Windows NT 10.0; Win64; x64; rv:88.0) Gecko/20100101 Firefox/88.0,,Firefox,88,Windows,10
117,1,1335,"""",html-slider-response,259,1349242,0.0-259.0,"""","<img src='jspsych/CFDfaces/CFD-WM-207-048-N.jpg' height=""250px"">,</br><b>Joshua</b>","""",256,ConfidenceQuery,Test,"""","""","""","""",CFD-WM-216-061-N.jpg,Luis,1,"""",0,30,1,4/24/2021 13:13,93.40.224.54,Mozilla/5.0 (Windows NT 10.0; Win64; x64; rv:88.0) Gecko/20100101 Firefox/88.0,,Firefox,88,Windows,10
117,1,null,"""",html-keyboard-response,260,1350253,0.0-260.0,"""","<div style=""font-size:60px;"">+</div>","""",256,ITI,Test,null,1000,"""","""","""","""","""","""","""","""",1,4/24/2021 13:13,93.40.224.54,Mozilla/5.0 (Windows NT 10.0; Win64; x64; rv:88.0) Gecko/20100101 Firefox/88.0,,Firefox,88,Windows,10
117,1,null,"""",image-keyboard-response,261,1350507,0.0-261.0,"""",jspsych/scrambledDisgustFaces/scrambledAM18DIS.JPG,"""",256,forwardMask,Test,null,250,"""",d,"""","""","""","""","""","""",1,4/24/2021 13:13,93.40.224.54,Mozilla/5.0 (Windows NT 10.0; Win64; x64; rv:88.0) Gecko/20100101 Firefox/88.0,,Firefox,88,Windows,10
117,1,null,"""",image-keyboard-response,262,1350528,0.0-262.0,"""",jspsych/disgustFaces/AM18DIS.JPG,"""",256,Cue,Test,null,16,"""","""","""","""","""","""","""","""",1,4/24/2021 13:13,93.40.224.54,Mozilla/5.0 (Windows NT 10.0; Win64; x64; rv:88.0) Gecko/20100101 Firefox/88.0,,Firefox,88,Windows,10
117,1,null,"""",image-keyboard-response,263,1350630,0.0-263.0,"""",jspsych/neutralFaces/AM18NES.JPG,"""",256,backwardMask,Test,null,100,"""","""","""","""","""","""","""","""",1,4/24/2021 13:13,93.40.224.54,Mozilla/5.0 (Windows NT 10.0; Win64; x64; rv:88.0) Gecko/20100101 Firefox/88.0,,Firefox,88,Windows,10
117,1,null,"""",html-keyboard-response,264,1351632,0.0-264.0,"""","<div style=""font-size:60px;"">+</div>","""",256,fixationBtwnNeutralMaskAndPrompt,Test,null,1000,"""","""","""","""","""","""","""","""",1,4/24/2021 13:13,93.40.224.54,Mozilla/5.0 (Windows NT 10.0; Win64; x64; rv:88.0) Gecko/20100101 Firefox/88.0,,Firefox,88,Windows,10
117,1,984,"""",html-button-response,265,1352620,0.0-265.0,"""","<img src='jspsych/CFDfaces/CFD-LF-204-133-N.jpg' height=""250px"">,</br><b>Michelle</b>",0,256,IntactOrRearranged,Test,"""","""","""","""",CFD-WF-023-003-N.jpg,Tiffany,0,0,"""","""",1,4/24/2021 13:13,93.40.224.54,Mozilla/5.0 (Windows NT 10.0; Win64; x64; rv:88.0) Gecko/20100101 Firefox/88.0,,Firefox,88,Windows,10
117,1,1199,"""",html-slider-response,266,1353821,0.0-266.0,"""","<img src='jspsych/CFDfaces/CFD-LF-204-133-N.jpg' height=""250px"">,</br><b>Michelle</b>","""",256,ConfidenceQuery,Test,"""","""","""","""",CFD-WF-023-003-N.jpg,Tiffany,0,"""",0,88,1,4/24/2021 13:13,93.40.224.54,Mozilla/5.0 (Windows NT 10.0; Win64; x64; rv:88.0) Gecko/20100101 Firefox/88.0,,Firefox,88,Windows,10
117,1,null,"""",html-keyboard-response,267,1354827,0.0-267.0,"""","<div style=""font-size:60px;"">+</div>","""",256,ITI,Test,null,1000,"""","""","""","""","""","""","""","""",1,4/24/2021 13:13,93.40.224.54,Mozilla/5.0 (Windows NT 10.0; Win64; x64; rv:88.0) Gecko/20100101 Firefox/88.0,,Firefox,88,Windows,10
117,1,null,"""",image-keyboard-response,268,1355082,0.0-268.0,"""",jspsych/scrambledNeutralFaces/scrambledBF20NES.JPG,"""",256,forwardMask,Test,null,250,"""",n,"""","""","""","""","""","""",1,4/24/2021 13:13,93.40.224.54,Mozilla/5.0 (Windows NT 10.0; Win64; x64; rv:88.0) Gecko/20100101 Firefox/88.0,,Firefox,88,Windows,10
117,1,null,"""",image-keyboard-response,269,1355113,0.0-269.0,"""",jspsych/neutralFaces/BF20NES.JPG,"""",256,Cue,Test,null,16,"""","""","""","""","""","""","""","""",1,4/24/2021 13:13,93.40.224.54,Mozilla/5.0 (Windows NT 10.0; Win64; x64; rv:88.0) Gecko/20100101 Firefox/88.0,,Firefox,88,Windows,10
117,1,null,"""",image-keyboard-response,270,1355222,0.0-270.0,"""",jspsych/neutralFaces/BF15NES.JPG,"""",256,backwardMask,Test,null,100,"""","""","""","""","""","""","""","""",1,4/24/2021 13:13,93.40.224.54,Mozilla/5.0 (Windows NT 10.0; Win64; x64; rv:88.0) Gecko/20100101 Firefox/88.0,,Firefox,88,Windows,10
117,1,null,"""",html-keyboard-response,271,1356229,0.0-271.0,"""","<div style=""font-size:60px;"">+</div>","""",256,fixationBtwnNeutralMaskAndPrompt,Test,null,1000,"""","""","""","""","""","""","""","""",1,4/24/2021 13:13,93.40.224.54,Mozilla/5.0 (Windows NT 10.0; Win64; x64; rv:88.0) Gecko/20100101 Firefox/88.0,,Firefox,88,Windows,10
117,1,655,"""",html-button-response,272,1356885,0.0-272.0,"""","<img src='jspsych/CFDfaces/CFD-LM-225-130-N.jpg' height=""250px"">,</br><b>Gregory</b>",1,256,IntactOrRearranged,Test,"""","""","""","""",CFD-BM-027-001-N.jpg,Jacob,1,1,"""","""",1,4/24/2021 13:13,93.40.224.54,Mozilla/5.0 (Windows NT 10.0; Win64; x64; rv:88.0) Gecko/20100101 Firefox/88.0,,Firefox,88,Windows,10
117,1,1238,"""",html-slider-response,273,1358124,0.0-273.0,"""","<img src='jspsych/CFDfaces/CFD-LM-225-130-N.jpg' height=""250px"">,</br><b>Gregory</b>","""",256,ConfidenceQuery,Test,"""","""","""","""",CFD-BM-027-001-N.jpg,Jacob,1,"""",0,32,1,4/24/2021 13:13,93.40.224.54,Mozilla/5.0 (Windows NT 10.0; Win64; x64; rv:88.0) Gecko/20100101 Firefox/88.0,,Firefox,88,Windows,10
117,1,null,"""",html-keyboard-response,274,1359137,0.0-274.0,"""","<div style=""font-size:60px;"">+</div>","""",256,ITI,Test,null,1000,"""","""","""","""","""","""","""","""",1,4/24/2021 13:13,93.40.224.54,Mozilla/5.0 (Windows NT 10.0; Win64; x64; rv:88.0) Gecko/20100101 Firefox/88.0,,Firefox,88,Windows,10
117,1,null,"""",image-keyboard-response,275,1359394,0.0-275.0,"""",jspsych/scrambledDisgustFaces/scrambledAM22DIS.JPG,"""",256,forwardMask,Test,null,250,"""",d,"""","""","""","""","""","""",1,4/24/2021 13:13,93.40.224.54,Mozilla/5.0 (Windows NT 10.0; Win64; x64; rv:88.0) Gecko/20100101 Firefox/88.0,,Firefox,88,Windows,10
117,1,null,"""",image-keyboard-response,276,1359413,0.0-276.0,"""",jspsych/disgustFaces/AM22DIS.JPG,"""",256,Cue,Test,null,16,"""","""","""","""","""","""","""","""",1,4/24/2021 13:13,93.40.224.54,Mozilla/5.0 (Windows NT 10.0; Win64; x64; rv:88.0) Gecko/20100101 Firefox/88.0,,Firefox,88,Windows,10
117,1,null,"""",image-keyboard-response,277,1359520,0.0-277.0,"""",jspsych/neutralFaces/AM03NES.JPG,"""",256,backwardMask,Test,null,100,"""","""","""","""","""","""","""","""",1,4/24/2021 13:13,93.40.224.54,Mozilla/5.0 (Windows NT 10.0; Win64; x64; rv:88.0) Gecko/20100101 Firefox/88.0,,Firefox,88,Windows,10
117,1,null,"""",html-keyboard-response,278,1360527,0.0-278.0,"""","<div style=""font-size:60px;"">+</div>","""",256,fixationBtwnNeutralMaskAndPrompt,Test,null,1000,"""","""","""","""","""","""","""","""",1,4/24/2021 13:13,93.40.224.54,Mozilla/5.0 (Windows NT 10.0; Win64; x64; rv:88.0) Gecko/20100101 Firefox/88.0,,Firefox,88,Windows,10
117,1,822,"""",html-button-response,279,1361351,0.0-279.0,"""","<img src='jspsych/CFDfaces/CFD-WM-213-076-N.jpg' height=""250px"">,</br><b>Brian</b>",1,256,IntactOrRearranged,Test,"""","""","""","""",CFD-LM-252-076-N.jpg,Dustin,0,1,"""","""",1,4/24/2021 13:13,93.40.224.54,Mozilla/5.0 (Windows NT 10.0; Win64; x64; rv:88.0) Gecko/20100101 Firefox/88.0,,Firefox,88,Windows,10
117,1,1974,"""",html-slider-response,280,1363326,0.0-280.0,"""","<img src='jspsych/CFDfaces/CFD-WM-213-076-N.jpg' height=""250px"">,</br><b>Brian</b>","""",256,ConfidenceQuery,Test,"""","""","""","""",CFD-LM-252-076-N.jpg,Dustin,0,"""",0,45,1,4/24/2021 13:13,93.40.224.54,Mozilla/5.0 (Windows NT 10.0; Win64; x64; rv:88.0) Gecko/20100101 Firefox/88.0,,Firefox,88,Windows,10
117,1,null,"""",html-keyboard-response,281,1364338,0.0-281.0,"""","<div style=""font-size:60px;"">+</div>","""",256,ITI,Test,null,1000,"""","""","""","""","""","""","""","""",1,4/24/2021 13:13,93.40.224.54,Mozilla/5.0 (Windows NT 10.0; Win64; x64; rv:88.0) Gecko/20100101 Firefox/88.0,,Firefox,88,Windows,10
117,1,null,"""",image-keyboard-response,282,1364598,0.0-282.0,"""",jspsych/scrambledDisgustFaces/scrambledAM10DIS.JPG,"""",256,forwardMask,Test,null,250,"""",d,"""","""","""","""","""","""",1,4/24/2021 13:13,93.40.224.54,Mozilla/5.0 (Windows NT 10.0; Win64; x64; rv:88.0) Gecko/20100101 Firefox/88.0,,Firefox,88,Windows,10
117,1,null,"""",image-keyboard-response,283,1364623,0.0-283.0,"""",jspsych/disgustFaces/AM10DIS.JPG,"""",256,Cue,Test,null,16,"""","""","""","""","""","""","""","""",1,4/24/2021 13:13,93.40.224.54,Mozilla/5.0 (Windows NT 10.0; Win64; x64; rv:88.0) Gecko/20100101 Firefox/88.0,,Firefox,88,Windows,10
117,1,null,"""",image-keyboard-response,284,1364733,0.0-284.0,"""",jspsych/neutralFaces/BM16NES.JPG,"""",256,backwardMask,Test,null,100,"""","""","""","""","""","""","""","""",1,4/24/2021 13:13,93.40.224.54,Mozilla/5.0 (Windows NT 10.0; Win64; x64; rv:88.0) Gecko/20100101 Firefox/88.0,,Firefox,88,Windows,10
117,1,null,"""",html-keyboard-response,285,1365750,0.0-285.0,"""","<div style=""font-size:60px;"">+</div>","""",256,fixationBtwnNeutralMaskAndPrompt,Test,null,1000,"""","""","""","""","""","""","""","""",1,4/24/2021 13:13,93.40.224.54,Mozilla/5.0 (Windows NT 10.0; Win64; x64; rv:88.0) Gecko/20100101 Firefox/88.0,,Firefox,88,Windows,10
117,1,402,"""",html-button-response,286,1366153,0.0-286.0,"""","<img src='jspsych/CFDfaces/CFD-BF-039-031-N.jpg' height=""250px"">,</br><b>Andrea</b>",0,256,IntactOrRearranged,Test,"""","""","""","""",CFD-WM-232-070-N.jpg,Timothy,1,0,"""","""",1,4/24/2021 13:13,93.40.224.54,Mozilla/5.0 (Windows NT 10.0; Win64; x64; rv:88.0) Gecko/20100101 Firefox/88.0,,Firefox,88,Windows,10
117,1,1055,"""",html-slider-response,287,1367209,0.0-287.0,"""","<img src='jspsych/CFDfaces/CFD-BF-039-031-N.jpg' height=""250px"">,</br><b>Andrea</b>","""",256,ConfidenceQuery,Test,"""","""","""","""",CFD-WM-232-070-N.jpg,Timothy,1,"""",0,47,1,4/24/2021 13:13,93.40.224.54,Mozilla/5.0 (Windows NT 10.0; Win64; x64; rv:88.0) Gecko/20100101 Firefox/88.0,,Firefox,88,Windows,10
117,1,null,"""",html-keyboard-response,288,1368220,0.0-288.0,"""","<div style=""font-size:60px;"">+</div>","""",256,ITI,Test,null,1000,"""","""","""","""","""","""","""","""",1,4/24/2021 13:13,93.40.224.54,Mozilla/5.0 (Windows NT 10.0; Win64; x64; rv:88.0) Gecko/20100101 Firefox/88.0,,Firefox,88,Windows,10
117,1,null,"""",image-keyboard-response,289,1368483,0.0-289.0,"""",jspsych/scrambledDisgustFaces/scrambledBF21DIS.JPG,"""",256,forwardMask,Test,null,250,"""",d,"""","""","""","""","""","""",1,4/24/2021 13:13,93.40.224.54,Mozilla/5.0 (Windows NT 10.0; Win64; x64; rv:88.0) Gecko/20100101 Firefox/88.0,,Firefox,88,Windows,10
117,1,null,"""",image-keyboard-response,290,1368516,0.0-290.0,"""",jspsych/disgustFaces/BF21DIS.JPG,"""",256,Cue,Test,null,16,"""","""","""","""","""","""","""","""",1,4/24/2021 13:13,93.40.224.54,Mozilla/5.0 (Windows NT 10.0; Win64; x64; rv:88.0) Gecko/20100101 Firefox/88.0,,Firefox,88,Windows,10
117,1,null,"""",image-keyboard-response,291,1368627,0.0-291.0,"""",jspsych/neutralFaces/BF27NES.JPG,"""",256,backwardMask,Test,null,100,"""","""","""","""","""","""","""","""",1,4/24/2021 13:13,93.40.224.54,Mozilla/5.0 (Windows NT 10.0; Win64; x64; rv:88.0) Gecko/20100101 Firefox/88.0,,Firefox,88,Windows,10
117,1,null,"""",html-keyboard-response,292,1369628,0.0-292.0,"""","<div style=""font-size:60px;"">+</div>","""",256,fixationBtwnNeutralMaskAndPrompt,Test,null,1000,"""","""","""","""","""","""","""","""",1,4/24/2021 13:13,93.40.224.54,Mozilla/5.0 (Windows NT 10.0; Win64; x64; rv:88.0) Gecko/20100101 Firefox/88.0,,Firefox,88,Windows,10
117,1,666,"""",html-button-response,293,1370296,0.0-293.0,"""","<img src='jspsych/CFDfaces/CFD-LF-243-175-N.jpg' height=""250px"">,</br><b>Elizabeth</b>",0,256,IntactOrRearranged,Test,"""","""","""","""",CFD-AM-221-184-N.jpg,Mark,1,0,"""","""",1,4/24/2021 13:13,93.40.224.54,Mozilla/5.0 (Windows NT 10.0; Win64; x64; rv:88.0) Gecko/20100101 Firefox/88.0,,Firefox,88,Windows,10
117,1,1709,"""",html-slider-response,294,1372012,0.0-294.0,"""","<img src='jspsych/CFDfaces/CFD-LF-243-175-N.jpg' height=""250px"">,</br><b>Elizabeth</b>","""",256,ConfidenceQuery,Test,"""","""","""","""",CFD-AM-221-184-N.jpg,Mark,1,"""",0,29,1,4/24/2021 13:13,93.40.224.54,Mozilla/5.0 (Windows NT 10.0; Win64; x64; rv:88.0) Gecko/20100101 Firefox/88.0,,Firefox,88,Windows,10
117,1,null,"""",html-keyboard-response,295,1373013,0.0-295.0,"""","<div style=""font-size:60px;"">+</div>","""",256,ITI,Test,null,1000,"""","""","""","""","""","""","""","""",1,4/24/2021 13:13,93.40.224.54,Mozilla/5.0 (Windows NT 10.0; Win64; x64; rv:88.0) Gecko/20100101 Firefox/88.0,,Firefox,88,Windows,10
