run_id,condition,rt,responses,trial_type,trial_index,time_elapsed,internal_node_id,question_order,stimulus,button_pressed,iTrial,Phase,ExperimentPhase,key_press,StimulusDurationSetting,CharacterResponse,correctResponse,Face,Name,rearranged,didSubjectEnterRearranged,slider_start,response,Block,recorded_at,ip,user_agent,device,browser,browser_version,platform,platform_version
118,1,10404.35,"{""Q0"":""A2KNV8X9K7F80Y""}",survey-text,0,10407,0.0-0.0,"""","""","""","""","""","""","""","""","""","""","""","""","""","""","""","""","""",4/24/2021 14:13,67.168.49.96,Mozilla/5.0 (Windows NT 10.0; WOW64; rv:47.0) Gecko/20100101 Firefox/47.0,,Firefox,47,Windows,10
118,1,2348.01,"{""Q0"":""47""}",survey-text,1,12771,0.0-1.0,"""","""","""","""","""","""","""","""","""","""","""","""","""","""","""","""","""",4/24/2021 14:13,67.168.49.96,Mozilla/5.0 (Windows NT 10.0; WOW64; rv:47.0) Gecko/20100101 Firefox/47.0,,Firefox,47,Windows,10
118,1,5551.84,"{""Q0"":""male"",""Q1"":""Not Hispanic/Latino"",""Q2"":""White or Caucasian""}",survey-multi-choice,2,18328,0.0-2.0,"[0,1,2]","""","""","""","""","""","""","""","""","""","""","""","""","""","""","""","""",4/24/2021 14:13,67.168.49.96,Mozilla/5.0 (Windows NT 10.0; WOW64; rv:47.0) Gecko/20100101 Firefox/47.0,,Firefox,47,Windows,10
118,1,8009.785,"""",image-button-response,3,26356,0.0-3.0,"""",directionsMemoryAssociation1.JPG,0,1,IntroDirections1,break,"""","""","""","""","""","""","""","""","""","""","""",4/24/2021 14:13,67.168.49.96,Mozilla/5.0 (Windows NT 10.0; WOW64; rv:47.0) Gecko/20100101 Firefox/47.0,,Firefox,47,Windows,10
118,1,5723.105,"""",image-button-response,4,32086,0.0-4.0,"""",directionsMemoryAssociation2.JPG,0,1,IntroDirections2,break,"""","""","""","""","""","""","""","""","""","""","""",4/24/2021 14:13,67.168.49.96,Mozilla/5.0 (Windows NT 10.0; WOW64; rv:47.0) Gecko/20100101 Firefox/47.0,,Firefox,47,Windows,10
118,1,4202.39,"""",html-keyboard-response,5,37094,0.0-5.0,"""","<img src='jspsych/CFDfaces/CFD-BF-221-223-N.jpg' height=""250px"">,</br><b>Katelyn</b>","""",1,IntactFace,Practice,70,5000,f,"""","""","""","""","""","""","""","""",4/24/2021 14:13,67.168.49.96,Mozilla/5.0 (Windows NT 10.0; WOW64; rv:47.0) Gecko/20100101 Firefox/47.0,,Firefox,47,Windows,10
118,1,null,"""",html-keyboard-response,6,37597,0.0-6.0,"""","<div style=""font-size:60px;"">+</div>","""",1,ITI,Practice,null,1000,"""","""","""","""","""","""","""","""","""",4/24/2021 14:13,67.168.49.96,Mozilla/5.0 (Windows NT 10.0; WOW64; rv:47.0) Gecko/20100101 Firefox/47.0,,Firefox,47,Windows,10
118,1,3870.76,"""",html-keyboard-response,7,42612,0.0-7.0,"""","<img src='jspsych/CFDfaces/CFD-AF-228-173-N.jpg' height=""250px"">,</br><b>Shannon</b>","""",2,IntactFace,Practice,78,5000,n,"""","""","""","""","""","""","""","""",4/24/2021 14:13,67.168.49.96,Mozilla/5.0 (Windows NT 10.0; WOW64; rv:47.0) Gecko/20100101 Firefox/47.0,,Firefox,47,Windows,10
118,1,null,"""",html-keyboard-response,8,43124,0.0-8.0,"""","<div style=""font-size:60px;"">+</div>","""",2,ITI,Practice,null,1000,"""","""","""","""","""","""","""","""","""",4/24/2021 14:13,67.168.49.96,Mozilla/5.0 (Windows NT 10.0; WOW64; rv:47.0) Gecko/20100101 Firefox/47.0,,Firefox,47,Windows,10
118,1,3436.06,"""",html-keyboard-response,9,48141,0.0-9.0,"""","<img src='jspsych/CFDfaces/CFD-LM-239-075-N.jpg' height=""250px"">,</br><b>Samuel</b>","""",3,IntactFace,Practice,70,5000,f,"""","""","""","""","""","""","""","""",4/24/2021 14:13,67.168.49.96,Mozilla/5.0 (Windows NT 10.0; WOW64; rv:47.0) Gecko/20100101 Firefox/47.0,,Firefox,47,Windows,10
118,1,null,"""",html-keyboard-response,10,48653,0.0-10.0,"""","<div style=""font-size:60px;"">+</div>","""",3,ITI,Practice,null,1000,"""","""","""","""","""","""","""","""","""",4/24/2021 14:13,67.168.49.96,Mozilla/5.0 (Windows NT 10.0; WOW64; rv:47.0) Gecko/20100101 Firefox/47.0,,Firefox,47,Windows,10
118,1,3090.685,"""",html-keyboard-response,11,53672,0.0-11.0,"""","<img src='jspsych/CFDfaces/CFD-BF-004-014-N.jpg' height=""250px"">,</br><b>Tara</b>","""",4,IntactFace,Practice,70,5000,f,"""","""","""","""","""","""","""","""",4/24/2021 14:13,67.168.49.96,Mozilla/5.0 (Windows NT 10.0; WOW64; rv:47.0) Gecko/20100101 Firefox/47.0,,Firefox,47,Windows,10
118,1,null,"""",html-keyboard-response,12,54182,0.0-12.0,"""","<div style=""font-size:60px;"">+</div>","""",4,ITI,Practice,null,1000,"""","""","""","""","""","""","""","""","""",4/24/2021 14:13,67.168.49.96,Mozilla/5.0 (Windows NT 10.0; WOW64; rv:47.0) Gecko/20100101 Firefox/47.0,,Firefox,47,Windows,10
118,1,1798.59,"""",html-keyboard-response,13,59223,0.0-13.0,"""","<img src='jspsych/CFDfaces/CFD-WM-022-001-N.jpg' height=""250px"">,</br><b>Patrick</b>","""",5,IntactFace,Practice,70,5000,f,"""","""","""","""","""","""","""","""",4/24/2021 14:13,67.168.49.96,Mozilla/5.0 (Windows NT 10.0; WOW64; rv:47.0) Gecko/20100101 Firefox/47.0,,Firefox,47,Windows,10
118,1,null,"""",html-keyboard-response,14,59729,0.0-14.0,"""","<div style=""font-size:60px;"">+</div>","""",5,ITI,Practice,null,1000,"""","""","""","""","""","""","""","""","""",4/24/2021 14:13,67.168.49.96,Mozilla/5.0 (Windows NT 10.0; WOW64; rv:47.0) Gecko/20100101 Firefox/47.0,,Firefox,47,Windows,10
118,1,2308.215,"""",html-keyboard-response,15,64750,0.0-15.0,"""","<img src='jspsych/CFDfaces/CFD-LM-220-329-N.jpg' height=""250px"">,</br><b>Carlos</b>","""",6,IntactFace,Practice,70,5000,f,"""","""","""","""","""","""","""","""",4/24/2021 14:13,67.168.49.96,Mozilla/5.0 (Windows NT 10.0; WOW64; rv:47.0) Gecko/20100101 Firefox/47.0,,Firefox,47,Windows,10
118,1,null,"""",html-keyboard-response,16,65266,0.0-16.0,"""","<div style=""font-size:60px;"">+</div>","""",6,ITI,Practice,null,1000,"""","""","""","""","""","""","""","""","""",4/24/2021 14:13,67.168.49.96,Mozilla/5.0 (Windows NT 10.0; WOW64; rv:47.0) Gecko/20100101 Firefox/47.0,,Firefox,47,Windows,10
118,1,1978.26,"""",html-keyboard-response,17,70288,0.0-17.0,"""","<img src='jspsych/CFDfaces/CFD-WF-207-014-N.jpg' height=""250px"">,</br><b>Cassandra</b>","""",7,IntactFace,Practice,70,5000,f,"""","""","""","""","""","""","""","""",4/24/2021 14:13,67.168.49.96,Mozilla/5.0 (Windows NT 10.0; WOW64; rv:47.0) Gecko/20100101 Firefox/47.0,,Firefox,47,Windows,10
118,1,null,"""",html-keyboard-response,18,70809,0.0-18.0,"""","<div style=""font-size:60px;"">+</div>","""",7,ITI,Practice,null,1000,"""","""","""","""","""","""","""","""","""",4/24/2021 14:13,67.168.49.96,Mozilla/5.0 (Windows NT 10.0; WOW64; rv:47.0) Gecko/20100101 Firefox/47.0,,Firefox,47,Windows,10
118,1,3404.02,"""",html-keyboard-response,19,75830,0.0-19.0,"""","<img src='jspsych/CFDfaces/CFD-LM-221-216-N.jpg' height=""250px"">,</br><b>Marcus</b>","""",8,IntactFace,Practice,78,5000,n,"""","""","""","""","""","""","""","""",4/24/2021 14:13,67.168.49.96,Mozilla/5.0 (Windows NT 10.0; WOW64; rv:47.0) Gecko/20100101 Firefox/47.0,,Firefox,47,Windows,10
118,1,null,"""",html-keyboard-response,20,76345,0.0-20.0,"""","<div style=""font-size:60px;"">+</div>","""",8,ITI,Practice,null,1000,"""","""","""","""","""","""","""","""","""",4/24/2021 14:13,67.168.49.96,Mozilla/5.0 (Windows NT 10.0; WOW64; rv:47.0) Gecko/20100101 Firefox/47.0,,Firefox,47,Windows,10
118,1,3987.23,"""",image-button-response,21,80348,0.0-21.0,"""",directionsForTest.JPG,0,1,directionsForTest,break,"""","""","""","""","""","""","""","""","""","""","""",4/24/2021 14:13,67.168.49.96,Mozilla/5.0 (Windows NT 10.0; WOW64; rv:47.0) Gecko/20100101 Firefox/47.0,,Firefox,47,Windows,10
118,1,7450.04,"""",image-button-response,22,87803,0.0-22.0,"""",directionsForTest2.JPG,0,1,directionsForTest2,break,"""","""","""","""","""","""","""","""","""","""","""",4/24/2021 14:13,67.168.49.96,Mozilla/5.0 (Windows NT 10.0; WOW64; rv:47.0) Gecko/20100101 Firefox/47.0,,Firefox,47,Windows,10
118,1,null,"""",html-keyboard-response,23,88817,0.0-23.0,"""","<div style=""font-size:60px;"">+</div>","""",1,ITI,Practice,null,1000,"""","""","""","""","""","""","""","""","""",4/24/2021 14:13,67.168.49.96,Mozilla/5.0 (Windows NT 10.0; WOW64; rv:47.0) Gecko/20100101 Firefox/47.0,,Firefox,47,Windows,10
118,1,null,"""",image-keyboard-response,24,89082,0.0-24.0,"""",jspsych/scrambledDisgustFaces/scrambledAM21DIS.JPG,"""",1,forwardMask,Practice,null,250,"""",d,"""","""","""","""","""","""","""",4/24/2021 14:13,67.168.49.96,Mozilla/5.0 (Windows NT 10.0; WOW64; rv:47.0) Gecko/20100101 Firefox/47.0,,Firefox,47,Windows,10
118,1,null,"""",image-keyboard-response,25,89106,0.0-25.0,"""",jspsych/disgustFaces/AM21DIS.JPG,"""",1,Cue,Practice,null,16,"""","""","""","""","""","""","""","""","""",4/24/2021 14:13,67.168.49.96,Mozilla/5.0 (Windows NT 10.0; WOW64; rv:47.0) Gecko/20100101 Firefox/47.0,,Firefox,47,Windows,10
118,1,null,"""",image-keyboard-response,26,89224,0.0-26.0,"""",jspsych/neutralFaces/BM09NES.JPG,"""",1,backwardMask,Practice,null,100,"""","""","""","""","""","""","""","""","""",4/24/2021 14:13,67.168.49.96,Mozilla/5.0 (Windows NT 10.0; WOW64; rv:47.0) Gecko/20100101 Firefox/47.0,,Firefox,47,Windows,10
118,1,null,"""",html-keyboard-response,27,90232,0.0-27.0,"""","<div style=""font-size:60px;"">+</div>","""",1,fixationBtwnNeutralMaskAndPrompt,Practice,null,1000,"""","""","""","""","""","""","""","""","""",4/24/2021 14:13,67.168.49.96,Mozilla/5.0 (Windows NT 10.0; WOW64; rv:47.0) Gecko/20100101 Firefox/47.0,,Firefox,47,Windows,10
118,1,1622.92,"""",html-button-response,28,91860,0.0-28.0,"""","<img src='jspsych/CFDfaces/CFD-WM-022-001-N.jpg'height=""250px""></br><b>Patrick</b>",0,1,IntactOrRearranged,Practice,"""","""","""","""",CFD-WM-022-001-N.jpg,Patrick,0,0,"""","""","""",4/24/2021 14:13,67.168.49.96,Mozilla/5.0 (Windows NT 10.0; WOW64; rv:47.0) Gecko/20100101 Firefox/47.0,,Firefox,47,Windows,10
118,1,4038.955,"""",html-slider-response,29,95901,0.0-29.0,"""","<img src='jspsych/CFDfaces/CFD-WM-022-001-N.jpg'height=""250px""></br><b>Patrick</b>","""",1,ConfidenceQuery,Practice,"""","""","""","""",CFD-WF-029-002-N.jpg,Heather,0,"""",0,65,"""",4/24/2021 14:13,67.168.49.96,Mozilla/5.0 (Windows NT 10.0; WOW64; rv:47.0) Gecko/20100101 Firefox/47.0,,Firefox,47,Windows,10
118,1,1187.095,"""",html-button-response,30,97091,0.0-30.0,"""",You are Correct. You called an Intact Pair Intact,0,1,feedback,Practice,"""","""","""","""","""","""","""","""","""","""","""",4/24/2021 14:13,67.168.49.96,Mozilla/5.0 (Windows NT 10.0; WOW64; rv:47.0) Gecko/20100101 Firefox/47.0,,Firefox,47,Windows,10
118,1,null,"""",html-keyboard-response,31,98098,0.0-31.0,"""","<div style=""font-size:60px;"">+</div>","""",2,ITI,Practice,null,1000,"""","""","""","""","""","""","""","""","""",4/24/2021 14:13,67.168.49.96,Mozilla/5.0 (Windows NT 10.0; WOW64; rv:47.0) Gecko/20100101 Firefox/47.0,,Firefox,47,Windows,10
118,1,null,"""",image-keyboard-response,32,98359,0.0-32.0,"""",jspsych/scrambledNeutralFaces/scrambledBF25NES.JPG,"""",2,forwardMask,Practice,null,250,"""",n,"""","""","""","""","""","""","""",4/24/2021 14:13,67.168.49.96,Mozilla/5.0 (Windows NT 10.0; WOW64; rv:47.0) Gecko/20100101 Firefox/47.0,,Firefox,47,Windows,10
118,1,null,"""",image-keyboard-response,33,98386,0.0-33.0,"""",jspsych/neutralFaces/BF25NES.JPG,"""",2,Cue,Practice,null,16,"""","""","""","""","""","""","""","""","""",4/24/2021 14:13,67.168.49.96,Mozilla/5.0 (Windows NT 10.0; WOW64; rv:47.0) Gecko/20100101 Firefox/47.0,,Firefox,47,Windows,10
118,1,null,"""",image-keyboard-response,34,98499,0.0-34.0,"""",jspsych/neutralFaces/AF18NES.JPG,"""",2,backwardMask,Practice,null,100,"""","""","""","""","""","""","""","""","""",4/24/2021 14:13,67.168.49.96,Mozilla/5.0 (Windows NT 10.0; WOW64; rv:47.0) Gecko/20100101 Firefox/47.0,,Firefox,47,Windows,10
118,1,null,"""",html-keyboard-response,35,99510,0.0-35.0,"""","<div style=""font-size:60px;"">+</div>","""",2,fixationBtwnNeutralMaskAndPrompt,Practice,null,1000,"""","""","""","""","""","""","""","""","""",4/24/2021 14:13,67.168.49.96,Mozilla/5.0 (Windows NT 10.0; WOW64; rv:47.0) Gecko/20100101 Firefox/47.0,,Firefox,47,Windows,10
118,1,1324.785,"""",html-button-response,36,100837,0.0-36.0,"""","<img src='jspsych/CFDfaces/CFD-WF-207-014-N.jpg'height=""250px""></br><b>Katelyn</b>",0,2,IntactOrRearranged,Practice,"""","""","""","""",CFD-WF-207-014-N.jpg,Katelyn,1,0,"""","""","""",4/24/2021 14:13,67.168.49.96,Mozilla/5.0 (Windows NT 10.0; WOW64; rv:47.0) Gecko/20100101 Firefox/47.0,,Firefox,47,Windows,10
118,1,2614.27,"""",html-slider-response,37,103453,0.0-37.0,"""","<img src='jspsych/CFDfaces/CFD-WF-207-014-N.jpg'height=""250px""></br><b>Katelyn</b>","""",2,ConfidenceQuery,Practice,"""","""","""","""",CFD-WF-029-002-N.jpg,Heather,1,"""",0,62,"""",4/24/2021 14:13,67.168.49.96,Mozilla/5.0 (Windows NT 10.0; WOW64; rv:47.0) Gecko/20100101 Firefox/47.0,,Firefox,47,Windows,10
118,1,1298.945,"""",html-button-response,38,104756,0.0-38.0,"""",You are Incorrect. You called a Rearranged Pair Intact,0,2,feedback,Practice,"""","""","""","""","""","""","""","""","""","""","""",4/24/2021 14:13,67.168.49.96,Mozilla/5.0 (Windows NT 10.0; WOW64; rv:47.0) Gecko/20100101 Firefox/47.0,,Firefox,47,Windows,10
118,1,null,"""",html-keyboard-response,39,105768,0.0-39.0,"""","<div style=""font-size:60px;"">+</div>","""",3,ITI,Practice,null,1000,"""","""","""","""","""","""","""","""","""",4/24/2021 14:13,67.168.49.96,Mozilla/5.0 (Windows NT 10.0; WOW64; rv:47.0) Gecko/20100101 Firefox/47.0,,Firefox,47,Windows,10
118,1,null,"""",image-keyboard-response,40,106034,0.0-40.0,"""",jspsych/scrambledDisgustFaces/scrambledAF22DIS.JPG,"""",3,forwardMask,Practice,null,250,"""",d,"""","""","""","""","""","""","""",4/24/2021 14:13,67.168.49.96,Mozilla/5.0 (Windows NT 10.0; WOW64; rv:47.0) Gecko/20100101 Firefox/47.0,,Firefox,47,Windows,10
118,1,null,"""",image-keyboard-response,41,106056,0.0-41.0,"""",jspsych/disgustFaces/AF22DIS.JPG,"""",3,Cue,Practice,null,16,"""","""","""","""","""","""","""","""","""",4/24/2021 14:13,67.168.49.96,Mozilla/5.0 (Windows NT 10.0; WOW64; rv:47.0) Gecko/20100101 Firefox/47.0,,Firefox,47,Windows,10
118,1,null,"""",image-keyboard-response,42,106172,0.0-42.0,"""",jspsych/neutralFaces/AF08NES.JPG,"""",3,backwardMask,Practice,null,100,"""","""","""","""","""","""","""","""","""",4/24/2021 14:13,67.168.49.96,Mozilla/5.0 (Windows NT 10.0; WOW64; rv:47.0) Gecko/20100101 Firefox/47.0,,Firefox,47,Windows,10
118,1,null,"""",html-keyboard-response,43,107180,0.0-43.0,"""","<div style=""font-size:60px;"">+</div>","""",3,fixationBtwnNeutralMaskAndPrompt,Practice,null,1000,"""","""","""","""","""","""","""","""","""",4/24/2021 14:13,67.168.49.96,Mozilla/5.0 (Windows NT 10.0; WOW64; rv:47.0) Gecko/20100101 Firefox/47.0,,Firefox,47,Windows,10
118,1,2160.13,"""",html-button-response,44,109342,0.0-44.0,"""","<img src='jspsych/CFDfaces/CFD-BF-221-223-N.jpg'height=""250px""></br><b>Cassandra</b>",1,3,IntactOrRearranged,Practice,"""","""","""","""",CFD-BF-221-223-N.jpg,Cassandra,1,1,"""","""","""",4/24/2021 14:13,67.168.49.96,Mozilla/5.0 (Windows NT 10.0; WOW64; rv:47.0) Gecko/20100101 Firefox/47.0,,Firefox,47,Windows,10
118,1,3028.01,"""",html-slider-response,45,112373,0.0-45.0,"""","<img src='jspsych/CFDfaces/CFD-BF-221-223-N.jpg'height=""250px""></br><b>Cassandra</b>","""",3,ConfidenceQuery,Practice,"""","""","""","""",CFD-WF-029-002-N.jpg,Heather,1,"""",0,96,"""",4/24/2021 14:13,67.168.49.96,Mozilla/5.0 (Windows NT 10.0; WOW64; rv:47.0) Gecko/20100101 Firefox/47.0,,Firefox,47,Windows,10
118,1,1126.845,"""",html-button-response,46,113501,0.0-46.0,"""",You are Correct. You Called A Rearranged Pair Rearranged,0,3,feedback,Practice,"""","""","""","""","""","""","""","""","""","""","""",4/24/2021 14:13,67.168.49.96,Mozilla/5.0 (Windows NT 10.0; WOW64; rv:47.0) Gecko/20100101 Firefox/47.0,,Firefox,47,Windows,10
118,1,null,"""",html-keyboard-response,47,114507,0.0-47.0,"""","<div style=""font-size:60px;"">+</div>","""",4,ITI,Practice,null,1000,"""","""","""","""","""","""","""","""","""",4/24/2021 14:13,67.168.49.96,Mozilla/5.0 (Windows NT 10.0; WOW64; rv:47.0) Gecko/20100101 Firefox/47.0,,Firefox,47,Windows,10
118,1,null,"""",image-keyboard-response,48,114772,0.0-48.0,"""",jspsych/scrambledNeutralFaces/scrambledAF07NES.JPG,"""",4,forwardMask,Practice,null,250,"""",n,"""","""","""","""","""","""","""",4/24/2021 14:13,67.168.49.96,Mozilla/5.0 (Windows NT 10.0; WOW64; rv:47.0) Gecko/20100101 Firefox/47.0,,Firefox,47,Windows,10
118,1,null,"""",image-keyboard-response,49,114804,0.0-49.0,"""",jspsych/neutralFaces/AF07NES.JPG,"""",4,Cue,Practice,null,16,"""","""","""","""","""","""","""","""","""",4/24/2021 14:13,67.168.49.96,Mozilla/5.0 (Windows NT 10.0; WOW64; rv:47.0) Gecko/20100101 Firefox/47.0,,Firefox,47,Windows,10
118,1,null,"""",image-keyboard-response,50,114912,0.0-50.0,"""",jspsych/neutralFaces/BF15NES.JPG,"""",4,backwardMask,Practice,null,100,"""","""","""","""","""","""","""","""","""",4/24/2021 14:13,67.168.49.96,Mozilla/5.0 (Windows NT 10.0; WOW64; rv:47.0) Gecko/20100101 Firefox/47.0,,Firefox,47,Windows,10
118,1,null,"""",html-keyboard-response,51,115922,0.0-51.0,"""","<div style=""font-size:60px;"">+</div>","""",4,fixationBtwnNeutralMaskAndPrompt,Practice,null,1000,"""","""","""","""","""","""","""","""","""",4/24/2021 14:13,67.168.49.96,Mozilla/5.0 (Windows NT 10.0; WOW64; rv:47.0) Gecko/20100101 Firefox/47.0,,Firefox,47,Windows,10
118,1,2553.57,"""",html-button-response,52,118478,0.0-52.0,"""","<img src='jspsych/CFDfaces/CFD-BF-004-014-N.jpg'height=""250px""></br><b>Tara</b>",0,4,IntactOrRearranged,Practice,"""","""","""","""",CFD-BF-004-014-N.jpg,Tara,0,0,"""","""","""",4/24/2021 14:13,67.168.49.96,Mozilla/5.0 (Windows NT 10.0; WOW64; rv:47.0) Gecko/20100101 Firefox/47.0,,Firefox,47,Windows,10
118,1,1278.62,"""",html-slider-response,53,119758,0.0-53.0,"""","<img src='jspsych/CFDfaces/CFD-BF-004-014-N.jpg'height=""250px""></br><b>Tara</b>","""",4,ConfidenceQuery,Practice,"""","""","""","""",CFD-WF-029-002-N.jpg,Heather,0,"""",0,25,"""",4/24/2021 14:13,67.168.49.96,Mozilla/5.0 (Windows NT 10.0; WOW64; rv:47.0) Gecko/20100101 Firefox/47.0,,Firefox,47,Windows,10
118,1,1213.32,"""",html-button-response,54,120973,0.0-54.0,"""",You are Correct. You called an Intact Pair Intact,0,4,feedback,Practice,"""","""","""","""","""","""","""","""","""","""","""",4/24/2021 14:13,67.168.49.96,Mozilla/5.0 (Windows NT 10.0; WOW64; rv:47.0) Gecko/20100101 Firefox/47.0,,Firefox,47,Windows,10
118,1,null,"""",html-keyboard-response,55,121989,0.0-55.0,"""","<div style=""font-size:60px;"">+</div>","""",5,ITI,Practice,null,1000,"""","""","""","""","""","""","""","""","""",4/24/2021 14:13,67.168.49.96,Mozilla/5.0 (Windows NT 10.0; WOW64; rv:47.0) Gecko/20100101 Firefox/47.0,,Firefox,47,Windows,10
118,1,null,"""",image-keyboard-response,56,122254,0.0-56.0,"""",jspsych/scrambledNeutralFaces/scrambledBM22NES.JPG,"""",5,forwardMask,Practice,null,250,"""",n,"""","""","""","""","""","""","""",4/24/2021 14:13,67.168.49.96,Mozilla/5.0 (Windows NT 10.0; WOW64; rv:47.0) Gecko/20100101 Firefox/47.0,,Firefox,47,Windows,10
118,1,null,"""",image-keyboard-response,57,122285,0.0-57.0,"""",jspsych/neutralFaces/BM22NES.JPG,"""",5,Cue,Practice,null,16,"""","""","""","""","""","""","""","""","""",4/24/2021 14:13,67.168.49.96,Mozilla/5.0 (Windows NT 10.0; WOW64; rv:47.0) Gecko/20100101 Firefox/47.0,,Firefox,47,Windows,10
118,1,null,"""",image-keyboard-response,58,122394,0.0-58.0,"""",jspsych/neutralFaces/BM12NES.JPG,"""",5,backwardMask,Practice,null,100,"""","""","""","""","""","""","""","""","""",4/24/2021 14:13,67.168.49.96,Mozilla/5.0 (Windows NT 10.0; WOW64; rv:47.0) Gecko/20100101 Firefox/47.0,,Firefox,47,Windows,10
118,1,null,"""",html-keyboard-response,59,123403,0.0-59.0,"""","<div style=""font-size:60px;"">+</div>","""",5,fixationBtwnNeutralMaskAndPrompt,Practice,null,1000,"""","""","""","""","""","""","""","""","""",4/24/2021 14:13,67.168.49.96,Mozilla/5.0 (Windows NT 10.0; WOW64; rv:47.0) Gecko/20100101 Firefox/47.0,,Firefox,47,Windows,10
118,1,3633.96,"""",html-button-response,60,127039,0.0-60.0,"""","<img src='jspsych/CFDfaces/CFD-LM-239-075-N.jpg'height=""250px""></br><b>Samuel</b>",0,5,IntactOrRearranged,Practice,"""","""","""","""",CFD-LM-239-075-N.jpg,Samuel,0,0,"""","""","""",4/24/2021 14:13,67.168.49.96,Mozilla/5.0 (Windows NT 10.0; WOW64; rv:47.0) Gecko/20100101 Firefox/47.0,,Firefox,47,Windows,10
118,1,1604.755,"""",html-slider-response,61,128647,0.0-61.0,"""","<img src='jspsych/CFDfaces/CFD-LM-239-075-N.jpg'height=""250px""></br><b>Samuel</b>","""",5,ConfidenceQuery,Practice,"""","""","""","""",CFD-WF-029-002-N.jpg,Heather,0,"""",0,32,"""",4/24/2021 14:13,67.168.49.96,Mozilla/5.0 (Windows NT 10.0; WOW64; rv:47.0) Gecko/20100101 Firefox/47.0,,Firefox,47,Windows,10
118,1,1046.16,"""",html-button-response,62,129694,0.0-62.0,"""",You are Correct. You called an Intact Pair Intact,0,5,feedback,Practice,"""","""","""","""","""","""","""","""","""","""","""",4/24/2021 14:13,67.168.49.96,Mozilla/5.0 (Windows NT 10.0; WOW64; rv:47.0) Gecko/20100101 Firefox/47.0,,Firefox,47,Windows,10
118,1,null,"""",html-keyboard-response,63,130709,0.0-63.0,"""","<div style=""font-size:60px;"">+</div>","""",6,ITI,Practice,null,1000,"""","""","""","""","""","""","""","""","""",4/24/2021 14:13,67.168.49.96,Mozilla/5.0 (Windows NT 10.0; WOW64; rv:47.0) Gecko/20100101 Firefox/47.0,,Firefox,47,Windows,10
118,1,null,"""",image-keyboard-response,64,130972,0.0-64.0,"""",jspsych/scrambledDisgustFaces/scrambledBF23DIS.JPG,"""",6,forwardMask,Practice,null,250,"""",d,"""","""","""","""","""","""","""",4/24/2021 14:13,67.168.49.96,Mozilla/5.0 (Windows NT 10.0; WOW64; rv:47.0) Gecko/20100101 Firefox/47.0,,Firefox,47,Windows,10
118,1,null,"""",image-keyboard-response,65,131002,0.0-65.0,"""",jspsych/disgustFaces/BF23DIS.JPG,"""",6,Cue,Practice,null,16,"""","""","""","""","""","""","""","""","""",4/24/2021 14:13,67.168.49.96,Mozilla/5.0 (Windows NT 10.0; WOW64; rv:47.0) Gecko/20100101 Firefox/47.0,,Firefox,47,Windows,10
118,1,null,"""",image-keyboard-response,66,131111,0.0-66.0,"""",jspsych/neutralFaces/AF23NES.JPG,"""",6,backwardMask,Practice,null,100,"""","""","""","""","""","""","""","""","""",4/24/2021 14:13,67.168.49.96,Mozilla/5.0 (Windows NT 10.0; WOW64; rv:47.0) Gecko/20100101 Firefox/47.0,,Firefox,47,Windows,10
118,1,null,"""",html-keyboard-response,67,132123,0.0-67.0,"""","<div style=""font-size:60px;"">+</div>","""",6,fixationBtwnNeutralMaskAndPrompt,Practice,null,1000,"""","""","""","""","""","""","""","""","""",4/24/2021 14:13,67.168.49.96,Mozilla/5.0 (Windows NT 10.0; WOW64; rv:47.0) Gecko/20100101 Firefox/47.0,,Firefox,47,Windows,10
118,1,4196.96,"""",html-button-response,68,136323,0.0-68.0,"""","<img src='jspsych/CFDfaces/CFD-LM-221-216-N.jpg'height=""250px""></br><b>Carlos</b>",1,6,IntactOrRearranged,Practice,"""","""","""","""",CFD-LM-221-216-N.jpg,Carlos,1,1,"""","""","""",4/24/2021 14:13,67.168.49.96,Mozilla/5.0 (Windows NT 10.0; WOW64; rv:47.0) Gecko/20100101 Firefox/47.0,,Firefox,47,Windows,10
118,1,1491.62,"""",html-slider-response,69,137828,0.0-69.0,"""","<img src='jspsych/CFDfaces/CFD-LM-221-216-N.jpg'height=""250px""></br><b>Carlos</b>","""",6,ConfidenceQuery,Practice,"""","""","""","""",CFD-WF-029-002-N.jpg,Heather,1,"""",0,10,"""",4/24/2021 14:13,67.168.49.96,Mozilla/5.0 (Windows NT 10.0; WOW64; rv:47.0) Gecko/20100101 Firefox/47.0,,Firefox,47,Windows,10
118,1,1340.31,"""",html-button-response,70,139173,0.0-70.0,"""",You are Correct. You Called A Rearranged Pair Rearranged,0,6,feedback,Practice,"""","""","""","""","""","""","""","""","""","""","""",4/24/2021 14:13,67.168.49.96,Mozilla/5.0 (Windows NT 10.0; WOW64; rv:47.0) Gecko/20100101 Firefox/47.0,,Firefox,47,Windows,10
118,1,null,"""",html-keyboard-response,71,140183,0.0-71.0,"""","<div style=""font-size:60px;"">+</div>","""",7,ITI,Practice,null,1000,"""","""","""","""","""","""","""","""","""",4/24/2021 14:13,67.168.49.96,Mozilla/5.0 (Windows NT 10.0; WOW64; rv:47.0) Gecko/20100101 Firefox/47.0,,Firefox,47,Windows,10
118,1,null,"""",image-keyboard-response,72,140447,0.0-72.0,"""",jspsych/scrambledNeutralFaces/scrambledAM34NES.JPG,"""",7,forwardMask,Practice,null,250,"""",n,"""","""","""","""","""","""","""",4/24/2021 14:13,67.168.49.96,Mozilla/5.0 (Windows NT 10.0; WOW64; rv:47.0) Gecko/20100101 Firefox/47.0,,Firefox,47,Windows,10
118,1,null,"""",image-keyboard-response,73,140470,0.0-73.0,"""",jspsych/neutralFaces/AM34NES.JPG,"""",7,Cue,Practice,null,16,"""","""","""","""","""","""","""","""","""",4/24/2021 14:13,67.168.49.96,Mozilla/5.0 (Windows NT 10.0; WOW64; rv:47.0) Gecko/20100101 Firefox/47.0,,Firefox,47,Windows,10
118,1,null,"""",image-keyboard-response,74,140582,0.0-74.0,"""",jspsych/neutralFaces/BM35NES.JPG,"""",7,backwardMask,Practice,null,100,"""","""","""","""","""","""","""","""","""",4/24/2021 14:13,67.168.49.96,Mozilla/5.0 (Windows NT 10.0; WOW64; rv:47.0) Gecko/20100101 Firefox/47.0,,Firefox,47,Windows,10
118,1,null,"""",html-keyboard-response,75,141585,0.0-75.0,"""","<div style=""font-size:60px;"">+</div>","""",7,fixationBtwnNeutralMaskAndPrompt,Practice,null,1000,"""","""","""","""","""","""","""","""","""",4/24/2021 14:13,67.168.49.96,Mozilla/5.0 (Windows NT 10.0; WOW64; rv:47.0) Gecko/20100101 Firefox/47.0,,Firefox,47,Windows,10
118,1,3533.905,"""",html-button-response,76,145122,0.0-76.0,"""","<img src='jspsych/CFDfaces/CFD-LM-220-329-N.jpg'height=""250px""></br><b>Marcus</b>",1,7,IntactOrRearranged,Practice,"""","""","""","""",CFD-LM-220-329-N.jpg,Marcus,1,1,"""","""","""",4/24/2021 14:13,67.168.49.96,Mozilla/5.0 (Windows NT 10.0; WOW64; rv:47.0) Gecko/20100101 Firefox/47.0,,Firefox,47,Windows,10
118,1,2884.875,"""",html-slider-response,77,148018,0.0-77.0,"""","<img src='jspsych/CFDfaces/CFD-LM-220-329-N.jpg'height=""250px""></br><b>Marcus</b>","""",7,ConfidenceQuery,Practice,"""","""","""","""",CFD-WF-029-002-N.jpg,Heather,1,"""",0,29,"""",4/24/2021 14:13,67.168.49.96,Mozilla/5.0 (Windows NT 10.0; WOW64; rv:47.0) Gecko/20100101 Firefox/47.0,,Firefox,47,Windows,10
118,1,1036.075,"""",html-button-response,78,149056,0.0-78.0,"""",You are Correct. You Called A Rearranged Pair Rearranged,0,7,feedback,Practice,"""","""","""","""","""","""","""","""","""","""","""",4/24/2021 14:13,67.168.49.96,Mozilla/5.0 (Windows NT 10.0; WOW64; rv:47.0) Gecko/20100101 Firefox/47.0,,Firefox,47,Windows,10
118,1,null,"""",html-keyboard-response,79,150072,0.0-79.0,"""","<div style=""font-size:60px;"">+</div>","""",8,ITI,Practice,null,1000,"""","""","""","""","""","""","""","""","""",4/24/2021 14:13,67.168.49.96,Mozilla/5.0 (Windows NT 10.0; WOW64; rv:47.0) Gecko/20100101 Firefox/47.0,,Firefox,47,Windows,10
118,1,null,"""",image-keyboard-response,80,150337,0.0-80.0,"""",jspsych/scrambledNeutralFaces/scrambledAM27NES.JPG,"""",8,forwardMask,Practice,null,250,"""",n,"""","""","""","""","""","""","""",4/24/2021 14:13,67.168.49.96,Mozilla/5.0 (Windows NT 10.0; WOW64; rv:47.0) Gecko/20100101 Firefox/47.0,,Firefox,47,Windows,10
118,1,null,"""",image-keyboard-response,81,150368,0.0-81.0,"""",jspsych/neutralFaces/AM27NES.JPG,"""",8,Cue,Practice,null,16,"""","""","""","""","""","""","""","""","""",4/24/2021 14:13,67.168.49.96,Mozilla/5.0 (Windows NT 10.0; WOW64; rv:47.0) Gecko/20100101 Firefox/47.0,,Firefox,47,Windows,10
118,1,null,"""",image-keyboard-response,82,150475,0.0-82.0,"""",jspsych/neutralFaces/BM10NES.JPG,"""",8,backwardMask,Practice,null,100,"""","""","""","""","""","""","""","""","""",4/24/2021 14:13,67.168.49.96,Mozilla/5.0 (Windows NT 10.0; WOW64; rv:47.0) Gecko/20100101 Firefox/47.0,,Firefox,47,Windows,10
118,1,null,"""",html-keyboard-response,83,151486,0.0-83.0,"""","<div style=""font-size:60px;"">+</div>","""",8,fixationBtwnNeutralMaskAndPrompt,Practice,null,1000,"""","""","""","""","""","""","""","""","""",4/24/2021 14:13,67.168.49.96,Mozilla/5.0 (Windows NT 10.0; WOW64; rv:47.0) Gecko/20100101 Firefox/47.0,,Firefox,47,Windows,10
118,1,1832.615,"""",html-button-response,84,153330,0.0-84.0,"""","<img src='jspsych/CFDfaces/CFD-AF-228-173-N.jpg'height=""250px""></br><b>Shannon</b>",0,8,IntactOrRearranged,Practice,"""","""","""","""",CFD-AF-228-173-N.jpg,Shannon,0,0,"""","""","""",4/24/2021 14:13,67.168.49.96,Mozilla/5.0 (Windows NT 10.0; WOW64; rv:47.0) Gecko/20100101 Firefox/47.0,,Firefox,47,Windows,10
118,1,1782.67,"""",html-slider-response,85,155114,0.0-85.0,"""","<img src='jspsych/CFDfaces/CFD-AF-228-173-N.jpg'height=""250px""></br><b>Shannon</b>","""",8,ConfidenceQuery,Practice,"""","""","""","""",CFD-WF-029-002-N.jpg,Heather,0,"""",0,65,"""",4/24/2021 14:13,67.168.49.96,Mozilla/5.0 (Windows NT 10.0; WOW64; rv:47.0) Gecko/20100101 Firefox/47.0,,Firefox,47,Windows,10
118,1,1039.365,"""",html-button-response,86,156155,0.0-86.0,"""",You are Correct. You called an Intact Pair Intact,0,8,feedback,Practice,"""","""","""","""","""","""","""","""","""","""","""",4/24/2021 14:13,67.168.49.96,Mozilla/5.0 (Windows NT 10.0; WOW64; rv:47.0) Gecko/20100101 Firefox/47.0,,Firefox,47,Windows,10
118,1,6809,"""",image-button-response,87,162969,0.0-87.0,"""",directionsMemoryAssociation3.JPG,0,128,DirectionsBeforeActualTEst,Break,"""","""","""","""","""","""","""","""","""","""","""",4/24/2021 14:13,67.168.49.96,Mozilla/5.0 (Windows NT 10.0; WOW64; rv:47.0) Gecko/20100101 Firefox/47.0,,Firefox,47,Windows,10
118,1,2930.675,"""",image-button-response,88,165906,0.0-88.0,"""",directionsForTest2.JPG,0,1,directionsForTest2,break,"""","""","""","""","""","""","""","""","""","""","""",4/24/2021 14:13,67.168.49.96,Mozilla/5.0 (Windows NT 10.0; WOW64; rv:47.0) Gecko/20100101 Firefox/47.0,,Firefox,47,Windows,10
118,1,24073.9,"""",html-button-response,89,189981,0.0-89.0,"""","<p>You will be asked to memorize and then recall four sets of face-name pairs. </p> <p> Each set will have 32 pairs. </p> <p>After the fourth set, there will be a brief follow-up experiment (<40 min alltogether)</p>",0,"""","""","""","""","""","""","""","""","""","""","""","""","""","""",4/24/2021 14:13,67.168.49.96,Mozilla/5.0 (Windows NT 10.0; WOW64; rv:47.0) Gecko/20100101 Firefox/47.0,,Firefox,47,Windows,10
118,1,2640.06,"""",html-keyboard-response,90,194995,0.0-90.0,"""","<img src='jspsych/CFDfaces/CFD-WF-003-003-N.jpg' height=""250px""></br><b>Kayla</b>","""",256,IntactFace,Memorization,70,5000,f,"""",CFD-BF-047-003-N.jpg,Lauren,0,"""","""","""",1,4/24/2021 14:13,67.168.49.96,Mozilla/5.0 (Windows NT 10.0; WOW64; rv:47.0) Gecko/20100101 Firefox/47.0,,Firefox,47,Windows,10
118,1,null,"""",html-keyboard-response,91,195506,0.0-91.0,"""","<div style=""font-size:60px;"">+</div>","""",256,fixation,Memorization,null,500,"""","""","""","""","""","""","""","""",1,4/24/2021 14:13,67.168.49.96,Mozilla/5.0 (Windows NT 10.0; WOW64; rv:47.0) Gecko/20100101 Firefox/47.0,,Firefox,47,Windows,10
118,1,1502.93,"""",html-keyboard-response,92,200522,0.0-92.0,"""","<img src='jspsych/CFDfaces/CFD-BF-201-080-N.jpg' height=""250px""></br><b>Ashley</b>","""",256,IntactFace,Memorization,70,5000,f,"""",CFD-AM-229-224-N.jpg,Jacob,0,"""","""","""",1,4/24/2021 14:13,67.168.49.96,Mozilla/5.0 (Windows NT 10.0; WOW64; rv:47.0) Gecko/20100101 Firefox/47.0,,Firefox,47,Windows,10
118,1,null,"""",html-keyboard-response,93,201047,0.0-93.0,"""","<div style=""font-size:60px;"">+</div>","""",256,fixation,Memorization,null,500,"""","""","""","""","""","""","""","""",1,4/24/2021 14:13,67.168.49.96,Mozilla/5.0 (Windows NT 10.0; WOW64; rv:47.0) Gecko/20100101 Firefox/47.0,,Firefox,47,Windows,10
118,1,1319.2,"""",html-keyboard-response,94,206064,0.0-94.0,"""","<img src='jspsych/CFDfaces/CFD-AF-209-006-N.jpg' height=""250px""></br><b>Vanessa</b>","""",256,IntactFace,Memorization,78,5000,n,"""",CFD-BF-019-001-N.jpg,Tiffany,0,"""","""","""",1,4/24/2021 14:13,67.168.49.96,Mozilla/5.0 (Windows NT 10.0; WOW64; rv:47.0) Gecko/20100101 Firefox/47.0,,Firefox,47,Windows,10
118,1,null,"""",html-keyboard-response,95,206586,0.0-95.0,"""","<div style=""font-size:60px;"">+</div>","""",256,fixation,Memorization,null,500,"""","""","""","""","""","""","""","""",1,4/24/2021 14:13,67.168.49.96,Mozilla/5.0 (Windows NT 10.0; WOW64; rv:47.0) Gecko/20100101 Firefox/47.0,,Firefox,47,Windows,10
118,1,1907.445,"""",html-keyboard-response,96,211615,0.0-96.0,"""","<img src='jspsych/CFDfaces/CFD-WM-017-002-N.jpg' height=""250px""></br><b>Brian</b>","""",256,IntactFace,Memorization,70,5000,f,"""",CFD-LF-244-096-N.jpg,Amy,0,"""","""","""",1,4/24/2021 14:13,67.168.49.96,Mozilla/5.0 (Windows NT 10.0; WOW64; rv:47.0) Gecko/20100101 Firefox/47.0,,Firefox,47,Windows,10
118,1,null,"""",html-keyboard-response,97,212127,0.0-97.0,"""","<div style=""font-size:60px;"">+</div>","""",256,fixation,Memorization,null,500,"""","""","""","""","""","""","""","""",1,4/24/2021 14:13,67.168.49.96,Mozilla/5.0 (Windows NT 10.0; WOW64; rv:47.0) Gecko/20100101 Firefox/47.0,,Firefox,47,Windows,10
118,1,1676.715,"""",html-keyboard-response,98,217142,0.0-98.0,"""","<img src='jspsych/CFDfaces/CFD-WF-223-133-N.jpg' height=""250px""></br><b>Julie</b>","""",256,IntactFace,Memorization,70,5000,f,"""",CFD-WM-215-041-N.jpg,Mark,0,"""","""","""",1,4/24/2021 14:13,67.168.49.96,Mozilla/5.0 (Windows NT 10.0; WOW64; rv:47.0) Gecko/20100101 Firefox/47.0,,Firefox,47,Windows,10
118,1,null,"""",html-keyboard-response,99,217655,0.0-99.0,"""","<div style=""font-size:60px;"">+</div>","""",256,fixation,Memorization,null,500,"""","""","""","""","""","""","""","""",1,4/24/2021 14:13,67.168.49.96,Mozilla/5.0 (Windows NT 10.0; WOW64; rv:47.0) Gecko/20100101 Firefox/47.0,,Firefox,47,Windows,10
118,1,1624.39,"""",html-keyboard-response,100,222672,0.0-100.0,"""","<img src='jspsych/CFDfaces/CFD-WM-207-048-N.jpg' height=""250px""></br><b>Joshua</b>","""",256,IntactFace,Memorization,70,5000,f,"""",CFD-AM-221-184-N.jpg,Steven,0,"""","""","""",1,4/24/2021 14:13,67.168.49.96,Mozilla/5.0 (Windows NT 10.0; WOW64; rv:47.0) Gecko/20100101 Firefox/47.0,,Firefox,47,Windows,10
118,1,null,"""",html-keyboard-response,101,223182,0.0-101.0,"""","<div style=""font-size:60px;"">+</div>","""",256,fixation,Memorization,null,500,"""","""","""","""","""","""","""","""",1,4/24/2021 14:13,67.168.49.96,Mozilla/5.0 (Windows NT 10.0; WOW64; rv:47.0) Gecko/20100101 Firefox/47.0,,Firefox,47,Windows,10
118,1,2030.835,"""",html-keyboard-response,102,228189,0.0-102.0,"""","<img src='jspsych/CFDfaces/CFD-WM-019-003-N.jpg' height=""250px""></br><b>Richard</b>","""",256,IntactFace,Memorization,78,5000,n,"""",CFD-BF-010-001-N.jpg,Lindsey,0,"""","""","""",1,4/24/2021 14:13,67.168.49.96,Mozilla/5.0 (Windows NT 10.0; WOW64; rv:47.0) Gecko/20100101 Firefox/47.0,,Firefox,47,Windows,10
118,1,null,"""",html-keyboard-response,103,228702,0.0-103.0,"""","<div style=""font-size:60px;"">+</div>","""",256,fixation,Memorization,null,500,"""","""","""","""","""","""","""","""",1,4/24/2021 14:13,67.168.49.96,Mozilla/5.0 (Windows NT 10.0; WOW64; rv:47.0) Gecko/20100101 Firefox/47.0,,Firefox,47,Windows,10
118,1,2546.34,"""",html-keyboard-response,104,233715,0.0-104.0,"""","<img src='jspsych/CFDfaces/CFD-LF-205-100-N.jpg' height=""250px""></br><b>Elizabeth</b>","""",256,IntactFace,Memorization,78,5000,n,"""",CFD-BM-002-013-N.jpg,Dustin,0,"""","""","""",1,4/24/2021 14:13,67.168.49.96,Mozilla/5.0 (Windows NT 10.0; WOW64; rv:47.0) Gecko/20100101 Firefox/47.0,,Firefox,47,Windows,10
118,1,null,"""",html-keyboard-response,105,234239,0.0-105.0,"""","<div style=""font-size:60px;"">+</div>","""",256,fixation,Memorization,null,500,"""","""","""","""","""","""","""","""",1,4/24/2021 14:13,67.168.49.96,Mozilla/5.0 (Windows NT 10.0; WOW64; rv:47.0) Gecko/20100101 Firefox/47.0,,Firefox,47,Windows,10
118,1,1377.25,"""",html-keyboard-response,106,239254,0.0-106.0,"""","<img src='jspsych/CFDfaces/CFD-LF-208-127-N.jpg' height=""250px""></br><b>Christina</b>","""",256,IntactFace,Memorization,70,5000,f,"""",CFD-WF-029-002-N.jpg,Heather,0,"""","""","""",1,4/24/2021 14:13,67.168.49.96,Mozilla/5.0 (Windows NT 10.0; WOW64; rv:47.0) Gecko/20100101 Firefox/47.0,,Firefox,47,Windows,10
118,1,null,"""",html-keyboard-response,107,239770,0.0-107.0,"""","<div style=""font-size:60px;"">+</div>","""",256,fixation,Memorization,null,500,"""","""","""","""","""","""","""","""",1,4/24/2021 14:13,67.168.49.96,Mozilla/5.0 (Windows NT 10.0; WOW64; rv:47.0) Gecko/20100101 Firefox/47.0,,Firefox,47,Windows,10
118,1,2111.875,"""",html-keyboard-response,108,244785,0.0-108.0,"""","<img src='jspsych/CFDfaces/CFD-AM-237-154-N.jpg' height=""250px""></br><b>Eric</b>","""",256,IntactFace,Memorization,70,5000,f,"""",CFD-BF-209-172-N.jpg,Jenna,0,"""","""","""",1,4/24/2021 14:13,67.168.49.96,Mozilla/5.0 (Windows NT 10.0; WOW64; rv:47.0) Gecko/20100101 Firefox/47.0,,Firefox,47,Windows,10
118,1,null,"""",html-keyboard-response,109,245299,0.0-109.0,"""","<div style=""font-size:60px;"">+</div>","""",256,fixation,Memorization,null,500,"""","""","""","""","""","""","""","""",1,4/24/2021 14:13,67.168.49.96,Mozilla/5.0 (Windows NT 10.0; WOW64; rv:47.0) Gecko/20100101 Firefox/47.0,,Firefox,47,Windows,10
118,1,1134.8,"""",html-keyboard-response,110,250314,0.0-110.0,"""","<img src='jspsych/CFDfaces/CFD-AM-230-150-N.jpg' height=""250px""></br><b>Jason</b>","""",256,IntactFace,Memorization,78,5000,n,"""",CFD-BM-010-003-N.jpg,Cameron,0,"""","""","""",1,4/24/2021 14:13,67.168.49.96,Mozilla/5.0 (Windows NT 10.0; WOW64; rv:47.0) Gecko/20100101 Firefox/47.0,,Firefox,47,Windows,10
118,1,null,"""",html-keyboard-response,111,250825,0.0-111.0,"""","<div style=""font-size:60px;"">+</div>","""",256,fixation,Memorization,null,500,"""","""","""","""","""","""","""","""",1,4/24/2021 14:13,67.168.49.96,Mozilla/5.0 (Windows NT 10.0; WOW64; rv:47.0) Gecko/20100101 Firefox/47.0,,Firefox,47,Windows,10
118,1,1223.8,"""",html-keyboard-response,112,255832,0.0-112.0,"""","<img src='jspsych/CFDfaces/CFD-LM-219-295-N.jpg' height=""250px""></br><b>Daniel</b>","""",256,IntactFace,Memorization,70,5000,f,"""",CFD-BM-210-148-N.jpg,Jeremy,0,"""","""","""",1,4/24/2021 14:13,67.168.49.96,Mozilla/5.0 (Windows NT 10.0; WOW64; rv:47.0) Gecko/20100101 Firefox/47.0,,Firefox,47,Windows,10
118,1,null,"""",html-keyboard-response,113,256340,0.0-113.0,"""","<div style=""font-size:60px;"">+</div>","""",256,fixation,Memorization,null,500,"""","""","""","""","""","""","""","""",1,4/24/2021 14:13,67.168.49.96,Mozilla/5.0 (Windows NT 10.0; WOW64; rv:47.0) Gecko/20100101 Firefox/47.0,,Firefox,47,Windows,10
118,1,2418.96,"""",html-keyboard-response,114,261354,0.0-114.0,"""","<img src='jspsych/CFDfaces/CFD-LF-204-133-N.jpg' height=""250px""></br><b>Michelle</b>","""",256,IntactFace,Memorization,70,5000,f,"""",CFD-AF-233-190-N.jpg,Laura,0,"""","""","""",1,4/24/2021 14:13,67.168.49.96,Mozilla/5.0 (Windows NT 10.0; WOW64; rv:47.0) Gecko/20100101 Firefox/47.0,,Firefox,47,Windows,10
118,1,null,"""",html-keyboard-response,115,261867,0.0-115.0,"""","<div style=""font-size:60px;"">+</div>","""",256,fixation,Memorization,null,500,"""","""","""","""","""","""","""","""",1,4/24/2021 14:13,67.168.49.96,Mozilla/5.0 (Windows NT 10.0; WOW64; rv:47.0) Gecko/20100101 Firefox/47.0,,Firefox,47,Windows,10
118,1,1412.925,"""",html-keyboard-response,116,266884,0.0-116.0,"""","<img src='jspsych/CFDfaces/CFD-WF-016-015-N.jpg' height=""250px""></br><b>Kimberly</b>","""",256,IntactFace,Memorization,70,5000,f,"""",CFD-AM-248-104-N.jpg,Travis,0,"""","""","""",1,4/24/2021 14:13,67.168.49.96,Mozilla/5.0 (Windows NT 10.0; WOW64; rv:47.0) Gecko/20100101 Firefox/47.0,,Firefox,47,Windows,10
118,1,null,"""",html-keyboard-response,117,267421,0.0-117.0,"""","<div style=""font-size:60px;"">+</div>","""",256,fixation,Memorization,null,500,"""","""","""","""","""","""","""","""",1,4/24/2021 14:13,67.168.49.96,Mozilla/5.0 (Windows NT 10.0; WOW64; rv:47.0) Gecko/20100101 Firefox/47.0,,Firefox,47,Windows,10
118,1,2161.915,"""",html-keyboard-response,118,272438,0.0-118.0,"""","<img src='jspsych/CFDfaces/CFD-WF-200-099-N.jpg' height=""250px""></br><b>Samantha</b>","""",256,IntactFace,Memorization,70,5000,f,"""",CFD-WM-020-001-N.jpg,Jesse,0,"""","""","""",1,4/24/2021 14:13,67.168.49.96,Mozilla/5.0 (Windows NT 10.0; WOW64; rv:47.0) Gecko/20100101 Firefox/47.0,,Firefox,47,Windows,10
118,1,null,"""",html-keyboard-response,119,272948,0.0-119.0,"""","<div style=""font-size:60px;"">+</div>","""",256,fixation,Memorization,null,500,"""","""","""","""","""","""","""","""",1,4/24/2021 14:13,67.168.49.96,Mozilla/5.0 (Windows NT 10.0; WOW64; rv:47.0) Gecko/20100101 Firefox/47.0,,Firefox,47,Windows,10
118,1,2400.535,"""",html-keyboard-response,120,277976,0.0-120.0,"""","<img src='jspsych/CFDfaces/CFD-LM-225-130-N.jpg' height=""250px""></br><b>Nicholas</b>","""",256,IntactFace,Memorization,78,5000,n,"""",CFD-AF-239-171-N.jpg,Angela,0,"""","""","""",1,4/24/2021 14:13,67.168.49.96,Mozilla/5.0 (Windows NT 10.0; WOW64; rv:47.0) Gecko/20100101 Firefox/47.0,,Firefox,47,Windows,10
118,1,null,"""",html-keyboard-response,121,278490,0.0-121.0,"""","<div style=""font-size:60px;"">+</div>","""",256,fixation,Memorization,null,500,"""","""","""","""","""","""","""","""",1,4/24/2021 14:13,67.168.49.96,Mozilla/5.0 (Windows NT 10.0; WOW64; rv:47.0) Gecko/20100101 Firefox/47.0,,Firefox,47,Windows,10
118,1,1622.22,"""",html-keyboard-response,122,283506,0.0-122.0,"""","<img src='jspsych/CFDfaces/CFD-LM-200-045-N.jpg' height=""250px""></br><b>Juan</b>","""",256,IntactFace,Memorization,78,5000,n,"""",CFD-WM-237-052-N.jpg,Vincent,0,"""","""","""",1,4/24/2021 14:13,67.168.49.96,Mozilla/5.0 (Windows NT 10.0; WOW64; rv:47.0) Gecko/20100101 Firefox/47.0,,Firefox,47,Windows,10
118,1,null,"""",html-keyboard-response,123,284017,0.0-123.0,"""","<div style=""font-size:60px;"">+</div>","""",256,fixation,Memorization,null,500,"""","""","""","""","""","""","""","""",1,4/24/2021 14:13,67.168.49.96,Mozilla/5.0 (Windows NT 10.0; WOW64; rv:47.0) Gecko/20100101 Firefox/47.0,,Firefox,47,Windows,10
118,1,2127.235,"""",html-keyboard-response,124,289032,0.0-124.0,"""","<img src='jspsych/CFDfaces/CFD-AM-214-168-N.jpg' height=""250px""></br><b>Christian</b>","""",256,IntactFace,Memorization,70,5000,f,"""",CFD-BF-021-013-N.jpg,Jordan,0,"""","""","""",1,4/24/2021 14:13,67.168.49.96,Mozilla/5.0 (Windows NT 10.0; WOW64; rv:47.0) Gecko/20100101 Firefox/47.0,,Firefox,47,Windows,10
118,1,null,"""",html-keyboard-response,125,289546,0.0-125.0,"""","<div style=""font-size:60px;"">+</div>","""",256,fixation,Memorization,null,500,"""","""","""","""","""","""","""","""",1,4/24/2021 14:13,67.168.49.96,Mozilla/5.0 (Windows NT 10.0; WOW64; rv:47.0) Gecko/20100101 Firefox/47.0,,Firefox,47,Windows,10
118,1,3314.2,"""",html-keyboard-response,126,294567,0.0-126.0,"""","<img src='jspsych/CFDfaces/CFD-WF-006-002-N.jpg' height=""250px""></br><b>Meghan</b>","""",256,IntactFace,Memorization,70,5000,f,"""",CFD-WF-218-087-N.jpg,Whitney,0,"""","""","""",1,4/24/2021 14:13,67.168.49.96,Mozilla/5.0 (Windows NT 10.0; WOW64; rv:47.0) Gecko/20100101 Firefox/47.0,,Firefox,47,Windows,10
118,1,null,"""",html-keyboard-response,127,295081,0.0-127.0,"""","<div style=""font-size:60px;"">+</div>","""",256,fixation,Memorization,null,500,"""","""","""","""","""","""","""","""",1,4/24/2021 14:13,67.168.49.96,Mozilla/5.0 (Windows NT 10.0; WOW64; rv:47.0) Gecko/20100101 Firefox/47.0,,Firefox,47,Windows,10
118,1,1478.645,"""",html-keyboard-response,128,300098,0.0-128.0,"""","<img src='jspsych/CFDfaces/CFD-BM-041-035-N.jpg' height=""250px""></br><b>Ian</b>","""",256,IntactFace,Memorization,78,5000,n,"""",CFD-AF-220-107-N.jpg,Sara,0,"""","""","""",1,4/24/2021 14:13,67.168.49.96,Mozilla/5.0 (Windows NT 10.0; WOW64; rv:47.0) Gecko/20100101 Firefox/47.0,,Firefox,47,Windows,10
118,1,null,"""",html-keyboard-response,129,300609,0.0-129.0,"""","<div style=""font-size:60px;"">+</div>","""",256,fixation,Memorization,null,500,"""","""","""","""","""","""","""","""",1,4/24/2021 14:13,67.168.49.96,Mozilla/5.0 (Windows NT 10.0; WOW64; rv:47.0) Gecko/20100101 Firefox/47.0,,Firefox,47,Windows,10
118,1,1246.8,"""",html-keyboard-response,130,305615,0.0-130.0,"""","<img src='jspsych/CFDfaces/CFD-BF-218-207-N.jpg' height=""250px""></br><b>Victoria</b>","""",256,IntactFace,Memorization,70,5000,f,"""",CFD-LF-200-058-N.jpg,Melissa,0,"""","""","""",1,4/24/2021 14:13,67.168.49.96,Mozilla/5.0 (Windows NT 10.0; WOW64; rv:47.0) Gecko/20100101 Firefox/47.0,,Firefox,47,Windows,10
118,1,null,"""",html-keyboard-response,131,306128,0.0-131.0,"""","<div style=""font-size:60px;"">+</div>","""",256,fixation,Memorization,null,500,"""","""","""","""","""","""","""","""",1,4/24/2021 14:13,67.168.49.96,Mozilla/5.0 (Windows NT 10.0; WOW64; rv:47.0) Gecko/20100101 Firefox/47.0,,Firefox,47,Windows,10
118,1,1772.015,"""",html-keyboard-response,132,311146,0.0-132.0,"""","<img src='jspsych/CFDfaces/CFD-LF-239-148-N.jpg' height=""250px""></br><b>Stephanie</b>","""",256,IntactFace,Memorization,78,5000,n,"""",CFD-WF-018-017-N.jpg,Erin,0,"""","""","""",1,4/24/2021 14:13,67.168.49.96,Mozilla/5.0 (Windows NT 10.0; WOW64; rv:47.0) Gecko/20100101 Firefox/47.0,,Firefox,47,Windows,10
118,1,null,"""",html-keyboard-response,133,311658,0.0-133.0,"""","<div style=""font-size:60px;"">+</div>","""",256,fixation,Memorization,null,500,"""","""","""","""","""","""","""","""",1,4/24/2021 14:13,67.168.49.96,Mozilla/5.0 (Windows NT 10.0; WOW64; rv:47.0) Gecko/20100101 Firefox/47.0,,Firefox,47,Windows,10
118,1,2037.67,"""",html-keyboard-response,134,316673,0.0-134.0,"""","<img src='jspsych/CFDfaces/CFD-BM-208-065-N.jpg' height=""250px""></br><b>Brandon</b>","""",256,IntactFace,Memorization,70,5000,f,"""",CFD-BM-205-001-N.jpg,Justin,0,"""","""","""",1,4/24/2021 14:13,67.168.49.96,Mozilla/5.0 (Windows NT 10.0; WOW64; rv:47.0) Gecko/20100101 Firefox/47.0,,Firefox,47,Windows,10
118,1,null,"""",html-keyboard-response,135,317189,0.0-135.0,"""","<div style=""font-size:60px;"">+</div>","""",256,fixation,Memorization,null,500,"""","""","""","""","""","""","""","""",1,4/24/2021 14:13,67.168.49.96,Mozilla/5.0 (Windows NT 10.0; WOW64; rv:47.0) Gecko/20100101 Firefox/47.0,,Firefox,47,Windows,10
118,1,1818.395,"""",html-keyboard-response,136,322194,0.0-136.0,"""","<img src='jspsych/CFDfaces/CFD-WM-011-002-N.jpg' height=""250px""></br><b>James</b>","""",256,IntactFace,Memorization,70,5000,f,"""",CFD-WM-003-002-N.jpg,Timothy,0,"""","""","""",1,4/24/2021 14:13,67.168.49.96,Mozilla/5.0 (Windows NT 10.0; WOW64; rv:47.0) Gecko/20100101 Firefox/47.0,,Firefox,47,Windows,10
118,1,null,"""",html-keyboard-response,137,322707,0.0-137.0,"""","<div style=""font-size:60px;"">+</div>","""",256,fixation,Memorization,null,500,"""","""","""","""","""","""","""","""",1,4/24/2021 14:13,67.168.49.96,Mozilla/5.0 (Windows NT 10.0; WOW64; rv:47.0) Gecko/20100101 Firefox/47.0,,Firefox,47,Windows,10
118,1,2020.095,"""",html-keyboard-response,138,327726,0.0-138.0,"""","<img src='jspsych/CFDfaces/CFD-LM-234-176-N.jpg' height=""250px""></br><b>Robert</b>","""",256,IntactFace,Memorization,78,5000,n,"""",CFD-LF-206-078-N.jpg,Taylor,0,"""","""","""",1,4/24/2021 14:13,67.168.49.96,Mozilla/5.0 (Windows NT 10.0; WOW64; rv:47.0) Gecko/20100101 Firefox/47.0,,Firefox,47,Windows,10
118,1,null,"""",html-keyboard-response,139,328236,0.0-139.0,"""","<div style=""font-size:60px;"">+</div>","""",256,fixation,Memorization,null,500,"""","""","""","""","""","""","""","""",1,4/24/2021 14:13,67.168.49.96,Mozilla/5.0 (Windows NT 10.0; WOW64; rv:47.0) Gecko/20100101 Firefox/47.0,,Firefox,47,Windows,10
118,1,1588.105,"""",html-keyboard-response,140,333252,0.0-140.0,"""","<img src='jspsych/CFDfaces/CFD-BF-226-119-N.jpg' height=""250px""></br><b>Amanda</b>","""",256,IntactFace,Memorization,70,5000,f,"""",CFD-WM-232-070-N.jpg,Austin,0,"""","""","""",1,4/24/2021 14:13,67.168.49.96,Mozilla/5.0 (Windows NT 10.0; WOW64; rv:47.0) Gecko/20100101 Firefox/47.0,,Firefox,47,Windows,10
118,1,null,"""",html-keyboard-response,141,333764,0.0-141.0,"""","<div style=""font-size:60px;"">+</div>","""",256,fixation,Memorization,null,500,"""","""","""","""","""","""","""","""",1,4/24/2021 14:13,67.168.49.96,Mozilla/5.0 (Windows NT 10.0; WOW64; rv:47.0) Gecko/20100101 Firefox/47.0,,Firefox,47,Windows,10
118,1,1675.305,"""",html-keyboard-response,142,338769,0.0-142.0,"""","<img src='jspsych/CFDfaces/CFD-AF-222-134-N.jpg' height=""250px""></br><b>Brittany</b>","""",256,IntactFace,Memorization,78,5000,n,"""",CFD-LM-252-076-N.jpg,Kenneth,0,"""","""","""",1,4/24/2021 14:13,67.168.49.96,Mozilla/5.0 (Windows NT 10.0; WOW64; rv:47.0) Gecko/20100101 Firefox/47.0,,Firefox,47,Windows,10
118,1,null,"""",html-keyboard-response,143,339280,0.0-143.0,"""","<div style=""font-size:60px;"">+</div>","""",256,fixation,Memorization,null,500,"""","""","""","""","""","""","""","""",1,4/24/2021 14:13,67.168.49.96,Mozilla/5.0 (Windows NT 10.0; WOW64; rv:47.0) Gecko/20100101 Firefox/47.0,,Firefox,47,Windows,10
118,1,1639.43,"""",html-keyboard-response,144,344294,0.0-144.0,"""","<img src='jspsych/CFDfaces/CFD-LF-230-203-N.jpg' height=""250px""></br><b>Emily</b>","""",256,IntactFace,Memorization,70,5000,f,"""",CFD-WM-212-097-N.jpg,Luis,0,"""","""","""",1,4/24/2021 14:13,67.168.49.96,Mozilla/5.0 (Windows NT 10.0; WOW64; rv:47.0) Gecko/20100101 Firefox/47.0,,Firefox,47,Windows,10
118,1,null,"""",html-keyboard-response,145,344806,0.0-145.0,"""","<div style=""font-size:60px;"">+</div>","""",256,fixation,Memorization,null,500,"""","""","""","""","""","""","""","""",1,4/24/2021 14:13,67.168.49.96,Mozilla/5.0 (Windows NT 10.0; WOW64; rv:47.0) Gecko/20100101 Firefox/47.0,,Firefox,47,Windows,10
118,1,1353.09,"""",html-keyboard-response,146,349815,0.0-146.0,"""","<img src='jspsych/CFDfaces/CFD-LF-243-175-N.jpg' height=""250px""></br><b>Andrea</b>","""",256,IntactFace,Memorization,78,5000,n,"""",CFD-AM-202-079-N.jpg,Ryan,0,"""","""","""",1,4/24/2021 14:13,67.168.49.96,Mozilla/5.0 (Windows NT 10.0; WOW64; rv:47.0) Gecko/20100101 Firefox/47.0,,Firefox,47,Windows,10
118,1,null,"""",html-keyboard-response,147,350343,0.0-147.0,"""","<div style=""font-size:60px;"">+</div>","""",256,fixation,Memorization,null,500,"""","""","""","""","""","""","""","""",1,4/24/2021 14:13,67.168.49.96,Mozilla/5.0 (Windows NT 10.0; WOW64; rv:47.0) Gecko/20100101 Firefox/47.0,,Firefox,47,Windows,10
118,1,2761.085,"""",html-keyboard-response,148,355353,0.0-148.0,"""","<img src='jspsych/CFDfaces/CFD-AM-246-184-N.jpg' height=""250px""></br><b>Peter</b>","""",256,IntactFace,Memorization,78,5000,n,"""",CFD-WF-019-005-N.jpg,Rebecca,0,"""","""","""",1,4/24/2021 14:13,67.168.49.96,Mozilla/5.0 (Windows NT 10.0; WOW64; rv:47.0) Gecko/20100101 Firefox/47.0,,Firefox,47,Windows,10
118,1,null,"""",html-keyboard-response,149,355862,0.0-149.0,"""","<div style=""font-size:60px;"">+</div>","""",256,fixation,Memorization,null,500,"""","""","""","""","""","""","""","""",1,4/24/2021 14:13,67.168.49.96,Mozilla/5.0 (Windows NT 10.0; WOW64; rv:47.0) Gecko/20100101 Firefox/47.0,,Firefox,47,Windows,10
118,1,1648.735,"""",html-keyboard-response,150,360883,0.0-150.0,"""","<img src='jspsych/CFDfaces/CFD-LM-209-111-N.jpg' height=""250px""></br><b>Jeffrey</b>","""",256,IntactFace,Memorization,78,5000,n,"""",CFD-AM-207-108-N.jpg,Sean,0,"""","""","""",1,4/24/2021 14:13,67.168.49.96,Mozilla/5.0 (Windows NT 10.0; WOW64; rv:47.0) Gecko/20100101 Firefox/47.0,,Firefox,47,Windows,10
118,1,null,"""",html-keyboard-response,151,361393,0.0-151.0,"""","<div style=""font-size:60px;"">+</div>","""",256,fixation,Memorization,null,500,"""","""","""","""","""","""","""","""",1,4/24/2021 14:13,67.168.49.96,Mozilla/5.0 (Windows NT 10.0; WOW64; rv:47.0) Gecko/20100101 Firefox/47.0,,Firefox,47,Windows,10
118,1,1486.125,"""",html-keyboard-response,152,366407,0.0-152.0,"""","<img src='jspsych/CFDfaces/CFD-WM-015-002-N.jpg' height=""250px""></br><b>Gregory</b>","""",256,IntactFace,Memorization,70,5000,f,"""",CFD-LF-213-079-N.jpg,Jasmine,0,"""","""","""",1,4/24/2021 14:13,67.168.49.96,Mozilla/5.0 (Windows NT 10.0; WOW64; rv:47.0) Gecko/20100101 Firefox/47.0,,Firefox,47,Windows,10
118,1,null,"""",html-keyboard-response,153,366919,0.0-153.0,"""","<div style=""font-size:60px;"">+</div>","""",256,fixation,Memorization,null,500,"""","""","""","""","""","""","""","""",1,4/24/2021 14:13,67.168.49.96,Mozilla/5.0 (Windows NT 10.0; WOW64; rv:47.0) Gecko/20100101 Firefox/47.0,,Firefox,47,Windows,10
118,1,12872.14,"""",html-keyboard-response,154,379793,0.0-154.0,"""",Press Any Key to Begin Memory Test,"""",1,welcomeScreen,Break,32,"""","""","""","""","""","""","""","""","""",1,4/24/2021 14:13,67.168.49.96,Mozilla/5.0 (Windows NT 10.0; WOW64; rv:47.0) Gecko/20100101 Firefox/47.0,,Firefox,47,Windows,10
118,1,null,"""",html-keyboard-response,155,380803,0.0-155.0,"""","<div style=""font-size:60px;"">+</div>","""",256,ITI,Test,null,1000,"""","""","""","""","""","""","""","""",1,4/24/2021 14:13,67.168.49.96,Mozilla/5.0 (Windows NT 10.0; WOW64; rv:47.0) Gecko/20100101 Firefox/47.0,,Firefox,47,Windows,10
118,1,null,"""",image-keyboard-response,156,381067,0.0-156.0,"""",jspsych/scrambledDisgustFaces/scrambledAM21DIS.JPG,"""",256,forwardMask,Test,null,250,"""",d,"""","""","""","""","""","""",1,4/24/2021 14:13,67.168.49.96,Mozilla/5.0 (Windows NT 10.0; WOW64; rv:47.0) Gecko/20100101 Firefox/47.0,,Firefox,47,Windows,10
118,1,null,"""",image-keyboard-response,157,381093,0.0-157.0,"""",jspsych/disgustFaces/AM21DIS.JPG,"""",256,Cue,Test,null,16,"""","""","""","""","""","""","""","""",1,4/24/2021 14:13,67.168.49.96,Mozilla/5.0 (Windows NT 10.0; WOW64; rv:47.0) Gecko/20100101 Firefox/47.0,,Firefox,47,Windows,10
118,1,null,"""",image-keyboard-response,158,381208,0.0-158.0,"""",jspsych/neutralFaces/BM09NES.JPG,"""",256,backwardMask,Test,null,100,"""","""","""","""","""","""","""","""",1,4/24/2021 14:13,67.168.49.96,Mozilla/5.0 (Windows NT 10.0; WOW64; rv:47.0) Gecko/20100101 Firefox/47.0,,Firefox,47,Windows,10
118,1,null,"""",html-keyboard-response,159,382217,0.0-159.0,"""","<div style=""font-size:60px;"">+</div>","""",256,fixationBtwnNeutralMaskAndPrompt,Test,null,1000,"""","""","""","""","""","""","""","""",1,4/24/2021 14:13,67.168.49.96,Mozilla/5.0 (Windows NT 10.0; WOW64; rv:47.0) Gecko/20100101 Firefox/47.0,,Firefox,47,Windows,10
118,1,3038.15,"""",html-button-response,160,385258,0.0-160.0,"""","<img src='jspsych/CFDfaces/CFD-AM-237-154-N.jpg' height=""250px"">,</br><b>Gregory</b>",1,256,IntactOrRearranged,Test,"""","""","""","""",CFD-LF-244-096-N.jpg,Amy,1,1,"""","""",1,4/24/2021 14:13,67.168.49.96,Mozilla/5.0 (Windows NT 10.0; WOW64; rv:47.0) Gecko/20100101 Firefox/47.0,,Firefox,47,Windows,10
118,1,1881.28,"""",html-slider-response,161,387141,0.0-161.0,"""","<img src='jspsych/CFDfaces/CFD-AM-237-154-N.jpg' height=""250px"">,</br><b>Gregory</b>","""",256,ConfidenceQuery,Test,"""","""","""","""",CFD-LF-244-096-N.jpg,Amy,1,"""",0,92,1,4/24/2021 14:13,67.168.49.96,Mozilla/5.0 (Windows NT 10.0; WOW64; rv:47.0) Gecko/20100101 Firefox/47.0,,Firefox,47,Windows,10
118,1,null,"""",html-keyboard-response,162,388151,0.0-162.0,"""","<div style=""font-size:60px;"">+</div>","""",256,ITI,Test,null,1000,"""","""","""","""","""","""","""","""",1,4/24/2021 14:13,67.168.49.96,Mozilla/5.0 (Windows NT 10.0; WOW64; rv:47.0) Gecko/20100101 Firefox/47.0,,Firefox,47,Windows,10
118,1,null,"""",image-keyboard-response,163,388409,0.0-163.0,"""",jspsych/scrambledNeutralFaces/scrambledBF25NES.JPG,"""",256,forwardMask,Test,null,250,"""",n,"""","""","""","""","""","""",1,4/24/2021 14:13,67.168.49.96,Mozilla/5.0 (Windows NT 10.0; WOW64; rv:47.0) Gecko/20100101 Firefox/47.0,,Firefox,47,Windows,10
118,1,null,"""",image-keyboard-response,164,388440,0.0-164.0,"""",jspsych/neutralFaces/BF25NES.JPG,"""",256,Cue,Test,null,16,"""","""","""","""","""","""","""","""",1,4/24/2021 14:13,67.168.49.96,Mozilla/5.0 (Windows NT 10.0; WOW64; rv:47.0) Gecko/20100101 Firefox/47.0,,Firefox,47,Windows,10
118,1,null,"""",image-keyboard-response,165,388543,0.0-165.0,"""",jspsych/neutralFaces/AF18NES.JPG,"""",256,backwardMask,Test,null,100,"""","""","""","""","""","""","""","""",1,4/24/2021 14:13,67.168.49.96,Mozilla/5.0 (Windows NT 10.0; WOW64; rv:47.0) Gecko/20100101 Firefox/47.0,,Firefox,47,Windows,10
118,1,null,"""",html-keyboard-response,166,389558,0.0-166.0,"""","<div style=""font-size:60px;"">+</div>","""",256,fixationBtwnNeutralMaskAndPrompt,Test,null,1000,"""","""","""","""","""","""","""","""",1,4/24/2021 14:13,67.168.49.96,Mozilla/5.0 (Windows NT 10.0; WOW64; rv:47.0) Gecko/20100101 Firefox/47.0,,Firefox,47,Windows,10
118,1,2721.635,"""",html-button-response,167,392281,0.0-167.0,"""","<img src='jspsych/CFDfaces/CFD-LF-243-175-N.jpg' height=""250px"">,</br><b>Amanda</b>",1,256,IntactOrRearranged,Test,"""","""","""","""",CFD-BM-205-001-N.jpg,Justin,1,1,"""","""",1,4/24/2021 14:13,67.168.49.96,Mozilla/5.0 (Windows NT 10.0; WOW64; rv:47.0) Gecko/20100101 Firefox/47.0,,Firefox,47,Windows,10
118,1,1687.085,"""",html-slider-response,168,393971,0.0-168.0,"""","<img src='jspsych/CFDfaces/CFD-LF-243-175-N.jpg' height=""250px"">,</br><b>Amanda</b>","""",256,ConfidenceQuery,Test,"""","""","""","""",CFD-BM-205-001-N.jpg,Justin,1,"""",0,33,1,4/24/2021 14:13,67.168.49.96,Mozilla/5.0 (Windows NT 10.0; WOW64; rv:47.0) Gecko/20100101 Firefox/47.0,,Firefox,47,Windows,10
118,1,null,"""",html-keyboard-response,169,394982,0.0-169.0,"""","<div style=""font-size:60px;"">+</div>","""",256,ITI,Test,null,1000,"""","""","""","""","""","""","""","""",1,4/24/2021 14:13,67.168.49.96,Mozilla/5.0 (Windows NT 10.0; WOW64; rv:47.0) Gecko/20100101 Firefox/47.0,,Firefox,47,Windows,10
118,1,null,"""",image-keyboard-response,170,395238,0.0-170.0,"""",jspsych/scrambledDisgustFaces/scrambledAF22DIS.JPG,"""",256,forwardMask,Test,null,250,"""",d,"""","""","""","""","""","""",1,4/24/2021 14:13,67.168.49.96,Mozilla/5.0 (Windows NT 10.0; WOW64; rv:47.0) Gecko/20100101 Firefox/47.0,,Firefox,47,Windows,10
118,1,null,"""",image-keyboard-response,171,395260,0.0-171.0,"""",jspsych/disgustFaces/AF22DIS.JPG,"""",256,Cue,Test,null,16,"""","""","""","""","""","""","""","""",1,4/24/2021 14:13,67.168.49.96,Mozilla/5.0 (Windows NT 10.0; WOW64; rv:47.0) Gecko/20100101 Firefox/47.0,,Firefox,47,Windows,10
118,1,null,"""",image-keyboard-response,172,395368,0.0-172.0,"""",jspsych/neutralFaces/AF08NES.JPG,"""",256,backwardMask,Test,null,100,"""","""","""","""","""","""","""","""",1,4/24/2021 14:13,67.168.49.96,Mozilla/5.0 (Windows NT 10.0; WOW64; rv:47.0) Gecko/20100101 Firefox/47.0,,Firefox,47,Windows,10
118,1,null,"""",html-keyboard-response,173,396375,0.0-173.0,"""","<div style=""font-size:60px;"">+</div>","""",256,fixationBtwnNeutralMaskAndPrompt,Test,null,1000,"""","""","""","""","""","""","""","""",1,4/24/2021 14:13,67.168.49.96,Mozilla/5.0 (Windows NT 10.0; WOW64; rv:47.0) Gecko/20100101 Firefox/47.0,,Firefox,47,Windows,10
118,1,2703.985,"""",html-button-response,174,399081,0.0-174.0,"""","<img src='jspsych/CFDfaces/CFD-BM-208-065-N.jpg' height=""250px"">,</br><b>Brandon</b>",0,256,IntactOrRearranged,Test,"""","""","""","""",CFD-WM-020-001-N.jpg,Kenneth,0,0,"""","""",1,4/24/2021 14:13,67.168.49.96,Mozilla/5.0 (Windows NT 10.0; WOW64; rv:47.0) Gecko/20100101 Firefox/47.0,,Firefox,47,Windows,10
118,1,1767.525,"""",html-slider-response,175,400850,0.0-175.0,"""","<img src='jspsych/CFDfaces/CFD-BM-208-065-N.jpg' height=""250px"">,</br><b>Brandon</b>","""",256,ConfidenceQuery,Test,"""","""","""","""",CFD-WM-020-001-N.jpg,Kenneth,0,"""",0,19,1,4/24/2021 14:13,67.168.49.96,Mozilla/5.0 (Windows NT 10.0; WOW64; rv:47.0) Gecko/20100101 Firefox/47.0,,Firefox,47,Windows,10
118,1,null,"""",html-keyboard-response,176,401864,0.0-176.0,"""","<div style=""font-size:60px;"">+</div>","""",256,ITI,Test,null,1000,"""","""","""","""","""","""","""","""",1,4/24/2021 14:13,67.168.49.96,Mozilla/5.0 (Windows NT 10.0; WOW64; rv:47.0) Gecko/20100101 Firefox/47.0,,Firefox,47,Windows,10
118,1,null,"""",image-keyboard-response,177,402132,0.0-177.0,"""",jspsych/scrambledNeutralFaces/scrambledAF07NES.JPG,"""",256,forwardMask,Test,null,250,"""",n,"""","""","""","""","""","""",1,4/24/2021 14:13,67.168.49.96,Mozilla/5.0 (Windows NT 10.0; WOW64; rv:47.0) Gecko/20100101 Firefox/47.0,,Firefox,47,Windows,10
118,1,null,"""",image-keyboard-response,178,402164,0.0-178.0,"""",jspsych/neutralFaces/AF07NES.JPG,"""",256,Cue,Test,null,16,"""","""","""","""","""","""","""","""",1,4/24/2021 14:13,67.168.49.96,Mozilla/5.0 (Windows NT 10.0; WOW64; rv:47.0) Gecko/20100101 Firefox/47.0,,Firefox,47,Windows,10
118,1,null,"""",image-keyboard-response,179,402272,0.0-179.0,"""",jspsych/neutralFaces/BF15NES.JPG,"""",256,backwardMask,Test,null,100,"""","""","""","""","""","""","""","""",1,4/24/2021 14:13,67.168.49.96,Mozilla/5.0 (Windows NT 10.0; WOW64; rv:47.0) Gecko/20100101 Firefox/47.0,,Firefox,47,Windows,10
118,1,null,"""",html-keyboard-response,180,403280,0.0-180.0,"""","<div style=""font-size:60px;"">+</div>","""",256,fixationBtwnNeutralMaskAndPrompt,Test,null,1000,"""","""","""","""","""","""","""","""",1,4/24/2021 14:13,67.168.49.96,Mozilla/5.0 (Windows NT 10.0; WOW64; rv:47.0) Gecko/20100101 Firefox/47.0,,Firefox,47,Windows,10
118,1,2703.35,"""",html-button-response,181,405987,0.0-181.0,"""","<img src='jspsych/CFDfaces/CFD-LM-219-295-N.jpg' height=""250px"">,</br><b>James</b>",1,256,IntactOrRearranged,Test,"""","""","""","""",CFD-LF-213-079-N.jpg,Angela,1,1,"""","""",1,4/24/2021 14:13,67.168.49.96,Mozilla/5.0 (Windows NT 10.0; WOW64; rv:47.0) Gecko/20100101 Firefox/47.0,,Firefox,47,Windows,10
118,1,2756.61,"""",html-slider-response,182,408746,0.0-182.0,"""","<img src='jspsych/CFDfaces/CFD-LM-219-295-N.jpg' height=""250px"">,</br><b>James</b>","""",256,ConfidenceQuery,Test,"""","""","""","""",CFD-LF-213-079-N.jpg,Angela,1,"""",0,81,1,4/24/2021 14:13,67.168.49.96,Mozilla/5.0 (Windows NT 10.0; WOW64; rv:47.0) Gecko/20100101 Firefox/47.0,,Firefox,47,Windows,10
118,1,null,"""",html-keyboard-response,183,409761,0.0-183.0,"""","<div style=""font-size:60px;"">+</div>","""",256,ITI,Test,null,1000,"""","""","""","""","""","""","""","""",1,4/24/2021 14:13,67.168.49.96,Mozilla/5.0 (Windows NT 10.0; WOW64; rv:47.0) Gecko/20100101 Firefox/47.0,,Firefox,47,Windows,10
118,1,null,"""",image-keyboard-response,184,410022,0.0-184.0,"""",jspsych/scrambledNeutralFaces/scrambledBM22NES.JPG,"""",256,forwardMask,Test,null,250,"""",n,"""","""","""","""","""","""",1,4/24/2021 14:13,67.168.49.96,Mozilla/5.0 (Windows NT 10.0; WOW64; rv:47.0) Gecko/20100101 Firefox/47.0,,Firefox,47,Windows,10
118,1,null,"""",image-keyboard-response,185,410044,0.0-185.0,"""",jspsych/neutralFaces/BM22NES.JPG,"""",256,Cue,Test,null,16,"""","""","""","""","""","""","""","""",1,4/24/2021 14:13,67.168.49.96,Mozilla/5.0 (Windows NT 10.0; WOW64; rv:47.0) Gecko/20100101 Firefox/47.0,,Firefox,47,Windows,10
118,1,null,"""",image-keyboard-response,186,410153,0.0-186.0,"""",jspsych/neutralFaces/BM12NES.JPG,"""",256,backwardMask,Test,null,100,"""","""","""","""","""","""","""","""",1,4/24/2021 14:13,67.168.49.96,Mozilla/5.0 (Windows NT 10.0; WOW64; rv:47.0) Gecko/20100101 Firefox/47.0,,Firefox,47,Windows,10
118,1,null,"""",html-keyboard-response,187,411167,0.0-187.0,"""","<div style=""font-size:60px;"">+</div>","""",256,fixationBtwnNeutralMaskAndPrompt,Test,null,1000,"""","""","""","""","""","""","""","""",1,4/24/2021 14:13,67.168.49.96,Mozilla/5.0 (Windows NT 10.0; WOW64; rv:47.0) Gecko/20100101 Firefox/47.0,,Firefox,47,Windows,10
118,1,1535.235,"""",html-button-response,188,412704,0.0-188.0,"""","<img src='jspsych/CFDfaces/CFD-WF-016-015-N.jpg' height=""250px"">,</br><b>Emily</b>",0,256,IntactOrRearranged,Test,"""","""","""","""",CFD-BF-021-013-N.jpg,Jenna,1,0,"""","""",1,4/24/2021 14:13,67.168.49.96,Mozilla/5.0 (Windows NT 10.0; WOW64; rv:47.0) Gecko/20100101 Firefox/47.0,,Firefox,47,Windows,10
118,1,2421.445,"""",html-slider-response,189,415127,0.0-189.0,"""","<img src='jspsych/CFDfaces/CFD-WF-016-015-N.jpg' height=""250px"">,</br><b>Emily</b>","""",256,ConfidenceQuery,Test,"""","""","""","""",CFD-BF-021-013-N.jpg,Jenna,1,"""",0,9,1,4/24/2021 14:13,67.168.49.96,Mozilla/5.0 (Windows NT 10.0; WOW64; rv:47.0) Gecko/20100101 Firefox/47.0,,Firefox,47,Windows,10
118,1,null,"""",html-keyboard-response,190,416146,0.0-190.0,"""","<div style=""font-size:60px;"">+</div>","""",256,ITI,Test,null,1000,"""","""","""","""","""","""","""","""",1,4/24/2021 14:13,67.168.49.96,Mozilla/5.0 (Windows NT 10.0; WOW64; rv:47.0) Gecko/20100101 Firefox/47.0,,Firefox,47,Windows,10
118,1,null,"""",image-keyboard-response,191,416413,0.0-191.0,"""",jspsych/scrambledDisgustFaces/scrambledBF23DIS.JPG,"""",256,forwardMask,Test,null,250,"""",d,"""","""","""","""","""","""",1,4/24/2021 14:13,67.168.49.96,Mozilla/5.0 (Windows NT 10.0; WOW64; rv:47.0) Gecko/20100101 Firefox/47.0,,Firefox,47,Windows,10
118,1,null,"""",image-keyboard-response,192,416444,0.0-192.0,"""",jspsych/disgustFaces/BF23DIS.JPG,"""",256,Cue,Test,null,16,"""","""","""","""","""","""","""","""",1,4/24/2021 14:13,67.168.49.96,Mozilla/5.0 (Windows NT 10.0; WOW64; rv:47.0) Gecko/20100101 Firefox/47.0,,Firefox,47,Windows,10
118,1,null,"""",image-keyboard-response,193,416553,0.0-193.0,"""",jspsych/neutralFaces/AF23NES.JPG,"""",256,backwardMask,Test,null,100,"""","""","""","""","""","""","""","""",1,4/24/2021 14:13,67.168.49.96,Mozilla/5.0 (Windows NT 10.0; WOW64; rv:47.0) Gecko/20100101 Firefox/47.0,,Firefox,47,Windows,10
118,1,null,"""",html-keyboard-response,194,417563,0.0-194.0,"""","<div style=""font-size:60px;"">+</div>","""",256,fixationBtwnNeutralMaskAndPrompt,Test,null,1000,"""","""","""","""","""","""","""","""",1,4/24/2021 14:13,67.168.49.96,Mozilla/5.0 (Windows NT 10.0; WOW64; rv:47.0) Gecko/20100101 Firefox/47.0,,Firefox,47,Windows,10
118,1,2775.165,"""",html-button-response,195,420340,0.0-195.0,"""","<img src='jspsych/CFDfaces/CFD-LM-200-045-N.jpg' height=""250px"">,</br><b>Juan</b>",0,256,IntactOrRearranged,Test,"""","""","""","""",CFD-AM-202-079-N.jpg,Cameron,0,0,"""","""",1,4/24/2021 14:13,67.168.49.96,Mozilla/5.0 (Windows NT 10.0; WOW64; rv:47.0) Gecko/20100101 Firefox/47.0,,Firefox,47,Windows,10
118,1,1421.475,"""",html-slider-response,196,421763,0.0-196.0,"""","<img src='jspsych/CFDfaces/CFD-LM-200-045-N.jpg' height=""250px"">,</br><b>Juan</b>","""",256,ConfidenceQuery,Test,"""","""","""","""",CFD-AM-202-079-N.jpg,Cameron,0,"""",0,35,1,4/24/2021 14:13,67.168.49.96,Mozilla/5.0 (Windows NT 10.0; WOW64; rv:47.0) Gecko/20100101 Firefox/47.0,,Firefox,47,Windows,10
118,1,null,"""",html-keyboard-response,197,422783,0.0-197.0,"""","<div style=""font-size:60px;"">+</div>","""",256,ITI,Test,null,1000,"""","""","""","""","""","""","""","""",1,4/24/2021 14:13,67.168.49.96,Mozilla/5.0 (Windows NT 10.0; WOW64; rv:47.0) Gecko/20100101 Firefox/47.0,,Firefox,47,Windows,10
118,1,null,"""",image-keyboard-response,198,423041,0.0-198.0,"""",jspsych/scrambledNeutralFaces/scrambledAM34NES.JPG,"""",256,forwardMask,Test,null,250,"""",n,"""","""","""","""","""","""",1,4/24/2021 14:13,67.168.49.96,Mozilla/5.0 (Windows NT 10.0; WOW64; rv:47.0) Gecko/20100101 Firefox/47.0,,Firefox,47,Windows,10
118,1,null,"""",image-keyboard-response,199,423062,0.0-199.0,"""",jspsych/neutralFaces/AM34NES.JPG,"""",256,Cue,Test,null,16,"""","""","""","""","""","""","""","""",1,4/24/2021 14:13,67.168.49.96,Mozilla/5.0 (Windows NT 10.0; WOW64; rv:47.0) Gecko/20100101 Firefox/47.0,,Firefox,47,Windows,10
118,1,null,"""",image-keyboard-response,200,423169,0.0-200.0,"""",jspsych/neutralFaces/BM35NES.JPG,"""",256,backwardMask,Test,null,100,"""","""","""","""","""","""","""","""",1,4/24/2021 14:13,67.168.49.96,Mozilla/5.0 (Windows NT 10.0; WOW64; rv:47.0) Gecko/20100101 Firefox/47.0,,Firefox,47,Windows,10
118,1,null,"""",html-keyboard-response,201,424176,0.0-201.0,"""","<div style=""font-size:60px;"">+</div>","""",256,fixationBtwnNeutralMaskAndPrompt,Test,null,1000,"""","""","""","""","""","""","""","""",1,4/24/2021 14:13,67.168.49.96,Mozilla/5.0 (Windows NT 10.0; WOW64; rv:47.0) Gecko/20100101 Firefox/47.0,,Firefox,47,Windows,10
118,1,1457.36,"""",html-button-response,202,425636,0.0-202.0,"""","<img src='jspsych/CFDfaces/CFD-AM-230-150-N.jpg' height=""250px"">,</br><b>Jason</b>",1,256,IntactOrRearranged,Test,"""","""","""","""",CFD-BM-002-013-N.jpg,Dustin,0,1,"""","""",1,4/24/2021 14:13,67.168.49.96,Mozilla/5.0 (Windows NT 10.0; WOW64; rv:47.0) Gecko/20100101 Firefox/47.0,,Firefox,47,Windows,10
118,1,1375.05,"""",html-slider-response,203,427012,0.0-203.0,"""","<img src='jspsych/CFDfaces/CFD-AM-230-150-N.jpg' height=""250px"">,</br><b>Jason</b>","""",256,ConfidenceQuery,Test,"""","""","""","""",CFD-BM-002-013-N.jpg,Dustin,0,"""",0,87,1,4/24/2021 14:13,67.168.49.96,Mozilla/5.0 (Windows NT 10.0; WOW64; rv:47.0) Gecko/20100101 Firefox/47.0,,Firefox,47,Windows,10
118,1,null,"""",html-keyboard-response,204,428017,0.0-204.0,"""","<div style=""font-size:60px;"">+</div>","""",256,ITI,Test,null,1000,"""","""","""","""","""","""","""","""",1,4/24/2021 14:13,67.168.49.96,Mozilla/5.0 (Windows NT 10.0; WOW64; rv:47.0) Gecko/20100101 Firefox/47.0,,Firefox,47,Windows,10
118,1,null,"""",image-keyboard-response,205,428283,0.0-205.0,"""",jspsych/scrambledNeutralFaces/scrambledAM27NES.JPG,"""",256,forwardMask,Test,null,250,"""",n,"""","""","""","""","""","""",1,4/24/2021 14:13,67.168.49.96,Mozilla/5.0 (Windows NT 10.0; WOW64; rv:47.0) Gecko/20100101 Firefox/47.0,,Firefox,47,Windows,10
118,1,null,"""",image-keyboard-response,206,428339,0.0-206.0,"""",jspsych/neutralFaces/AM27NES.JPG,"""",256,Cue,Test,null,16,"""","""","""","""","""","""","""","""",1,4/24/2021 14:13,67.168.49.96,Mozilla/5.0 (Windows NT 10.0; WOW64; rv:47.0) Gecko/20100101 Firefox/47.0,,Firefox,47,Windows,10
118,1,null,"""",image-keyboard-response,207,428478,0.0-207.0,"""",jspsych/neutralFaces/BM10NES.JPG,"""",256,backwardMask,Test,null,100,"""","""","""","""","""","""","""","""",1,4/24/2021 14:13,67.168.49.96,Mozilla/5.0 (Windows NT 10.0; WOW64; rv:47.0) Gecko/20100101 Firefox/47.0,,Firefox,47,Windows,10
118,1,null,"""",html-keyboard-response,208,429487,0.0-208.0,"""","<div style=""font-size:60px;"">+</div>","""",256,fixationBtwnNeutralMaskAndPrompt,Test,null,1000,"""","""","""","""","""","""","""","""",1,4/24/2021 14:13,67.168.49.96,Mozilla/5.0 (Windows NT 10.0; WOW64; rv:47.0) Gecko/20100101 Firefox/47.0,,Firefox,47,Windows,10
118,1,3407.945,"""",html-button-response,209,432899,0.0-209.0,"""","<img src='jspsych/CFDfaces/CFD-WF-223-133-N.jpg' height=""250px"">,</br><b>Julie</b>",1,256,IntactOrRearranged,Test,"""","""","""","""",CFD-AF-233-190-N.jpg,Sara,0,1,"""","""",1,4/24/2021 14:13,67.168.49.96,Mozilla/5.0 (Windows NT 10.0; WOW64; rv:47.0) Gecko/20100101 Firefox/47.0,,Firefox,47,Windows,10
118,1,2095.87,"""",html-slider-response,210,435001,0.0-210.0,"""","<img src='jspsych/CFDfaces/CFD-WF-223-133-N.jpg' height=""250px"">,</br><b>Julie</b>","""",256,ConfidenceQuery,Test,"""","""","""","""",CFD-AF-233-190-N.jpg,Sara,0,"""",0,7,1,4/24/2021 14:13,67.168.49.96,Mozilla/5.0 (Windows NT 10.0; WOW64; rv:47.0) Gecko/20100101 Firefox/47.0,,Firefox,47,Windows,10
118,1,null,"""",html-keyboard-response,211,436024,0.0-211.0,"""","<div style=""font-size:60px;"">+</div>","""",256,ITI,Test,null,1000,"""","""","""","""","""","""","""","""",1,4/24/2021 14:13,67.168.49.96,Mozilla/5.0 (Windows NT 10.0; WOW64; rv:47.0) Gecko/20100101 Firefox/47.0,,Firefox,47,Windows,10
118,1,null,"""",image-keyboard-response,212,436284,0.0-212.0,"""",jspsych/scrambledNeutralFaces/scrambledBF09NES.JPG,"""",256,forwardMask,Test,null,250,"""",n,"""","""","""","""","""","""",1,4/24/2021 14:13,67.168.49.96,Mozilla/5.0 (Windows NT 10.0; WOW64; rv:47.0) Gecko/20100101 Firefox/47.0,,Firefox,47,Windows,10
118,1,null,"""",image-keyboard-response,213,436307,0.0-213.0,"""",jspsych/neutralFaces/BF09NES.JPG,"""",256,Cue,Test,null,16,"""","""","""","""","""","""","""","""",1,4/24/2021 14:13,67.168.49.96,Mozilla/5.0 (Windows NT 10.0; WOW64; rv:47.0) Gecko/20100101 Firefox/47.0,,Firefox,47,Windows,10
118,1,null,"""",image-keyboard-response,214,436411,0.0-214.0,"""",jspsych/neutralFaces/BF08NES.JPG,"""",256,backwardMask,Test,null,100,"""","""","""","""","""","""","""","""",1,4/24/2021 14:13,67.168.49.96,Mozilla/5.0 (Windows NT 10.0; WOW64; rv:47.0) Gecko/20100101 Firefox/47.0,,Firefox,47,Windows,10
118,1,null,"""",html-keyboard-response,215,437423,0.0-215.0,"""","<div style=""font-size:60px;"">+</div>","""",256,fixationBtwnNeutralMaskAndPrompt,Test,null,1000,"""","""","""","""","""","""","""","""",1,4/24/2021 14:13,67.168.49.96,Mozilla/5.0 (Windows NT 10.0; WOW64; rv:47.0) Gecko/20100101 Firefox/47.0,,Firefox,47,Windows,10
118,1,3128.44,"""",html-button-response,216,440555,0.0-216.0,"""","<img src='jspsych/CFDfaces/CFD-WM-011-002-N.jpg' height=""250px"">,</br><b>Jeffrey</b>",1,256,IntactOrRearranged,Test,"""","""","""","""",CFD-WF-019-005-N.jpg,Rebecca,1,1,"""","""",1,4/24/2021 14:13,67.168.49.96,Mozilla/5.0 (Windows NT 10.0; WOW64; rv:47.0) Gecko/20100101 Firefox/47.0,,Firefox,47,Windows,10
118,1,2386.67,"""",html-slider-response,217,442944,0.0-217.0,"""","<img src='jspsych/CFDfaces/CFD-WM-011-002-N.jpg' height=""250px"">,</br><b>Jeffrey</b>","""",256,ConfidenceQuery,Test,"""","""","""","""",CFD-WF-019-005-N.jpg,Rebecca,1,"""",0,14,1,4/24/2021 14:13,67.168.49.96,Mozilla/5.0 (Windows NT 10.0; WOW64; rv:47.0) Gecko/20100101 Firefox/47.0,,Firefox,47,Windows,10
118,1,null,"""",html-keyboard-response,218,443970,0.0-218.0,"""","<div style=""font-size:60px;"">+</div>","""",256,ITI,Test,null,1000,"""","""","""","""","""","""","""","""",1,4/24/2021 14:13,67.168.49.96,Mozilla/5.0 (Windows NT 10.0; WOW64; rv:47.0) Gecko/20100101 Firefox/47.0,,Firefox,47,Windows,10
118,1,null,"""",image-keyboard-response,219,444227,0.0-219.0,"""",jspsych/scrambledDisgustFaces/scrambledAF15DIS.JPG,"""",256,forwardMask,Test,null,250,"""",d,"""","""","""","""","""","""",1,4/24/2021 14:13,67.168.49.96,Mozilla/5.0 (Windows NT 10.0; WOW64; rv:47.0) Gecko/20100101 Firefox/47.0,,Firefox,47,Windows,10
118,1,null,"""",image-keyboard-response,220,444251,0.0-220.0,"""",jspsych/disgustFaces/AF15DIS.JPG,"""",256,Cue,Test,null,16,"""","""","""","""","""","""","""","""",1,4/24/2021 14:13,67.168.49.96,Mozilla/5.0 (Windows NT 10.0; WOW64; rv:47.0) Gecko/20100101 Firefox/47.0,,Firefox,47,Windows,10
118,1,null,"""",image-keyboard-response,221,444358,0.0-221.0,"""",jspsych/neutralFaces/BF03NES.JPG,"""",256,backwardMask,Test,null,100,"""","""","""","""","""","""","""","""",1,4/24/2021 14:13,67.168.49.96,Mozilla/5.0 (Windows NT 10.0; WOW64; rv:47.0) Gecko/20100101 Firefox/47.0,,Firefox,47,Windows,10
118,1,null,"""",html-keyboard-response,222,445364,0.0-222.0,"""","<div style=""font-size:60px;"">+</div>","""",256,fixationBtwnNeutralMaskAndPrompt,Test,null,1000,"""","""","""","""","""","""","""","""",1,4/24/2021 14:13,67.168.49.96,Mozilla/5.0 (Windows NT 10.0; WOW64; rv:47.0) Gecko/20100101 Firefox/47.0,,Firefox,47,Windows,10
118,1,1383.885,"""",html-button-response,223,446750,0.0-223.0,"""","<img src='jspsych/CFDfaces/CFD-BF-226-119-N.jpg' height=""250px"">,</br><b>Christina</b>",1,256,IntactOrRearranged,Test,"""","""","""","""",CFD-BF-209-172-N.jpg,Jasmine,1,1,"""","""",1,4/24/2021 14:13,67.168.49.96,Mozilla/5.0 (Windows NT 10.0; WOW64; rv:47.0) Gecko/20100101 Firefox/47.0,,Firefox,47,Windows,10
118,1,1943.57,"""",html-slider-response,224,448696,0.0-224.0,"""","<img src='jspsych/CFDfaces/CFD-BF-226-119-N.jpg' height=""250px"">,</br><b>Christina</b>","""",256,ConfidenceQuery,Test,"""","""","""","""",CFD-BF-209-172-N.jpg,Jasmine,1,"""",0,64,1,4/24/2021 14:13,67.168.49.96,Mozilla/5.0 (Windows NT 10.0; WOW64; rv:47.0) Gecko/20100101 Firefox/47.0,,Firefox,47,Windows,10
118,1,null,"""",html-keyboard-response,225,449710,0.0-225.0,"""","<div style=""font-size:60px;"">+</div>","""",256,ITI,Test,null,1000,"""","""","""","""","""","""","""","""",1,4/24/2021 14:13,67.168.49.96,Mozilla/5.0 (Windows NT 10.0; WOW64; rv:47.0) Gecko/20100101 Firefox/47.0,,Firefox,47,Windows,10
118,1,null,"""",image-keyboard-response,226,449991,0.0-226.0,"""",jspsych/scrambledDisgustFaces/scrambledBF30DIS.JPG,"""",256,forwardMask,Test,null,250,"""",d,"""","""","""","""","""","""",1,4/24/2021 14:13,67.168.49.96,Mozilla/5.0 (Windows NT 10.0; WOW64; rv:47.0) Gecko/20100101 Firefox/47.0,,Firefox,47,Windows,10
118,1,null,"""",image-keyboard-response,227,450022,0.0-227.0,"""",jspsych/disgustFaces/BF30DIS.JPG,"""",256,Cue,Test,null,16,"""","""","""","""","""","""","""","""",1,4/24/2021 14:13,67.168.49.96,Mozilla/5.0 (Windows NT 10.0; WOW64; rv:47.0) Gecko/20100101 Firefox/47.0,,Firefox,47,Windows,10
118,1,null,"""",image-keyboard-response,228,450130,0.0-228.0,"""",jspsych/neutralFaces/AF02NES.JPG,"""",256,backwardMask,Test,null,100,"""","""","""","""","""","""","""","""",1,4/24/2021 14:13,67.168.49.96,Mozilla/5.0 (Windows NT 10.0; WOW64; rv:47.0) Gecko/20100101 Firefox/47.0,,Firefox,47,Windows,10
118,1,null,"""",html-keyboard-response,229,451140,0.0-229.0,"""","<div style=""font-size:60px;"">+</div>","""",256,fixationBtwnNeutralMaskAndPrompt,Test,null,1000,"""","""","""","""","""","""","""","""",1,4/24/2021 14:13,67.168.49.96,Mozilla/5.0 (Windows NT 10.0; WOW64; rv:47.0) Gecko/20100101 Firefox/47.0,,Firefox,47,Windows,10
118,1,null,"""",html-button-response,230,456144,0.0-230.0,"""","<img src='jspsych/CFDfaces/CFD-WF-003-003-N.jpg' height=""250px"">,</br><b>Kayla</b>",null,256,IntactOrRearranged,Test,"""","""","""","""",CFD-BM-010-003-N.jpg,Timothy,0,"""","""","""",1,4/24/2021 14:13,67.168.49.96,Mozilla/5.0 (Windows NT 10.0; WOW64; rv:47.0) Gecko/20100101 Firefox/47.0,,Firefox,47,Windows,10
118,1,2449.255,"""",html-slider-response,231,458601,0.0-231.0,"""","<img src='jspsych/CFDfaces/CFD-WF-003-003-N.jpg' height=""250px"">,</br><b>Kayla</b>","""",256,ConfidenceQuery,Test,"""","""","""","""",CFD-BM-010-003-N.jpg,Timothy,0,"""",0,6,1,4/24/2021 14:13,67.168.49.96,Mozilla/5.0 (Windows NT 10.0; WOW64; rv:47.0) Gecko/20100101 Firefox/47.0,,Firefox,47,Windows,10
118,1,null,"""",html-keyboard-response,232,459605,0.0-232.0,"""","<div style=""font-size:60px;"">+</div>","""",256,ITI,Test,null,1000,"""","""","""","""","""","""","""","""",1,4/24/2021 14:13,67.168.49.96,Mozilla/5.0 (Windows NT 10.0; WOW64; rv:47.0) Gecko/20100101 Firefox/47.0,,Firefox,47,Windows,10
118,1,null,"""",image-keyboard-response,233,459867,0.0-233.0,"""",jspsych/scrambledNeutralFaces/scrambledBM01NES.JPG,"""",256,forwardMask,Test,null,250,"""",n,"""","""","""","""","""","""",1,4/24/2021 14:13,67.168.49.96,Mozilla/5.0 (Windows NT 10.0; WOW64; rv:47.0) Gecko/20100101 Firefox/47.0,,Firefox,47,Windows,10
118,1,null,"""",image-keyboard-response,234,459895,0.0-234.0,"""",jspsych/neutralFaces/BM01NES.JPG,"""",256,Cue,Test,null,16,"""","""","""","""","""","""","""","""",1,4/24/2021 14:13,67.168.49.96,Mozilla/5.0 (Windows NT 10.0; WOW64; rv:47.0) Gecko/20100101 Firefox/47.0,,Firefox,47,Windows,10
118,1,null,"""",image-keyboard-response,235,460005,0.0-235.0,"""",jspsych/neutralFaces/AM27NES.JPG,"""",256,backwardMask,Test,null,100,"""","""","""","""","""","""","""","""",1,4/24/2021 14:13,67.168.49.96,Mozilla/5.0 (Windows NT 10.0; WOW64; rv:47.0) Gecko/20100101 Firefox/47.0,,Firefox,47,Windows,10
118,1,null,"""",html-keyboard-response,236,461013,0.0-236.0,"""","<div style=""font-size:60px;"">+</div>","""",256,fixationBtwnNeutralMaskAndPrompt,Test,null,1000,"""","""","""","""","""","""","""","""",1,4/24/2021 14:13,67.168.49.96,Mozilla/5.0 (Windows NT 10.0; WOW64; rv:47.0) Gecko/20100101 Firefox/47.0,,Firefox,47,Windows,10
118,1,1745.05,"""",html-button-response,237,462760,0.0-237.0,"""","<img src='jspsych/CFDfaces/CFD-AF-209-006-N.jpg' height=""250px"">,</br><b>Vanessa</b>",0,256,IntactOrRearranged,Test,"""","""","""","""",CFD-WM-232-070-N.jpg,Mark,0,0,"""","""",1,4/24/2021 14:13,67.168.49.96,Mozilla/5.0 (Windows NT 10.0; WOW64; rv:47.0) Gecko/20100101 Firefox/47.0,,Firefox,47,Windows,10
118,1,1436.36,"""",html-slider-response,238,464207,0.0-238.0,"""","<img src='jspsych/CFDfaces/CFD-AF-209-006-N.jpg' height=""250px"">,</br><b>Vanessa</b>","""",256,ConfidenceQuery,Test,"""","""","""","""",CFD-WM-232-070-N.jpg,Mark,0,"""",0,58,1,4/24/2021 14:13,67.168.49.96,Mozilla/5.0 (Windows NT 10.0; WOW64; rv:47.0) Gecko/20100101 Firefox/47.0,,Firefox,47,Windows,10
118,1,null,"""",html-keyboard-response,239,465222,0.0-239.0,"""","<div style=""font-size:60px;"">+</div>","""",256,ITI,Test,null,1000,"""","""","""","""","""","""","""","""",1,4/24/2021 14:13,67.168.49.96,Mozilla/5.0 (Windows NT 10.0; WOW64; rv:47.0) Gecko/20100101 Firefox/47.0,,Firefox,47,Windows,10
118,1,null,"""",image-keyboard-response,240,465485,0.0-240.0,"""",jspsych/scrambledDisgustFaces/scrambledAF17DIS.JPG,"""",256,forwardMask,Test,null,250,"""",d,"""","""","""","""","""","""",1,4/24/2021 14:13,67.168.49.96,Mozilla/5.0 (Windows NT 10.0; WOW64; rv:47.0) Gecko/20100101 Firefox/47.0,,Firefox,47,Windows,10
118,1,null,"""",image-keyboard-response,241,465511,0.0-241.0,"""",jspsych/disgustFaces/AF17DIS.JPG,"""",256,Cue,Test,null,16,"""","""","""","""","""","""","""","""",1,4/24/2021 14:13,67.168.49.96,Mozilla/5.0 (Windows NT 10.0; WOW64; rv:47.0) Gecko/20100101 Firefox/47.0,,Firefox,47,Windows,10
118,1,null,"""",image-keyboard-response,242,465622,0.0-242.0,"""",jspsych/neutralFaces/BF07NES.JPG,"""",256,backwardMask,Test,null,100,"""","""","""","""","""","""","""","""",1,4/24/2021 14:13,67.168.49.96,Mozilla/5.0 (Windows NT 10.0; WOW64; rv:47.0) Gecko/20100101 Firefox/47.0,,Firefox,47,Windows,10
118,1,null,"""",html-keyboard-response,243,466635,0.0-243.0,"""","<div style=""font-size:60px;"">+</div>","""",256,fixationBtwnNeutralMaskAndPrompt,Test,null,1000,"""","""","""","""","""","""","""","""",1,4/24/2021 14:13,67.168.49.96,Mozilla/5.0 (Windows NT 10.0; WOW64; rv:47.0) Gecko/20100101 Firefox/47.0,,Firefox,47,Windows,10
118,1,2563.345,"""",html-button-response,244,469201,0.0-244.0,"""","<img src='jspsych/CFDfaces/CFD-WF-006-002-N.jpg' height=""250px"">,</br><b>Meghan</b>",0,256,IntactOrRearranged,Test,"""","""","""","""",CFD-LF-206-078-N.jpg,Taylor,0,0,"""","""",1,4/24/2021 14:13,67.168.49.96,Mozilla/5.0 (Windows NT 10.0; WOW64; rv:47.0) Gecko/20100101 Firefox/47.0,,Firefox,47,Windows,10
118,1,1591.3,"""",html-slider-response,245,470800,0.0-245.0,"""","<img src='jspsych/CFDfaces/CFD-WF-006-002-N.jpg' height=""250px"">,</br><b>Meghan</b>","""",256,ConfidenceQuery,Test,"""","""","""","""",CFD-LF-206-078-N.jpg,Taylor,0,"""",0,72,1,4/24/2021 14:13,67.168.49.96,Mozilla/5.0 (Windows NT 10.0; WOW64; rv:47.0) Gecko/20100101 Firefox/47.0,,Firefox,47,Windows,10
118,1,null,"""",html-keyboard-response,246,471803,0.0-246.0,"""","<div style=""font-size:60px;"">+</div>","""",256,ITI,Test,null,1000,"""","""","""","""","""","""","""","""",1,4/24/2021 14:13,67.168.49.96,Mozilla/5.0 (Windows NT 10.0; WOW64; rv:47.0) Gecko/20100101 Firefox/47.0,,Firefox,47,Windows,10
118,1,null,"""",image-keyboard-response,247,472066,0.0-247.0,"""",jspsych/scrambledNeutralFaces/scrambledBF32NES.JPG,"""",256,forwardMask,Test,null,250,"""",n,"""","""","""","""","""","""",1,4/24/2021 14:13,67.168.49.96,Mozilla/5.0 (Windows NT 10.0; WOW64; rv:47.0) Gecko/20100101 Firefox/47.0,,Firefox,47,Windows,10
118,1,null,"""",image-keyboard-response,248,472097,0.0-248.0,"""",jspsych/neutralFaces/BF32NES.JPG,"""",256,Cue,Test,null,16,"""","""","""","""","""","""","""","""",1,4/24/2021 14:13,67.168.49.96,Mozilla/5.0 (Windows NT 10.0; WOW64; rv:47.0) Gecko/20100101 Firefox/47.0,,Firefox,47,Windows,10
118,1,null,"""",image-keyboard-response,249,472207,0.0-249.0,"""",jspsych/neutralFaces/BF12NES.JPG,"""",256,backwardMask,Test,null,100,"""","""","""","""","""","""","""","""",1,4/24/2021 14:13,67.168.49.96,Mozilla/5.0 (Windows NT 10.0; WOW64; rv:47.0) Gecko/20100101 Firefox/47.0,,Firefox,47,Windows,10
118,1,null,"""",html-keyboard-response,250,473222,0.0-250.0,"""","<div style=""font-size:60px;"">+</div>","""",256,fixationBtwnNeutralMaskAndPrompt,Test,null,1000,"""","""","""","""","""","""","""","""",1,4/24/2021 14:13,67.168.49.96,Mozilla/5.0 (Windows NT 10.0; WOW64; rv:47.0) Gecko/20100101 Firefox/47.0,,Firefox,47,Windows,10
118,1,4086.545,"""",html-button-response,251,477310,0.0-251.0,"""","<img src='jspsych/CFDfaces/CFD-WM-207-048-N.jpg' height=""250px"">,</br><b>Eric</b>",0,256,IntactOrRearranged,Test,"""","""","""","""",CFD-WF-018-017-N.jpg,Laura,1,0,"""","""",1,4/24/2021 14:13,67.168.49.96,Mozilla/5.0 (Windows NT 10.0; WOW64; rv:47.0) Gecko/20100101 Firefox/47.0,,Firefox,47,Windows,10
118,1,2019.48,"""",html-slider-response,252,479336,0.0-252.0,"""","<img src='jspsych/CFDfaces/CFD-WM-207-048-N.jpg' height=""250px"">,</br><b>Eric</b>","""",256,ConfidenceQuery,Test,"""","""","""","""",CFD-WF-018-017-N.jpg,Laura,1,"""",0,5,1,4/24/2021 14:13,67.168.49.96,Mozilla/5.0 (Windows NT 10.0; WOW64; rv:47.0) Gecko/20100101 Firefox/47.0,,Firefox,47,Windows,10
118,1,null,"""",html-keyboard-response,253,480343,0.0-253.0,"""","<div style=""font-size:60px;"">+</div>","""",256,ITI,Test,null,1000,"""","""","""","""","""","""","""","""",1,4/24/2021 14:13,67.168.49.96,Mozilla/5.0 (Windows NT 10.0; WOW64; rv:47.0) Gecko/20100101 Firefox/47.0,,Firefox,47,Windows,10
118,1,null,"""",image-keyboard-response,254,480599,0.0-254.0,"""",jspsych/scrambledDisgustFaces/scrambledAF20DIS.JPG,"""",256,forwardMask,Test,null,250,"""",d,"""","""","""","""","""","""",1,4/24/2021 14:13,67.168.49.96,Mozilla/5.0 (Windows NT 10.0; WOW64; rv:47.0) Gecko/20100101 Firefox/47.0,,Firefox,47,Windows,10
118,1,null,"""",image-keyboard-response,255,480631,0.0-255.0,"""",jspsych/disgustFaces/AF20DIS.JPG,"""",256,Cue,Test,null,16,"""","""","""","""","""","""","""","""",1,4/24/2021 14:13,67.168.49.96,Mozilla/5.0 (Windows NT 10.0; WOW64; rv:47.0) Gecko/20100101 Firefox/47.0,,Firefox,47,Windows,10
118,1,null,"""",image-keyboard-response,256,480740,0.0-256.0,"""",jspsych/neutralFaces/AF30NES.JPG,"""",256,backwardMask,Test,null,100,"""","""","""","""","""","""","""","""",1,4/24/2021 14:13,67.168.49.96,Mozilla/5.0 (Windows NT 10.0; WOW64; rv:47.0) Gecko/20100101 Firefox/47.0,,Firefox,47,Windows,10
118,1,null,"""",html-keyboard-response,257,481747,0.0-257.0,"""","<div style=""font-size:60px;"">+</div>","""",256,fixationBtwnNeutralMaskAndPrompt,Test,null,1000,"""","""","""","""","""","""","""","""",1,4/24/2021 14:13,67.168.49.96,Mozilla/5.0 (Windows NT 10.0; WOW64; rv:47.0) Gecko/20100101 Firefox/47.0,,Firefox,47,Windows,10
118,1,1644.69,"""",html-button-response,258,483393,0.0-258.0,"""","<img src='jspsych/CFDfaces/CFD-LF-205-100-N.jpg' height=""250px"">,</br><b>Kimberly</b>",0,256,IntactOrRearranged,Test,"""","""","""","""",CFD-AM-207-108-N.jpg,Sean,1,0,"""","""",1,4/24/2021 14:13,67.168.49.96,Mozilla/5.0 (Windows NT 10.0; WOW64; rv:47.0) Gecko/20100101 Firefox/47.0,,Firefox,47,Windows,10
118,1,1574.17,"""",html-slider-response,259,484969,0.0-259.0,"""","<img src='jspsych/CFDfaces/CFD-LF-205-100-N.jpg' height=""250px"">,</br><b>Kimberly</b>","""",256,ConfidenceQuery,Test,"""","""","""","""",CFD-AM-207-108-N.jpg,Sean,1,"""",0,5,1,4/24/2021 14:13,67.168.49.96,Mozilla/5.0 (Windows NT 10.0; WOW64; rv:47.0) Gecko/20100101 Firefox/47.0,,Firefox,47,Windows,10
118,1,null,"""",html-keyboard-response,260,485983,0.0-260.0,"""","<div style=""font-size:60px;"">+</div>","""",256,ITI,Test,null,1000,"""","""","""","""","""","""","""","""",1,4/24/2021 14:13,67.168.49.96,Mozilla/5.0 (Windows NT 10.0; WOW64; rv:47.0) Gecko/20100101 Firefox/47.0,,Firefox,47,Windows,10
118,1,null,"""",image-keyboard-response,261,486249,0.0-261.0,"""",jspsych/scrambledDisgustFaces/scrambledBF20DIS.JPG,"""",256,forwardMask,Test,null,250,"""",d,"""","""","""","""","""","""",1,4/24/2021 14:13,67.168.49.96,Mozilla/5.0 (Windows NT 10.0; WOW64; rv:47.0) Gecko/20100101 Firefox/47.0,,Firefox,47,Windows,10
118,1,null,"""",image-keyboard-response,262,486280,0.0-262.0,"""",jspsych/disgustFaces/BF20DIS.JPG,"""",256,Cue,Test,null,16,"""","""","""","""","""","""","""","""",1,4/24/2021 14:13,67.168.49.96,Mozilla/5.0 (Windows NT 10.0; WOW64; rv:47.0) Gecko/20100101 Firefox/47.0,,Firefox,47,Windows,10
118,1,null,"""",image-keyboard-response,263,486391,0.0-263.0,"""",jspsych/neutralFaces/BF29NES.JPG,"""",256,backwardMask,Test,null,100,"""","""","""","""","""","""","""","""",1,4/24/2021 14:13,67.168.49.96,Mozilla/5.0 (Windows NT 10.0; WOW64; rv:47.0) Gecko/20100101 Firefox/47.0,,Firefox,47,Windows,10
118,1,null,"""",html-keyboard-response,264,487398,0.0-264.0,"""","<div style=""font-size:60px;"">+</div>","""",256,fixationBtwnNeutralMaskAndPrompt,Test,null,1000,"""","""","""","""","""","""","""","""",1,4/24/2021 14:13,67.168.49.96,Mozilla/5.0 (Windows NT 10.0; WOW64; rv:47.0) Gecko/20100101 Firefox/47.0,,Firefox,47,Windows,10
118,1,1993.835,"""",html-button-response,265,489393,0.0-265.0,"""","<img src='jspsych/CFDfaces/CFD-LF-239-148-N.jpg' height=""250px"">,</br><b>Stephanie</b>",0,256,IntactOrRearranged,Test,"""","""","""","""",CFD-AM-221-184-N.jpg,Steven,0,0,"""","""",1,4/24/2021 14:13,67.168.49.96,Mozilla/5.0 (Windows NT 10.0; WOW64; rv:47.0) Gecko/20100101 Firefox/47.0,,Firefox,47,Windows,10
118,1,1887.635,"""",html-slider-response,266,491283,0.0-266.0,"""","<img src='jspsych/CFDfaces/CFD-LF-239-148-N.jpg' height=""250px"">,</br><b>Stephanie</b>","""",256,ConfidenceQuery,Test,"""","""","""","""",CFD-AM-221-184-N.jpg,Steven,0,"""",0,5,1,4/24/2021 14:13,67.168.49.96,Mozilla/5.0 (Windows NT 10.0; WOW64; rv:47.0) Gecko/20100101 Firefox/47.0,,Firefox,47,Windows,10
118,1,null,"""",html-keyboard-response,267,492288,0.0-267.0,"""","<div style=""font-size:60px;"">+</div>","""",256,ITI,Test,null,1000,"""","""","""","""","""","""","""","""",1,4/24/2021 14:13,67.168.49.96,Mozilla/5.0 (Windows NT 10.0; WOW64; rv:47.0) Gecko/20100101 Firefox/47.0,,Firefox,47,Windows,10
118,1,null,"""",image-keyboard-response,268,492566,0.0-268.0,"""",jspsych/scrambledDisgustFaces/scrambledBM18DIS.JPG,"""",256,forwardMask,Test,null,250,"""",d,"""","""","""","""","""","""",1,4/24/2021 14:13,67.168.49.96,Mozilla/5.0 (Windows NT 10.0; WOW64; rv:47.0) Gecko/20100101 Firefox/47.0,,Firefox,47,Windows,10
118,1,null,"""",image-keyboard-response,269,492597,0.0-269.0,"""",jspsych/disgustFaces/BM19DIS.JPG,"""",256,Cue,Test,null,16,"""","""","""","""","""","""","""","""",1,4/24/2021 14:13,67.168.49.96,Mozilla/5.0 (Windows NT 10.0; WOW64; rv:47.0) Gecko/20100101 Firefox/47.0,,Firefox,47,Windows,10
118,1,null,"""",image-keyboard-response,270,492705,0.0-270.0,"""",jspsych/neutralFaces/BM06NES.JPG,"""",256,backwardMask,Test,null,100,"""","""","""","""","""","""","""","""",1,4/24/2021 14:13,67.168.49.96,Mozilla/5.0 (Windows NT 10.0; WOW64; rv:47.0) Gecko/20100101 Firefox/47.0,,Firefox,47,Windows,10
118,1,null,"""",html-keyboard-response,271,493721,0.0-271.0,"""","<div style=""font-size:60px;"">+</div>","""",256,fixationBtwnNeutralMaskAndPrompt,Test,null,1000,"""","""","""","""","""","""","""","""",1,4/24/2021 14:13,67.168.49.96,Mozilla/5.0 (Windows NT 10.0; WOW64; rv:47.0) Gecko/20100101 Firefox/47.0,,Firefox,47,Windows,10
118,1,1648.285,"""",html-button-response,272,495374,0.0-272.0,"""","<img src='jspsych/CFDfaces/CFD-AF-222-134-N.jpg' height=""250px"">,</br><b>Brittany</b>",0,256,IntactOrRearranged,Test,"""","""","""","""",CFD-AF-239-171-N.jpg,Erin,0,0,"""","""",1,4/24/2021 14:13,67.168.49.96,Mozilla/5.0 (Windows NT 10.0; WOW64; rv:47.0) Gecko/20100101 Firefox/47.0,,Firefox,47,Windows,10
118,1,3015.63,"""",html-slider-response,273,498395,0.0-273.0,"""","<img src='jspsych/CFDfaces/CFD-AF-222-134-N.jpg' height=""250px"">,</br><b>Brittany</b>","""",256,ConfidenceQuery,Test,"""","""","""","""",CFD-AF-239-171-N.jpg,Erin,0,"""",0,76,1,4/24/2021 14:13,67.168.49.96,Mozilla/5.0 (Windows NT 10.0; WOW64; rv:47.0) Gecko/20100101 Firefox/47.0,,Firefox,47,Windows,10
118,1,null,"""",html-keyboard-response,274,499413,0.0-274.0,"""","<div style=""font-size:60px;"">+</div>","""",256,ITI,Test,null,1000,"""","""","""","""","""","""","""","""",1,4/24/2021 14:13,67.168.49.96,Mozilla/5.0 (Windows NT 10.0; WOW64; rv:47.0) Gecko/20100101 Firefox/47.0,,Firefox,47,Windows,10
118,1,null,"""",image-keyboard-response,275,499722,0.0-275.0,"""",jspsych/scrambledDisgustFaces/scrambledBM19DIS.JPG,"""",256,forwardMask,Test,null,250,"""",d,"""","""","""","""","""","""",1,4/24/2021 14:13,67.168.49.96,Mozilla/5.0 (Windows NT 10.0; WOW64; rv:47.0) Gecko/20100101 Firefox/47.0,,Firefox,47,Windows,10
118,1,null,"""",image-keyboard-response,276,499745,0.0-276.0,"""",jspsych/disgustFaces/BM20DIS.JPG,"""",256,Cue,Test,null,16,"""","""","""","""","""","""","""","""",1,4/24/2021 14:13,67.168.49.96,Mozilla/5.0 (Windows NT 10.0; WOW64; rv:47.0) Gecko/20100101 Firefox/47.0,,Firefox,47,Windows,10
118,1,null,"""",image-keyboard-response,277,499857,0.0-277.0,"""",jspsych/neutralFaces/AM34NES.JPG,"""",256,backwardMask,Test,null,100,"""","""","""","""","""","""","""","""",1,4/24/2021 14:13,67.168.49.96,Mozilla/5.0 (Windows NT 10.0; WOW64; rv:47.0) Gecko/20100101 Firefox/47.0,,Firefox,47,Windows,10
118,1,null,"""",html-keyboard-response,278,500868,0.0-278.0,"""","<div style=""font-size:60px;"">+</div>","""",256,fixationBtwnNeutralMaskAndPrompt,Test,null,1000,"""","""","""","""","""","""","""","""",1,4/24/2021 14:13,67.168.49.96,Mozilla/5.0 (Windows NT 10.0; WOW64; rv:47.0) Gecko/20100101 Firefox/47.0,,Firefox,47,Windows,10
118,1,1927.035,"""",html-button-response,279,502800,0.0-279.0,"""","<img src='jspsych/CFDfaces/CFD-WF-200-099-N.jpg' height=""250px"">,</br><b>Samantha</b>",0,256,IntactOrRearranged,Test,"""","""","""","""",CFD-AM-248-104-N.jpg,Travis,0,0,"""","""",1,4/24/2021 14:13,67.168.49.96,Mozilla/5.0 (Windows NT 10.0; WOW64; rv:47.0) Gecko/20100101 Firefox/47.0,,Firefox,47,Windows,10
118,1,1663.72,"""",html-slider-response,280,504469,0.0-280.0,"""","<img src='jspsych/CFDfaces/CFD-WF-200-099-N.jpg' height=""250px"">,</br><b>Samantha</b>","""",256,ConfidenceQuery,Test,"""","""","""","""",CFD-AM-248-104-N.jpg,Travis,0,"""",0,73,1,4/24/2021 14:13,67.168.49.96,Mozilla/5.0 (Windows NT 10.0; WOW64; rv:47.0) Gecko/20100101 Firefox/47.0,,Firefox,47,Windows,10
118,1,null,"""",html-keyboard-response,281,505476,0.0-281.0,"""","<div style=""font-size:60px;"">+</div>","""",256,ITI,Test,null,1000,"""","""","""","""","""","""","""","""",1,4/24/2021 14:13,67.168.49.96,Mozilla/5.0 (Windows NT 10.0; WOW64; rv:47.0) Gecko/20100101 Firefox/47.0,,Firefox,47,Windows,10
118,1,null,"""",image-keyboard-response,282,505731,0.0-282.0,"""",jspsych/scrambledDisgustFaces/scrambledBF05DIS.JPG,"""",256,forwardMask,Test,null,250,"""",d,"""","""","""","""","""","""",1,4/24/2021 14:13,67.168.49.96,Mozilla/5.0 (Windows NT 10.0; WOW64; rv:47.0) Gecko/20100101 Firefox/47.0,,Firefox,47,Windows,10
118,1,null,"""",image-keyboard-response,283,505754,0.0-283.0,"""",jspsych/disgustFaces/BF05DIS.JPG,"""",256,Cue,Test,null,16,"""","""","""","""","""","""","""","""",1,4/24/2021 14:13,67.168.49.96,Mozilla/5.0 (Windows NT 10.0; WOW64; rv:47.0) Gecko/20100101 Firefox/47.0,,Firefox,47,Windows,10
118,1,null,"""",image-keyboard-response,284,505865,0.0-284.0,"""",jspsych/neutralFaces/AF28NES.JPG,"""",256,backwardMask,Test,null,100,"""","""","""","""","""","""","""","""",1,4/24/2021 14:13,67.168.49.96,Mozilla/5.0 (Windows NT 10.0; WOW64; rv:47.0) Gecko/20100101 Firefox/47.0,,Firefox,47,Windows,10
118,1,null,"""",html-keyboard-response,285,506890,0.0-285.0,"""","<div style=""font-size:60px;"">+</div>","""",256,fixationBtwnNeutralMaskAndPrompt,Test,null,1000,"""","""","""","""","""","""","""","""",1,4/24/2021 14:13,67.168.49.96,Mozilla/5.0 (Windows NT 10.0; WOW64; rv:47.0) Gecko/20100101 Firefox/47.0,,Firefox,47,Windows,10
118,1,1728.325,"""",html-button-response,286,508621,0.0-286.0,"""","<img src='jspsych/CFDfaces/CFD-LF-230-203-N.jpg' height=""250px"">,</br><b>Andrea</b>",1,256,IntactOrRearranged,Test,"""","""","""","""",CFD-AF-220-107-N.jpg,Lauren,1,1,"""","""",1,4/24/2021 14:13,67.168.49.96,Mozilla/5.0 (Windows NT 10.0; WOW64; rv:47.0) Gecko/20100101 Firefox/47.0,,Firefox,47,Windows,10
118,1,2061.04,"""",html-slider-response,287,510684,0.0-287.0,"""","<img src='jspsych/CFDfaces/CFD-LF-230-203-N.jpg' height=""250px"">,</br><b>Andrea</b>","""",256,ConfidenceQuery,Test,"""","""","""","""",CFD-AF-220-107-N.jpg,Lauren,1,"""",0,73,1,4/24/2021 14:13,67.168.49.96,Mozilla/5.0 (Windows NT 10.0; WOW64; rv:47.0) Gecko/20100101 Firefox/47.0,,Firefox,47,Windows,10
118,1,null,"""",html-keyboard-response,288,511694,0.0-288.0,"""","<div style=""font-size:60px;"">+</div>","""",256,ITI,Test,null,1000,"""","""","""","""","""","""","""","""",1,4/24/2021 14:13,67.168.49.96,Mozilla/5.0 (Windows NT 10.0; WOW64; rv:47.0) Gecko/20100101 Firefox/47.0,,Firefox,47,Windows,10
118,1,null,"""",image-keyboard-response,289,511959,0.0-289.0,"""",jspsych/scrambledNeutralFaces/scrambledAM03NES.JPG,"""",256,forwardMask,Test,null,250,"""",n,"""","""","""","""","""","""",1,4/24/2021 14:13,67.168.49.96,Mozilla/5.0 (Windows NT 10.0; WOW64; rv:47.0) Gecko/20100101 Firefox/47.0,,Firefox,47,Windows,10
118,1,null,"""",image-keyboard-response,290,511989,0.0-290.0,"""",jspsych/neutralFaces/AM03NES.JPG,"""",256,Cue,Test,null,16,"""","""","""","""","""","""","""","""",1,4/24/2021 14:13,67.168.49.96,Mozilla/5.0 (Windows NT 10.0; WOW64; rv:47.0) Gecko/20100101 Firefox/47.0,,Firefox,47,Windows,10
118,1,null,"""",image-keyboard-response,291,512097,0.0-291.0,"""",jspsych/neutralFaces/BM05NES.JPG,"""",256,backwardMask,Test,null,100,"""","""","""","""","""","""","""","""",1,4/24/2021 14:13,67.168.49.96,Mozilla/5.0 (Windows NT 10.0; WOW64; rv:47.0) Gecko/20100101 Firefox/47.0,,Firefox,47,Windows,10
118,1,null,"""",html-keyboard-response,292,513106,0.0-292.0,"""","<div style=""font-size:60px;"">+</div>","""",256,fixationBtwnNeutralMaskAndPrompt,Test,null,1000,"""","""","""","""","""","""","""","""",1,4/24/2021 14:13,67.168.49.96,Mozilla/5.0 (Windows NT 10.0; WOW64; rv:47.0) Gecko/20100101 Firefox/47.0,,Firefox,47,Windows,10
118,1,2037.515,"""",html-button-response,293,515165,0.0-293.0,"""","<img src='jspsych/CFDfaces/CFD-BM-041-035-N.jpg' height=""250px"">,</br><b>Ian</b>",0,256,IntactOrRearranged,Test,"""","""","""","""",CFD-WM-215-041-N.jpg,Jesse,0,0,"""","""",1,4/24/2021 14:13,67.168.49.96,Mozilla/5.0 (Windows NT 10.0; WOW64; rv:47.0) Gecko/20100101 Firefox/47.0,,Firefox,47,Windows,10
118,1,1327.605,"""",html-slider-response,294,516494,0.0-294.0,"""","<img src='jspsych/CFDfaces/CFD-BM-041-035-N.jpg' height=""250px"">,</br><b>Ian</b>","""",256,ConfidenceQuery,Test,"""","""","""","""",CFD-WM-215-041-N.jpg,Jesse,0,"""",0,78,1,4/24/2021 14:13,67.168.49.96,Mozilla/5.0 (Windows NT 10.0; WOW64; rv:47.0) Gecko/20100101 Firefox/47.0,,Firefox,47,Windows,10
118,1,null,"""",html-keyboard-response,295,517500,0.0-295.0,"""","<div style=""font-size:60px;"">+</div>","""",256,ITI,Test,null,1000,"""","""","""","""","""","""","""","""",1,4/24/2021 14:13,67.168.49.96,Mozilla/5.0 (Windows NT 10.0; WOW64; rv:47.0) Gecko/20100101 Firefox/47.0,,Firefox,47,Windows,10
118,1,null,"""",image-keyboard-response,296,517764,0.0-296.0,"""",jspsych/scrambledDisgustFaces/scrambledAF05DIS.JPG,"""",256,forwardMask,Test,null,250,"""",d,"""","""","""","""","""","""",1,4/24/2021 14:13,67.168.49.96,Mozilla/5.0 (Windows NT 10.0; WOW64; rv:47.0) Gecko/20100101 Firefox/47.0,,Firefox,47,Windows,10
118,1,null,"""",image-keyboard-response,297,517796,0.0-297.0,"""",jspsych/disgustFaces/AF05DIS.JPG,"""",256,Cue,Test,null,16,"""","""","""","""","""","""","""","""",1,4/24/2021 14:13,67.168.49.96,Mozilla/5.0 (Windows NT 10.0; WOW64; rv:47.0) Gecko/20100101 Firefox/47.0,,Firefox,47,Windows,10
118,1,null,"""",image-keyboard-response,298,517904,0.0-298.0,"""",jspsych/neutralFaces/BF29NES.JPG,"""",256,backwardMask,Test,null,100,"""","""","""","""","""","""","""","""",1,4/24/2021 14:13,67.168.49.96,Mozilla/5.0 (Windows NT 10.0; WOW64; rv:47.0) Gecko/20100101 Firefox/47.0,,Firefox,47,Windows,10
118,1,null,"""",html-keyboard-response,299,518921,0.0-299.0,"""","<div style=""font-size:60px;"">+</div>","""",256,fixationBtwnNeutralMaskAndPrompt,Test,null,1000,"""","""","""","""","""","""","""","""",1,4/24/2021 14:13,67.168.49.96,Mozilla/5.0 (Windows NT 10.0; WOW64; rv:47.0) Gecko/20100101 Firefox/47.0,,Firefox,47,Windows,10
