run_id,condition,rt,responses,trial_type,trial_index,time_elapsed,internal_node_id,question_order,stimulus,button_pressed,iTrial,Phase,ExperimentPhase,key_press,StimulusDurationSetting,CharacterResponse,correctResponse,Face,Name,rearranged,didSubjectEnterRearranged,slider_start,response,Block,recorded_at,ip,user_agent,device,browser,browser_version,platform,platform_version
137,1,12484,"{""Q0"":""A1Q0TDPZW53SSJ""}",survey-text,0,12485,0.0-0.0,"""","""","""","""","""","""","""","""","""","""","""","""","""","""","""","""","""",4/25/2021 9:21,93.40.224.54,Mozilla/5.0 (Windows NT 10.0; Win64; x64; rv:88.0) Gecko/20100101 Firefox/88.0,,Firefox,88,Windows,10
137,1,2622,"{""Q0"":""26""}",survey-text,1,15113,0.0-1.0,"""","""","""","""","""","""","""","""","""","""","""","""","""","""","""","""","""",4/25/2021 9:21,93.40.224.54,Mozilla/5.0 (Windows NT 10.0; Win64; x64; rv:88.0) Gecko/20100101 Firefox/88.0,,Firefox,88,Windows,10
137,1,7551,"{""Q0"":""male"",""Q1"":""Not Hispanic/Latino"",""Q2"":""White or Caucasian""}",survey-multi-choice,2,22667,0.0-2.0,"[0,1,2]","""","""","""","""","""","""","""","""","""","""","""","""","""","""","""","""",4/25/2021 9:21,93.40.224.54,Mozilla/5.0 (Windows NT 10.0; Win64; x64; rv:88.0) Gecko/20100101 Firefox/88.0,,Firefox,88,Windows,10
137,1,913,"""",image-button-response,3,23588,0.0-3.0,"""",directionsMemoryAssociation1.JPG,0,1,IntroDirections1,break,"""","""","""","""","""","""","""","""","""","""","""",4/25/2021 9:21,93.40.224.54,Mozilla/5.0 (Windows NT 10.0; Win64; x64; rv:88.0) Gecko/20100101 Firefox/88.0,,Firefox,88,Windows,10
137,1,429,"""",image-button-response,4,24027,0.0-4.0,"""",directionsMemoryAssociation2.JPG,0,1,IntroDirections2,break,"""","""","""","""","""","""","""","""","""","""","""",4/25/2021 9:21,93.40.224.54,Mozilla/5.0 (Windows NT 10.0; Win64; x64; rv:88.0) Gecko/20100101 Firefox/88.0,,Firefox,88,Windows,10
137,1,2194,"""",html-keyboard-response,5,29035,0.0-5.0,"""","<img src='jspsych/CFDfaces/CFD-AM-230-150-N.jpg' height=""250px"">,</br><b>Marcus</b>","""",1,IntactFace,Practice,70,5000,f,"""","""","""","""","""","""","""","""",4/25/2021 9:21,93.40.224.54,Mozilla/5.0 (Windows NT 10.0; Win64; x64; rv:88.0) Gecko/20100101 Firefox/88.0,,Firefox,88,Windows,10
137,1,null,"""",html-keyboard-response,6,29549,0.0-6.0,"""","<div style=""font-size:60px;"">+</div>","""",1,ITI,Practice,null,1000,"""","""","""","""","""","""","""","""","""",4/25/2021 9:21,93.40.224.54,Mozilla/5.0 (Windows NT 10.0; Win64; x64; rv:88.0) Gecko/20100101 Firefox/88.0,,Firefox,88,Windows,10
137,1,1736,"""",html-keyboard-response,7,34554,0.0-7.0,"""","<img src='jspsych/CFDfaces/CFD-AM-207-108-N.jpg' height=""250px"">,</br><b>Carlos</b>","""",2,IntactFace,Practice,78,5000,n,"""","""","""","""","""","""","""","""",4/25/2021 9:21,93.40.224.54,Mozilla/5.0 (Windows NT 10.0; Win64; x64; rv:88.0) Gecko/20100101 Firefox/88.0,,Firefox,88,Windows,10
137,1,null,"""",html-keyboard-response,8,35066,0.0-8.0,"""","<div style=""font-size:60px;"">+</div>","""",2,ITI,Practice,null,1000,"""","""","""","""","""","""","""","""","""",4/25/2021 9:21,93.40.224.54,Mozilla/5.0 (Windows NT 10.0; Win64; x64; rv:88.0) Gecko/20100101 Firefox/88.0,,Firefox,88,Windows,10
137,1,1066,"""",html-keyboard-response,9,40075,0.0-9.0,"""","<img src='jspsych/CFDfaces/CFD-AF-208-003-N.jpg' height=""250px"">,</br><b>Cassandra</b>","""",3,IntactFace,Practice,78,5000,n,"""","""","""","""","""","""","""","""",4/25/2021 9:21,93.40.224.54,Mozilla/5.0 (Windows NT 10.0; Win64; x64; rv:88.0) Gecko/20100101 Firefox/88.0,,Firefox,88,Windows,10
137,1,null,"""",html-keyboard-response,10,40591,0.0-10.0,"""","<div style=""font-size:60px;"">+</div>","""",3,ITI,Practice,null,1000,"""","""","""","""","""","""","""","""","""",4/25/2021 9:21,93.40.224.54,Mozilla/5.0 (Windows NT 10.0; Win64; x64; rv:88.0) Gecko/20100101 Firefox/88.0,,Firefox,88,Windows,10
137,1,1182,"""",html-keyboard-response,11,45595,0.0-11.0,"""","<img src='jspsych/CFDfaces/CFD-BF-212-315-N.jpg' height=""250px"">,</br><b>Tara</b>","""",4,IntactFace,Practice,70,5000,f,"""","""","""","""","""","""","""","""",4/25/2021 9:21,93.40.224.54,Mozilla/5.0 (Windows NT 10.0; Win64; x64; rv:88.0) Gecko/20100101 Firefox/88.0,,Firefox,88,Windows,10
137,1,null,"""",html-keyboard-response,12,46113,0.0-12.0,"""","<div style=""font-size:60px;"">+</div>","""",4,ITI,Practice,null,1000,"""","""","""","""","""","""","""","""","""",4/25/2021 9:21,93.40.224.54,Mozilla/5.0 (Windows NT 10.0; Win64; x64; rv:88.0) Gecko/20100101 Firefox/88.0,,Firefox,88,Windows,10
137,1,2111,"""",html-keyboard-response,13,51124,0.0-13.0,"""","<img src='jspsych/CFDfaces/CFD-BF-005-001-N.jpg' height=""250px"">,</br><b>Shannon</b>","""",5,IntactFace,Practice,70,5000,f,"""","""","""","""","""","""","""","""",4/25/2021 9:21,93.40.224.54,Mozilla/5.0 (Windows NT 10.0; Win64; x64; rv:88.0) Gecko/20100101 Firefox/88.0,,Firefox,88,Windows,10
137,1,null,"""",html-keyboard-response,14,51635,0.0-14.0,"""","<div style=""font-size:60px;"">+</div>","""",5,ITI,Practice,null,1000,"""","""","""","""","""","""","""","""","""",4/25/2021 9:21,93.40.224.54,Mozilla/5.0 (Windows NT 10.0; Win64; x64; rv:88.0) Gecko/20100101 Firefox/88.0,,Firefox,88,Windows,10
137,1,1431,"""",html-keyboard-response,15,56644,0.0-15.0,"""","<img src='jspsych/CFDfaces/CFD-LF-218-072-N.jpg' height=""250px"">,</br><b>Katelyn</b>","""",6,IntactFace,Practice,78,5000,n,"""","""","""","""","""","""","""","""",4/25/2021 9:21,93.40.224.54,Mozilla/5.0 (Windows NT 10.0; Win64; x64; rv:88.0) Gecko/20100101 Firefox/88.0,,Firefox,88,Windows,10
137,1,null,"""",html-keyboard-response,16,57159,0.0-16.0,"""","<div style=""font-size:60px;"">+</div>","""",6,ITI,Practice,null,1000,"""","""","""","""","""","""","""","""","""",4/25/2021 9:21,93.40.224.54,Mozilla/5.0 (Windows NT 10.0; Win64; x64; rv:88.0) Gecko/20100101 Firefox/88.0,,Firefox,88,Windows,10
137,1,1124,"""",html-keyboard-response,17,62174,0.0-17.0,"""","<img src='jspsych/CFDfaces/CFD-WM-022-001-N.jpg' height=""250px"">,</br><b>Samuel</b>","""",7,IntactFace,Practice,78,5000,n,"""","""","""","""","""","""","""","""",4/25/2021 9:21,93.40.224.54,Mozilla/5.0 (Windows NT 10.0; Win64; x64; rv:88.0) Gecko/20100101 Firefox/88.0,,Firefox,88,Windows,10
137,1,null,"""",html-keyboard-response,18,62688,0.0-18.0,"""","<div style=""font-size:60px;"">+</div>","""",7,ITI,Practice,null,1000,"""","""","""","""","""","""","""","""","""",4/25/2021 9:21,93.40.224.54,Mozilla/5.0 (Windows NT 10.0; Win64; x64; rv:88.0) Gecko/20100101 Firefox/88.0,,Firefox,88,Windows,10
137,1,1126,"""",html-keyboard-response,19,67705,0.0-19.0,"""","<img src='jspsych/CFDfaces/CFD-WM-216-061-N.jpg' height=""250px"">,</br><b>Patrick</b>","""",8,IntactFace,Practice,70,5000,f,"""","""","""","""","""","""","""","""",4/25/2021 9:21,93.40.224.54,Mozilla/5.0 (Windows NT 10.0; Win64; x64; rv:88.0) Gecko/20100101 Firefox/88.0,,Firefox,88,Windows,10
137,1,null,"""",html-keyboard-response,20,68221,0.0-20.0,"""","<div style=""font-size:60px;"">+</div>","""",8,ITI,Practice,null,1000,"""","""","""","""","""","""","""","""","""",4/25/2021 9:21,93.40.224.54,Mozilla/5.0 (Windows NT 10.0; Win64; x64; rv:88.0) Gecko/20100101 Firefox/88.0,,Firefox,88,Windows,10
137,1,1976,"""",image-button-response,21,70208,0.0-21.0,"""",directionsForTest.JPG,0,1,directionsForTest,break,"""","""","""","""","""","""","""","""","""","""","""",4/25/2021 9:21,93.40.224.54,Mozilla/5.0 (Windows NT 10.0; Win64; x64; rv:88.0) Gecko/20100101 Firefox/88.0,,Firefox,88,Windows,10
137,1,626,"""",image-button-response,22,70839,0.0-22.0,"""",directionsForTest2.JPG,0,1,directionsForTest2,break,"""","""","""","""","""","""","""","""","""","""","""",4/25/2021 9:21,93.40.224.54,Mozilla/5.0 (Windows NT 10.0; Win64; x64; rv:88.0) Gecko/20100101 Firefox/88.0,,Firefox,88,Windows,10
137,1,null,"""",html-keyboard-response,23,71846,0.0-23.0,"""","<div style=""font-size:60px;"">+</div>","""",1,ITI,Practice,null,1000,"""","""","""","""","""","""","""","""","""",4/25/2021 9:21,93.40.224.54,Mozilla/5.0 (Windows NT 10.0; Win64; x64; rv:88.0) Gecko/20100101 Firefox/88.0,,Firefox,88,Windows,10
137,1,null,"""",image-keyboard-response,24,72111,0.0-24.0,"""",jspsych/scrambledDisgustFaces/scrambledAM03DIS.JPG,"""",1,forwardMask,Practice,null,250,"""",d,"""","""","""","""","""","""","""",4/25/2021 9:21,93.40.224.54,Mozilla/5.0 (Windows NT 10.0; Win64; x64; rv:88.0) Gecko/20100101 Firefox/88.0,,Firefox,88,Windows,10
137,1,null,"""",image-keyboard-response,25,72142,0.0-25.0,"""",jspsych/disgustFaces/AM03DIS.JPG,"""",1,Cue,Practice,null,16,"""","""","""","""","""","""","""","""","""",4/25/2021 9:21,93.40.224.54,Mozilla/5.0 (Windows NT 10.0; Win64; x64; rv:88.0) Gecko/20100101 Firefox/88.0,,Firefox,88,Windows,10
137,1,null,"""",image-keyboard-response,26,72248,0.0-26.0,"""",jspsych/neutralFaces/BM32NES.JPG,"""",1,backwardMask,Practice,null,100,"""","""","""","""","""","""","""","""","""",4/25/2021 9:21,93.40.224.54,Mozilla/5.0 (Windows NT 10.0; Win64; x64; rv:88.0) Gecko/20100101 Firefox/88.0,,Firefox,88,Windows,10
137,1,null,"""",html-keyboard-response,27,73264,0.0-27.0,"""","<div style=""font-size:60px;"">+</div>","""",1,fixationBtwnNeutralMaskAndPrompt,Practice,null,1000,"""","""","""","""","""","""","""","""","""",4/25/2021 9:21,93.40.224.54,Mozilla/5.0 (Windows NT 10.0; Win64; x64; rv:88.0) Gecko/20100101 Firefox/88.0,,Firefox,88,Windows,10
137,1,938,"""",html-button-response,28,74212,0.0-28.0,"""","<img src='jspsych/CFDfaces/CFD-BF-212-315-N.jpg'height=""250px""></br><b>Tara</b>",0,1,IntactOrRearranged,Practice,"""","""","""","""",CFD-BF-212-315-N.jpg,Tara,0,0,"""","""","""",4/25/2021 9:21,93.40.224.54,Mozilla/5.0 (Windows NT 10.0; Win64; x64; rv:88.0) Gecko/20100101 Firefox/88.0,,Firefox,88,Windows,10
137,1,1011,"""",html-slider-response,29,75237,0.0-29.0,"""","<img src='jspsych/CFDfaces/CFD-BF-212-315-N.jpg'height=""250px""></br><b>Tara</b>","""",1,ConfidenceQuery,Practice,"""","""","""","""",CFD-LM-209-111-N.jpg,Austin,0,"""",0,90,"""",4/25/2021 9:21,93.40.224.54,Mozilla/5.0 (Windows NT 10.0; Win64; x64; rv:88.0) Gecko/20100101 Firefox/88.0,,Firefox,88,Windows,10
137,1,582,"""",html-button-response,30,75821,0.0-30.0,"""",You are Correct. You called an Intact Pair Intact,0,1,feedback,Practice,"""","""","""","""","""","""","""","""","""","""","""",4/25/2021 9:21,93.40.224.54,Mozilla/5.0 (Windows NT 10.0; Win64; x64; rv:88.0) Gecko/20100101 Firefox/88.0,,Firefox,88,Windows,10
137,1,null,"""",html-keyboard-response,31,76833,0.0-31.0,"""","<div style=""font-size:60px;"">+</div>","""",2,ITI,Practice,null,1000,"""","""","""","""","""","""","""","""","""",4/25/2021 9:21,93.40.224.54,Mozilla/5.0 (Windows NT 10.0; Win64; x64; rv:88.0) Gecko/20100101 Firefox/88.0,,Firefox,88,Windows,10
137,1,null,"""",image-keyboard-response,32,77097,0.0-32.0,"""",jspsych/scrambledNeutralFaces/scrambledAM23NES.JPG,"""",2,forwardMask,Practice,null,250,"""",n,"""","""","""","""","""","""","""",4/25/2021 9:21,93.40.224.54,Mozilla/5.0 (Windows NT 10.0; Win64; x64; rv:88.0) Gecko/20100101 Firefox/88.0,,Firefox,88,Windows,10
137,1,null,"""",image-keyboard-response,33,77128,0.0-33.0,"""",jspsych/neutralFaces/AM23NES.JPG,"""",2,Cue,Practice,null,16,"""","""","""","""","""","""","""","""","""",4/25/2021 9:21,93.40.224.54,Mozilla/5.0 (Windows NT 10.0; Win64; x64; rv:88.0) Gecko/20100101 Firefox/88.0,,Firefox,88,Windows,10
137,1,null,"""",image-keyboard-response,34,77239,0.0-34.0,"""",jspsych/neutralFaces/AM34NES.JPG,"""",2,backwardMask,Practice,null,100,"""","""","""","""","""","""","""","""","""",4/25/2021 9:21,93.40.224.54,Mozilla/5.0 (Windows NT 10.0; Win64; x64; rv:88.0) Gecko/20100101 Firefox/88.0,,Firefox,88,Windows,10
137,1,null,"""",html-keyboard-response,35,78251,0.0-35.0,"""","<div style=""font-size:60px;"">+</div>","""",2,fixationBtwnNeutralMaskAndPrompt,Practice,null,1000,"""","""","""","""","""","""","""","""","""",4/25/2021 9:21,93.40.224.54,Mozilla/5.0 (Windows NT 10.0; Win64; x64; rv:88.0) Gecko/20100101 Firefox/88.0,,Firefox,88,Windows,10
137,1,1192,"""",html-button-response,36,79444,0.0-36.0,"""","<img src='jspsych/CFDfaces/CFD-BF-005-001-N.jpg'height=""250px""></br><b>Shannon</b>",0,2,IntactOrRearranged,Practice,"""","""","""","""",CFD-BF-005-001-N.jpg,Shannon,0,0,"""","""","""",4/25/2021 9:21,93.40.224.54,Mozilla/5.0 (Windows NT 10.0; Win64; x64; rv:88.0) Gecko/20100101 Firefox/88.0,,Firefox,88,Windows,10
137,1,1494,"""",html-slider-response,37,80940,0.0-37.0,"""","<img src='jspsych/CFDfaces/CFD-BF-005-001-N.jpg'height=""250px""></br><b>Shannon</b>","""",2,ConfidenceQuery,Practice,"""","""","""","""",CFD-LM-209-111-N.jpg,Austin,0,"""",0,52,"""",4/25/2021 9:21,93.40.224.54,Mozilla/5.0 (Windows NT 10.0; Win64; x64; rv:88.0) Gecko/20100101 Firefox/88.0,,Firefox,88,Windows,10
137,1,754,"""",html-button-response,38,81694,0.0-38.0,"""",You are Correct. You called an Intact Pair Intact,0,2,feedback,Practice,"""","""","""","""","""","""","""","""","""","""","""",4/25/2021 9:21,93.40.224.54,Mozilla/5.0 (Windows NT 10.0; Win64; x64; rv:88.0) Gecko/20100101 Firefox/88.0,,Firefox,88,Windows,10
137,1,null,"""",html-keyboard-response,39,82698,0.0-39.0,"""","<div style=""font-size:60px;"">+</div>","""",3,ITI,Practice,null,1000,"""","""","""","""","""","""","""","""","""",4/25/2021 9:21,93.40.224.54,Mozilla/5.0 (Windows NT 10.0; Win64; x64; rv:88.0) Gecko/20100101 Firefox/88.0,,Firefox,88,Windows,10
137,1,null,"""",image-keyboard-response,40,82952,0.0-40.0,"""",jspsych/scrambledNeutralFaces/scrambledAM10NES.JPG,"""",3,forwardMask,Practice,null,250,"""",n,"""","""","""","""","""","""","""",4/25/2021 9:21,93.40.224.54,Mozilla/5.0 (Windows NT 10.0; Win64; x64; rv:88.0) Gecko/20100101 Firefox/88.0,,Firefox,88,Windows,10
137,1,null,"""",image-keyboard-response,41,82984,0.0-41.0,"""",jspsych/neutralFaces/AM10NES.JPG,"""",3,Cue,Practice,null,16,"""","""","""","""","""","""","""","""","""",4/25/2021 9:21,93.40.224.54,Mozilla/5.0 (Windows NT 10.0; Win64; x64; rv:88.0) Gecko/20100101 Firefox/88.0,,Firefox,88,Windows,10
137,1,null,"""",image-keyboard-response,42,83093,0.0-42.0,"""",jspsych/neutralFaces/AM15NES.JPG,"""",3,backwardMask,Practice,null,100,"""","""","""","""","""","""","""","""","""",4/25/2021 9:21,93.40.224.54,Mozilla/5.0 (Windows NT 10.0; Win64; x64; rv:88.0) Gecko/20100101 Firefox/88.0,,Firefox,88,Windows,10
137,1,null,"""",html-keyboard-response,43,84103,0.0-43.0,"""","<div style=""font-size:60px;"">+</div>","""",3,fixationBtwnNeutralMaskAndPrompt,Practice,null,1000,"""","""","""","""","""","""","""","""","""",4/25/2021 9:21,93.40.224.54,Mozilla/5.0 (Windows NT 10.0; Win64; x64; rv:88.0) Gecko/20100101 Firefox/88.0,,Firefox,88,Windows,10
137,1,2966,"""",html-button-response,44,87070,0.0-44.0,"""","<img src='jspsych/CFDfaces/CFD-AM-230-150-N.jpg'height=""250px""></br><b>Carlos</b>",1,3,IntactOrRearranged,Practice,"""","""","""","""",CFD-AM-230-150-N.jpg,Carlos,1,1,"""","""","""",4/25/2021 9:21,93.40.224.54,Mozilla/5.0 (Windows NT 10.0; Win64; x64; rv:88.0) Gecko/20100101 Firefox/88.0,,Firefox,88,Windows,10
137,1,1641,"""",html-slider-response,45,88714,0.0-45.0,"""","<img src='jspsych/CFDfaces/CFD-AM-230-150-N.jpg'height=""250px""></br><b>Carlos</b>","""",3,ConfidenceQuery,Practice,"""","""","""","""",CFD-LM-209-111-N.jpg,Austin,1,"""",0,33,"""",4/25/2021 9:21,93.40.224.54,Mozilla/5.0 (Windows NT 10.0; Win64; x64; rv:88.0) Gecko/20100101 Firefox/88.0,,Firefox,88,Windows,10
137,1,719,"""",html-button-response,46,89434,0.0-46.0,"""",You are Correct. You Called A Rearranged Pair Rearranged,0,3,feedback,Practice,"""","""","""","""","""","""","""","""","""","""","""",4/25/2021 9:21,93.40.224.54,Mozilla/5.0 (Windows NT 10.0; Win64; x64; rv:88.0) Gecko/20100101 Firefox/88.0,,Firefox,88,Windows,10
137,1,null,"""",html-keyboard-response,47,90437,0.0-47.0,"""","<div style=""font-size:60px;"">+</div>","""",4,ITI,Practice,null,1000,"""","""","""","""","""","""","""","""","""",4/25/2021 9:21,93.40.224.54,Mozilla/5.0 (Windows NT 10.0; Win64; x64; rv:88.0) Gecko/20100101 Firefox/88.0,,Firefox,88,Windows,10
137,1,null,"""",image-keyboard-response,48,90702,0.0-48.0,"""",jspsych/scrambledNeutralFaces/scrambledBF19NES.JPG,"""",4,forwardMask,Practice,null,250,"""",n,"""","""","""","""","""","""","""",4/25/2021 9:21,93.40.224.54,Mozilla/5.0 (Windows NT 10.0; Win64; x64; rv:88.0) Gecko/20100101 Firefox/88.0,,Firefox,88,Windows,10
137,1,null,"""",image-keyboard-response,49,90732,0.0-49.0,"""",jspsych/neutralFaces/BF19NES.JPG,"""",4,Cue,Practice,null,16,"""","""","""","""","""","""","""","""","""",4/25/2021 9:21,93.40.224.54,Mozilla/5.0 (Windows NT 10.0; Win64; x64; rv:88.0) Gecko/20100101 Firefox/88.0,,Firefox,88,Windows,10
137,1,null,"""",image-keyboard-response,50,90842,0.0-50.0,"""",jspsych/neutralFaces/AF16NES.JPG,"""",4,backwardMask,Practice,null,100,"""","""","""","""","""","""","""","""","""",4/25/2021 9:21,93.40.224.54,Mozilla/5.0 (Windows NT 10.0; Win64; x64; rv:88.0) Gecko/20100101 Firefox/88.0,,Firefox,88,Windows,10
137,1,null,"""",html-keyboard-response,51,91853,0.0-51.0,"""","<div style=""font-size:60px;"">+</div>","""",4,fixationBtwnNeutralMaskAndPrompt,Practice,null,1000,"""","""","""","""","""","""","""","""","""",4/25/2021 9:21,93.40.224.54,Mozilla/5.0 (Windows NT 10.0; Win64; x64; rv:88.0) Gecko/20100101 Firefox/88.0,,Firefox,88,Windows,10
137,1,1596,"""",html-button-response,52,93450,0.0-52.0,"""","<img src='jspsych/CFDfaces/CFD-AF-208-003-N.jpg'height=""250px""></br><b>Katelyn</b>",0,4,IntactOrRearranged,Practice,"""","""","""","""",CFD-AF-208-003-N.jpg,Katelyn,1,0,"""","""","""",4/25/2021 9:21,93.40.224.54,Mozilla/5.0 (Windows NT 10.0; Win64; x64; rv:88.0) Gecko/20100101 Firefox/88.0,,Firefox,88,Windows,10
137,1,1066,"""",html-slider-response,53,94519,0.0-53.0,"""","<img src='jspsych/CFDfaces/CFD-AF-208-003-N.jpg'height=""250px""></br><b>Katelyn</b>","""",4,ConfidenceQuery,Practice,"""","""","""","""",CFD-LM-209-111-N.jpg,Austin,1,"""",0,49,"""",4/25/2021 9:21,93.40.224.54,Mozilla/5.0 (Windows NT 10.0; Win64; x64; rv:88.0) Gecko/20100101 Firefox/88.0,,Firefox,88,Windows,10
137,1,764,"""",html-button-response,54,95283,0.0-54.0,"""",You are Incorrect. You called a Rearranged Pair Intact,0,4,feedback,Practice,"""","""","""","""","""","""","""","""","""","""","""",4/25/2021 9:21,93.40.224.54,Mozilla/5.0 (Windows NT 10.0; Win64; x64; rv:88.0) Gecko/20100101 Firefox/88.0,,Firefox,88,Windows,10
137,1,null,"""",html-keyboard-response,55,96296,0.0-55.0,"""","<div style=""font-size:60px;"">+</div>","""",5,ITI,Practice,null,1000,"""","""","""","""","""","""","""","""","""",4/25/2021 9:21,93.40.224.54,Mozilla/5.0 (Windows NT 10.0; Win64; x64; rv:88.0) Gecko/20100101 Firefox/88.0,,Firefox,88,Windows,10
137,1,null,"""",image-keyboard-response,56,96560,0.0-56.0,"""",jspsych/scrambledDisgustFaces/scrambledAF09DIS.JPG,"""",5,forwardMask,Practice,null,250,"""",d,"""","""","""","""","""","""","""",4/25/2021 9:21,93.40.224.54,Mozilla/5.0 (Windows NT 10.0; Win64; x64; rv:88.0) Gecko/20100101 Firefox/88.0,,Firefox,88,Windows,10
137,1,null,"""",image-keyboard-response,57,96591,0.0-57.0,"""",jspsych/disgustFaces/AF09DIS.JPG,"""",5,Cue,Practice,null,16,"""","""","""","""","""","""","""","""","""",4/25/2021 9:21,93.40.224.54,Mozilla/5.0 (Windows NT 10.0; Win64; x64; rv:88.0) Gecko/20100101 Firefox/88.0,,Firefox,88,Windows,10
137,1,null,"""",image-keyboard-response,58,96701,0.0-58.0,"""",jspsych/neutralFaces/BF31NES.JPG,"""",5,backwardMask,Practice,null,100,"""","""","""","""","""","""","""","""","""",4/25/2021 9:21,93.40.224.54,Mozilla/5.0 (Windows NT 10.0; Win64; x64; rv:88.0) Gecko/20100101 Firefox/88.0,,Firefox,88,Windows,10
137,1,null,"""",html-keyboard-response,59,97704,0.0-59.0,"""","<div style=""font-size:60px;"">+</div>","""",5,fixationBtwnNeutralMaskAndPrompt,Practice,null,1000,"""","""","""","""","""","""","""","""","""",4/25/2021 9:21,93.40.224.54,Mozilla/5.0 (Windows NT 10.0; Win64; x64; rv:88.0) Gecko/20100101 Firefox/88.0,,Firefox,88,Windows,10
137,1,1280,"""",html-button-response,60,98985,0.0-60.0,"""","<img src='jspsych/CFDfaces/CFD-WM-022-001-N.jpg'height=""250px""></br><b>Samuel</b>",0,5,IntactOrRearranged,Practice,"""","""","""","""",CFD-WM-022-001-N.jpg,Samuel,0,0,"""","""","""",4/25/2021 9:21,93.40.224.54,Mozilla/5.0 (Windows NT 10.0; Win64; x64; rv:88.0) Gecko/20100101 Firefox/88.0,,Firefox,88,Windows,10
137,1,1056,"""",html-slider-response,61,100043,0.0-61.0,"""","<img src='jspsych/CFDfaces/CFD-WM-022-001-N.jpg'height=""250px""></br><b>Samuel</b>","""",5,ConfidenceQuery,Practice,"""","""","""","""",CFD-LM-209-111-N.jpg,Austin,0,"""",0,30,"""",4/25/2021 9:21,93.40.224.54,Mozilla/5.0 (Windows NT 10.0; Win64; x64; rv:88.0) Gecko/20100101 Firefox/88.0,,Firefox,88,Windows,10
137,1,1079,"""",html-button-response,62,101123,0.0-62.0,"""",You are Correct. You called an Intact Pair Intact,0,5,feedback,Practice,"""","""","""","""","""","""","""","""","""","""","""",4/25/2021 9:21,93.40.224.54,Mozilla/5.0 (Windows NT 10.0; Win64; x64; rv:88.0) Gecko/20100101 Firefox/88.0,,Firefox,88,Windows,10
137,1,null,"""",html-keyboard-response,63,102135,0.0-63.0,"""","<div style=""font-size:60px;"">+</div>","""",6,ITI,Practice,null,1000,"""","""","""","""","""","""","""","""","""",4/25/2021 9:21,93.40.224.54,Mozilla/5.0 (Windows NT 10.0; Win64; x64; rv:88.0) Gecko/20100101 Firefox/88.0,,Firefox,88,Windows,10
137,1,null,"""",image-keyboard-response,64,102400,0.0-64.0,"""",jspsych/scrambledNeutralFaces/scrambledBF10NES.JPG,"""",6,forwardMask,Practice,null,250,"""",n,"""","""","""","""","""","""","""",4/25/2021 9:21,93.40.224.54,Mozilla/5.0 (Windows NT 10.0; Win64; x64; rv:88.0) Gecko/20100101 Firefox/88.0,,Firefox,88,Windows,10
137,1,null,"""",image-keyboard-response,65,102431,0.0-65.0,"""",jspsych/neutralFaces/BF10NES.JPG,"""",6,Cue,Practice,null,16,"""","""","""","""","""","""","""","""","""",4/25/2021 9:21,93.40.224.54,Mozilla/5.0 (Windows NT 10.0; Win64; x64; rv:88.0) Gecko/20100101 Firefox/88.0,,Firefox,88,Windows,10
137,1,null,"""",image-keyboard-response,66,102541,0.0-66.0,"""",jspsych/neutralFaces/BF09NES.JPG,"""",6,backwardMask,Practice,null,100,"""","""","""","""","""","""","""","""","""",4/25/2021 9:21,93.40.224.54,Mozilla/5.0 (Windows NT 10.0; Win64; x64; rv:88.0) Gecko/20100101 Firefox/88.0,,Firefox,88,Windows,10
137,1,null,"""",html-keyboard-response,67,103556,0.0-67.0,"""","<div style=""font-size:60px;"">+</div>","""",6,fixationBtwnNeutralMaskAndPrompt,Practice,null,1000,"""","""","""","""","""","""","""","""","""",4/25/2021 9:21,93.40.224.54,Mozilla/5.0 (Windows NT 10.0; Win64; x64; rv:88.0) Gecko/20100101 Firefox/88.0,,Firefox,88,Windows,10
137,1,940,"""",html-button-response,68,104498,0.0-68.0,"""","<img src='jspsych/CFDfaces/CFD-WM-216-061-N.jpg'height=""250px""></br><b>Patrick</b>",0,6,IntactOrRearranged,Practice,"""","""","""","""",CFD-WM-216-061-N.jpg,Patrick,0,0,"""","""","""",4/25/2021 9:21,93.40.224.54,Mozilla/5.0 (Windows NT 10.0; Win64; x64; rv:88.0) Gecko/20100101 Firefox/88.0,,Firefox,88,Windows,10
137,1,1536,"""",html-slider-response,69,106039,0.0-69.0,"""","<img src='jspsych/CFDfaces/CFD-WM-216-061-N.jpg'height=""250px""></br><b>Patrick</b>","""",6,ConfidenceQuery,Practice,"""","""","""","""",CFD-LM-209-111-N.jpg,Austin,0,"""",0,77,"""",4/25/2021 9:21,93.40.224.54,Mozilla/5.0 (Windows NT 10.0; Win64; x64; rv:88.0) Gecko/20100101 Firefox/88.0,,Firefox,88,Windows,10
137,1,752,"""",html-button-response,70,106794,0.0-70.0,"""",You are Correct. You called an Intact Pair Intact,0,6,feedback,Practice,"""","""","""","""","""","""","""","""","""","""","""",4/25/2021 9:21,93.40.224.54,Mozilla/5.0 (Windows NT 10.0; Win64; x64; rv:88.0) Gecko/20100101 Firefox/88.0,,Firefox,88,Windows,10
137,1,null,"""",html-keyboard-response,71,107811,0.0-71.0,"""","<div style=""font-size:60px;"">+</div>","""",7,ITI,Practice,null,1000,"""","""","""","""","""","""","""","""","""",4/25/2021 9:21,93.40.224.54,Mozilla/5.0 (Windows NT 10.0; Win64; x64; rv:88.0) Gecko/20100101 Firefox/88.0,,Firefox,88,Windows,10
137,1,null,"""",image-keyboard-response,72,108076,0.0-72.0,"""",jspsych/scrambledNeutralFaces/scrambledBF26NES.JPG,"""",7,forwardMask,Practice,null,250,"""",n,"""","""","""","""","""","""","""",4/25/2021 9:21,93.40.224.54,Mozilla/5.0 (Windows NT 10.0; Win64; x64; rv:88.0) Gecko/20100101 Firefox/88.0,,Firefox,88,Windows,10
137,1,null,"""",image-keyboard-response,73,108106,0.0-73.0,"""",jspsych/neutralFaces/BF26NES.JPG,"""",7,Cue,Practice,null,16,"""","""","""","""","""","""","""","""","""",4/25/2021 9:21,93.40.224.54,Mozilla/5.0 (Windows NT 10.0; Win64; x64; rv:88.0) Gecko/20100101 Firefox/88.0,,Firefox,88,Windows,10
137,1,null,"""",image-keyboard-response,74,108216,0.0-74.0,"""",jspsych/neutralFaces/AF09NES.JPG,"""",7,backwardMask,Practice,null,100,"""","""","""","""","""","""","""","""","""",4/25/2021 9:21,93.40.224.54,Mozilla/5.0 (Windows NT 10.0; Win64; x64; rv:88.0) Gecko/20100101 Firefox/88.0,,Firefox,88,Windows,10
137,1,null,"""",html-keyboard-response,75,109229,0.0-75.0,"""","<div style=""font-size:60px;"">+</div>","""",7,fixationBtwnNeutralMaskAndPrompt,Practice,null,1000,"""","""","""","""","""","""","""","""","""",4/25/2021 9:21,93.40.224.54,Mozilla/5.0 (Windows NT 10.0; Win64; x64; rv:88.0) Gecko/20100101 Firefox/88.0,,Firefox,88,Windows,10
137,1,1657,"""",html-button-response,76,110887,0.0-76.0,"""","<img src='jspsych/CFDfaces/CFD-AM-207-108-N.jpg'height=""250px""></br><b>Marcus</b>",1,7,IntactOrRearranged,Practice,"""","""","""","""",CFD-AM-207-108-N.jpg,Marcus,1,1,"""","""","""",4/25/2021 9:21,93.40.224.54,Mozilla/5.0 (Windows NT 10.0; Win64; x64; rv:88.0) Gecko/20100101 Firefox/88.0,,Firefox,88,Windows,10
137,1,1018,"""",html-slider-response,77,111911,0.0-77.0,"""","<img src='jspsych/CFDfaces/CFD-AM-207-108-N.jpg'height=""250px""></br><b>Marcus</b>","""",7,ConfidenceQuery,Practice,"""","""","""","""",CFD-LM-209-111-N.jpg,Austin,1,"""",0,87,"""",4/25/2021 9:21,93.40.224.54,Mozilla/5.0 (Windows NT 10.0; Win64; x64; rv:88.0) Gecko/20100101 Firefox/88.0,,Firefox,88,Windows,10
137,1,1159,"""",html-button-response,78,113071,0.0-78.0,"""",You are Correct. You Called A Rearranged Pair Rearranged,0,7,feedback,Practice,"""","""","""","""","""","""","""","""","""","""","""",4/25/2021 9:21,93.40.224.54,Mozilla/5.0 (Windows NT 10.0; Win64; x64; rv:88.0) Gecko/20100101 Firefox/88.0,,Firefox,88,Windows,10
137,1,null,"""",html-keyboard-response,79,114078,0.0-79.0,"""","<div style=""font-size:60px;"">+</div>","""",8,ITI,Practice,null,1000,"""","""","""","""","""","""","""","""","""",4/25/2021 9:21,93.40.224.54,Mozilla/5.0 (Windows NT 10.0; Win64; x64; rv:88.0) Gecko/20100101 Firefox/88.0,,Firefox,88,Windows,10
137,1,null,"""",image-keyboard-response,80,114343,0.0-80.0,"""",jspsych/scrambledNeutralFaces/scrambledBF16NES.JPG,"""",8,forwardMask,Practice,null,250,"""",n,"""","""","""","""","""","""","""",4/25/2021 9:21,93.40.224.54,Mozilla/5.0 (Windows NT 10.0; Win64; x64; rv:88.0) Gecko/20100101 Firefox/88.0,,Firefox,88,Windows,10
137,1,null,"""",image-keyboard-response,81,114373,0.0-81.0,"""",jspsych/neutralFaces/BF16NES.JPG,"""",8,Cue,Practice,null,16,"""","""","""","""","""","""","""","""","""",4/25/2021 9:21,93.40.224.54,Mozilla/5.0 (Windows NT 10.0; Win64; x64; rv:88.0) Gecko/20100101 Firefox/88.0,,Firefox,88,Windows,10
137,1,null,"""",image-keyboard-response,82,114483,0.0-82.0,"""",jspsych/neutralFaces/BF01NES.JPG,"""",8,backwardMask,Practice,null,100,"""","""","""","""","""","""","""","""","""",4/25/2021 9:21,93.40.224.54,Mozilla/5.0 (Windows NT 10.0; Win64; x64; rv:88.0) Gecko/20100101 Firefox/88.0,,Firefox,88,Windows,10
137,1,null,"""",html-keyboard-response,83,115498,0.0-83.0,"""","<div style=""font-size:60px;"">+</div>","""",8,fixationBtwnNeutralMaskAndPrompt,Practice,null,1000,"""","""","""","""","""","""","""","""","""",4/25/2021 9:21,93.40.224.54,Mozilla/5.0 (Windows NT 10.0; Win64; x64; rv:88.0) Gecko/20100101 Firefox/88.0,,Firefox,88,Windows,10
137,1,2037,"""",html-button-response,84,117536,0.0-84.0,"""","<img src='jspsych/CFDfaces/CFD-LF-218-072-N.jpg'height=""250px""></br><b>Cassandra</b>",1,8,IntactOrRearranged,Practice,"""","""","""","""",CFD-LF-218-072-N.jpg,Cassandra,1,1,"""","""","""",4/25/2021 9:21,93.40.224.54,Mozilla/5.0 (Windows NT 10.0; Win64; x64; rv:88.0) Gecko/20100101 Firefox/88.0,,Firefox,88,Windows,10
137,1,1763,"""",html-slider-response,85,119303,0.0-85.0,"""","<img src='jspsych/CFDfaces/CFD-LF-218-072-N.jpg'height=""250px""></br><b>Cassandra</b>","""",8,ConfidenceQuery,Practice,"""","""","""","""",CFD-LM-209-111-N.jpg,Austin,1,"""",0,28,"""",4/25/2021 9:21,93.40.224.54,Mozilla/5.0 (Windows NT 10.0; Win64; x64; rv:88.0) Gecko/20100101 Firefox/88.0,,Firefox,88,Windows,10
137,1,797,"""",html-button-response,86,120102,0.0-86.0,"""",You are Correct. You Called A Rearranged Pair Rearranged,0,8,feedback,Practice,"""","""","""","""","""","""","""","""","""","""","""",4/25/2021 9:21,93.40.224.54,Mozilla/5.0 (Windows NT 10.0; Win64; x64; rv:88.0) Gecko/20100101 Firefox/88.0,,Firefox,88,Windows,10
137,1,985,"""",image-button-response,87,121091,0.0-87.0,"""",directionsMemoryAssociation3.JPG,0,128,DirectionsBeforeActualTEst,Break,"""","""","""","""","""","""","""","""","""","""","""",4/25/2021 9:21,93.40.224.54,Mozilla/5.0 (Windows NT 10.0; Win64; x64; rv:88.0) Gecko/20100101 Firefox/88.0,,Firefox,88,Windows,10
137,1,719,"""",image-button-response,88,121812,0.0-88.0,"""",directionsForTest2.JPG,0,1,directionsForTest2,break,"""","""","""","""","""","""","""","""","""","""","""",4/25/2021 9:21,93.40.224.54,Mozilla/5.0 (Windows NT 10.0; Win64; x64; rv:88.0) Gecko/20100101 Firefox/88.0,,Firefox,88,Windows,10
137,1,1247,"""",html-button-response,89,123060,0.0-89.0,"""","<p>You will be asked to memorize and then recall four sets of face-name pairs. </p> <p> Each set will have 32 pairs. </p> <p>After the fourth set, there will be a brief follow-up experiment (<40 min alltogether)</p>",0,"""","""","""","""","""","""","""","""","""","""","""","""","""","""",4/25/2021 9:21,93.40.224.54,Mozilla/5.0 (Windows NT 10.0; Win64; x64; rv:88.0) Gecko/20100101 Firefox/88.0,,Firefox,88,Windows,10
137,1,1488,"""",html-keyboard-response,90,128063,0.0-90.0,"""","<img src='jspsych/CFDfaces/CFD-BF-019-001-N.jpg' height=""250px""></br><b>Michelle</b>","""",256,IntactFace,Memorization,78,5000,n,"""",CFD-AF-222-134-N.jpg,Jasmine,0,"""","""","""",1,4/25/2021 9:21,93.40.224.54,Mozilla/5.0 (Windows NT 10.0; Win64; x64; rv:88.0) Gecko/20100101 Firefox/88.0,,Firefox,88,Windows,10
137,1,null,"""",html-keyboard-response,91,128577,0.0-91.0,"""","<div style=""font-size:60px;"">+</div>","""",256,fixation,Memorization,null,500,"""","""","""","""","""","""","""","""",1,4/25/2021 9:21,93.40.224.54,Mozilla/5.0 (Windows NT 10.0; Win64; x64; rv:88.0) Gecko/20100101 Firefox/88.0,,Firefox,88,Windows,10
137,1,1379,"""",html-keyboard-response,92,133591,0.0-92.0,"""","<img src='jspsych/CFDfaces/CFD-BM-026-002-N.jpg' height=""250px""></br><b>Peter</b>","""",256,IntactFace,Memorization,70,5000,f,"""",CFD-BM-039-029-N.jpg,Mark,0,"""","""","""",1,4/25/2021 9:21,93.40.224.54,Mozilla/5.0 (Windows NT 10.0; Win64; x64; rv:88.0) Gecko/20100101 Firefox/88.0,,Firefox,88,Windows,10
137,1,null,"""",html-keyboard-response,93,134107,0.0-93.0,"""","<div style=""font-size:60px;"">+</div>","""",256,fixation,Memorization,null,500,"""","""","""","""","""","""","""","""",1,4/25/2021 9:21,93.40.224.54,Mozilla/5.0 (Windows NT 10.0; Win64; x64; rv:88.0) Gecko/20100101 Firefox/88.0,,Firefox,88,Windows,10
137,1,1517,"""",html-keyboard-response,94,139130,0.0-94.0,"""","<img src='jspsych/CFDfaces/CFD-AF-242-158-N.jpg' height=""250px""></br><b>Ashley</b>","""",256,IntactFace,Memorization,70,5000,f,"""",CFD-LF-243-175-N.jpg,Taylor,0,"""","""","""",1,4/25/2021 9:21,93.40.224.54,Mozilla/5.0 (Windows NT 10.0; Win64; x64; rv:88.0) Gecko/20100101 Firefox/88.0,,Firefox,88,Windows,10
137,1,null,"""",html-keyboard-response,95,139643,0.0-95.0,"""","<div style=""font-size:60px;"">+</div>","""",256,fixation,Memorization,null,500,"""","""","""","""","""","""","""","""",1,4/25/2021 9:21,93.40.224.54,Mozilla/5.0 (Windows NT 10.0; Win64; x64; rv:88.0) Gecko/20100101 Firefox/88.0,,Firefox,88,Windows,10
137,1,1502,"""",html-keyboard-response,96,144659,0.0-96.0,"""","<img src='jspsych/CFDfaces/CFD-BF-025-002-N.jpg' height=""250px""></br><b>Julie</b>","""",256,IntactFace,Memorization,78,5000,n,"""",CFD-WM-212-097-N.jpg,Sean,0,"""","""","""",1,4/25/2021 9:21,93.40.224.54,Mozilla/5.0 (Windows NT 10.0; Win64; x64; rv:88.0) Gecko/20100101 Firefox/88.0,,Firefox,88,Windows,10
137,1,null,"""",html-keyboard-response,97,145174,0.0-97.0,"""","<div style=""font-size:60px;"">+</div>","""",256,fixation,Memorization,null,500,"""","""","""","""","""","""","""","""",1,4/25/2021 9:21,93.40.224.54,Mozilla/5.0 (Windows NT 10.0; Win64; x64; rv:88.0) Gecko/20100101 Firefox/88.0,,Firefox,88,Windows,10
137,1,1015,"""",html-keyboard-response,98,150190,0.0-98.0,"""","<img src='jspsych/CFDfaces/CFD-BF-226-119-N.jpg' height=""250px""></br><b>Stephanie</b>","""",256,IntactFace,Memorization,70,5000,f,"""",CFD-BF-221-223-N.jpg,Erin,0,"""","""","""",1,4/25/2021 9:21,93.40.224.54,Mozilla/5.0 (Windows NT 10.0; Win64; x64; rv:88.0) Gecko/20100101 Firefox/88.0,,Firefox,88,Windows,10
137,1,null,"""",html-keyboard-response,99,150706,0.0-99.0,"""","<div style=""font-size:60px;"">+</div>","""",256,fixation,Memorization,null,500,"""","""","""","""","""","""","""","""",1,4/25/2021 9:21,93.40.224.54,Mozilla/5.0 (Windows NT 10.0; Win64; x64; rv:88.0) Gecko/20100101 Firefox/88.0,,Firefox,88,Windows,10
137,1,1561,"""",html-keyboard-response,100,155715,0.0-100.0,"""","<img src='jspsych/CFDfaces/CFD-WF-019-005-N.jpg' height=""250px""></br><b>Samantha</b>","""",256,IntactFace,Memorization,78,5000,n,"""",CFD-WM-032-001-N.jpg,Kenneth,0,"""","""","""",1,4/25/2021 9:21,93.40.224.54,Mozilla/5.0 (Windows NT 10.0; Win64; x64; rv:88.0) Gecko/20100101 Firefox/88.0,,Firefox,88,Windows,10
137,1,null,"""",html-keyboard-response,101,156230,0.0-101.0,"""","<div style=""font-size:60px;"">+</div>","""",256,fixation,Memorization,null,500,"""","""","""","""","""","""","""","""",1,4/25/2021 9:21,93.40.224.54,Mozilla/5.0 (Windows NT 10.0; Win64; x64; rv:88.0) Gecko/20100101 Firefox/88.0,,Firefox,88,Windows,10
137,1,1971,"""",html-keyboard-response,102,161243,0.0-102.0,"""","<img src='jspsych/CFDfaces/CFD-BF-047-003-N.jpg' height=""250px""></br><b>Elizabeth</b>","""",256,IntactFace,Memorization,70,5000,f,"""",CFD-AM-213-056-N.jpg,Jacob,0,"""","""","""",1,4/25/2021 9:21,93.40.224.54,Mozilla/5.0 (Windows NT 10.0; Win64; x64; rv:88.0) Gecko/20100101 Firefox/88.0,,Firefox,88,Windows,10
137,1,null,"""",html-keyboard-response,103,161754,0.0-103.0,"""","<div style=""font-size:60px;"">+</div>","""",256,fixation,Memorization,null,500,"""","""","""","""","""","""","""","""",1,4/25/2021 9:21,93.40.224.54,Mozilla/5.0 (Windows NT 10.0; Win64; x64; rv:88.0) Gecko/20100101 Firefox/88.0,,Firefox,88,Windows,10
137,1,1800,"""",html-keyboard-response,104,166771,0.0-104.0,"""","<img src='jspsych/CFDfaces/CFD-AM-238-269-N.jpg' height=""250px""></br><b>Brian</b>","""",256,IntactFace,Memorization,70,5000,f,"""",CFD-WF-202-056-N.jpg,Angela,0,"""","""","""",1,4/25/2021 9:21,93.40.224.54,Mozilla/5.0 (Windows NT 10.0; Win64; x64; rv:88.0) Gecko/20100101 Firefox/88.0,,Firefox,88,Windows,10
137,1,null,"""",html-keyboard-response,105,167284,0.0-105.0,"""","<div style=""font-size:60px;"">+</div>","""",256,fixation,Memorization,null,500,"""","""","""","""","""","""","""","""",1,4/25/2021 9:21,93.40.224.54,Mozilla/5.0 (Windows NT 10.0; Win64; x64; rv:88.0) Gecko/20100101 Firefox/88.0,,Firefox,88,Windows,10
137,1,2271,"""",html-keyboard-response,106,172290,0.0-106.0,"""","<img src='jspsych/CFDfaces/CFD-WM-207-048-N.jpg' height=""250px""></br><b>Richard</b>","""",256,IntactFace,Memorization,70,5000,f,"""",CFD-AM-234-355-N.jpg,Dustin,0,"""","""","""",1,4/25/2021 9:21,93.40.224.54,Mozilla/5.0 (Windows NT 10.0; Win64; x64; rv:88.0) Gecko/20100101 Firefox/88.0,,Firefox,88,Windows,10
137,1,null,"""",html-keyboard-response,107,172791,0.0-107.0,"""","<div style=""font-size:60px;"">+</div>","""",256,fixation,Memorization,null,500,"""","""","""","""","""","""","""","""",1,4/25/2021 9:21,93.40.224.54,Mozilla/5.0 (Windows NT 10.0; Win64; x64; rv:88.0) Gecko/20100101 Firefox/88.0,,Firefox,88,Windows,10
137,1,2782,"""",html-keyboard-response,108,177796,0.0-108.0,"""","<img src='jspsych/CFDfaces/CFD-AM-229-224-N.jpg' height=""250px""></br><b>Jason</b>","""",256,IntactFace,Memorization,78,5000,n,"""",CFD-LF-205-100-N.jpg,Rebecca,0,"""","""","""",1,4/25/2021 9:21,93.40.224.54,Mozilla/5.0 (Windows NT 10.0; Win64; x64; rv:88.0) Gecko/20100101 Firefox/88.0,,Firefox,88,Windows,10
137,1,null,"""",html-keyboard-response,109,178308,0.0-109.0,"""","<div style=""font-size:60px;"">+</div>","""",256,fixation,Memorization,null,500,"""","""","""","""","""","""","""","""",1,4/25/2021 9:21,93.40.224.54,Mozilla/5.0 (Windows NT 10.0; Win64; x64; rv:88.0) Gecko/20100101 Firefox/88.0,,Firefox,88,Windows,10
137,1,1435,"""",html-keyboard-response,110,183312,0.0-110.0,"""","<img src='jspsych/CFDfaces/CFD-WM-019-003-N.jpg' height=""250px""></br><b>Jeffrey</b>","""",256,IntactFace,Memorization,78,5000,n,"""",CFD-LM-234-176-N.jpg,Steven,0,"""","""","""",1,4/25/2021 9:21,93.40.224.54,Mozilla/5.0 (Windows NT 10.0; Win64; x64; rv:88.0) Gecko/20100101 Firefox/88.0,,Firefox,88,Windows,10
137,1,null,"""",html-keyboard-response,111,183827,0.0-111.0,"""","<div style=""font-size:60px;"">+</div>","""",256,fixation,Memorization,null,500,"""","""","""","""","""","""","""","""",1,4/25/2021 9:21,93.40.224.54,Mozilla/5.0 (Windows NT 10.0; Win64; x64; rv:88.0) Gecko/20100101 Firefox/88.0,,Firefox,88,Windows,10
137,1,1798,"""",html-keyboard-response,112,188848,0.0-112.0,"""","<img src='jspsych/CFDfaces/CFD-WF-018-017-N.jpg' height=""250px""></br><b>Vanessa</b>","""",256,IntactFace,Memorization,70,5000,f,"""",CFD-LM-246-087-N.jpg,Cameron,0,"""","""","""",1,4/25/2021 9:21,93.40.224.54,Mozilla/5.0 (Windows NT 10.0; Win64; x64; rv:88.0) Gecko/20100101 Firefox/88.0,,Firefox,88,Windows,10
137,1,null,"""",html-keyboard-response,113,189348,0.0-113.0,"""","<div style=""font-size:60px;"">+</div>","""",256,fixation,Memorization,null,500,"""","""","""","""","""","""","""","""",1,4/25/2021 9:21,93.40.224.54,Mozilla/5.0 (Windows NT 10.0; Win64; x64; rv:88.0) Gecko/20100101 Firefox/88.0,,Firefox,88,Windows,10
137,1,1910,"""",html-keyboard-response,114,194355,0.0-114.0,"""","<img src='jspsych/CFDfaces/CFD-BF-008-001-N.jpg' height=""250px""></br><b>Andrea</b>","""",256,IntactFace,Memorization,70,5000,f,"""",CFD-BF-039-031-N.jpg,Lauren,0,"""","""","""",1,4/25/2021 9:21,93.40.224.54,Mozilla/5.0 (Windows NT 10.0; Win64; x64; rv:88.0) Gecko/20100101 Firefox/88.0,,Firefox,88,Windows,10
137,1,null,"""",html-keyboard-response,115,194870,0.0-115.0,"""","<div style=""font-size:60px;"">+</div>","""",256,fixation,Memorization,null,500,"""","""","""","""","""","""","""","""",1,4/25/2021 9:21,93.40.224.54,Mozilla/5.0 (Windows NT 10.0; Win64; x64; rv:88.0) Gecko/20100101 Firefox/88.0,,Firefox,88,Windows,10
137,1,2687,"""",html-keyboard-response,116,199887,0.0-116.0,"""","<img src='jspsych/CFDfaces/CFD-BM-205-001-N.jpg' height=""250px""></br><b>Eric</b>","""",256,IntactFace,Memorization,78,5000,n,"""",CFD-AF-220-107-N.jpg,Jordan,0,"""","""","""",1,4/25/2021 9:21,93.40.224.54,Mozilla/5.0 (Windows NT 10.0; Win64; x64; rv:88.0) Gecko/20100101 Firefox/88.0,,Firefox,88,Windows,10
137,1,null,"""",html-keyboard-response,117,200401,0.0-117.0,"""","<div style=""font-size:60px;"">+</div>","""",256,fixation,Memorization,null,500,"""","""","""","""","""","""","""","""",1,4/25/2021 9:21,93.40.224.54,Mozilla/5.0 (Windows NT 10.0; Win64; x64; rv:88.0) Gecko/20100101 Firefox/88.0,,Firefox,88,Windows,10
137,1,1546,"""",html-keyboard-response,118,205411,0.0-118.0,"""","<img src='jspsych/CFDfaces/CFD-WM-237-052-N.jpg' height=""250px""></br><b>Brandon</b>","""",256,IntactFace,Memorization,70,5000,f,"""",CFD-AM-221-184-N.jpg,Jeremy,0,"""","""","""",1,4/25/2021 9:21,93.40.224.54,Mozilla/5.0 (Windows NT 10.0; Win64; x64; rv:88.0) Gecko/20100101 Firefox/88.0,,Firefox,88,Windows,10
137,1,null,"""",html-keyboard-response,119,205924,0.0-119.0,"""","<div style=""font-size:60px;"">+</div>","""",256,fixation,Memorization,null,500,"""","""","""","""","""","""","""","""",1,4/25/2021 9:21,93.40.224.54,Mozilla/5.0 (Windows NT 10.0; Win64; x64; rv:88.0) Gecko/20100101 Firefox/88.0,,Firefox,88,Windows,10
137,1,2788,"""",html-keyboard-response,120,210928,0.0-120.0,"""","<img src='jspsych/CFDfaces/CFD-WM-232-070-N.jpg' height=""250px""></br><b>Juan</b>","""",256,IntactFace,Memorization,78,5000,n,"""",CFD-LF-202-065-N.jpg,Amy,0,"""","""","""",1,4/25/2021 9:21,93.40.224.54,Mozilla/5.0 (Windows NT 10.0; Win64; x64; rv:88.0) Gecko/20100101 Firefox/88.0,,Firefox,88,Windows,10
137,1,null,"""",html-keyboard-response,121,211444,0.0-121.0,"""","<div style=""font-size:60px;"">+</div>","""",256,fixation,Memorization,null,500,"""","""","""","""","""","""","""","""",1,4/25/2021 9:21,93.40.224.54,Mozilla/5.0 (Windows NT 10.0; Win64; x64; rv:88.0) Gecko/20100101 Firefox/88.0,,Firefox,88,Windows,10
137,1,1125,"""",html-keyboard-response,122,216454,0.0-122.0,"""","<img src='jspsych/CFDfaces/CFD-BM-002-013-N.jpg' height=""250px""></br><b>Joshua</b>","""",256,IntactFace,Memorization,70,5000,f,"""",CFD-AM-237-154-N.jpg,Travis,0,"""","""","""",1,4/25/2021 9:21,93.40.224.54,Mozilla/5.0 (Windows NT 10.0; Win64; x64; rv:88.0) Gecko/20100101 Firefox/88.0,,Firefox,88,Windows,10
137,1,null,"""",html-keyboard-response,123,216969,0.0-123.0,"""","<div style=""font-size:60px;"">+</div>","""",256,fixation,Memorization,null,500,"""","""","""","""","""","""","""","""",1,4/25/2021 9:21,93.40.224.54,Mozilla/5.0 (Windows NT 10.0; Win64; x64; rv:88.0) Gecko/20100101 Firefox/88.0,,Firefox,88,Windows,10
137,1,2198,"""",html-keyboard-response,124,221970,0.0-124.0,"""","<img src='jspsych/CFDfaces/CFD-LF-231-260-N.jpg' height=""250px""></br><b>Brittany</b>","""",256,IntactFace,Memorization,70,5000,f,"""",CFD-BM-041-035-N.jpg,Austin,0,"""","""","""",1,4/25/2021 9:21,93.40.224.54,Mozilla/5.0 (Windows NT 10.0; Win64; x64; rv:88.0) Gecko/20100101 Firefox/88.0,,Firefox,88,Windows,10
137,1,null,"""",html-keyboard-response,125,222485,0.0-125.0,"""","<div style=""font-size:60px;"">+</div>","""",256,fixation,Memorization,null,500,"""","""","""","""","""","""","""","""",1,4/25/2021 9:21,93.40.224.54,Mozilla/5.0 (Windows NT 10.0; Win64; x64; rv:88.0) Gecko/20100101 Firefox/88.0,,Firefox,88,Windows,10
137,1,1693,"""",html-keyboard-response,126,227502,0.0-126.0,"""","<img src='jspsych/CFDfaces/CFD-BF-209-172-N.jpg' height=""250px""></br><b>Emily</b>","""",256,IntactFace,Memorization,78,5000,n,"""",CFD-LM-209-111-N.jpg,Timothy,0,"""","""","""",1,4/25/2021 9:21,93.40.224.54,Mozilla/5.0 (Windows NT 10.0; Win64; x64; rv:88.0) Gecko/20100101 Firefox/88.0,,Firefox,88,Windows,10
137,1,null,"""",html-keyboard-response,127,228015,0.0-127.0,"""","<div style=""font-size:60px;"">+</div>","""",256,fixation,Memorization,null,500,"""","""","""","""","""","""","""","""",1,4/25/2021 9:21,93.40.224.54,Mozilla/5.0 (Windows NT 10.0; Win64; x64; rv:88.0) Gecko/20100101 Firefox/88.0,,Firefox,88,Windows,10
137,1,3251,"""",html-keyboard-response,128,233022,0.0-128.0,"""","<img src='jspsych/CFDfaces/CFD-BM-032-024-N.jpg' height=""250px""></br><b>Ian</b>","""",256,IntactFace,Memorization,70,5000,f,"""",CFD-WF-017-003-N.jpg,Sara,0,"""","""","""",1,4/25/2021 9:21,93.40.224.54,Mozilla/5.0 (Windows NT 10.0; Win64; x64; rv:88.0) Gecko/20100101 Firefox/88.0,,Firefox,88,Windows,10
137,1,null,"""",html-keyboard-response,129,233533,0.0-129.0,"""","<div style=""font-size:60px;"">+</div>","""",256,fixation,Memorization,null,500,"""","""","""","""","""","""","""","""",1,4/25/2021 9:21,93.40.224.54,Mozilla/5.0 (Windows NT 10.0; Win64; x64; rv:88.0) Gecko/20100101 Firefox/88.0,,Firefox,88,Windows,10
137,1,2718,"""",html-keyboard-response,130,238536,0.0-130.0,"""","<img src='jspsych/CFDfaces/CFD-AF-243-170-N.jpg' height=""250px""></br><b>Victoria</b>","""",256,IntactFace,Memorization,70,5000,f,"""",CFD-WF-217-085-N.jpg,Lindsey,0,"""","""","""",1,4/25/2021 9:21,93.40.224.54,Mozilla/5.0 (Windows NT 10.0; Win64; x64; rv:88.0) Gecko/20100101 Firefox/88.0,,Firefox,88,Windows,10
137,1,null,"""",html-keyboard-response,131,239049,0.0-131.0,"""","<div style=""font-size:60px;"">+</div>","""",256,fixation,Memorization,null,500,"""","""","""","""","""","""","""","""",1,4/25/2021 9:21,93.40.224.54,Mozilla/5.0 (Windows NT 10.0; Win64; x64; rv:88.0) Gecko/20100101 Firefox/88.0,,Firefox,88,Windows,10
137,1,2709,"""",html-keyboard-response,132,244061,0.0-132.0,"""","<img src='jspsych/CFDfaces/CFD-BM-018-001-N.jpg' height=""250px""></br><b>Gregory</b>","""",256,IntactFace,Memorization,70,5000,f,"""",CFD-BF-201-080-N.jpg,Whitney,0,"""","""","""",1,4/25/2021 9:21,93.40.224.54,Mozilla/5.0 (Windows NT 10.0; Win64; x64; rv:88.0) Gecko/20100101 Firefox/88.0,,Firefox,88,Windows,10
137,1,null,"""",html-keyboard-response,133,244576,0.0-133.0,"""","<div style=""font-size:60px;"">+</div>","""",256,fixation,Memorization,null,500,"""","""","""","""","""","""","""","""",1,4/25/2021 9:21,93.40.224.54,Mozilla/5.0 (Windows NT 10.0; Win64; x64; rv:88.0) Gecko/20100101 Firefox/88.0,,Firefox,88,Windows,10
137,1,4247,"""",html-keyboard-response,134,249591,0.0-134.0,"""","<img src='jspsych/CFDfaces/CFD-AM-243-212-N.jpg' height=""250px""></br><b>James</b>","""",256,IntactFace,Memorization,70,5000,f,"""",CFD-AF-201-060-N.jpg,Tiffany,0,"""","""","""",1,4/25/2021 9:21,93.40.224.54,Mozilla/5.0 (Windows NT 10.0; Win64; x64; rv:88.0) Gecko/20100101 Firefox/88.0,,Firefox,88,Windows,10
137,1,null,"""",html-keyboard-response,135,250106,0.0-135.0,"""","<div style=""font-size:60px;"">+</div>","""",256,fixation,Memorization,null,500,"""","""","""","""","""","""","""","""",1,4/25/2021 9:21,93.40.224.54,Mozilla/5.0 (Windows NT 10.0; Win64; x64; rv:88.0) Gecko/20100101 Firefox/88.0,,Firefox,88,Windows,10
137,1,3727,"""",html-keyboard-response,136,255114,0.0-136.0,"""","<img src='jspsych/CFDfaces/CFD-WF-207-014-N.jpg' height=""250px""></br><b>Kimberly</b>","""",256,IntactFace,Memorization,70,5000,f,"""",CFD-LM-220-329-N.jpg,Luis,0,"""","""","""",1,4/25/2021 9:21,93.40.224.54,Mozilla/5.0 (Windows NT 10.0; Win64; x64; rv:88.0) Gecko/20100101 Firefox/88.0,,Firefox,88,Windows,10
137,1,null,"""",html-keyboard-response,137,255626,0.0-137.0,"""","<div style=""font-size:60px;"">+</div>","""",256,fixation,Memorization,null,500,"""","""","""","""","""","""","""","""",1,4/25/2021 9:21,93.40.224.54,Mozilla/5.0 (Windows NT 10.0; Win64; x64; rv:88.0) Gecko/20100101 Firefox/88.0,,Firefox,88,Windows,10
137,1,1365,"""",html-keyboard-response,138,260642,0.0-138.0,"""","<img src='jspsych/CFDfaces/CFD-BF-016-017-N.jpg' height=""250px""></br><b>Christina</b>","""",256,IntactFace,Memorization,78,5000,n,"""",CFD-LF-230-203-N.jpg,Melissa,0,"""","""","""",1,4/25/2021 9:21,93.40.224.54,Mozilla/5.0 (Windows NT 10.0; Win64; x64; rv:88.0) Gecko/20100101 Firefox/88.0,,Firefox,88,Windows,10
137,1,null,"""",html-keyboard-response,139,261160,0.0-139.0,"""","<div style=""font-size:60px;"">+</div>","""",256,fixation,Memorization,null,500,"""","""","""","""","""","""","""","""",1,4/25/2021 9:21,93.40.224.54,Mozilla/5.0 (Windows NT 10.0; Win64; x64; rv:88.0) Gecko/20100101 Firefox/88.0,,Firefox,88,Windows,10
137,1,2362,"""",html-keyboard-response,140,266162,0.0-140.0,"""","<img src='jspsych/CFDfaces/CFD-AF-240-206-N.jpg' height=""250px""></br><b>Amanda</b>","""",256,IntactFace,Memorization,70,5000,f,"""",CFD-AM-202-079-N.jpg,Vincent,0,"""","""","""",1,4/25/2021 9:21,93.40.224.54,Mozilla/5.0 (Windows NT 10.0; Win64; x64; rv:88.0) Gecko/20100101 Firefox/88.0,,Firefox,88,Windows,10
137,1,null,"""",html-keyboard-response,141,266677,0.0-141.0,"""","<div style=""font-size:60px;"">+</div>","""",256,fixation,Memorization,null,500,"""","""","""","""","""","""","""","""",1,4/25/2021 9:21,93.40.224.54,Mozilla/5.0 (Windows NT 10.0; Win64; x64; rv:88.0) Gecko/20100101 Firefox/88.0,,Firefox,88,Windows,10
137,1,1411,"""",html-keyboard-response,142,271685,0.0-142.0,"""","<img src='jspsych/CFDfaces/CFD-BF-021-013-N.jpg' height=""250px""></br><b>Meghan</b>","""",256,IntactFace,Memorization,78,5000,n,"""",CFD-BF-218-207-N.jpg,Jenna,0,"""","""","""",1,4/25/2021 9:21,93.40.224.54,Mozilla/5.0 (Windows NT 10.0; Win64; x64; rv:88.0) Gecko/20100101 Firefox/88.0,,Firefox,88,Windows,10
137,1,null,"""",html-keyboard-response,143,272199,0.0-143.0,"""","<div style=""font-size:60px;"">+</div>","""",256,fixation,Memorization,null,500,"""","""","""","""","""","""","""","""",1,4/25/2021 9:21,93.40.224.54,Mozilla/5.0 (Windows NT 10.0; Win64; x64; rv:88.0) Gecko/20100101 Firefox/88.0,,Firefox,88,Windows,10
137,1,2209,"""",html-keyboard-response,144,277203,0.0-144.0,"""","<img src='jspsych/CFDfaces/CFD-AM-212-050-N.jpg' height=""250px""></br><b>Nicholas</b>","""",256,IntactFace,Memorization,70,5000,f,"""",CFD-LM-217-162-N.jpg,Ryan,0,"""","""","""",1,4/25/2021 9:21,93.40.224.54,Mozilla/5.0 (Windows NT 10.0; Win64; x64; rv:88.0) Gecko/20100101 Firefox/88.0,,Firefox,88,Windows,10
137,1,null,"""",html-keyboard-response,145,277717,0.0-145.0,"""","<div style=""font-size:60px;"">+</div>","""",256,fixation,Memorization,null,500,"""","""","""","""","""","""","""","""",1,4/25/2021 9:21,93.40.224.54,Mozilla/5.0 (Windows NT 10.0; Win64; x64; rv:88.0) Gecko/20100101 Firefox/88.0,,Firefox,88,Windows,10
137,1,2221,"""",html-keyboard-response,146,282720,0.0-146.0,"""","<img src='jspsych/CFDfaces/CFD-WF-016-015-N.jpg' height=""250px""></br><b>Kayla</b>","""",256,IntactFace,Memorization,70,5000,f,"""",CFD-AM-248-104-N.jpg,Justin,0,"""","""","""",1,4/25/2021 9:21,93.40.224.54,Mozilla/5.0 (Windows NT 10.0; Win64; x64; rv:88.0) Gecko/20100101 Firefox/88.0,,Firefox,88,Windows,10
137,1,null,"""",html-keyboard-response,147,283233,0.0-147.0,"""","<div style=""font-size:60px;"">+</div>","""",256,fixation,Memorization,null,500,"""","""","""","""","""","""","""","""",1,4/25/2021 9:21,93.40.224.54,Mozilla/5.0 (Windows NT 10.0; Win64; x64; rv:88.0) Gecko/20100101 Firefox/88.0,,Firefox,88,Windows,10
137,1,1642,"""",html-keyboard-response,148,288247,0.0-148.0,"""","<img src='jspsych/CFDfaces/CFD-BM-043-071-N.jpg' height=""250px""></br><b>Christian</b>","""",256,IntactFace,Memorization,70,5000,f,"""",CFD-AF-226-251-N.jpg,Heather,0,"""","""","""",1,4/25/2021 9:21,93.40.224.54,Mozilla/5.0 (Windows NT 10.0; Win64; x64; rv:88.0) Gecko/20100101 Firefox/88.0,,Firefox,88,Windows,10
137,1,null,"""",html-keyboard-response,149,288763,0.0-149.0,"""","<div style=""font-size:60px;"">+</div>","""",256,fixation,Memorization,null,500,"""","""","""","""","""","""","""","""",1,4/25/2021 9:21,93.40.224.54,Mozilla/5.0 (Windows NT 10.0; Win64; x64; rv:88.0) Gecko/20100101 Firefox/88.0,,Firefox,88,Windows,10
137,1,1776,"""",html-keyboard-response,150,293764,0.0-150.0,"""","<img src='jspsych/CFDfaces/CFD-BM-017-021-N.jpg' height=""250px""></br><b>Daniel</b>","""",256,IntactFace,Memorization,70,5000,f,"""",CFD-LM-224-162-N.jpg,Jesse,0,"""","""","""",1,4/25/2021 9:21,93.40.224.54,Mozilla/5.0 (Windows NT 10.0; Win64; x64; rv:88.0) Gecko/20100101 Firefox/88.0,,Firefox,88,Windows,10
137,1,null,"""",html-keyboard-response,151,294278,0.0-151.0,"""","<div style=""font-size:60px;"">+</div>","""",256,fixation,Memorization,null,500,"""","""","""","""","""","""","""","""",1,4/25/2021 9:21,93.40.224.54,Mozilla/5.0 (Windows NT 10.0; Win64; x64; rv:88.0) Gecko/20100101 Firefox/88.0,,Firefox,88,Windows,10
137,1,1732,"""",html-keyboard-response,152,299285,0.0-152.0,"""","<img src='jspsych/CFDfaces/CFD-LM-252-076-N.jpg' height=""250px""></br><b>Robert</b>","""",256,IntactFace,Memorization,70,5000,f,"""",CFD-WF-006-002-N.jpg,Laura,0,"""","""","""",1,4/25/2021 9:21,93.40.224.54,Mozilla/5.0 (Windows NT 10.0; Win64; x64; rv:88.0) Gecko/20100101 Firefox/88.0,,Firefox,88,Windows,10
137,1,null,"""",html-keyboard-response,153,299796,0.0-153.0,"""","<div style=""font-size:60px;"">+</div>","""",256,fixation,Memorization,null,500,"""","""","""","""","""","""","""","""",1,4/25/2021 9:21,93.40.224.54,Mozilla/5.0 (Windows NT 10.0; Win64; x64; rv:88.0) Gecko/20100101 Firefox/88.0,,Firefox,88,Windows,10
137,1,1005,"""",html-keyboard-response,154,300802,0.0-154.0,"""",Press Any Key to Begin Memory Test,"""",1,welcomeScreen,Break,70,"""","""","""","""","""","""","""","""","""",1,4/25/2021 9:21,93.40.224.54,Mozilla/5.0 (Windows NT 10.0; Win64; x64; rv:88.0) Gecko/20100101 Firefox/88.0,,Firefox,88,Windows,10
137,1,null,"""",html-keyboard-response,155,301806,0.0-155.0,"""","<div style=""font-size:60px;"">+</div>","""",256,ITI,Test,null,1000,"""","""","""","""","""","""","""","""",1,4/25/2021 9:21,93.40.224.54,Mozilla/5.0 (Windows NT 10.0; Win64; x64; rv:88.0) Gecko/20100101 Firefox/88.0,,Firefox,88,Windows,10
137,1,null,"""",image-keyboard-response,156,302062,0.0-156.0,"""",jspsych/scrambledDisgustFaces/scrambledAM03DIS.JPG,"""",256,forwardMask,Test,null,250,"""",d,"""","""","""","""","""","""",1,4/25/2021 9:21,93.40.224.54,Mozilla/5.0 (Windows NT 10.0; Win64; x64; rv:88.0) Gecko/20100101 Firefox/88.0,,Firefox,88,Windows,10
137,1,null,"""",image-keyboard-response,157,302093,0.0-157.0,"""",jspsych/disgustFaces/AM03DIS.JPG,"""",256,Cue,Test,null,16,"""","""","""","""","""","""","""","""",1,4/25/2021 9:21,93.40.224.54,Mozilla/5.0 (Windows NT 10.0; Win64; x64; rv:88.0) Gecko/20100101 Firefox/88.0,,Firefox,88,Windows,10
137,1,null,"""",image-keyboard-response,158,302203,0.0-158.0,"""",jspsych/neutralFaces/BM32NES.JPG,"""",256,backwardMask,Test,null,100,"""","""","""","""","""","""","""","""",1,4/25/2021 9:21,93.40.224.54,Mozilla/5.0 (Windows NT 10.0; Win64; x64; rv:88.0) Gecko/20100101 Firefox/88.0,,Firefox,88,Windows,10
137,1,null,"""",html-keyboard-response,159,303214,0.0-159.0,"""","<div style=""font-size:60px;"">+</div>","""",256,fixationBtwnNeutralMaskAndPrompt,Test,null,1000,"""","""","""","""","""","""","""","""",1,4/25/2021 9:21,93.40.224.54,Mozilla/5.0 (Windows NT 10.0; Win64; x64; rv:88.0) Gecko/20100101 Firefox/88.0,,Firefox,88,Windows,10
137,1,1579,"""",html-button-response,160,304795,0.0-160.0,"""","<img src='jspsych/CFDfaces/CFD-BF-021-013-N.jpg' height=""250px"">,</br><b>Meghan</b>",1,256,IntactOrRearranged,Test,"""","""","""","""",CFD-LM-246-087-N.jpg,Timothy,0,1,"""","""",1,4/25/2021 9:21,93.40.224.54,Mozilla/5.0 (Windows NT 10.0; Win64; x64; rv:88.0) Gecko/20100101 Firefox/88.0,,Firefox,88,Windows,10
137,1,1840,"""",html-slider-response,161,306640,0.0-161.0,"""","<img src='jspsych/CFDfaces/CFD-BF-021-013-N.jpg' height=""250px"">,</br><b>Meghan</b>","""",256,ConfidenceQuery,Test,"""","""","""","""",CFD-LM-246-087-N.jpg,Timothy,0,"""",0,49,1,4/25/2021 9:21,93.40.224.54,Mozilla/5.0 (Windows NT 10.0; Win64; x64; rv:88.0) Gecko/20100101 Firefox/88.0,,Firefox,88,Windows,10
137,1,null,"""",html-keyboard-response,162,307655,0.0-162.0,"""","<div style=""font-size:60px;"">+</div>","""",256,ITI,Test,null,1000,"""","""","""","""","""","""","""","""",1,4/25/2021 9:21,93.40.224.54,Mozilla/5.0 (Windows NT 10.0; Win64; x64; rv:88.0) Gecko/20100101 Firefox/88.0,,Firefox,88,Windows,10
137,1,null,"""",image-keyboard-response,163,307921,0.0-163.0,"""",jspsych/scrambledNeutralFaces/scrambledAM23NES.JPG,"""",256,forwardMask,Test,null,250,"""",n,"""","""","""","""","""","""",1,4/25/2021 9:21,93.40.224.54,Mozilla/5.0 (Windows NT 10.0; Win64; x64; rv:88.0) Gecko/20100101 Firefox/88.0,,Firefox,88,Windows,10
137,1,null,"""",image-keyboard-response,164,307951,0.0-164.0,"""",jspsych/neutralFaces/AM23NES.JPG,"""",256,Cue,Test,null,16,"""","""","""","""","""","""","""","""",1,4/25/2021 9:21,93.40.224.54,Mozilla/5.0 (Windows NT 10.0; Win64; x64; rv:88.0) Gecko/20100101 Firefox/88.0,,Firefox,88,Windows,10
137,1,null,"""",image-keyboard-response,165,308060,0.0-165.0,"""",jspsych/neutralFaces/AM34NES.JPG,"""",256,backwardMask,Test,null,100,"""","""","""","""","""","""","""","""",1,4/25/2021 9:21,93.40.224.54,Mozilla/5.0 (Windows NT 10.0; Win64; x64; rv:88.0) Gecko/20100101 Firefox/88.0,,Firefox,88,Windows,10
137,1,null,"""",html-keyboard-response,166,309061,0.0-166.0,"""","<div style=""font-size:60px;"">+</div>","""",256,fixationBtwnNeutralMaskAndPrompt,Test,null,1000,"""","""","""","""","""","""","""","""",1,4/25/2021 9:21,93.40.224.54,Mozilla/5.0 (Windows NT 10.0; Win64; x64; rv:88.0) Gecko/20100101 Firefox/88.0,,Firefox,88,Windows,10
137,1,1344,"""",html-button-response,167,310408,0.0-167.0,"""","<img src='jspsych/CFDfaces/CFD-WM-207-048-N.jpg' height=""250px"">,</br><b>Christian</b>",1,256,IntactOrRearranged,Test,"""","""","""","""",CFD-BF-039-031-N.jpg,Jordan,1,1,"""","""",1,4/25/2021 9:21,93.40.224.54,Mozilla/5.0 (Windows NT 10.0; Win64; x64; rv:88.0) Gecko/20100101 Firefox/88.0,,Firefox,88,Windows,10
137,1,1516,"""",html-slider-response,168,311928,0.0-168.0,"""","<img src='jspsych/CFDfaces/CFD-WM-207-048-N.jpg' height=""250px"">,</br><b>Christian</b>","""",256,ConfidenceQuery,Test,"""","""","""","""",CFD-BF-039-031-N.jpg,Jordan,1,"""",0,28,1,4/25/2021 9:21,93.40.224.54,Mozilla/5.0 (Windows NT 10.0; Win64; x64; rv:88.0) Gecko/20100101 Firefox/88.0,,Firefox,88,Windows,10
137,1,null,"""",html-keyboard-response,169,312940,0.0-169.0,"""","<div style=""font-size:60px;"">+</div>","""",256,ITI,Test,null,1000,"""","""","""","""","""","""","""","""",1,4/25/2021 9:21,93.40.224.54,Mozilla/5.0 (Windows NT 10.0; Win64; x64; rv:88.0) Gecko/20100101 Firefox/88.0,,Firefox,88,Windows,10
137,1,null,"""",image-keyboard-response,170,313200,0.0-170.0,"""",jspsych/scrambledNeutralFaces/scrambledAM10NES.JPG,"""",256,forwardMask,Test,null,250,"""",n,"""","""","""","""","""","""",1,4/25/2021 9:21,93.40.224.54,Mozilla/5.0 (Windows NT 10.0; Win64; x64; rv:88.0) Gecko/20100101 Firefox/88.0,,Firefox,88,Windows,10
137,1,null,"""",image-keyboard-response,171,313219,0.0-171.0,"""",jspsych/neutralFaces/AM10NES.JPG,"""",256,Cue,Test,null,16,"""","""","""","""","""","""","""","""",1,4/25/2021 9:21,93.40.224.54,Mozilla/5.0 (Windows NT 10.0; Win64; x64; rv:88.0) Gecko/20100101 Firefox/88.0,,Firefox,88,Windows,10
137,1,null,"""",image-keyboard-response,172,313326,0.0-172.0,"""",jspsych/neutralFaces/AM15NES.JPG,"""",256,backwardMask,Test,null,100,"""","""","""","""","""","""","""","""",1,4/25/2021 9:21,93.40.224.54,Mozilla/5.0 (Windows NT 10.0; Win64; x64; rv:88.0) Gecko/20100101 Firefox/88.0,,Firefox,88,Windows,10
137,1,null,"""",html-keyboard-response,173,314341,0.0-173.0,"""","<div style=""font-size:60px;"">+</div>","""",256,fixationBtwnNeutralMaskAndPrompt,Test,null,1000,"""","""","""","""","""","""","""","""",1,4/25/2021 9:21,93.40.224.54,Mozilla/5.0 (Windows NT 10.0; Win64; x64; rv:88.0) Gecko/20100101 Firefox/88.0,,Firefox,88,Windows,10
137,1,1016,"""",html-button-response,174,315358,0.0-174.0,"""","<img src='jspsych/CFDfaces/CFD-WF-018-017-N.jpg' height=""250px"">,</br><b>Vanessa</b>",1,256,IntactOrRearranged,Test,"""","""","""","""",CFD-LM-217-162-N.jpg,Cameron,0,1,"""","""",1,4/25/2021 9:21,93.40.224.54,Mozilla/5.0 (Windows NT 10.0; Win64; x64; rv:88.0) Gecko/20100101 Firefox/88.0,,Firefox,88,Windows,10
137,1,1596,"""",html-slider-response,175,316956,0.0-175.0,"""","<img src='jspsych/CFDfaces/CFD-WF-018-017-N.jpg' height=""250px"">,</br><b>Vanessa</b>","""",256,ConfidenceQuery,Test,"""","""","""","""",CFD-LM-217-162-N.jpg,Cameron,0,"""",0,66,1,4/25/2021 9:21,93.40.224.54,Mozilla/5.0 (Windows NT 10.0; Win64; x64; rv:88.0) Gecko/20100101 Firefox/88.0,,Firefox,88,Windows,10
137,1,null,"""",html-keyboard-response,176,317970,0.0-176.0,"""","<div style=""font-size:60px;"">+</div>","""",256,ITI,Test,null,1000,"""","""","""","""","""","""","""","""",1,4/25/2021 9:21,93.40.224.54,Mozilla/5.0 (Windows NT 10.0; Win64; x64; rv:88.0) Gecko/20100101 Firefox/88.0,,Firefox,88,Windows,10
137,1,null,"""",image-keyboard-response,177,318236,0.0-177.0,"""",jspsych/scrambledNeutralFaces/scrambledBF19NES.JPG,"""",256,forwardMask,Test,null,250,"""",n,"""","""","""","""","""","""",1,4/25/2021 9:21,93.40.224.54,Mozilla/5.0 (Windows NT 10.0; Win64; x64; rv:88.0) Gecko/20100101 Firefox/88.0,,Firefox,88,Windows,10
137,1,null,"""",image-keyboard-response,178,318266,0.0-178.0,"""",jspsych/neutralFaces/BF19NES.JPG,"""",256,Cue,Test,null,16,"""","""","""","""","""","""","""","""",1,4/25/2021 9:21,93.40.224.54,Mozilla/5.0 (Windows NT 10.0; Win64; x64; rv:88.0) Gecko/20100101 Firefox/88.0,,Firefox,88,Windows,10
137,1,null,"""",image-keyboard-response,179,318376,0.0-179.0,"""",jspsych/neutralFaces/AF16NES.JPG,"""",256,backwardMask,Test,null,100,"""","""","""","""","""","""","""","""",1,4/25/2021 9:21,93.40.224.54,Mozilla/5.0 (Windows NT 10.0; Win64; x64; rv:88.0) Gecko/20100101 Firefox/88.0,,Firefox,88,Windows,10
137,1,null,"""",html-keyboard-response,180,319389,0.0-180.0,"""","<div style=""font-size:60px;"">+</div>","""",256,fixationBtwnNeutralMaskAndPrompt,Test,null,1000,"""","""","""","""","""","""","""","""",1,4/25/2021 9:21,93.40.224.54,Mozilla/5.0 (Windows NT 10.0; Win64; x64; rv:88.0) Gecko/20100101 Firefox/88.0,,Firefox,88,Windows,10
137,1,2302,"""",html-button-response,181,321692,0.0-181.0,"""","<img src='jspsych/CFDfaces/CFD-WF-207-014-N.jpg' height=""250px"">,</br><b>Emily</b>",0,256,IntactOrRearranged,Test,"""","""","""","""",CFD-WF-202-056-N.jpg,Erin,1,0,"""","""",1,4/25/2021 9:21,93.40.224.54,Mozilla/5.0 (Windows NT 10.0; Win64; x64; rv:88.0) Gecko/20100101 Firefox/88.0,,Firefox,88,Windows,10
137,1,1608,"""",html-slider-response,182,323301,0.0-182.0,"""","<img src='jspsych/CFDfaces/CFD-WF-207-014-N.jpg' height=""250px"">,</br><b>Emily</b>","""",256,ConfidenceQuery,Test,"""","""","""","""",CFD-WF-202-056-N.jpg,Erin,1,"""",0,21,1,4/25/2021 9:21,93.40.224.54,Mozilla/5.0 (Windows NT 10.0; Win64; x64; rv:88.0) Gecko/20100101 Firefox/88.0,,Firefox,88,Windows,10
137,1,null,"""",html-keyboard-response,183,324309,0.0-183.0,"""","<div style=""font-size:60px;"">+</div>","""",256,ITI,Test,null,1000,"""","""","""","""","""","""","""","""",1,4/25/2021 9:21,93.40.224.54,Mozilla/5.0 (Windows NT 10.0; Win64; x64; rv:88.0) Gecko/20100101 Firefox/88.0,,Firefox,88,Windows,10
137,1,null,"""",image-keyboard-response,184,324575,0.0-184.0,"""",jspsych/scrambledDisgustFaces/scrambledAF09DIS.JPG,"""",256,forwardMask,Test,null,250,"""",d,"""","""","""","""","""","""",1,4/25/2021 9:21,93.40.224.54,Mozilla/5.0 (Windows NT 10.0; Win64; x64; rv:88.0) Gecko/20100101 Firefox/88.0,,Firefox,88,Windows,10
137,1,null,"""",image-keyboard-response,185,324606,0.0-185.0,"""",jspsych/disgustFaces/AF09DIS.JPG,"""",256,Cue,Test,null,16,"""","""","""","""","""","""","""","""",1,4/25/2021 9:21,93.40.224.54,Mozilla/5.0 (Windows NT 10.0; Win64; x64; rv:88.0) Gecko/20100101 Firefox/88.0,,Firefox,88,Windows,10
137,1,null,"""",image-keyboard-response,186,324709,0.0-186.0,"""",jspsych/neutralFaces/BF31NES.JPG,"""",256,backwardMask,Test,null,100,"""","""","""","""","""","""","""","""",1,4/25/2021 9:21,93.40.224.54,Mozilla/5.0 (Windows NT 10.0; Win64; x64; rv:88.0) Gecko/20100101 Firefox/88.0,,Firefox,88,Windows,10
137,1,null,"""",html-keyboard-response,187,325717,0.0-187.0,"""","<div style=""font-size:60px;"">+</div>","""",256,fixationBtwnNeutralMaskAndPrompt,Test,null,1000,"""","""","""","""","""","""","""","""",1,4/25/2021 9:21,93.40.224.54,Mozilla/5.0 (Windows NT 10.0; Win64; x64; rv:88.0) Gecko/20100101 Firefox/88.0,,Firefox,88,Windows,10
137,1,1801,"""",html-button-response,188,327519,0.0-188.0,"""","<img src='jspsych/CFDfaces/CFD-AF-242-158-N.jpg' height=""250px"">,</br><b>Elizabeth</b>",0,256,IntactOrRearranged,Test,"""","""","""","""",CFD-LF-205-100-N.jpg,Rebecca,1,0,"""","""",1,4/25/2021 9:21,93.40.224.54,Mozilla/5.0 (Windows NT 10.0; Win64; x64; rv:88.0) Gecko/20100101 Firefox/88.0,,Firefox,88,Windows,10
137,1,2405,"""",html-slider-response,189,329926,0.0-189.0,"""","<img src='jspsych/CFDfaces/CFD-AF-242-158-N.jpg' height=""250px"">,</br><b>Elizabeth</b>","""",256,ConfidenceQuery,Test,"""","""","""","""",CFD-LF-205-100-N.jpg,Rebecca,1,"""",0,38,1,4/25/2021 9:21,93.40.224.54,Mozilla/5.0 (Windows NT 10.0; Win64; x64; rv:88.0) Gecko/20100101 Firefox/88.0,,Firefox,88,Windows,10
137,1,null,"""",html-keyboard-response,190,330933,0.0-190.0,"""","<div style=""font-size:60px;"">+</div>","""",256,ITI,Test,null,1000,"""","""","""","""","""","""","""","""",1,4/25/2021 9:21,93.40.224.54,Mozilla/5.0 (Windows NT 10.0; Win64; x64; rv:88.0) Gecko/20100101 Firefox/88.0,,Firefox,88,Windows,10
137,1,null,"""",image-keyboard-response,191,331201,0.0-191.0,"""",jspsych/scrambledNeutralFaces/scrambledBF10NES.JPG,"""",256,forwardMask,Test,null,250,"""",n,"""","""","""","""","""","""",1,4/25/2021 9:21,93.40.224.54,Mozilla/5.0 (Windows NT 10.0; Win64; x64; rv:88.0) Gecko/20100101 Firefox/88.0,,Firefox,88,Windows,10
137,1,null,"""",image-keyboard-response,192,331232,0.0-192.0,"""",jspsych/neutralFaces/BF10NES.JPG,"""",256,Cue,Test,null,16,"""","""","""","""","""","""","""","""",1,4/25/2021 9:21,93.40.224.54,Mozilla/5.0 (Windows NT 10.0; Win64; x64; rv:88.0) Gecko/20100101 Firefox/88.0,,Firefox,88,Windows,10
137,1,null,"""",image-keyboard-response,193,331341,0.0-193.0,"""",jspsych/neutralFaces/BF09NES.JPG,"""",256,backwardMask,Test,null,100,"""","""","""","""","""","""","""","""",1,4/25/2021 9:21,93.40.224.54,Mozilla/5.0 (Windows NT 10.0; Win64; x64; rv:88.0) Gecko/20100101 Firefox/88.0,,Firefox,88,Windows,10
137,1,null,"""",html-keyboard-response,194,332342,0.0-194.0,"""","<div style=""font-size:60px;"">+</div>","""",256,fixationBtwnNeutralMaskAndPrompt,Test,null,1000,"""","""","""","""","""","""","""","""",1,4/25/2021 9:21,93.40.224.54,Mozilla/5.0 (Windows NT 10.0; Win64; x64; rv:88.0) Gecko/20100101 Firefox/88.0,,Firefox,88,Windows,10
137,1,1882,"""",html-button-response,195,334225,0.0-195.0,"""","<img src='jspsych/CFDfaces/CFD-AF-243-170-N.jpg' height=""250px"">,</br><b>Ashley</b>",0,256,IntactOrRearranged,Test,"""","""","""","""",CFD-BF-201-080-N.jpg,Whitney,1,0,"""","""",1,4/25/2021 9:21,93.40.224.54,Mozilla/5.0 (Windows NT 10.0; Win64; x64; rv:88.0) Gecko/20100101 Firefox/88.0,,Firefox,88,Windows,10
137,1,1077,"""",html-slider-response,196,335304,0.0-196.0,"""","<img src='jspsych/CFDfaces/CFD-AF-243-170-N.jpg' height=""250px"">,</br><b>Ashley</b>","""",256,ConfidenceQuery,Test,"""","""","""","""",CFD-BF-201-080-N.jpg,Whitney,1,"""",0,50,1,4/25/2021 9:21,93.40.224.54,Mozilla/5.0 (Windows NT 10.0; Win64; x64; rv:88.0) Gecko/20100101 Firefox/88.0,,Firefox,88,Windows,10
137,1,null,"""",html-keyboard-response,197,336316,0.0-197.0,"""","<div style=""font-size:60px;"">+</div>","""",256,ITI,Test,null,1000,"""","""","""","""","""","""","""","""",1,4/25/2021 9:21,93.40.224.54,Mozilla/5.0 (Windows NT 10.0; Win64; x64; rv:88.0) Gecko/20100101 Firefox/88.0,,Firefox,88,Windows,10
137,1,null,"""",image-keyboard-response,198,336570,0.0-198.0,"""",jspsych/scrambledNeutralFaces/scrambledBF26NES.JPG,"""",256,forwardMask,Test,null,250,"""",n,"""","""","""","""","""","""",1,4/25/2021 9:21,93.40.224.54,Mozilla/5.0 (Windows NT 10.0; Win64; x64; rv:88.0) Gecko/20100101 Firefox/88.0,,Firefox,88,Windows,10
137,1,null,"""",image-keyboard-response,199,336591,0.0-199.0,"""",jspsych/neutralFaces/BF26NES.JPG,"""",256,Cue,Test,null,16,"""","""","""","""","""","""","""","""",1,4/25/2021 9:21,93.40.224.54,Mozilla/5.0 (Windows NT 10.0; Win64; x64; rv:88.0) Gecko/20100101 Firefox/88.0,,Firefox,88,Windows,10
137,1,null,"""",image-keyboard-response,200,336696,0.0-200.0,"""",jspsych/neutralFaces/AF09NES.JPG,"""",256,backwardMask,Test,null,100,"""","""","""","""","""","""","""","""",1,4/25/2021 9:21,93.40.224.54,Mozilla/5.0 (Windows NT 10.0; Win64; x64; rv:88.0) Gecko/20100101 Firefox/88.0,,Firefox,88,Windows,10
137,1,null,"""",html-keyboard-response,201,337703,0.0-201.0,"""","<div style=""font-size:60px;"">+</div>","""",256,fixationBtwnNeutralMaskAndPrompt,Test,null,1000,"""","""","""","""","""","""","""","""",1,4/25/2021 9:21,93.40.224.54,Mozilla/5.0 (Windows NT 10.0; Win64; x64; rv:88.0) Gecko/20100101 Firefox/88.0,,Firefox,88,Windows,10
137,1,1987,"""",html-button-response,202,339691,0.0-202.0,"""","<img src='jspsych/CFDfaces/CFD-AM-229-224-N.jpg' height=""250px"">,</br><b>Jason</b>",1,256,IntactOrRearranged,Test,"""","""","""","""",CFD-LF-230-203-N.jpg,Melissa,0,1,"""","""",1,4/25/2021 9:21,93.40.224.54,Mozilla/5.0 (Windows NT 10.0; Win64; x64; rv:88.0) Gecko/20100101 Firefox/88.0,,Firefox,88,Windows,10
137,1,1517,"""",html-slider-response,203,341211,0.0-203.0,"""","<img src='jspsych/CFDfaces/CFD-AM-229-224-N.jpg' height=""250px"">,</br><b>Jason</b>","""",256,ConfidenceQuery,Test,"""","""","""","""",CFD-LF-230-203-N.jpg,Melissa,0,"""",0,29,1,4/25/2021 9:21,93.40.224.54,Mozilla/5.0 (Windows NT 10.0; Win64; x64; rv:88.0) Gecko/20100101 Firefox/88.0,,Firefox,88,Windows,10
137,1,null,"""",html-keyboard-response,204,342224,0.0-204.0,"""","<div style=""font-size:60px;"">+</div>","""",256,ITI,Test,null,1000,"""","""","""","""","""","""","""","""",1,4/25/2021 9:21,93.40.224.54,Mozilla/5.0 (Windows NT 10.0; Win64; x64; rv:88.0) Gecko/20100101 Firefox/88.0,,Firefox,88,Windows,10
137,1,null,"""",image-keyboard-response,205,342488,0.0-205.0,"""",jspsych/scrambledNeutralFaces/scrambledBF16NES.JPG,"""",256,forwardMask,Test,null,250,"""",n,"""","""","""","""","""","""",1,4/25/2021 9:21,93.40.224.54,Mozilla/5.0 (Windows NT 10.0; Win64; x64; rv:88.0) Gecko/20100101 Firefox/88.0,,Firefox,88,Windows,10
137,1,null,"""",image-keyboard-response,206,342518,0.0-206.0,"""",jspsych/neutralFaces/BF16NES.JPG,"""",256,Cue,Test,null,16,"""","""","""","""","""","""","""","""",1,4/25/2021 9:21,93.40.224.54,Mozilla/5.0 (Windows NT 10.0; Win64; x64; rv:88.0) Gecko/20100101 Firefox/88.0,,Firefox,88,Windows,10
137,1,null,"""",image-keyboard-response,207,342629,0.0-207.0,"""",jspsych/neutralFaces/BF01NES.JPG,"""",256,backwardMask,Test,null,100,"""","""","""","""","""","""","""","""",1,4/25/2021 9:21,93.40.224.54,Mozilla/5.0 (Windows NT 10.0; Win64; x64; rv:88.0) Gecko/20100101 Firefox/88.0,,Firefox,88,Windows,10
137,1,null,"""",html-keyboard-response,208,343630,0.0-208.0,"""","<div style=""font-size:60px;"">+</div>","""",256,fixationBtwnNeutralMaskAndPrompt,Test,null,1000,"""","""","""","""","""","""","""","""",1,4/25/2021 9:21,93.40.224.54,Mozilla/5.0 (Windows NT 10.0; Win64; x64; rv:88.0) Gecko/20100101 Firefox/88.0,,Firefox,88,Windows,10
137,1,1337,"""",html-button-response,209,344968,0.0-209.0,"""","<img src='jspsych/CFDfaces/CFD-WF-019-005-N.jpg' height=""250px"">,</br><b>Samantha</b>",1,256,IntactOrRearranged,Test,"""","""","""","""",CFD-LM-234-176-N.jpg,Steven,0,1,"""","""",1,4/25/2021 9:21,93.40.224.54,Mozilla/5.0 (Windows NT 10.0; Win64; x64; rv:88.0) Gecko/20100101 Firefox/88.0,,Firefox,88,Windows,10
137,1,1528,"""",html-slider-response,210,346498,0.0-210.0,"""","<img src='jspsych/CFDfaces/CFD-WF-019-005-N.jpg' height=""250px"">,</br><b>Samantha</b>","""",256,ConfidenceQuery,Test,"""","""","""","""",CFD-LM-234-176-N.jpg,Steven,0,"""",0,57,1,4/25/2021 9:21,93.40.224.54,Mozilla/5.0 (Windows NT 10.0; Win64; x64; rv:88.0) Gecko/20100101 Firefox/88.0,,Firefox,88,Windows,10
137,1,null,"""",html-keyboard-response,211,347513,0.0-211.0,"""","<div style=""font-size:60px;"">+</div>","""",256,ITI,Test,null,1000,"""","""","""","""","""","""","""","""",1,4/25/2021 9:21,93.40.224.54,Mozilla/5.0 (Windows NT 10.0; Win64; x64; rv:88.0) Gecko/20100101 Firefox/88.0,,Firefox,88,Windows,10
137,1,null,"""",image-keyboard-response,212,347775,0.0-212.0,"""",jspsych/scrambledDisgustFaces/scrambledAM22DIS.JPG,"""",256,forwardMask,Test,null,250,"""",d,"""","""","""","""","""","""",1,4/25/2021 9:21,93.40.224.54,Mozilla/5.0 (Windows NT 10.0; Win64; x64; rv:88.0) Gecko/20100101 Firefox/88.0,,Firefox,88,Windows,10
137,1,null,"""",image-keyboard-response,213,347806,0.0-213.0,"""",jspsych/disgustFaces/AM22DIS.JPG,"""",256,Cue,Test,null,16,"""","""","""","""","""","""","""","""",1,4/25/2021 9:21,93.40.224.54,Mozilla/5.0 (Windows NT 10.0; Win64; x64; rv:88.0) Gecko/20100101 Firefox/88.0,,Firefox,88,Windows,10
137,1,null,"""",image-keyboard-response,214,347915,0.0-214.0,"""",jspsych/neutralFaces/AM05NES.JPG,"""",256,backwardMask,Test,null,100,"""","""","""","""","""","""","""","""",1,4/25/2021 9:21,93.40.224.54,Mozilla/5.0 (Windows NT 10.0; Win64; x64; rv:88.0) Gecko/20100101 Firefox/88.0,,Firefox,88,Windows,10
137,1,null,"""",html-keyboard-response,215,348929,0.0-215.0,"""","<div style=""font-size:60px;"">+</div>","""",256,fixationBtwnNeutralMaskAndPrompt,Test,null,1000,"""","""","""","""","""","""","""","""",1,4/25/2021 9:21,93.40.224.54,Mozilla/5.0 (Windows NT 10.0; Win64; x64; rv:88.0) Gecko/20100101 Firefox/88.0,,Firefox,88,Windows,10
137,1,1404,"""",html-button-response,216,350335,0.0-216.0,"""","<img src='jspsych/CFDfaces/CFD-BF-008-001-N.jpg' height=""250px"">,</br><b>Amanda</b>",0,256,IntactOrRearranged,Test,"""","""","""","""",CFD-AM-213-056-N.jpg,Jacob,1,0,"""","""",1,4/25/2021 9:21,93.40.224.54,Mozilla/5.0 (Windows NT 10.0; Win64; x64; rv:88.0) Gecko/20100101 Firefox/88.0,,Firefox,88,Windows,10
137,1,1381,"""",html-slider-response,217,351717,0.0-217.0,"""","<img src='jspsych/CFDfaces/CFD-BF-008-001-N.jpg' height=""250px"">,</br><b>Amanda</b>","""",256,ConfidenceQuery,Test,"""","""","""","""",CFD-AM-213-056-N.jpg,Jacob,1,"""",0,62,1,4/25/2021 9:21,93.40.224.54,Mozilla/5.0 (Windows NT 10.0; Win64; x64; rv:88.0) Gecko/20100101 Firefox/88.0,,Firefox,88,Windows,10
137,1,null,"""",html-keyboard-response,218,352720,0.0-218.0,"""","<div style=""font-size:60px;"">+</div>","""",256,ITI,Test,null,1000,"""","""","""","""","""","""","""","""",1,4/25/2021 9:21,93.40.224.54,Mozilla/5.0 (Windows NT 10.0; Win64; x64; rv:88.0) Gecko/20100101 Firefox/88.0,,Firefox,88,Windows,10
137,1,null,"""",image-keyboard-response,219,352986,0.0-219.0,"""",jspsych/scrambledNeutralFaces/scrambledBM31NES.JPG,"""",256,forwardMask,Test,null,250,"""",n,"""","""","""","""","""","""",1,4/25/2021 9:21,93.40.224.54,Mozilla/5.0 (Windows NT 10.0; Win64; x64; rv:88.0) Gecko/20100101 Firefox/88.0,,Firefox,88,Windows,10
137,1,null,"""",image-keyboard-response,220,353015,0.0-220.0,"""",jspsych/neutralFaces/BM31NES.JPG,"""",256,Cue,Test,null,16,"""","""","""","""","""","""","""","""",1,4/25/2021 9:21,93.40.224.54,Mozilla/5.0 (Windows NT 10.0; Win64; x64; rv:88.0) Gecko/20100101 Firefox/88.0,,Firefox,88,Windows,10
137,1,null,"""",image-keyboard-response,221,353124,0.0-221.0,"""",jspsych/neutralFaces/AM07NES.JPG,"""",256,backwardMask,Test,null,100,"""","""","""","""","""","""","""","""",1,4/25/2021 9:21,93.40.224.54,Mozilla/5.0 (Windows NT 10.0; Win64; x64; rv:88.0) Gecko/20100101 Firefox/88.0,,Firefox,88,Windows,10
137,1,null,"""",html-keyboard-response,222,354125,0.0-222.0,"""","<div style=""font-size:60px;"">+</div>","""",256,fixationBtwnNeutralMaskAndPrompt,Test,null,1000,"""","""","""","""","""","""","""","""",1,4/25/2021 9:21,93.40.224.54,Mozilla/5.0 (Windows NT 10.0; Win64; x64; rv:88.0) Gecko/20100101 Firefox/88.0,,Firefox,88,Windows,10
137,1,1315,"""",html-button-response,223,355442,0.0-223.0,"""","<img src='jspsych/CFDfaces/CFD-BF-016-017-N.jpg' height=""250px"">,</br><b>Victoria</b>",1,256,IntactOrRearranged,Test,"""","""","""","""",CFD-AF-220-107-N.jpg,Jenna,1,1,"""","""",1,4/25/2021 9:21,93.40.224.54,Mozilla/5.0 (Windows NT 10.0; Win64; x64; rv:88.0) Gecko/20100101 Firefox/88.0,,Firefox,88,Windows,10
137,1,1631,"""",html-slider-response,224,357075,0.0-224.0,"""","<img src='jspsych/CFDfaces/CFD-BF-016-017-N.jpg' height=""250px"">,</br><b>Victoria</b>","""",256,ConfidenceQuery,Test,"""","""","""","""",CFD-AF-220-107-N.jpg,Jenna,1,"""",0,29,1,4/25/2021 9:21,93.40.224.54,Mozilla/5.0 (Windows NT 10.0; Win64; x64; rv:88.0) Gecko/20100101 Firefox/88.0,,Firefox,88,Windows,10
137,1,null,"""",html-keyboard-response,225,358081,0.0-225.0,"""","<div style=""font-size:60px;"">+</div>","""",256,ITI,Test,null,1000,"""","""","""","""","""","""","""","""",1,4/25/2021 9:21,93.40.224.54,Mozilla/5.0 (Windows NT 10.0; Win64; x64; rv:88.0) Gecko/20100101 Firefox/88.0,,Firefox,88,Windows,10
137,1,null,"""",image-keyboard-response,226,358344,0.0-226.0,"""",jspsych/scrambledNeutralFaces/scrambledAM27NES.JPG,"""",256,forwardMask,Test,null,250,"""",n,"""","""","""","""","""","""",1,4/25/2021 9:21,93.40.224.54,Mozilla/5.0 (Windows NT 10.0; Win64; x64; rv:88.0) Gecko/20100101 Firefox/88.0,,Firefox,88,Windows,10
137,1,null,"""",image-keyboard-response,227,358377,0.0-227.0,"""",jspsych/neutralFaces/AM27NES.JPG,"""",256,Cue,Test,null,16,"""","""","""","""","""","""","""","""",1,4/25/2021 9:21,93.40.224.54,Mozilla/5.0 (Windows NT 10.0; Win64; x64; rv:88.0) Gecko/20100101 Firefox/88.0,,Firefox,88,Windows,10
137,1,null,"""",image-keyboard-response,228,358486,0.0-228.0,"""",jspsych/neutralFaces/AM32NES.JPG,"""",256,backwardMask,Test,null,100,"""","""","""","""","""","""","""","""",1,4/25/2021 9:21,93.40.224.54,Mozilla/5.0 (Windows NT 10.0; Win64; x64; rv:88.0) Gecko/20100101 Firefox/88.0,,Firefox,88,Windows,10
137,1,null,"""",html-keyboard-response,229,359500,0.0-229.0,"""","<div style=""font-size:60px;"">+</div>","""",256,fixationBtwnNeutralMaskAndPrompt,Test,null,1000,"""","""","""","""","""","""","""","""",1,4/25/2021 9:21,93.40.224.54,Mozilla/5.0 (Windows NT 10.0; Win64; x64; rv:88.0) Gecko/20100101 Firefox/88.0,,Firefox,88,Windows,10
137,1,1407,"""",html-button-response,230,360910,0.0-230.0,"""","<img src='jspsych/CFDfaces/CFD-BF-025-002-N.jpg' height=""250px"">,</br><b>Julie</b>",0,256,IntactOrRearranged,Test,"""","""","""","""",CFD-LM-220-329-N.jpg,Luis,0,0,"""","""",1,4/25/2021 9:21,93.40.224.54,Mozilla/5.0 (Windows NT 10.0; Win64; x64; rv:88.0) Gecko/20100101 Firefox/88.0,,Firefox,88,Windows,10
137,1,2214,"""",html-slider-response,231,363125,0.0-231.0,"""","<img src='jspsych/CFDfaces/CFD-BF-025-002-N.jpg' height=""250px"">,</br><b>Julie</b>","""",256,ConfidenceQuery,Test,"""","""","""","""",CFD-LM-220-329-N.jpg,Luis,0,"""",0,40,1,4/25/2021 9:21,93.40.224.54,Mozilla/5.0 (Windows NT 10.0; Win64; x64; rv:88.0) Gecko/20100101 Firefox/88.0,,Firefox,88,Windows,10
137,1,null,"""",html-keyboard-response,232,364126,0.0-232.0,"""","<div style=""font-size:60px;"">+</div>","""",256,ITI,Test,null,1000,"""","""","""","""","""","""","""","""",1,4/25/2021 9:21,93.40.224.54,Mozilla/5.0 (Windows NT 10.0; Win64; x64; rv:88.0) Gecko/20100101 Firefox/88.0,,Firefox,88,Windows,10
137,1,null,"""",image-keyboard-response,233,364391,0.0-233.0,"""",jspsych/scrambledNeutralFaces/scrambledAF05NES.JPG,"""",256,forwardMask,Test,null,250,"""",n,"""","""","""","""","""","""",1,4/25/2021 9:21,93.40.224.54,Mozilla/5.0 (Windows NT 10.0; Win64; x64; rv:88.0) Gecko/20100101 Firefox/88.0,,Firefox,88,Windows,10
137,1,null,"""",image-keyboard-response,234,364423,0.0-234.0,"""",jspsych/neutralFaces/AF05NES.JPG,"""",256,Cue,Test,null,16,"""","""","""","""","""","""","""","""",1,4/25/2021 9:21,93.40.224.54,Mozilla/5.0 (Windows NT 10.0; Win64; x64; rv:88.0) Gecko/20100101 Firefox/88.0,,Firefox,88,Windows,10
137,1,null,"""",image-keyboard-response,235,364531,0.0-235.0,"""",jspsych/neutralFaces/BF15NES.JPG,"""",256,backwardMask,Test,null,100,"""","""","""","""","""","""","""","""",1,4/25/2021 9:21,93.40.224.54,Mozilla/5.0 (Windows NT 10.0; Win64; x64; rv:88.0) Gecko/20100101 Firefox/88.0,,Firefox,88,Windows,10
137,1,null,"""",html-keyboard-response,236,365547,0.0-236.0,"""","<div style=""font-size:60px;"">+</div>","""",256,fixationBtwnNeutralMaskAndPrompt,Test,null,1000,"""","""","""","""","""","""","""","""",1,4/25/2021 9:21,93.40.224.54,Mozilla/5.0 (Windows NT 10.0; Win64; x64; rv:88.0) Gecko/20100101 Firefox/88.0,,Firefox,88,Windows,10
137,1,1088,"""",html-button-response,237,366635,0.0-237.0,"""","<img src='jspsych/CFDfaces/CFD-BM-017-021-N.jpg' height=""250px"">,</br><b>James</b>",0,256,IntactOrRearranged,Test,"""","""","""","""",CFD-WM-212-097-N.jpg,Sean,1,0,"""","""",1,4/25/2021 9:21,93.40.224.54,Mozilla/5.0 (Windows NT 10.0; Win64; x64; rv:88.0) Gecko/20100101 Firefox/88.0,,Firefox,88,Windows,10
137,1,1360,"""",html-slider-response,238,367997,0.0-238.0,"""","<img src='jspsych/CFDfaces/CFD-BM-017-021-N.jpg' height=""250px"">,</br><b>James</b>","""",256,ConfidenceQuery,Test,"""","""","""","""",CFD-WM-212-097-N.jpg,Sean,1,"""",0,65,1,4/25/2021 9:21,93.40.224.54,Mozilla/5.0 (Windows NT 10.0; Win64; x64; rv:88.0) Gecko/20100101 Firefox/88.0,,Firefox,88,Windows,10
137,1,null,"""",html-keyboard-response,239,369010,0.0-239.0,"""","<div style=""font-size:60px;"">+</div>","""",256,ITI,Test,null,1000,"""","""","""","""","""","""","""","""",1,4/25/2021 9:21,93.40.224.54,Mozilla/5.0 (Windows NT 10.0; Win64; x64; rv:88.0) Gecko/20100101 Firefox/88.0,,Firefox,88,Windows,10
137,1,null,"""",image-keyboard-response,240,369272,0.0-240.0,"""",jspsych/scrambledDisgustFaces/scrambledAM25DIS.JPG,"""",256,forwardMask,Test,null,250,"""",d,"""","""","""","""","""","""",1,4/25/2021 9:21,93.40.224.54,Mozilla/5.0 (Windows NT 10.0; Win64; x64; rv:88.0) Gecko/20100101 Firefox/88.0,,Firefox,88,Windows,10
137,1,null,"""",image-keyboard-response,241,369303,0.0-241.0,"""",jspsych/disgustFaces/AM25DIS.JPG,"""",256,Cue,Test,null,16,"""","""","""","""","""","""","""","""",1,4/25/2021 9:21,93.40.224.54,Mozilla/5.0 (Windows NT 10.0; Win64; x64; rv:88.0) Gecko/20100101 Firefox/88.0,,Firefox,88,Windows,10
137,1,null,"""",image-keyboard-response,242,369412,0.0-242.0,"""",jspsych/neutralFaces/BM11NES.JPG,"""",256,backwardMask,Test,null,100,"""","""","""","""","""","""","""","""",1,4/25/2021 9:21,93.40.224.54,Mozilla/5.0 (Windows NT 10.0; Win64; x64; rv:88.0) Gecko/20100101 Firefox/88.0,,Firefox,88,Windows,10
137,1,null,"""",html-keyboard-response,243,370424,0.0-243.0,"""","<div style=""font-size:60px;"">+</div>","""",256,fixationBtwnNeutralMaskAndPrompt,Test,null,1000,"""","""","""","""","""","""","""","""",1,4/25/2021 9:21,93.40.224.54,Mozilla/5.0 (Windows NT 10.0; Win64; x64; rv:88.0) Gecko/20100101 Firefox/88.0,,Firefox,88,Windows,10
137,1,1649,"""",html-button-response,244,372080,0.0-244.0,"""","<img src='jspsych/CFDfaces/CFD-BF-209-172-N.jpg' height=""250px"">,</br><b>Andrea</b>",1,256,IntactOrRearranged,Test,"""","""","""","""",CFD-LF-243-175-N.jpg,Taylor,1,1,"""","""",1,4/25/2021 9:21,93.40.224.54,Mozilla/5.0 (Windows NT 10.0; Win64; x64; rv:88.0) Gecko/20100101 Firefox/88.0,,Firefox,88,Windows,10
137,1,1304,"""",html-slider-response,245,373385,0.0-245.0,"""","<img src='jspsych/CFDfaces/CFD-BF-209-172-N.jpg' height=""250px"">,</br><b>Andrea</b>","""",256,ConfidenceQuery,Test,"""","""","""","""",CFD-LF-243-175-N.jpg,Taylor,1,"""",0,18,1,4/25/2021 9:21,93.40.224.54,Mozilla/5.0 (Windows NT 10.0; Win64; x64; rv:88.0) Gecko/20100101 Firefox/88.0,,Firefox,88,Windows,10
137,1,null,"""",html-keyboard-response,246,374393,0.0-246.0,"""","<div style=""font-size:60px;"">+</div>","""",256,ITI,Test,null,1000,"""","""","""","""","""","""","""","""",1,4/25/2021 9:21,93.40.224.54,Mozilla/5.0 (Windows NT 10.0; Win64; x64; rv:88.0) Gecko/20100101 Firefox/88.0,,Firefox,88,Windows,10
137,1,null,"""",image-keyboard-response,247,374662,0.0-247.0,"""",jspsych/scrambledDisgustFaces/scrambledAM11DIS.JPG,"""",256,forwardMask,Test,null,250,"""",d,"""","""","""","""","""","""",1,4/25/2021 9:21,93.40.224.54,Mozilla/5.0 (Windows NT 10.0; Win64; x64; rv:88.0) Gecko/20100101 Firefox/88.0,,Firefox,88,Windows,10
137,1,null,"""",image-keyboard-response,248,374694,0.0-248.0,"""",jspsych/disgustFaces/AM11DIS.JPG,"""",256,Cue,Test,null,16,"""","""","""","""","""","""","""","""",1,4/25/2021 9:21,93.40.224.54,Mozilla/5.0 (Windows NT 10.0; Win64; x64; rv:88.0) Gecko/20100101 Firefox/88.0,,Firefox,88,Windows,10
137,1,null,"""",image-keyboard-response,249,374803,0.0-249.0,"""",jspsych/neutralFaces/AM11NES.JPG,"""",256,backwardMask,Test,null,100,"""","""","""","""","""","""","""","""",1,4/25/2021 9:21,93.40.224.54,Mozilla/5.0 (Windows NT 10.0; Win64; x64; rv:88.0) Gecko/20100101 Firefox/88.0,,Firefox,88,Windows,10
137,1,null,"""",html-keyboard-response,250,375815,0.0-250.0,"""","<div style=""font-size:60px;"">+</div>","""",256,fixationBtwnNeutralMaskAndPrompt,Test,null,1000,"""","""","""","""","""","""","""","""",1,4/25/2021 9:21,93.40.224.54,Mozilla/5.0 (Windows NT 10.0; Win64; x64; rv:88.0) Gecko/20100101 Firefox/88.0,,Firefox,88,Windows,10
137,1,1620,"""",html-button-response,251,377448,0.0-251.0,"""","<img src='jspsych/CFDfaces/CFD-AM-238-269-N.jpg' height=""250px"">,</br><b>Brian</b>",0,256,IntactOrRearranged,Test,"""","""","""","""",CFD-LM-224-162-N.jpg,Kenneth,0,0,"""","""",1,4/25/2021 9:21,93.40.224.54,Mozilla/5.0 (Windows NT 10.0; Win64; x64; rv:88.0) Gecko/20100101 Firefox/88.0,,Firefox,88,Windows,10
137,1,1920,"""",html-slider-response,252,379370,0.0-252.0,"""","<img src='jspsych/CFDfaces/CFD-AM-238-269-N.jpg' height=""250px"">,</br><b>Brian</b>","""",256,ConfidenceQuery,Test,"""","""","""","""",CFD-LM-224-162-N.jpg,Kenneth,0,"""",0,41,1,4/25/2021 9:21,93.40.224.54,Mozilla/5.0 (Windows NT 10.0; Win64; x64; rv:88.0) Gecko/20100101 Firefox/88.0,,Firefox,88,Windows,10
137,1,null,"""",html-keyboard-response,253,380375,0.0-253.0,"""","<div style=""font-size:60px;"">+</div>","""",256,ITI,Test,null,1000,"""","""","""","""","""","""","""","""",1,4/25/2021 9:21,93.40.224.54,Mozilla/5.0 (Windows NT 10.0; Win64; x64; rv:88.0) Gecko/20100101 Firefox/88.0,,Firefox,88,Windows,10
137,1,null,"""",image-keyboard-response,254,380639,0.0-254.0,"""",jspsych/scrambledDisgustFaces/scrambledBM25DIS.JPG,"""",256,forwardMask,Test,null,250,"""",d,"""","""","""","""","""","""",1,4/25/2021 9:21,93.40.224.54,Mozilla/5.0 (Windows NT 10.0; Win64; x64; rv:88.0) Gecko/20100101 Firefox/88.0,,Firefox,88,Windows,10
137,1,null,"""",image-keyboard-response,255,380670,0.0-255.0,"""",jspsych/disgustFaces/BM26DIS.JPG,"""",256,Cue,Test,null,16,"""","""","""","""","""","""","""","""",1,4/25/2021 9:21,93.40.224.54,Mozilla/5.0 (Windows NT 10.0; Win64; x64; rv:88.0) Gecko/20100101 Firefox/88.0,,Firefox,88,Windows,10
137,1,null,"""",image-keyboard-response,256,380779,0.0-256.0,"""",jspsych/neutralFaces/AM06NES.JPG,"""",256,backwardMask,Test,null,100,"""","""","""","""","""","""","""","""",1,4/25/2021 9:21,93.40.224.54,Mozilla/5.0 (Windows NT 10.0; Win64; x64; rv:88.0) Gecko/20100101 Firefox/88.0,,Firefox,88,Windows,10
137,1,null,"""",html-keyboard-response,257,381793,0.0-257.0,"""","<div style=""font-size:60px;"">+</div>","""",256,fixationBtwnNeutralMaskAndPrompt,Test,null,1000,"""","""","""","""","""","""","""","""",1,4/25/2021 9:21,93.40.224.54,Mozilla/5.0 (Windows NT 10.0; Win64; x64; rv:88.0) Gecko/20100101 Firefox/88.0,,Firefox,88,Windows,10
137,1,1598,"""",html-button-response,258,383397,0.0-258.0,"""","<img src='jspsych/CFDfaces/CFD-BF-047-003-N.jpg' height=""250px"">,</br><b>Kimberly</b>",1,256,IntactOrRearranged,Test,"""","""","""","""",CFD-BF-218-207-N.jpg,Jasmine,1,1,"""","""",1,4/25/2021 9:21,93.40.224.54,Mozilla/5.0 (Windows NT 10.0; Win64; x64; rv:88.0) Gecko/20100101 Firefox/88.0,,Firefox,88,Windows,10
137,1,1708,"""",html-slider-response,259,385107,0.0-259.0,"""","<img src='jspsych/CFDfaces/CFD-BF-047-003-N.jpg' height=""250px"">,</br><b>Kimberly</b>","""",256,ConfidenceQuery,Test,"""","""","""","""",CFD-BF-218-207-N.jpg,Jasmine,1,"""",0,22,1,4/25/2021 9:21,93.40.224.54,Mozilla/5.0 (Windows NT 10.0; Win64; x64; rv:88.0) Gecko/20100101 Firefox/88.0,,Firefox,88,Windows,10
137,1,null,"""",html-keyboard-response,260,386115,0.0-260.0,"""","<div style=""font-size:60px;"">+</div>","""",256,ITI,Test,null,1000,"""","""","""","""","""","""","""","""",1,4/25/2021 9:21,93.40.224.54,Mozilla/5.0 (Windows NT 10.0; Win64; x64; rv:88.0) Gecko/20100101 Firefox/88.0,,Firefox,88,Windows,10
137,1,null,"""",image-keyboard-response,261,386381,0.0-261.0,"""",jspsych/scrambledDisgustFaces/scrambledAF34DIS.JPG,"""",256,forwardMask,Test,null,250,"""",d,"""","""","""","""","""","""",1,4/25/2021 9:21,93.40.224.54,Mozilla/5.0 (Windows NT 10.0; Win64; x64; rv:88.0) Gecko/20100101 Firefox/88.0,,Firefox,88,Windows,10
137,1,null,"""",image-keyboard-response,262,386412,0.0-262.0,"""",jspsych/disgustFaces/AF34DIS.JPG,"""",256,Cue,Test,null,16,"""","""","""","""","""","""","""","""",1,4/25/2021 9:21,93.40.224.54,Mozilla/5.0 (Windows NT 10.0; Win64; x64; rv:88.0) Gecko/20100101 Firefox/88.0,,Firefox,88,Windows,10
137,1,null,"""",image-keyboard-response,263,386523,0.0-263.0,"""",jspsych/neutralFaces/AF30NES.JPG,"""",256,backwardMask,Test,null,100,"""","""","""","""","""","""","""","""",1,4/25/2021 9:21,93.40.224.54,Mozilla/5.0 (Windows NT 10.0; Win64; x64; rv:88.0) Gecko/20100101 Firefox/88.0,,Firefox,88,Windows,10
137,1,null,"""",html-keyboard-response,264,387534,0.0-264.0,"""","<div style=""font-size:60px;"">+</div>","""",256,fixationBtwnNeutralMaskAndPrompt,Test,null,1000,"""","""","""","""","""","""","""","""",1,4/25/2021 9:21,93.40.224.54,Mozilla/5.0 (Windows NT 10.0; Win64; x64; rv:88.0) Gecko/20100101 Firefox/88.0,,Firefox,88,Windows,10
137,1,1470,"""",html-button-response,265,389011,0.0-265.0,"""","<img src='jspsych/CFDfaces/CFD-WM-232-070-N.jpg' height=""250px"">,</br><b>Juan</b>",1,256,IntactOrRearranged,Test,"""","""","""","""",CFD-AM-234-355-N.jpg,Dustin,0,1,"""","""",1,4/25/2021 9:21,93.40.224.54,Mozilla/5.0 (Windows NT 10.0; Win64; x64; rv:88.0) Gecko/20100101 Firefox/88.0,,Firefox,88,Windows,10
137,1,1876,"""",html-slider-response,266,390890,0.0-266.0,"""","<img src='jspsych/CFDfaces/CFD-WM-232-070-N.jpg' height=""250px"">,</br><b>Juan</b>","""",256,ConfidenceQuery,Test,"""","""","""","""",CFD-AM-234-355-N.jpg,Dustin,0,"""",0,24,1,4/25/2021 9:21,93.40.224.54,Mozilla/5.0 (Windows NT 10.0; Win64; x64; rv:88.0) Gecko/20100101 Firefox/88.0,,Firefox,88,Windows,10
137,1,null,"""",html-keyboard-response,267,391903,0.0-267.0,"""","<div style=""font-size:60px;"">+</div>","""",256,ITI,Test,null,1000,"""","""","""","""","""","""","""","""",1,4/25/2021 9:21,93.40.224.54,Mozilla/5.0 (Windows NT 10.0; Win64; x64; rv:88.0) Gecko/20100101 Firefox/88.0,,Firefox,88,Windows,10
137,1,null,"""",image-keyboard-response,268,392170,0.0-268.0,"""",jspsych/scrambledNeutralFaces/scrambledAF07NES.JPG,"""",256,forwardMask,Test,null,250,"""",n,"""","""","""","""","""","""",1,4/25/2021 9:21,93.40.224.54,Mozilla/5.0 (Windows NT 10.0; Win64; x64; rv:88.0) Gecko/20100101 Firefox/88.0,,Firefox,88,Windows,10
137,1,null,"""",image-keyboard-response,269,392202,0.0-269.0,"""",jspsych/neutralFaces/AF07NES.JPG,"""",256,Cue,Test,null,16,"""","""","""","""","""","""","""","""",1,4/25/2021 9:21,93.40.224.54,Mozilla/5.0 (Windows NT 10.0; Win64; x64; rv:88.0) Gecko/20100101 Firefox/88.0,,Firefox,88,Windows,10
137,1,null,"""",image-keyboard-response,270,392310,0.0-270.0,"""",jspsych/neutralFaces/BF01NES.JPG,"""",256,backwardMask,Test,null,100,"""","""","""","""","""","""","""","""",1,4/25/2021 9:21,93.40.224.54,Mozilla/5.0 (Windows NT 10.0; Win64; x64; rv:88.0) Gecko/20100101 Firefox/88.0,,Firefox,88,Windows,10
137,1,null,"""",html-keyboard-response,271,393326,0.0-271.0,"""","<div style=""font-size:60px;"">+</div>","""",256,fixationBtwnNeutralMaskAndPrompt,Test,null,1000,"""","""","""","""","""","""","""","""",1,4/25/2021 9:21,93.40.224.54,Mozilla/5.0 (Windows NT 10.0; Win64; x64; rv:88.0) Gecko/20100101 Firefox/88.0,,Firefox,88,Windows,10
137,1,2467,"""",html-button-response,272,395807,0.0-272.0,"""","<img src='jspsych/CFDfaces/CFD-BF-226-119-N.jpg' height=""250px"">,</br><b>Stephanie</b>",0,256,IntactOrRearranged,Test,"""","""","""","""",CFD-AM-221-184-N.jpg,Ryan,0,0,"""","""",1,4/25/2021 9:21,93.40.224.54,Mozilla/5.0 (Windows NT 10.0; Win64; x64; rv:88.0) Gecko/20100101 Firefox/88.0,,Firefox,88,Windows,10
137,1,2089,"""",html-slider-response,273,397897,0.0-273.0,"""","<img src='jspsych/CFDfaces/CFD-BF-226-119-N.jpg' height=""250px"">,</br><b>Stephanie</b>","""",256,ConfidenceQuery,Test,"""","""","""","""",CFD-AM-221-184-N.jpg,Ryan,0,"""",0,57,1,4/25/2021 9:21,93.40.224.54,Mozilla/5.0 (Windows NT 10.0; Win64; x64; rv:88.0) Gecko/20100101 Firefox/88.0,,Firefox,88,Windows,10
137,1,null,"""",html-keyboard-response,274,398901,0.0-274.0,"""","<div style=""font-size:60px;"">+</div>","""",256,ITI,Test,null,1000,"""","""","""","""","""","""","""","""",1,4/25/2021 9:21,93.40.224.54,Mozilla/5.0 (Windows NT 10.0; Win64; x64; rv:88.0) Gecko/20100101 Firefox/88.0,,Firefox,88,Windows,10
137,1,null,"""",image-keyboard-response,275,399166,0.0-275.0,"""",jspsych/scrambledNeutralFaces/scrambledAF35NES.JPG,"""",256,forwardMask,Test,null,250,"""",n,"""","""","""","""","""","""",1,4/25/2021 9:21,93.40.224.54,Mozilla/5.0 (Windows NT 10.0; Win64; x64; rv:88.0) Gecko/20100101 Firefox/88.0,,Firefox,88,Windows,10
137,1,null,"""",image-keyboard-response,276,399196,0.0-276.0,"""",jspsych/neutralFaces/AF35NES.JPG,"""",256,Cue,Test,null,16,"""","""","""","""","""","""","""","""",1,4/25/2021 9:21,93.40.224.54,Mozilla/5.0 (Windows NT 10.0; Win64; x64; rv:88.0) Gecko/20100101 Firefox/88.0,,Firefox,88,Windows,10
137,1,null,"""",image-keyboard-response,277,399306,0.0-277.0,"""",jspsych/neutralFaces/AF07NES.JPG,"""",256,backwardMask,Test,null,100,"""","""","""","""","""","""","""","""",1,4/25/2021 9:21,93.40.224.54,Mozilla/5.0 (Windows NT 10.0; Win64; x64; rv:88.0) Gecko/20100101 Firefox/88.0,,Firefox,88,Windows,10
137,1,null,"""",html-keyboard-response,278,400315,0.0-278.0,"""","<div style=""font-size:60px;"">+</div>","""",256,fixationBtwnNeutralMaskAndPrompt,Test,null,1000,"""","""","""","""","""","""","""","""",1,4/25/2021 9:21,93.40.224.54,Mozilla/5.0 (Windows NT 10.0; Win64; x64; rv:88.0) Gecko/20100101 Firefox/88.0,,Firefox,88,Windows,10
137,1,2948,"""",html-button-response,279,403265,0.0-279.0,"""","<img src='jspsych/CFDfaces/CFD-BM-018-001-N.jpg' height=""250px"">,</br><b>Daniel</b>",0,256,IntactOrRearranged,Test,"""","""","""","""",CFD-LF-202-065-N.jpg,Amy,1,0,"""","""",1,4/25/2021 9:21,93.40.224.54,Mozilla/5.0 (Windows NT 10.0; Win64; x64; rv:88.0) Gecko/20100101 Firefox/88.0,,Firefox,88,Windows,10
137,1,1708,"""",html-slider-response,280,404975,0.0-280.0,"""","<img src='jspsych/CFDfaces/CFD-BM-018-001-N.jpg' height=""250px"">,</br><b>Daniel</b>","""",256,ConfidenceQuery,Test,"""","""","""","""",CFD-LF-202-065-N.jpg,Amy,1,"""",0,23,1,4/25/2021 9:21,93.40.224.54,Mozilla/5.0 (Windows NT 10.0; Win64; x64; rv:88.0) Gecko/20100101 Firefox/88.0,,Firefox,88,Windows,10
137,1,null,"""",html-keyboard-response,281,405992,0.0-281.0,"""","<div style=""font-size:60px;"">+</div>","""",256,ITI,Test,null,1000,"""","""","""","""","""","""","""","""",1,4/25/2021 9:21,93.40.224.54,Mozilla/5.0 (Windows NT 10.0; Win64; x64; rv:88.0) Gecko/20100101 Firefox/88.0,,Firefox,88,Windows,10
137,1,null,"""",image-keyboard-response,282,406255,0.0-282.0,"""",jspsych/scrambledNeutralFaces/scrambledBM03NES.JPG,"""",256,forwardMask,Test,null,250,"""",n,"""","""","""","""","""","""",1,4/25/2021 9:21,93.40.224.54,Mozilla/5.0 (Windows NT 10.0; Win64; x64; rv:88.0) Gecko/20100101 Firefox/88.0,,Firefox,88,Windows,10
137,1,null,"""",image-keyboard-response,283,406287,0.0-283.0,"""",jspsych/neutralFaces/BM03NES.JPG,"""",256,Cue,Test,null,16,"""","""","""","""","""","""","""","""",1,4/25/2021 9:21,93.40.224.54,Mozilla/5.0 (Windows NT 10.0; Win64; x64; rv:88.0) Gecko/20100101 Firefox/88.0,,Firefox,88,Windows,10
137,1,null,"""",image-keyboard-response,284,406396,0.0-284.0,"""",jspsych/neutralFaces/AM30NES.JPG,"""",256,backwardMask,Test,null,100,"""","""","""","""","""","""","""","""",1,4/25/2021 9:21,93.40.224.54,Mozilla/5.0 (Windows NT 10.0; Win64; x64; rv:88.0) Gecko/20100101 Firefox/88.0,,Firefox,88,Windows,10
137,1,null,"""",html-keyboard-response,285,407408,0.0-285.0,"""","<div style=""font-size:60px;"">+</div>","""",256,fixationBtwnNeutralMaskAndPrompt,Test,null,1000,"""","""","""","""","""","""","""","""",1,4/25/2021 9:21,93.40.224.54,Mozilla/5.0 (Windows NT 10.0; Win64; x64; rv:88.0) Gecko/20100101 Firefox/88.0,,Firefox,88,Windows,10
137,1,2809,"""",html-button-response,286,410217,0.0-286.0,"""","<img src='jspsych/CFDfaces/CFD-AF-240-206-N.jpg' height=""250px"">,</br><b>Christina</b>",1,256,IntactOrRearranged,Test,"""","""","""","""",CFD-WM-032-001-N.jpg,Jeremy,1,1,"""","""",1,4/25/2021 9:21,93.40.224.54,Mozilla/5.0 (Windows NT 10.0; Win64; x64; rv:88.0) Gecko/20100101 Firefox/88.0,,Firefox,88,Windows,10
137,1,1857,"""",html-slider-response,287,412076,0.0-287.0,"""","<img src='jspsych/CFDfaces/CFD-AF-240-206-N.jpg' height=""250px"">,</br><b>Christina</b>","""",256,ConfidenceQuery,Test,"""","""","""","""",CFD-WM-032-001-N.jpg,Jeremy,1,"""",0,12,1,4/25/2021 9:21,93.40.224.54,Mozilla/5.0 (Windows NT 10.0; Win64; x64; rv:88.0) Gecko/20100101 Firefox/88.0,,Firefox,88,Windows,10
137,1,null,"""",html-keyboard-response,288,413098,0.0-288.0,"""","<div style=""font-size:60px;"">+</div>","""",256,ITI,Test,null,1000,"""","""","""","""","""","""","""","""",1,4/25/2021 9:21,93.40.224.54,Mozilla/5.0 (Windows NT 10.0; Win64; x64; rv:88.0) Gecko/20100101 Firefox/88.0,,Firefox,88,Windows,10
137,1,null,"""",image-keyboard-response,289,413362,0.0-289.0,"""",jspsych/scrambledNeutralFaces/scrambledBF02NES.JPG,"""",256,forwardMask,Test,null,250,"""",n,"""","""","""","""","""","""",1,4/25/2021 9:21,93.40.224.54,Mozilla/5.0 (Windows NT 10.0; Win64; x64; rv:88.0) Gecko/20100101 Firefox/88.0,,Firefox,88,Windows,10
137,1,null,"""",image-keyboard-response,290,413393,0.0-290.0,"""",jspsych/neutralFaces/BF02NES.JPG,"""",256,Cue,Test,null,16,"""","""","""","""","""","""","""","""",1,4/25/2021 9:21,93.40.224.54,Mozilla/5.0 (Windows NT 10.0; Win64; x64; rv:88.0) Gecko/20100101 Firefox/88.0,,Firefox,88,Windows,10
137,1,null,"""",image-keyboard-response,291,413502,0.0-291.0,"""",jspsych/neutralFaces/AF02NES.JPG,"""",256,backwardMask,Test,null,100,"""","""","""","""","""","""","""","""",1,4/25/2021 9:21,93.40.224.54,Mozilla/5.0 (Windows NT 10.0; Win64; x64; rv:88.0) Gecko/20100101 Firefox/88.0,,Firefox,88,Windows,10
137,1,null,"""",html-keyboard-response,292,414517,0.0-292.0,"""","<div style=""font-size:60px;"">+</div>","""",256,fixationBtwnNeutralMaskAndPrompt,Test,null,1000,"""","""","""","""","""","""","""","""",1,4/25/2021 9:21,93.40.224.54,Mozilla/5.0 (Windows NT 10.0; Win64; x64; rv:88.0) Gecko/20100101 Firefox/88.0,,Firefox,88,Windows,10
137,1,2393,"""",html-button-response,293,416910,0.0-293.0,"""","<img src='jspsych/CFDfaces/CFD-AM-243-212-N.jpg' height=""250px"">,</br><b>Jeffrey</b>",0,256,IntactOrRearranged,Test,"""","""","""","""",CFD-AF-222-134-N.jpg,Angela,1,0,"""","""",1,4/25/2021 9:21,93.40.224.54,Mozilla/5.0 (Windows NT 10.0; Win64; x64; rv:88.0) Gecko/20100101 Firefox/88.0,,Firefox,88,Windows,10
137,1,1552,"""",html-slider-response,294,418463,0.0-294.0,"""","<img src='jspsych/CFDfaces/CFD-AM-243-212-N.jpg' height=""250px"">,</br><b>Jeffrey</b>","""",256,ConfidenceQuery,Test,"""","""","""","""",CFD-AF-222-134-N.jpg,Angela,1,"""",0,44,1,4/25/2021 9:21,93.40.224.54,Mozilla/5.0 (Windows NT 10.0; Win64; x64; rv:88.0) Gecko/20100101 Firefox/88.0,,Firefox,88,Windows,10
137,1,null,"""",html-keyboard-response,295,419474,0.0-295.0,"""","<div style=""font-size:60px;"">+</div>","""",256,ITI,Test,null,1000,"""","""","""","""","""","""","""","""",1,4/25/2021 9:21,93.40.224.54,Mozilla/5.0 (Windows NT 10.0; Win64; x64; rv:88.0) Gecko/20100101 Firefox/88.0,,Firefox,88,Windows,10
137,1,null,"""",image-keyboard-response,296,419738,0.0-296.0,"""",jspsych/scrambledNeutralFaces/scrambledAM33NES.JPG,"""",256,forwardMask,Test,null,250,"""",n,"""","""","""","""","""","""",1,4/25/2021 9:21,93.40.224.54,Mozilla/5.0 (Windows NT 10.0; Win64; x64; rv:88.0) Gecko/20100101 Firefox/88.0,,Firefox,88,Windows,10
137,1,null,"""",image-keyboard-response,297,419764,0.0-297.0,"""",jspsych/neutralFaces/AM33NES.JPG,"""",256,Cue,Test,null,16,"""","""","""","""","""","""","""","""",1,4/25/2021 9:21,93.40.224.54,Mozilla/5.0 (Windows NT 10.0; Win64; x64; rv:88.0) Gecko/20100101 Firefox/88.0,,Firefox,88,Windows,10
