run_id,condition,rt,responses,trial_type,trial_index,time_elapsed,internal_node_id,stimulus,button_pressed,key_press,StimulusDurationSetting,iTrial,Phase,correctResponse,CharacterResponse,recorded_at,ip,user_agent,device,browser,browser_version,platform,platform_version
5,1,7291,"{""Q0"":""A3NNBKMR1WMS7R""}",survey-text,0,7301,0.0-0.0,"""","""","""","""","""","""","""","""",11/25/2020 1:09,98.252.224.31,Mozilla/5.0 (Windows NT 10.0; Win64; x64; rv:68.0) Gecko/20100101 Firefox/68.0,,Firefox,68,Windows,10
5,1,17243,"""",image-button-response,1,24551,0.0-1.0,directionsOnlyDisgust.JPG,0,"""","""","""","""","""","""",11/25/2020 1:09,98.252.224.31,Mozilla/5.0 (Windows NT 10.0; Win64; x64; rv:68.0) Gecko/20100101 Firefox/68.0,,Firefox,68,Windows,10
5,1,null,"""",html-keyboard-response,2,25555,0.0-2.0,"<div style=""font-size:60px;"">+</div>","""",null,1000,1,ITI,"""","""",11/25/2020 1:09,98.252.224.31,Mozilla/5.0 (Windows NT 10.0; Win64; x64; rv:68.0) Gecko/20100101 Firefox/68.0,,Firefox,68,Windows,10
5,1,null,"""",image-keyboard-response,3,25808,0.0-3.0,jspsych/scrambledDisgustFaces/scrambledBM15DIS.JPG,"""",null,250,1,forwardMask,1,"""",11/25/2020 1:09,98.252.224.31,Mozilla/5.0 (Windows NT 10.0; Win64; x64; rv:68.0) Gecko/20100101 Firefox/68.0,,Firefox,68,Windows,10
5,1,null,"""",image-keyboard-response,4,25827,0.0-4.0,jspsych/disgustFaces/BM15DIS.JPG,"""",null,16,1,Cue,"""","""",11/25/2020 1:09,98.252.224.31,Mozilla/5.0 (Windows NT 10.0; Win64; x64; rv:68.0) Gecko/20100101 Firefox/68.0,,Firefox,68,Windows,10
5,1,null,"""",image-keyboard-response,5,25928,0.0-5.0,jspsych/neutralFaces/AM09NES.JPG,"""",null,100,1,backwardMask,"""","""",11/25/2020 1:09,98.252.224.31,Mozilla/5.0 (Windows NT 10.0; Win64; x64; rv:68.0) Gecko/20100101 Firefox/68.0,,Firefox,68,Windows,10
5,1,null,"""",html-keyboard-response,6,26130,0.0-6.0,"<div style=""font-size:60px;"">+</div>","""",null,200,1,fixationBtwnNeutralMaskAndPrompt,"""","""",11/25/2020 1:09,98.252.224.31,Mozilla/5.0 (Windows NT 10.0; Win64; x64; rv:68.0) Gecko/20100101 Firefox/68.0,,Firefox,68,Windows,10
5,1,8257,"""",html-keyboard-response,7,34389,0.0-7.0,"<p> Did you see a disgust face? Press, <br></br> <b>0</b> if <i>no</i>, <br></br> <b>1</b> if <i>yes<i>","""",48,"""",1,Query,"""",0,11/25/2020 1:09,98.252.224.31,Mozilla/5.0 (Windows NT 10.0; Win64; x64; rv:68.0) Gecko/20100101 Firefox/68.0,,Firefox,68,Windows,10
5,1,null,"""",html-keyboard-response,8,35392,0.0-8.0,"<div style=""font-size:60px;"">+</div>","""",null,1000,2,ITI,"""","""",11/25/2020 1:09,98.252.224.31,Mozilla/5.0 (Windows NT 10.0; Win64; x64; rv:68.0) Gecko/20100101 Firefox/68.0,,Firefox,68,Windows,10
5,1,null,"""",image-keyboard-response,9,35644,0.0-9.0,jspsych/scrambledNeutralFaces/scrambledAF29NES.JPG,"""",null,250,2,forwardMask,0,"""",11/25/2020 1:09,98.252.224.31,Mozilla/5.0 (Windows NT 10.0; Win64; x64; rv:68.0) Gecko/20100101 Firefox/68.0,,Firefox,68,Windows,10
5,1,null,"""",image-keyboard-response,10,35712,0.0-10.0,jspsych/neutralFaces/AF29NES.JPG,"""",null,66,2,Cue,"""","""",11/25/2020 1:09,98.252.224.31,Mozilla/5.0 (Windows NT 10.0; Win64; x64; rv:68.0) Gecko/20100101 Firefox/68.0,,Firefox,68,Windows,10
5,1,null,"""",image-keyboard-response,11,35813,0.0-11.0,jspsych/neutralFaces/BF04NES.JPG,"""",null,100,2,backwardMask,"""","""",11/25/2020 1:09,98.252.224.31,Mozilla/5.0 (Windows NT 10.0; Win64; x64; rv:68.0) Gecko/20100101 Firefox/68.0,,Firefox,68,Windows,10
5,1,null,"""",html-keyboard-response,12,36015,0.0-12.0,"<div style=""font-size:60px;"">+</div>","""",null,200,2,fixationBtwnNeutralMaskAndPrompt,"""","""",11/25/2020 1:09,98.252.224.31,Mozilla/5.0 (Windows NT 10.0; Win64; x64; rv:68.0) Gecko/20100101 Firefox/68.0,,Firefox,68,Windows,10
5,1,3532,"""",html-keyboard-response,13,39547,0.0-13.0,"<p> Did you see a disgust face? Press, <br></br> <b>0</b> if <i>no</i>, <br></br> <b>1</b> if <i>yes<i>","""",48,"""",2,Query,"""",0,11/25/2020 1:09,98.252.224.31,Mozilla/5.0 (Windows NT 10.0; Win64; x64; rv:68.0) Gecko/20100101 Firefox/68.0,,Firefox,68,Windows,10
5,1,null,"""",html-keyboard-response,14,40549,0.0-14.0,"<div style=""font-size:60px;"">+</div>","""",null,1000,3,ITI,"""","""",11/25/2020 1:09,98.252.224.31,Mozilla/5.0 (Windows NT 10.0; Win64; x64; rv:68.0) Gecko/20100101 Firefox/68.0,,Firefox,68,Windows,10
5,1,null,"""",image-keyboard-response,15,40801,0.0-15.0,jspsych/scrambledNeutralFaces/scrambledBM12NES.JPG,"""",null,250,3,forwardMask,0,"""",11/25/2020 1:09,98.252.224.31,Mozilla/5.0 (Windows NT 10.0; Win64; x64; rv:68.0) Gecko/20100101 Firefox/68.0,,Firefox,68,Windows,10
5,1,null,"""",image-keyboard-response,16,40907,0.0-16.0,jspsych/neutralFaces/BM12NES.JPG,"""",null,104,3,Cue,"""","""",11/25/2020 1:09,98.252.224.31,Mozilla/5.0 (Windows NT 10.0; Win64; x64; rv:68.0) Gecko/20100101 Firefox/68.0,,Firefox,68,Windows,10
5,1,null,"""",image-keyboard-response,17,41008,0.0-17.0,jspsych/neutralFaces/AM18NES.JPG,"""",null,100,3,backwardMask,"""","""",11/25/2020 1:09,98.252.224.31,Mozilla/5.0 (Windows NT 10.0; Win64; x64; rv:68.0) Gecko/20100101 Firefox/68.0,,Firefox,68,Windows,10
5,1,null,"""",html-keyboard-response,18,41210,0.0-18.0,"<div style=""font-size:60px;"">+</div>","""",null,200,3,fixationBtwnNeutralMaskAndPrompt,"""","""",11/25/2020 1:09,98.252.224.31,Mozilla/5.0 (Windows NT 10.0; Win64; x64; rv:68.0) Gecko/20100101 Firefox/68.0,,Firefox,68,Windows,10
5,1,1255,"""",html-keyboard-response,19,42466,0.0-19.0,"<p> Did you see a disgust face? Press, <br></br> <b>0</b> if <i>no</i>, <br></br> <b>1</b> if <i>yes<i>","""",48,"""",3,Query,"""",0,11/25/2020 1:09,98.252.224.31,Mozilla/5.0 (Windows NT 10.0; Win64; x64; rv:68.0) Gecko/20100101 Firefox/68.0,,Firefox,68,Windows,10
5,1,null,"""",html-keyboard-response,20,43471,0.0-20.0,"<div style=""font-size:60px;"">+</div>","""",null,1000,4,ITI,"""","""",11/25/2020 1:09,98.252.224.31,Mozilla/5.0 (Windows NT 10.0; Win64; x64; rv:68.0) Gecko/20100101 Firefox/68.0,,Firefox,68,Windows,10
5,1,null,"""",image-keyboard-response,21,43723,0.0-21.0,jspsych/scrambledNeutralFaces/scrambledAF27NES.JPG,"""",null,250,4,forwardMask,0,"""",11/25/2020 1:09,98.252.224.31,Mozilla/5.0 (Windows NT 10.0; Win64; x64; rv:68.0) Gecko/20100101 Firefox/68.0,,Firefox,68,Windows,10
5,1,null,"""",image-keyboard-response,22,43805,0.0-22.0,jspsych/neutralFaces/AF27NES.JPG,"""",null,82,4,Cue,"""","""",11/25/2020 1:09,98.252.224.31,Mozilla/5.0 (Windows NT 10.0; Win64; x64; rv:68.0) Gecko/20100101 Firefox/68.0,,Firefox,68,Windows,10
5,1,null,"""",image-keyboard-response,23,43908,0.0-23.0,jspsych/neutralFaces/AF12NES.JPG,"""",null,100,4,backwardMask,"""","""",11/25/2020 1:09,98.252.224.31,Mozilla/5.0 (Windows NT 10.0; Win64; x64; rv:68.0) Gecko/20100101 Firefox/68.0,,Firefox,68,Windows,10
5,1,null,"""",html-keyboard-response,24,44109,0.0-24.0,"<div style=""font-size:60px;"">+</div>","""",null,200,4,fixationBtwnNeutralMaskAndPrompt,"""","""",11/25/2020 1:09,98.252.224.31,Mozilla/5.0 (Windows NT 10.0; Win64; x64; rv:68.0) Gecko/20100101 Firefox/68.0,,Firefox,68,Windows,10
5,1,496,"""",html-keyboard-response,25,44606,0.0-25.0,"<p> Did you see a disgust face? Press, <br></br> <b>0</b> if <i>no</i>, <br></br> <b>1</b> if <i>yes<i>","""",48,"""",4,Query,"""",0,11/25/2020 1:09,98.252.224.31,Mozilla/5.0 (Windows NT 10.0; Win64; x64; rv:68.0) Gecko/20100101 Firefox/68.0,,Firefox,68,Windows,10
5,1,null,"""",html-keyboard-response,26,45607,0.0-26.0,"<div style=""font-size:60px;"">+</div>","""",null,1000,5,ITI,"""","""",11/25/2020 1:09,98.252.224.31,Mozilla/5.0 (Windows NT 10.0; Win64; x64; rv:68.0) Gecko/20100101 Firefox/68.0,,Firefox,68,Windows,10
5,1,null,"""",image-keyboard-response,27,45861,0.0-27.0,jspsych/scrambledNeutralFaces/scrambledBM30NES.JPG,"""",null,250,5,forwardMask,0,"""",11/25/2020 1:09,98.252.224.31,Mozilla/5.0 (Windows NT 10.0; Win64; x64; rv:68.0) Gecko/20100101 Firefox/68.0,,Firefox,68,Windows,10
5,1,null,"""",image-keyboard-response,28,45929,0.0-28.0,jspsych/neutralFaces/BM30NES.JPG,"""",null,66,5,Cue,"""","""",11/25/2020 1:09,98.252.224.31,Mozilla/5.0 (Windows NT 10.0; Win64; x64; rv:68.0) Gecko/20100101 Firefox/68.0,,Firefox,68,Windows,10
5,1,null,"""",image-keyboard-response,29,46032,0.0-29.0,jspsych/neutralFaces/AF07NES.JPG,"""",null,100,5,backwardMask,"""","""",11/25/2020 1:09,98.252.224.31,Mozilla/5.0 (Windows NT 10.0; Win64; x64; rv:68.0) Gecko/20100101 Firefox/68.0,,Firefox,68,Windows,10
5,1,null,"""",html-keyboard-response,30,46234,0.0-30.0,"<div style=""font-size:60px;"">+</div>","""",null,200,5,fixationBtwnNeutralMaskAndPrompt,"""","""",11/25/2020 1:09,98.252.224.31,Mozilla/5.0 (Windows NT 10.0; Win64; x64; rv:68.0) Gecko/20100101 Firefox/68.0,,Firefox,68,Windows,10
5,1,1970,"""",html-keyboard-response,31,48205,0.0-31.0,"<p> Did you see a disgust face? Press, <br></br> <b>0</b> if <i>no</i>, <br></br> <b>1</b> if <i>yes<i>","""",48,"""",5,Query,"""",0,11/25/2020 1:09,98.252.224.31,Mozilla/5.0 (Windows NT 10.0; Win64; x64; rv:68.0) Gecko/20100101 Firefox/68.0,,Firefox,68,Windows,10
5,1,null,"""",html-keyboard-response,32,49205,0.0-32.0,"<div style=""font-size:60px;"">+</div>","""",null,1000,6,ITI,"""","""",11/25/2020 1:09,98.252.224.31,Mozilla/5.0 (Windows NT 10.0; Win64; x64; rv:68.0) Gecko/20100101 Firefox/68.0,,Firefox,68,Windows,10
5,1,null,"""",image-keyboard-response,33,49457,0.0-33.0,jspsych/scrambledDisgustFaces/scrambledAF24DIS.JPG,"""",null,250,6,forwardMask,1,"""",11/25/2020 1:09,98.252.224.31,Mozilla/5.0 (Windows NT 10.0; Win64; x64; rv:68.0) Gecko/20100101 Firefox/68.0,,Firefox,68,Windows,10
5,1,null,"""",image-keyboard-response,34,49563,0.0-34.0,jspsych/disgustFaces/AF24DIS.JPG,"""",null,104,6,Cue,"""","""",11/25/2020 1:09,98.252.224.31,Mozilla/5.0 (Windows NT 10.0; Win64; x64; rv:68.0) Gecko/20100101 Firefox/68.0,,Firefox,68,Windows,10
5,1,null,"""",image-keyboard-response,35,49663,0.0-35.0,jspsych/neutralFaces/BF11NES.JPG,"""",null,100,6,backwardMask,"""","""",11/25/2020 1:09,98.252.224.31,Mozilla/5.0 (Windows NT 10.0; Win64; x64; rv:68.0) Gecko/20100101 Firefox/68.0,,Firefox,68,Windows,10
5,1,null,"""",html-keyboard-response,36,49864,0.0-36.0,"<div style=""font-size:60px;"">+</div>","""",null,200,6,fixationBtwnNeutralMaskAndPrompt,"""","""",11/25/2020 1:09,98.252.224.31,Mozilla/5.0 (Windows NT 10.0; Win64; x64; rv:68.0) Gecko/20100101 Firefox/68.0,,Firefox,68,Windows,10
5,1,692,"""",html-keyboard-response,37,50557,0.0-37.0,"<p> Did you see a disgust face? Press, <br></br> <b>0</b> if <i>no</i>, <br></br> <b>1</b> if <i>yes<i>","""",49,"""",6,Query,"""",1,11/25/2020 1:09,98.252.224.31,Mozilla/5.0 (Windows NT 10.0; Win64; x64; rv:68.0) Gecko/20100101 Firefox/68.0,,Firefox,68,Windows,10
5,1,null,"""",html-keyboard-response,38,51557,0.0-38.0,"<div style=""font-size:60px;"">+</div>","""",null,1000,7,ITI,"""","""",11/25/2020 1:09,98.252.224.31,Mozilla/5.0 (Windows NT 10.0; Win64; x64; rv:68.0) Gecko/20100101 Firefox/68.0,,Firefox,68,Windows,10
5,1,null,"""",image-keyboard-response,39,51808,0.0-39.0,jspsych/scrambledDisgustFaces/scrambledBM17DIS.JPG,"""",null,250,7,forwardMask,1,"""",11/25/2020 1:09,98.252.224.31,Mozilla/5.0 (Windows NT 10.0; Win64; x64; rv:68.0) Gecko/20100101 Firefox/68.0,,Firefox,68,Windows,10
5,1,null,"""",image-keyboard-response,40,51860,0.0-40.0,jspsych/disgustFaces/BM17DIS.JPG,"""",null,49,7,Cue,"""","""",11/25/2020 1:09,98.252.224.31,Mozilla/5.0 (Windows NT 10.0; Win64; x64; rv:68.0) Gecko/20100101 Firefox/68.0,,Firefox,68,Windows,10
5,1,null,"""",image-keyboard-response,41,51963,0.0-41.0,jspsych/neutralFaces/AF14NES.JPG,"""",null,100,7,backwardMask,"""","""",11/25/2020 1:09,98.252.224.31,Mozilla/5.0 (Windows NT 10.0; Win64; x64; rv:68.0) Gecko/20100101 Firefox/68.0,,Firefox,68,Windows,10
5,1,null,"""",html-keyboard-response,42,52165,0.0-42.0,"<div style=""font-size:60px;"">+</div>","""",null,200,7,fixationBtwnNeutralMaskAndPrompt,"""","""",11/25/2020 1:09,98.252.224.31,Mozilla/5.0 (Windows NT 10.0; Win64; x64; rv:68.0) Gecko/20100101 Firefox/68.0,,Firefox,68,Windows,10
5,1,2428,"""",html-keyboard-response,43,54593,0.0-43.0,"<p> Did you see a disgust face? Press, <br></br> <b>0</b> if <i>no</i>, <br></br> <b>1</b> if <i>yes<i>","""",49,"""",7,Query,"""",1,11/25/2020 1:09,98.252.224.31,Mozilla/5.0 (Windows NT 10.0; Win64; x64; rv:68.0) Gecko/20100101 Firefox/68.0,,Firefox,68,Windows,10
5,1,null,"""",html-keyboard-response,44,55596,0.0-44.0,"<div style=""font-size:60px;"">+</div>","""",null,1000,8,ITI,"""","""",11/25/2020 1:09,98.252.224.31,Mozilla/5.0 (Windows NT 10.0; Win64; x64; rv:68.0) Gecko/20100101 Firefox/68.0,,Firefox,68,Windows,10
5,1,null,"""",image-keyboard-response,45,55847,0.0-45.0,jspsych/scrambledNeutralFaces/scrambledBF24NES.JPG,"""",null,250,8,forwardMask,0,"""",11/25/2020 1:09,98.252.224.31,Mozilla/5.0 (Windows NT 10.0; Win64; x64; rv:68.0) Gecko/20100101 Firefox/68.0,,Firefox,68,Windows,10
5,1,null,"""",image-keyboard-response,46,55953,0.0-46.0,jspsych/neutralFaces/BF24NES.JPG,"""",null,104,8,Cue,"""","""",11/25/2020 1:09,98.252.224.31,Mozilla/5.0 (Windows NT 10.0; Win64; x64; rv:68.0) Gecko/20100101 Firefox/68.0,,Firefox,68,Windows,10
5,1,null,"""",image-keyboard-response,47,56055,0.0-47.0,jspsych/neutralFaces/AM29NES.JPG,"""",null,100,8,backwardMask,"""","""",11/25/2020 1:09,98.252.224.31,Mozilla/5.0 (Windows NT 10.0; Win64; x64; rv:68.0) Gecko/20100101 Firefox/68.0,,Firefox,68,Windows,10
5,1,null,"""",html-keyboard-response,48,56257,0.0-48.0,"<div style=""font-size:60px;"">+</div>","""",null,200,8,fixationBtwnNeutralMaskAndPrompt,"""","""",11/25/2020 1:09,98.252.224.31,Mozilla/5.0 (Windows NT 10.0; Win64; x64; rv:68.0) Gecko/20100101 Firefox/68.0,,Firefox,68,Windows,10
5,1,248,"""",html-keyboard-response,49,56506,0.0-49.0,"<p> Did you see a disgust face? Press, <br></br> <b>0</b> if <i>no</i>, <br></br> <b>1</b> if <i>yes<i>","""",48,"""",8,Query,"""",0,11/25/2020 1:09,98.252.224.31,Mozilla/5.0 (Windows NT 10.0; Win64; x64; rv:68.0) Gecko/20100101 Firefox/68.0,,Firefox,68,Windows,10
5,1,null,"""",html-keyboard-response,50,57508,0.0-50.0,"<div style=""font-size:60px;"">+</div>","""",null,1000,9,ITI,"""","""",11/25/2020 1:09,98.252.224.31,Mozilla/5.0 (Windows NT 10.0; Win64; x64; rv:68.0) Gecko/20100101 Firefox/68.0,,Firefox,68,Windows,10
5,1,null,"""",image-keyboard-response,51,57760,0.0-51.0,jspsych/scrambledDisgustFaces/scrambledAM13DIS.JPG,"""",null,250,9,forwardMask,1,"""",11/25/2020 1:09,98.252.224.31,Mozilla/5.0 (Windows NT 10.0; Win64; x64; rv:68.0) Gecko/20100101 Firefox/68.0,,Firefox,68,Windows,10
5,1,null,"""",image-keyboard-response,52,57843,0.0-52.0,jspsych/disgustFaces/AM13DIS.JPG,"""",null,82,9,Cue,"""","""",11/25/2020 1:09,98.252.224.31,Mozilla/5.0 (Windows NT 10.0; Win64; x64; rv:68.0) Gecko/20100101 Firefox/68.0,,Firefox,68,Windows,10
5,1,null,"""",image-keyboard-response,53,57945,0.0-53.0,jspsych/neutralFaces/BM09NES.JPG,"""",null,100,9,backwardMask,"""","""",11/25/2020 1:09,98.252.224.31,Mozilla/5.0 (Windows NT 10.0; Win64; x64; rv:68.0) Gecko/20100101 Firefox/68.0,,Firefox,68,Windows,10
5,1,null,"""",html-keyboard-response,54,58146,0.0-54.0,"<div style=""font-size:60px;"">+</div>","""",null,200,9,fixationBtwnNeutralMaskAndPrompt,"""","""",11/25/2020 1:09,98.252.224.31,Mozilla/5.0 (Windows NT 10.0; Win64; x64; rv:68.0) Gecko/20100101 Firefox/68.0,,Firefox,68,Windows,10
5,1,399,"""",html-keyboard-response,55,58545,0.0-55.0,"<p> Did you see a disgust face? Press, <br></br> <b>0</b> if <i>no</i>, <br></br> <b>1</b> if <i>yes<i>","""",49,"""",9,Query,"""",1,11/25/2020 1:09,98.252.224.31,Mozilla/5.0 (Windows NT 10.0; Win64; x64; rv:68.0) Gecko/20100101 Firefox/68.0,,Firefox,68,Windows,10
5,1,null,"""",html-keyboard-response,56,59547,0.0-56.0,"<div style=""font-size:60px;"">+</div>","""",null,1000,10,ITI,"""","""",11/25/2020 1:09,98.252.224.31,Mozilla/5.0 (Windows NT 10.0; Win64; x64; rv:68.0) Gecko/20100101 Firefox/68.0,,Firefox,68,Windows,10
5,1,null,"""",image-keyboard-response,57,59797,0.0-57.0,jspsych/scrambledNeutralFaces/scrambledBF03NES.JPG,"""",null,250,10,forwardMask,0,"""",11/25/2020 1:09,98.252.224.31,Mozilla/5.0 (Windows NT 10.0; Win64; x64; rv:68.0) Gecko/20100101 Firefox/68.0,,Firefox,68,Windows,10
5,1,null,"""",image-keyboard-response,58,59831,0.0-58.0,jspsych/neutralFaces/BF03NES.JPG,"""",null,33,10,Cue,"""","""",11/25/2020 1:09,98.252.224.31,Mozilla/5.0 (Windows NT 10.0; Win64; x64; rv:68.0) Gecko/20100101 Firefox/68.0,,Firefox,68,Windows,10
5,1,null,"""",image-keyboard-response,59,59933,0.0-59.0,jspsych/neutralFaces/BF35NES.JPG,"""",null,100,10,backwardMask,"""","""",11/25/2020 1:09,98.252.224.31,Mozilla/5.0 (Windows NT 10.0; Win64; x64; rv:68.0) Gecko/20100101 Firefox/68.0,,Firefox,68,Windows,10
5,1,null,"""",html-keyboard-response,60,60134,0.0-60.0,"<div style=""font-size:60px;"">+</div>","""",null,200,10,fixationBtwnNeutralMaskAndPrompt,"""","""",11/25/2020 1:09,98.252.224.31,Mozilla/5.0 (Windows NT 10.0; Win64; x64; rv:68.0) Gecko/20100101 Firefox/68.0,,Firefox,68,Windows,10
5,1,579,"""",html-keyboard-response,61,60714,0.0-61.0,"<p> Did you see a disgust face? Press, <br></br> <b>0</b> if <i>no</i>, <br></br> <b>1</b> if <i>yes<i>","""",48,"""",10,Query,"""",0,11/25/2020 1:09,98.252.224.31,Mozilla/5.0 (Windows NT 10.0; Win64; x64; rv:68.0) Gecko/20100101 Firefox/68.0,,Firefox,68,Windows,10
5,1,null,"""",html-keyboard-response,62,61716,0.0-62.0,"<div style=""font-size:60px;"">+</div>","""",null,1000,11,ITI,"""","""",11/25/2020 1:09,98.252.224.31,Mozilla/5.0 (Windows NT 10.0; Win64; x64; rv:68.0) Gecko/20100101 Firefox/68.0,,Firefox,68,Windows,10
5,1,null,"""",image-keyboard-response,63,61968,0.0-63.0,jspsych/scrambledDisgustFaces/scrambledBM28DIS.JPG,"""",null,250,11,forwardMask,1,"""",11/25/2020 1:09,98.252.224.31,Mozilla/5.0 (Windows NT 10.0; Win64; x64; rv:68.0) Gecko/20100101 Firefox/68.0,,Firefox,68,Windows,10
5,1,null,"""",image-keyboard-response,64,61985,0.0-64.0,jspsych/disgustFaces/BM28DIS.JPG,"""",null,16,11,Cue,"""","""",11/25/2020 1:09,98.252.224.31,Mozilla/5.0 (Windows NT 10.0; Win64; x64; rv:68.0) Gecko/20100101 Firefox/68.0,,Firefox,68,Windows,10
5,1,null,"""",image-keyboard-response,65,62086,0.0-65.0,jspsych/neutralFaces/BF12NES.JPG,"""",null,100,11,backwardMask,"""","""",11/25/2020 1:09,98.252.224.31,Mozilla/5.0 (Windows NT 10.0; Win64; x64; rv:68.0) Gecko/20100101 Firefox/68.0,,Firefox,68,Windows,10
5,1,null,"""",html-keyboard-response,66,62288,0.0-66.0,"<div style=""font-size:60px;"">+</div>","""",null,200,11,fixationBtwnNeutralMaskAndPrompt,"""","""",11/25/2020 1:09,98.252.224.31,Mozilla/5.0 (Windows NT 10.0; Win64; x64; rv:68.0) Gecko/20100101 Firefox/68.0,,Firefox,68,Windows,10
5,1,957,"""",html-keyboard-response,67,63246,0.0-67.0,"<p> Did you see a disgust face? Press, <br></br> <b>0</b> if <i>no</i>, <br></br> <b>1</b> if <i>yes<i>","""",48,"""",11,Query,"""",0,11/25/2020 1:09,98.252.224.31,Mozilla/5.0 (Windows NT 10.0; Win64; x64; rv:68.0) Gecko/20100101 Firefox/68.0,,Firefox,68,Windows,10
5,1,null,"""",html-keyboard-response,68,64247,0.0-68.0,"<div style=""font-size:60px;"">+</div>","""",null,1000,12,ITI,"""","""",11/25/2020 1:09,98.252.224.31,Mozilla/5.0 (Windows NT 10.0; Win64; x64; rv:68.0) Gecko/20100101 Firefox/68.0,,Firefox,68,Windows,10
5,1,null,"""",image-keyboard-response,69,64502,0.0-69.0,jspsych/scrambledDisgustFaces/scrambledAM03DIS.JPG,"""",null,250,12,forwardMask,1,"""",11/25/2020 1:09,98.252.224.31,Mozilla/5.0 (Windows NT 10.0; Win64; x64; rv:68.0) Gecko/20100101 Firefox/68.0,,Firefox,68,Windows,10
5,1,null,"""",image-keyboard-response,70,64585,0.0-70.0,jspsych/disgustFaces/AM03DIS.JPG,"""",null,82,12,Cue,"""","""",11/25/2020 1:09,98.252.224.31,Mozilla/5.0 (Windows NT 10.0; Win64; x64; rv:68.0) Gecko/20100101 Firefox/68.0,,Firefox,68,Windows,10
5,1,null,"""",image-keyboard-response,71,64685,0.0-71.0,jspsych/neutralFaces/BF19NES.JPG,"""",null,100,12,backwardMask,"""","""",11/25/2020 1:09,98.252.224.31,Mozilla/5.0 (Windows NT 10.0; Win64; x64; rv:68.0) Gecko/20100101 Firefox/68.0,,Firefox,68,Windows,10
5,1,null,"""",html-keyboard-response,72,64887,0.0-72.0,"<div style=""font-size:60px;"">+</div>","""",null,200,12,fixationBtwnNeutralMaskAndPrompt,"""","""",11/25/2020 1:09,98.252.224.31,Mozilla/5.0 (Windows NT 10.0; Win64; x64; rv:68.0) Gecko/20100101 Firefox/68.0,,Firefox,68,Windows,10
5,1,294,"""",html-keyboard-response,73,65181,0.0-73.0,"<p> Did you see a disgust face? Press, <br></br> <b>0</b> if <i>no</i>, <br></br> <b>1</b> if <i>yes<i>","""",49,"""",12,Query,"""",1,11/25/2020 1:09,98.252.224.31,Mozilla/5.0 (Windows NT 10.0; Win64; x64; rv:68.0) Gecko/20100101 Firefox/68.0,,Firefox,68,Windows,10
5,1,null,"""",html-keyboard-response,74,66181,0.0-74.0,"<div style=""font-size:60px;"">+</div>","""",null,1000,13,ITI,"""","""",11/25/2020 1:09,98.252.224.31,Mozilla/5.0 (Windows NT 10.0; Win64; x64; rv:68.0) Gecko/20100101 Firefox/68.0,,Firefox,68,Windows,10
5,1,null,"""",image-keyboard-response,75,66433,0.0-75.0,jspsych/scrambledDisgustFaces/scrambledBM30DIS.JPG,"""",null,250,13,forwardMask,1,"""",11/25/2020 1:09,98.252.224.31,Mozilla/5.0 (Windows NT 10.0; Win64; x64; rv:68.0) Gecko/20100101 Firefox/68.0,,Firefox,68,Windows,10
5,1,null,"""",image-keyboard-response,76,66500,0.0-76.0,jspsych/disgustFaces/BM30DIS.JPG,"""",null,66,13,Cue,"""","""",11/25/2020 1:09,98.252.224.31,Mozilla/5.0 (Windows NT 10.0; Win64; x64; rv:68.0) Gecko/20100101 Firefox/68.0,,Firefox,68,Windows,10
5,1,null,"""",image-keyboard-response,77,66602,0.0-77.0,jspsych/neutralFaces/BF02NES.JPG,"""",null,100,13,backwardMask,"""","""",11/25/2020 1:09,98.252.224.31,Mozilla/5.0 (Windows NT 10.0; Win64; x64; rv:68.0) Gecko/20100101 Firefox/68.0,,Firefox,68,Windows,10
5,1,null,"""",html-keyboard-response,78,66803,0.0-78.0,"<div style=""font-size:60px;"">+</div>","""",null,200,13,fixationBtwnNeutralMaskAndPrompt,"""","""",11/25/2020 1:09,98.252.224.31,Mozilla/5.0 (Windows NT 10.0; Win64; x64; rv:68.0) Gecko/20100101 Firefox/68.0,,Firefox,68,Windows,10
5,1,564,"""",html-keyboard-response,79,67369,0.0-79.0,"<p> Did you see a disgust face? Press, <br></br> <b>0</b> if <i>no</i>, <br></br> <b>1</b> if <i>yes<i>","""",48,"""",13,Query,"""",0,11/25/2020 1:09,98.252.224.31,Mozilla/5.0 (Windows NT 10.0; Win64; x64; rv:68.0) Gecko/20100101 Firefox/68.0,,Firefox,68,Windows,10
5,1,null,"""",html-keyboard-response,80,68370,0.0-80.0,"<div style=""font-size:60px;"">+</div>","""",null,1000,14,ITI,"""","""",11/25/2020 1:09,98.252.224.31,Mozilla/5.0 (Windows NT 10.0; Win64; x64; rv:68.0) Gecko/20100101 Firefox/68.0,,Firefox,68,Windows,10
5,1,null,"""",image-keyboard-response,81,68622,0.0-81.0,jspsych/scrambledDisgustFaces/scrambledAM10DIS.JPG,"""",null,250,14,forwardMask,1,"""",11/25/2020 1:09,98.252.224.31,Mozilla/5.0 (Windows NT 10.0; Win64; x64; rv:68.0) Gecko/20100101 Firefox/68.0,,Firefox,68,Windows,10
5,1,null,"""",image-keyboard-response,82,68690,0.0-82.0,jspsych/disgustFaces/AM10DIS.JPG,"""",null,66,14,Cue,"""","""",11/25/2020 1:09,98.252.224.31,Mozilla/5.0 (Windows NT 10.0; Win64; x64; rv:68.0) Gecko/20100101 Firefox/68.0,,Firefox,68,Windows,10
5,1,null,"""",image-keyboard-response,83,68790,0.0-83.0,jspsych/neutralFaces/BM27NES.JPG,"""",null,100,14,backwardMask,"""","""",11/25/2020 1:09,98.252.224.31,Mozilla/5.0 (Windows NT 10.0; Win64; x64; rv:68.0) Gecko/20100101 Firefox/68.0,,Firefox,68,Windows,10
5,1,null,"""",html-keyboard-response,84,68991,0.0-84.0,"<div style=""font-size:60px;"">+</div>","""",null,200,14,fixationBtwnNeutralMaskAndPrompt,"""","""",11/25/2020 1:09,98.252.224.31,Mozilla/5.0 (Windows NT 10.0; Win64; x64; rv:68.0) Gecko/20100101 Firefox/68.0,,Firefox,68,Windows,10
5,1,599,"""",html-keyboard-response,85,69591,0.0-85.0,"<p> Did you see a disgust face? Press, <br></br> <b>0</b> if <i>no</i>, <br></br> <b>1</b> if <i>yes<i>","""",49,"""",14,Query,"""",1,11/25/2020 1:09,98.252.224.31,Mozilla/5.0 (Windows NT 10.0; Win64; x64; rv:68.0) Gecko/20100101 Firefox/68.0,,Firefox,68,Windows,10
5,1,null,"""",html-keyboard-response,86,70593,0.0-86.0,"<div style=""font-size:60px;"">+</div>","""",null,1000,15,ITI,"""","""",11/25/2020 1:09,98.252.224.31,Mozilla/5.0 (Windows NT 10.0; Win64; x64; rv:68.0) Gecko/20100101 Firefox/68.0,,Firefox,68,Windows,10
5,1,null,"""",image-keyboard-response,87,70845,0.0-87.0,jspsych/scrambledNeutralFaces/scrambledAF30NES.JPG,"""",null,250,15,forwardMask,0,"""",11/25/2020 1:09,98.252.224.31,Mozilla/5.0 (Windows NT 10.0; Win64; x64; rv:68.0) Gecko/20100101 Firefox/68.0,,Firefox,68,Windows,10
5,1,null,"""",image-keyboard-response,88,70879,0.0-88.0,jspsych/neutralFaces/AF30NES.JPG,"""",null,33,15,Cue,"""","""",11/25/2020 1:09,98.252.224.31,Mozilla/5.0 (Windows NT 10.0; Win64; x64; rv:68.0) Gecko/20100101 Firefox/68.0,,Firefox,68,Windows,10
5,1,null,"""",image-keyboard-response,89,70981,0.0-89.0,jspsych/neutralFaces/BF06NES.JPG,"""",null,100,15,backwardMask,"""","""",11/25/2020 1:09,98.252.224.31,Mozilla/5.0 (Windows NT 10.0; Win64; x64; rv:68.0) Gecko/20100101 Firefox/68.0,,Firefox,68,Windows,10
5,1,null,"""",html-keyboard-response,90,71182,0.0-90.0,"<div style=""font-size:60px;"">+</div>","""",null,200,15,fixationBtwnNeutralMaskAndPrompt,"""","""",11/25/2020 1:09,98.252.224.31,Mozilla/5.0 (Windows NT 10.0; Win64; x64; rv:68.0) Gecko/20100101 Firefox/68.0,,Firefox,68,Windows,10
5,1,591,"""",html-keyboard-response,91,71772,0.0-91.0,"<p> Did you see a disgust face? Press, <br></br> <b>0</b> if <i>no</i>, <br></br> <b>1</b> if <i>yes<i>","""",48,"""",15,Query,"""",0,11/25/2020 1:09,98.252.224.31,Mozilla/5.0 (Windows NT 10.0; Win64; x64; rv:68.0) Gecko/20100101 Firefox/68.0,,Firefox,68,Windows,10
5,1,null,"""",html-keyboard-response,92,72773,0.0-92.0,"<div style=""font-size:60px;"">+</div>","""",null,1000,16,ITI,"""","""",11/25/2020 1:09,98.252.224.31,Mozilla/5.0 (Windows NT 10.0; Win64; x64; rv:68.0) Gecko/20100101 Firefox/68.0,,Firefox,68,Windows,10
5,1,null,"""",image-keyboard-response,93,73024,0.0-93.0,jspsych/scrambledNeutralFaces/scrambledBF29NES.JPG,"""",null,250,16,forwardMask,0,"""",11/25/2020 1:09,98.252.224.31,Mozilla/5.0 (Windows NT 10.0; Win64; x64; rv:68.0) Gecko/20100101 Firefox/68.0,,Firefox,68,Windows,10
5,1,null,"""",image-keyboard-response,94,73092,0.0-94.0,jspsych/neutralFaces/BF29NES.JPG,"""",null,66,16,Cue,"""","""",11/25/2020 1:09,98.252.224.31,Mozilla/5.0 (Windows NT 10.0; Win64; x64; rv:68.0) Gecko/20100101 Firefox/68.0,,Firefox,68,Windows,10
5,1,null,"""",image-keyboard-response,95,73193,0.0-95.0,jspsych/neutralFaces/AM07NES.JPG,"""",null,100,16,backwardMask,"""","""",11/25/2020 1:09,98.252.224.31,Mozilla/5.0 (Windows NT 10.0; Win64; x64; rv:68.0) Gecko/20100101 Firefox/68.0,,Firefox,68,Windows,10
5,1,null,"""",html-keyboard-response,96,73394,0.0-96.0,"<div style=""font-size:60px;"">+</div>","""",null,200,16,fixationBtwnNeutralMaskAndPrompt,"""","""",11/25/2020 1:09,98.252.224.31,Mozilla/5.0 (Windows NT 10.0; Win64; x64; rv:68.0) Gecko/20100101 Firefox/68.0,,Firefox,68,Windows,10
5,1,681,"""",html-keyboard-response,97,74077,0.0-97.0,"<p> Did you see a disgust face? Press, <br></br> <b>0</b> if <i>no</i>, <br></br> <b>1</b> if <i>yes<i>","""",48,"""",16,Query,"""",0,11/25/2020 1:09,98.252.224.31,Mozilla/5.0 (Windows NT 10.0; Win64; x64; rv:68.0) Gecko/20100101 Firefox/68.0,,Firefox,68,Windows,10
5,1,null,"""",html-keyboard-response,98,75078,0.0-98.0,"<div style=""font-size:60px;"">+</div>","""",null,1000,17,ITI,"""","""",11/25/2020 1:09,98.252.224.31,Mozilla/5.0 (Windows NT 10.0; Win64; x64; rv:68.0) Gecko/20100101 Firefox/68.0,,Firefox,68,Windows,10
5,1,null,"""",image-keyboard-response,99,75329,0.0-99.0,jspsych/scrambledNeutralFaces/scrambledAM03NES.JPG,"""",null,250,17,forwardMask,0,"""",11/25/2020 1:09,98.252.224.31,Mozilla/5.0 (Windows NT 10.0; Win64; x64; rv:68.0) Gecko/20100101 Firefox/68.0,,Firefox,68,Windows,10
5,1,null,"""",image-keyboard-response,100,75466,0.0-100.0,jspsych/neutralFaces/AM03NES.JPG,"""",null,136,17,Cue,"""","""",11/25/2020 1:09,98.252.224.31,Mozilla/5.0 (Windows NT 10.0; Win64; x64; rv:68.0) Gecko/20100101 Firefox/68.0,,Firefox,68,Windows,10
5,1,null,"""",image-keyboard-response,101,75568,0.0-101.0,jspsych/neutralFaces/BF01NES.JPG,"""",null,100,17,backwardMask,"""","""",11/25/2020 1:09,98.252.224.31,Mozilla/5.0 (Windows NT 10.0; Win64; x64; rv:68.0) Gecko/20100101 Firefox/68.0,,Firefox,68,Windows,10
5,1,null,"""",html-keyboard-response,102,75768,0.0-102.0,"<div style=""font-size:60px;"">+</div>","""",null,200,17,fixationBtwnNeutralMaskAndPrompt,"""","""",11/25/2020 1:09,98.252.224.31,Mozilla/5.0 (Windows NT 10.0; Win64; x64; rv:68.0) Gecko/20100101 Firefox/68.0,,Firefox,68,Windows,10
5,1,526,"""",html-keyboard-response,103,76296,0.0-103.0,"<p> Did you see a disgust face? Press, <br></br> <b>0</b> if <i>no</i>, <br></br> <b>1</b> if <i>yes<i>","""",48,"""",17,Query,"""",0,11/25/2020 1:09,98.252.224.31,Mozilla/5.0 (Windows NT 10.0; Win64; x64; rv:68.0) Gecko/20100101 Firefox/68.0,,Firefox,68,Windows,10
5,1,null,"""",html-keyboard-response,104,77299,0.0-104.0,"<div style=""font-size:60px;"">+</div>","""",null,1000,18,ITI,"""","""",11/25/2020 1:09,98.252.224.31,Mozilla/5.0 (Windows NT 10.0; Win64; x64; rv:68.0) Gecko/20100101 Firefox/68.0,,Firefox,68,Windows,10
5,1,null,"""",image-keyboard-response,105,77550,0.0-105.0,jspsych/scrambledNeutralFaces/scrambledAM15NES.JPG,"""",null,250,18,forwardMask,0,"""",11/25/2020 1:09,98.252.224.31,Mozilla/5.0 (Windows NT 10.0; Win64; x64; rv:68.0) Gecko/20100101 Firefox/68.0,,Firefox,68,Windows,10
5,1,null,"""",image-keyboard-response,106,77688,0.0-106.0,jspsych/neutralFaces/AM15NES.JPG,"""",null,136,18,Cue,"""","""",11/25/2020 1:09,98.252.224.31,Mozilla/5.0 (Windows NT 10.0; Win64; x64; rv:68.0) Gecko/20100101 Firefox/68.0,,Firefox,68,Windows,10
5,1,null,"""",image-keyboard-response,107,77790,0.0-107.0,jspsych/neutralFaces/AM05NES.JPG,"""",null,100,18,backwardMask,"""","""",11/25/2020 1:09,98.252.224.31,Mozilla/5.0 (Windows NT 10.0; Win64; x64; rv:68.0) Gecko/20100101 Firefox/68.0,,Firefox,68,Windows,10
5,1,null,"""",html-keyboard-response,108,77991,0.0-108.0,"<div style=""font-size:60px;"">+</div>","""",null,200,18,fixationBtwnNeutralMaskAndPrompt,"""","""",11/25/2020 1:09,98.252.224.31,Mozilla/5.0 (Windows NT 10.0; Win64; x64; rv:68.0) Gecko/20100101 Firefox/68.0,,Firefox,68,Windows,10
5,1,1194,"""",html-keyboard-response,109,79185,0.0-109.0,"<p> Did you see a disgust face? Press, <br></br> <b>0</b> if <i>no</i>, <br></br> <b>1</b> if <i>yes<i>","""",48,"""",18,Query,"""",0,11/25/2020 1:09,98.252.224.31,Mozilla/5.0 (Windows NT 10.0; Win64; x64; rv:68.0) Gecko/20100101 Firefox/68.0,,Firefox,68,Windows,10
5,1,null,"""",html-keyboard-response,110,80188,0.0-110.0,"<div style=""font-size:60px;"">+</div>","""",null,1000,19,ITI,"""","""",11/25/2020 1:09,98.252.224.31,Mozilla/5.0 (Windows NT 10.0; Win64; x64; rv:68.0) Gecko/20100101 Firefox/68.0,,Firefox,68,Windows,10
5,1,null,"""",image-keyboard-response,111,80441,0.0-111.0,jspsych/scrambledNeutralFaces/scrambledBF20NES.JPG,"""",null,250,19,forwardMask,0,"""",11/25/2020 1:09,98.252.224.31,Mozilla/5.0 (Windows NT 10.0; Win64; x64; rv:68.0) Gecko/20100101 Firefox/68.0,,Firefox,68,Windows,10
5,1,null,"""",image-keyboard-response,112,80490,0.0-112.0,jspsych/neutralFaces/BF20NES.JPG,"""",null,49,19,Cue,"""","""",11/25/2020 1:09,98.252.224.31,Mozilla/5.0 (Windows NT 10.0; Win64; x64; rv:68.0) Gecko/20100101 Firefox/68.0,,Firefox,68,Windows,10
5,1,null,"""",image-keyboard-response,113,80590,0.0-113.0,jspsych/neutralFaces/AF22NES.JPG,"""",null,100,19,backwardMask,"""","""",11/25/2020 1:09,98.252.224.31,Mozilla/5.0 (Windows NT 10.0; Win64; x64; rv:68.0) Gecko/20100101 Firefox/68.0,,Firefox,68,Windows,10
5,1,null,"""",html-keyboard-response,114,80791,0.0-114.0,"<div style=""font-size:60px;"">+</div>","""",null,200,19,fixationBtwnNeutralMaskAndPrompt,"""","""",11/25/2020 1:09,98.252.224.31,Mozilla/5.0 (Windows NT 10.0; Win64; x64; rv:68.0) Gecko/20100101 Firefox/68.0,,Firefox,68,Windows,10
5,1,499,"""",html-keyboard-response,115,81290,0.0-115.0,"<p> Did you see a disgust face? Press, <br></br> <b>0</b> if <i>no</i>, <br></br> <b>1</b> if <i>yes<i>","""",48,"""",19,Query,"""",0,11/25/2020 1:09,98.252.224.31,Mozilla/5.0 (Windows NT 10.0; Win64; x64; rv:68.0) Gecko/20100101 Firefox/68.0,,Firefox,68,Windows,10
5,1,null,"""",html-keyboard-response,116,82291,0.0-116.0,"<div style=""font-size:60px;"">+</div>","""",null,1000,20,ITI,"""","""",11/25/2020 1:09,98.252.224.31,Mozilla/5.0 (Windows NT 10.0; Win64; x64; rv:68.0) Gecko/20100101 Firefox/68.0,,Firefox,68,Windows,10
5,1,null,"""",image-keyboard-response,117,82544,0.0-117.0,jspsych/scrambledDisgustFaces/scrambledBF31DIS.JPG,"""",null,250,20,forwardMask,1,"""",11/25/2020 1:09,98.252.224.31,Mozilla/5.0 (Windows NT 10.0; Win64; x64; rv:68.0) Gecko/20100101 Firefox/68.0,,Firefox,68,Windows,10
5,1,null,"""",image-keyboard-response,118,82613,0.0-118.0,jspsych/disgustFaces/BF31DIS.JPG,"""",null,66,20,Cue,"""","""",11/25/2020 1:09,98.252.224.31,Mozilla/5.0 (Windows NT 10.0; Win64; x64; rv:68.0) Gecko/20100101 Firefox/68.0,,Firefox,68,Windows,10
5,1,null,"""",image-keyboard-response,119,82714,0.0-119.0,jspsych/neutralFaces/BM27NES.JPG,"""",null,100,20,backwardMask,"""","""",11/25/2020 1:09,98.252.224.31,Mozilla/5.0 (Windows NT 10.0; Win64; x64; rv:68.0) Gecko/20100101 Firefox/68.0,,Firefox,68,Windows,10
5,1,null,"""",html-keyboard-response,120,82915,0.0-120.0,"<div style=""font-size:60px;"">+</div>","""",null,200,20,fixationBtwnNeutralMaskAndPrompt,"""","""",11/25/2020 1:09,98.252.224.31,Mozilla/5.0 (Windows NT 10.0; Win64; x64; rv:68.0) Gecko/20100101 Firefox/68.0,,Firefox,68,Windows,10
5,1,488,"""",html-keyboard-response,121,83404,0.0-121.0,"<p> Did you see a disgust face? Press, <br></br> <b>0</b> if <i>no</i>, <br></br> <b>1</b> if <i>yes<i>","""",49,"""",20,Query,"""",1,11/25/2020 1:09,98.252.224.31,Mozilla/5.0 (Windows NT 10.0; Win64; x64; rv:68.0) Gecko/20100101 Firefox/68.0,,Firefox,68,Windows,10
5,1,null,"""",html-keyboard-response,122,84405,0.0-122.0,"<div style=""font-size:60px;"">+</div>","""",null,1000,21,ITI,"""","""",11/25/2020 1:09,98.252.224.31,Mozilla/5.0 (Windows NT 10.0; Win64; x64; rv:68.0) Gecko/20100101 Firefox/68.0,,Firefox,68,Windows,10
5,1,null,"""",image-keyboard-response,123,84656,0.0-123.0,jspsych/scrambledDisgustFaces/scrambledAF03DIS.JPG,"""",null,250,21,forwardMask,1,"""",11/25/2020 1:09,98.252.224.31,Mozilla/5.0 (Windows NT 10.0; Win64; x64; rv:68.0) Gecko/20100101 Firefox/68.0,,Firefox,68,Windows,10
5,1,null,"""",image-keyboard-response,124,84674,0.0-124.0,jspsych/disgustFaces/AF03DIS.JPG,"""",null,16,21,Cue,"""","""",11/25/2020 1:09,98.252.224.31,Mozilla/5.0 (Windows NT 10.0; Win64; x64; rv:68.0) Gecko/20100101 Firefox/68.0,,Firefox,68,Windows,10
5,1,null,"""",image-keyboard-response,125,84775,0.0-125.0,jspsych/neutralFaces/AF29NES.JPG,"""",null,100,21,backwardMask,"""","""",11/25/2020 1:09,98.252.224.31,Mozilla/5.0 (Windows NT 10.0; Win64; x64; rv:68.0) Gecko/20100101 Firefox/68.0,,Firefox,68,Windows,10
5,1,null,"""",html-keyboard-response,126,84976,0.0-126.0,"<div style=""font-size:60px;"">+</div>","""",null,200,21,fixationBtwnNeutralMaskAndPrompt,"""","""",11/25/2020 1:09,98.252.224.31,Mozilla/5.0 (Windows NT 10.0; Win64; x64; rv:68.0) Gecko/20100101 Firefox/68.0,,Firefox,68,Windows,10
5,1,530,"""",html-keyboard-response,127,85509,0.0-127.0,"<p> Did you see a disgust face? Press, <br></br> <b>0</b> if <i>no</i>, <br></br> <b>1</b> if <i>yes<i>","""",48,"""",21,Query,"""",0,11/25/2020 1:09,98.252.224.31,Mozilla/5.0 (Windows NT 10.0; Win64; x64; rv:68.0) Gecko/20100101 Firefox/68.0,,Firefox,68,Windows,10
5,1,null,"""",html-keyboard-response,128,86510,0.0-128.0,"<div style=""font-size:60px;"">+</div>","""",null,1000,22,ITI,"""","""",11/25/2020 1:09,98.252.224.31,Mozilla/5.0 (Windows NT 10.0; Win64; x64; rv:68.0) Gecko/20100101 Firefox/68.0,,Firefox,68,Windows,10
5,1,null,"""",image-keyboard-response,129,86761,0.0-129.0,jspsych/scrambledDisgustFaces/scrambledBM08DIS.JPG,"""",null,250,22,forwardMask,1,"""",11/25/2020 1:09,98.252.224.31,Mozilla/5.0 (Windows NT 10.0; Win64; x64; rv:68.0) Gecko/20100101 Firefox/68.0,,Firefox,68,Windows,10
5,1,null,"""",image-keyboard-response,130,86813,0.0-130.0,jspsych/disgustFaces/BM08DIS.JPG,"""",null,49,22,Cue,"""","""",11/25/2020 1:09,98.252.224.31,Mozilla/5.0 (Windows NT 10.0; Win64; x64; rv:68.0) Gecko/20100101 Firefox/68.0,,Firefox,68,Windows,10
5,1,null,"""",image-keyboard-response,131,86913,0.0-131.0,jspsych/neutralFaces/AM29NES.JPG,"""",null,100,22,backwardMask,"""","""",11/25/2020 1:09,98.252.224.31,Mozilla/5.0 (Windows NT 10.0; Win64; x64; rv:68.0) Gecko/20100101 Firefox/68.0,,Firefox,68,Windows,10
5,1,null,"""",html-keyboard-response,132,87115,0.0-132.0,"<div style=""font-size:60px;"">+</div>","""",null,200,22,fixationBtwnNeutralMaskAndPrompt,"""","""",11/25/2020 1:09,98.252.224.31,Mozilla/5.0 (Windows NT 10.0; Win64; x64; rv:68.0) Gecko/20100101 Firefox/68.0,,Firefox,68,Windows,10
5,1,352,"""",html-keyboard-response,133,87469,0.0-133.0,"<p> Did you see a disgust face? Press, <br></br> <b>0</b> if <i>no</i>, <br></br> <b>1</b> if <i>yes<i>","""",48,"""",22,Query,"""",0,11/25/2020 1:09,98.252.224.31,Mozilla/5.0 (Windows NT 10.0; Win64; x64; rv:68.0) Gecko/20100101 Firefox/68.0,,Firefox,68,Windows,10
5,1,null,"""",html-keyboard-response,134,88470,0.0-134.0,"<div style=""font-size:60px;"">+</div>","""",null,1000,23,ITI,"""","""",11/25/2020 1:09,98.252.224.31,Mozilla/5.0 (Windows NT 10.0; Win64; x64; rv:68.0) Gecko/20100101 Firefox/68.0,,Firefox,68,Windows,10
5,1,null,"""",image-keyboard-response,135,88725,0.0-135.0,jspsych/scrambledDisgustFaces/scrambledAM16DIS.JPG,"""",null,250,23,forwardMask,1,"""",11/25/2020 1:09,98.252.224.31,Mozilla/5.0 (Windows NT 10.0; Win64; x64; rv:68.0) Gecko/20100101 Firefox/68.0,,Firefox,68,Windows,10
5,1,null,"""",image-keyboard-response,136,88792,0.0-136.0,jspsych/disgustFaces/AM16DIS.JPG,"""",null,66,23,Cue,"""","""",11/25/2020 1:09,98.252.224.31,Mozilla/5.0 (Windows NT 10.0; Win64; x64; rv:68.0) Gecko/20100101 Firefox/68.0,,Firefox,68,Windows,10
5,1,null,"""",image-keyboard-response,137,88892,0.0-137.0,jspsych/neutralFaces/BF12NES.JPG,"""",null,100,23,backwardMask,"""","""",11/25/2020 1:09,98.252.224.31,Mozilla/5.0 (Windows NT 10.0; Win64; x64; rv:68.0) Gecko/20100101 Firefox/68.0,,Firefox,68,Windows,10
5,1,null,"""",html-keyboard-response,138,89094,0.0-138.0,"<div style=""font-size:60px;"">+</div>","""",null,200,23,fixationBtwnNeutralMaskAndPrompt,"""","""",11/25/2020 1:09,98.252.224.31,Mozilla/5.0 (Windows NT 10.0; Win64; x64; rv:68.0) Gecko/20100101 Firefox/68.0,,Firefox,68,Windows,10
5,1,3537,"""",html-keyboard-response,139,92630,0.0-139.0,"<p> Did you see a disgust face? Press, <br></br> <b>0</b> if <i>no</i>, <br></br> <b>1</b> if <i>yes<i>","""",49,"""",23,Query,"""",1,11/25/2020 1:09,98.252.224.31,Mozilla/5.0 (Windows NT 10.0; Win64; x64; rv:68.0) Gecko/20100101 Firefox/68.0,,Firefox,68,Windows,10
5,1,null,"""",html-keyboard-response,140,93633,0.0-140.0,"<div style=""font-size:60px;"">+</div>","""",null,1000,24,ITI,"""","""",11/25/2020 1:09,98.252.224.31,Mozilla/5.0 (Windows NT 10.0; Win64; x64; rv:68.0) Gecko/20100101 Firefox/68.0,,Firefox,68,Windows,10
5,1,null,"""",image-keyboard-response,141,93885,0.0-141.0,jspsych/scrambledNeutralFaces/scrambledAF29NES.JPG,"""",null,250,24,forwardMask,0,"""",11/25/2020 1:09,98.252.224.31,Mozilla/5.0 (Windows NT 10.0; Win64; x64; rv:68.0) Gecko/20100101 Firefox/68.0,,Firefox,68,Windows,10
5,1,null,"""",image-keyboard-response,142,94024,0.0-142.0,jspsych/neutralFaces/AF29NES.JPG,"""",null,136,24,Cue,"""","""",11/25/2020 1:09,98.252.224.31,Mozilla/5.0 (Windows NT 10.0; Win64; x64; rv:68.0) Gecko/20100101 Firefox/68.0,,Firefox,68,Windows,10
5,1,null,"""",image-keyboard-response,143,94125,0.0-143.0,jspsych/neutralFaces/BF04NES.JPG,"""",null,100,24,backwardMask,"""","""",11/25/2020 1:09,98.252.224.31,Mozilla/5.0 (Windows NT 10.0; Win64; x64; rv:68.0) Gecko/20100101 Firefox/68.0,,Firefox,68,Windows,10
5,1,null,"""",html-keyboard-response,144,94326,0.0-144.0,"<div style=""font-size:60px;"">+</div>","""",null,200,24,fixationBtwnNeutralMaskAndPrompt,"""","""",11/25/2020 1:09,98.252.224.31,Mozilla/5.0 (Windows NT 10.0; Win64; x64; rv:68.0) Gecko/20100101 Firefox/68.0,,Firefox,68,Windows,10
5,1,181,"""",html-keyboard-response,145,94508,0.0-145.0,"<p> Did you see a disgust face? Press, <br></br> <b>0</b> if <i>no</i>, <br></br> <b>1</b> if <i>yes<i>","""",48,"""",24,Query,"""",0,11/25/2020 1:09,98.252.224.31,Mozilla/5.0 (Windows NT 10.0; Win64; x64; rv:68.0) Gecko/20100101 Firefox/68.0,,Firefox,68,Windows,10
5,1,null,"""",html-keyboard-response,146,95510,0.0-146.0,"<div style=""font-size:60px;"">+</div>","""",null,1000,25,ITI,"""","""",11/25/2020 1:09,98.252.224.31,Mozilla/5.0 (Windows NT 10.0; Win64; x64; rv:68.0) Gecko/20100101 Firefox/68.0,,Firefox,68,Windows,10
5,1,null,"""",image-keyboard-response,147,95765,0.0-147.0,jspsych/scrambledNeutralFaces/scrambledBM33NES.JPG,"""",null,250,25,forwardMask,0,"""",11/25/2020 1:09,98.252.224.31,Mozilla/5.0 (Windows NT 10.0; Win64; x64; rv:68.0) Gecko/20100101 Firefox/68.0,,Firefox,68,Windows,10
5,1,null,"""",image-keyboard-response,148,95798,0.0-148.0,jspsych/neutralFaces/BM33NES.JPG,"""",null,33,25,Cue,"""","""",11/25/2020 1:09,98.252.224.31,Mozilla/5.0 (Windows NT 10.0; Win64; x64; rv:68.0) Gecko/20100101 Firefox/68.0,,Firefox,68,Windows,10
5,1,null,"""",image-keyboard-response,149,95900,0.0-149.0,jspsych/neutralFaces/AF14NES.JPG,"""",null,100,25,backwardMask,"""","""",11/25/2020 1:09,98.252.224.31,Mozilla/5.0 (Windows NT 10.0; Win64; x64; rv:68.0) Gecko/20100101 Firefox/68.0,,Firefox,68,Windows,10
5,1,null,"""",html-keyboard-response,150,96101,0.0-150.0,"<div style=""font-size:60px;"">+</div>","""",null,200,25,fixationBtwnNeutralMaskAndPrompt,"""","""",11/25/2020 1:09,98.252.224.31,Mozilla/5.0 (Windows NT 10.0; Win64; x64; rv:68.0) Gecko/20100101 Firefox/68.0,,Firefox,68,Windows,10
5,1,275,"""",html-keyboard-response,151,96378,0.0-151.0,"<p> Did you see a disgust face? Press, <br></br> <b>0</b> if <i>no</i>, <br></br> <b>1</b> if <i>yes<i>","""",48,"""",25,Query,"""",0,11/25/2020 1:09,98.252.224.31,Mozilla/5.0 (Windows NT 10.0; Win64; x64; rv:68.0) Gecko/20100101 Firefox/68.0,,Firefox,68,Windows,10
5,1,null,"""",html-keyboard-response,152,97379,0.0-152.0,"<div style=""font-size:60px;"">+</div>","""",null,1000,26,ITI,"""","""",11/25/2020 1:09,98.252.224.31,Mozilla/5.0 (Windows NT 10.0; Win64; x64; rv:68.0) Gecko/20100101 Firefox/68.0,,Firefox,68,Windows,10
5,1,null,"""",image-keyboard-response,153,97631,0.0-153.0,jspsych/scrambledNeutralFaces/scrambledBF19NES.JPG,"""",null,250,26,forwardMask,0,"""",11/25/2020 1:09,98.252.224.31,Mozilla/5.0 (Windows NT 10.0; Win64; x64; rv:68.0) Gecko/20100101 Firefox/68.0,,Firefox,68,Windows,10
5,1,null,"""",image-keyboard-response,154,97715,0.0-154.0,jspsych/neutralFaces/BF19NES.JPG,"""",null,82,26,Cue,"""","""",11/25/2020 1:09,98.252.224.31,Mozilla/5.0 (Windows NT 10.0; Win64; x64; rv:68.0) Gecko/20100101 Firefox/68.0,,Firefox,68,Windows,10
5,1,null,"""",image-keyboard-response,155,97816,0.0-155.0,jspsych/neutralFaces/BF23NES.JPG,"""",null,100,26,backwardMask,"""","""",11/25/2020 1:09,98.252.224.31,Mozilla/5.0 (Windows NT 10.0; Win64; x64; rv:68.0) Gecko/20100101 Firefox/68.0,,Firefox,68,Windows,10
5,1,null,"""",html-keyboard-response,156,98017,0.0-156.0,"<div style=""font-size:60px;"">+</div>","""",null,200,26,fixationBtwnNeutralMaskAndPrompt,"""","""",11/25/2020 1:09,98.252.224.31,Mozilla/5.0 (Windows NT 10.0; Win64; x64; rv:68.0) Gecko/20100101 Firefox/68.0,,Firefox,68,Windows,10
5,1,15856,"""",html-keyboard-response,157,113874,0.0-157.0,"<p> Did you see a disgust face? Press, <br></br> <b>0</b> if <i>no</i>, <br></br> <b>1</b> if <i>yes<i>","""",48,"""",26,Query,"""",0,11/25/2020 1:09,98.252.224.31,Mozilla/5.0 (Windows NT 10.0; Win64; x64; rv:68.0) Gecko/20100101 Firefox/68.0,,Firefox,68,Windows,10
5,1,null,"""",html-keyboard-response,158,114877,0.0-158.0,"<div style=""font-size:60px;"">+</div>","""",null,1000,27,ITI,"""","""",11/25/2020 1:09,98.252.224.31,Mozilla/5.0 (Windows NT 10.0; Win64; x64; rv:68.0) Gecko/20100101 Firefox/68.0,,Firefox,68,Windows,10
5,1,null,"""",image-keyboard-response,159,115128,0.0-159.0,jspsych/scrambledNeutralFaces/scrambledBM11NES.JPG,"""",null,250,27,forwardMask,0,"""",11/25/2020 1:09,98.252.224.31,Mozilla/5.0 (Windows NT 10.0; Win64; x64; rv:68.0) Gecko/20100101 Firefox/68.0,,Firefox,68,Windows,10
5,1,null,"""",image-keyboard-response,160,115265,0.0-160.0,jspsych/neutralFaces/BM11NES.JPG,"""",null,136,27,Cue,"""","""",11/25/2020 1:09,98.252.224.31,Mozilla/5.0 (Windows NT 10.0; Win64; x64; rv:68.0) Gecko/20100101 Firefox/68.0,,Firefox,68,Windows,10
5,1,null,"""",image-keyboard-response,161,115368,0.0-161.0,jspsych/neutralFaces/BM35NES.JPG,"""",null,100,27,backwardMask,"""","""",11/25/2020 1:09,98.252.224.31,Mozilla/5.0 (Windows NT 10.0; Win64; x64; rv:68.0) Gecko/20100101 Firefox/68.0,,Firefox,68,Windows,10
5,1,null,"""",html-keyboard-response,162,115568,0.0-162.0,"<div style=""font-size:60px;"">+</div>","""",null,200,27,fixationBtwnNeutralMaskAndPrompt,"""","""",11/25/2020 1:09,98.252.224.31,Mozilla/5.0 (Windows NT 10.0; Win64; x64; rv:68.0) Gecko/20100101 Firefox/68.0,,Firefox,68,Windows,10
5,1,201,"""",html-keyboard-response,163,115770,0.0-163.0,"<p> Did you see a disgust face? Press, <br></br> <b>0</b> if <i>no</i>, <br></br> <b>1</b> if <i>yes<i>","""",48,"""",27,Query,"""",0,11/25/2020 1:09,98.252.224.31,Mozilla/5.0 (Windows NT 10.0; Win64; x64; rv:68.0) Gecko/20100101 Firefox/68.0,,Firefox,68,Windows,10
5,1,null,"""",html-keyboard-response,164,116770,0.0-164.0,"<div style=""font-size:60px;"">+</div>","""",null,1000,28,ITI,"""","""",11/25/2020 1:09,98.252.224.31,Mozilla/5.0 (Windows NT 10.0; Win64; x64; rv:68.0) Gecko/20100101 Firefox/68.0,,Firefox,68,Windows,10
5,1,null,"""",image-keyboard-response,165,117021,0.0-165.0,jspsych/scrambledNeutralFaces/scrambledBF18NES.JPG,"""",null,250,28,forwardMask,0,"""",11/25/2020 1:09,98.252.224.31,Mozilla/5.0 (Windows NT 10.0; Win64; x64; rv:68.0) Gecko/20100101 Firefox/68.0,,Firefox,68,Windows,10
5,1,null,"""",image-keyboard-response,166,117107,0.0-166.0,jspsych/neutralFaces/BF18NES.JPG,"""",null,82,28,Cue,"""","""",11/25/2020 1:09,98.252.224.31,Mozilla/5.0 (Windows NT 10.0; Win64; x64; rv:68.0) Gecko/20100101 Firefox/68.0,,Firefox,68,Windows,10
5,1,null,"""",image-keyboard-response,167,117208,0.0-167.0,jspsych/neutralFaces/BF33NES.JPG,"""",null,100,28,backwardMask,"""","""",11/25/2020 1:09,98.252.224.31,Mozilla/5.0 (Windows NT 10.0; Win64; x64; rv:68.0) Gecko/20100101 Firefox/68.0,,Firefox,68,Windows,10
5,1,null,"""",html-keyboard-response,168,117408,0.0-168.0,"<div style=""font-size:60px;"">+</div>","""",null,200,28,fixationBtwnNeutralMaskAndPrompt,"""","""",11/25/2020 1:09,98.252.224.31,Mozilla/5.0 (Windows NT 10.0; Win64; x64; rv:68.0) Gecko/20100101 Firefox/68.0,,Firefox,68,Windows,10
5,1,247,"""",html-keyboard-response,169,117656,0.0-169.0,"<p> Did you see a disgust face? Press, <br></br> <b>0</b> if <i>no</i>, <br></br> <b>1</b> if <i>yes<i>","""",48,"""",28,Query,"""",0,11/25/2020 1:09,98.252.224.31,Mozilla/5.0 (Windows NT 10.0; Win64; x64; rv:68.0) Gecko/20100101 Firefox/68.0,,Firefox,68,Windows,10
5,1,null,"""",html-keyboard-response,170,118656,0.0-170.0,"<div style=""font-size:60px;"">+</div>","""",null,1000,29,ITI,"""","""",11/25/2020 1:09,98.252.224.31,Mozilla/5.0 (Windows NT 10.0; Win64; x64; rv:68.0) Gecko/20100101 Firefox/68.0,,Firefox,68,Windows,10
5,1,null,"""",image-keyboard-response,171,118907,0.0-171.0,jspsych/scrambledNeutralFaces/scrambledAF18NES.JPG,"""",null,250,29,forwardMask,0,"""",11/25/2020 1:09,98.252.224.31,Mozilla/5.0 (Windows NT 10.0; Win64; x64; rv:68.0) Gecko/20100101 Firefox/68.0,,Firefox,68,Windows,10
5,1,null,"""",image-keyboard-response,172,118924,0.0-172.0,jspsych/neutralFaces/AF18NES.JPG,"""",null,16,29,Cue,"""","""",11/25/2020 1:09,98.252.224.31,Mozilla/5.0 (Windows NT 10.0; Win64; x64; rv:68.0) Gecko/20100101 Firefox/68.0,,Firefox,68,Windows,10
5,1,null,"""",image-keyboard-response,173,119025,0.0-173.0,jspsych/neutralFaces/AM25NES.JPG,"""",null,100,29,backwardMask,"""","""",11/25/2020 1:09,98.252.224.31,Mozilla/5.0 (Windows NT 10.0; Win64; x64; rv:68.0) Gecko/20100101 Firefox/68.0,,Firefox,68,Windows,10
5,1,null,"""",html-keyboard-response,174,119226,0.0-174.0,"<div style=""font-size:60px;"">+</div>","""",null,200,29,fixationBtwnNeutralMaskAndPrompt,"""","""",11/25/2020 1:09,98.252.224.31,Mozilla/5.0 (Windows NT 10.0; Win64; x64; rv:68.0) Gecko/20100101 Firefox/68.0,,Firefox,68,Windows,10
5,1,332,"""",html-keyboard-response,175,119558,0.0-175.0,"<p> Did you see a disgust face? Press, <br></br> <b>0</b> if <i>no</i>, <br></br> <b>1</b> if <i>yes<i>","""",48,"""",29,Query,"""",0,11/25/2020 1:09,98.252.224.31,Mozilla/5.0 (Windows NT 10.0; Win64; x64; rv:68.0) Gecko/20100101 Firefox/68.0,,Firefox,68,Windows,10
5,1,null,"""",html-keyboard-response,176,120558,0.0-176.0,"<div style=""font-size:60px;"">+</div>","""",null,1000,30,ITI,"""","""",11/25/2020 1:09,98.252.224.31,Mozilla/5.0 (Windows NT 10.0; Win64; x64; rv:68.0) Gecko/20100101 Firefox/68.0,,Firefox,68,Windows,10
5,1,null,"""",image-keyboard-response,177,120812,0.0-177.0,jspsych/scrambledNeutralFaces/scrambledAM14NES.JPG,"""",null,250,30,forwardMask,0,"""",11/25/2020 1:09,98.252.224.31,Mozilla/5.0 (Windows NT 10.0; Win64; x64; rv:68.0) Gecko/20100101 Firefox/68.0,,Firefox,68,Windows,10
5,1,null,"""",image-keyboard-response,178,120829,0.0-178.0,jspsych/neutralFaces/AM14NES.JPG,"""",null,16,30,Cue,"""","""",11/25/2020 1:09,98.252.224.31,Mozilla/5.0 (Windows NT 10.0; Win64; x64; rv:68.0) Gecko/20100101 Firefox/68.0,,Firefox,68,Windows,10
5,1,null,"""",image-keyboard-response,179,120929,0.0-179.0,jspsych/neutralFaces/AF09NES.JPG,"""",null,100,30,backwardMask,"""","""",11/25/2020 1:09,98.252.224.31,Mozilla/5.0 (Windows NT 10.0; Win64; x64; rv:68.0) Gecko/20100101 Firefox/68.0,,Firefox,68,Windows,10
5,1,null,"""",html-keyboard-response,180,121131,0.0-180.0,"<div style=""font-size:60px;"">+</div>","""",null,200,30,fixationBtwnNeutralMaskAndPrompt,"""","""",11/25/2020 1:09,98.252.224.31,Mozilla/5.0 (Windows NT 10.0; Win64; x64; rv:68.0) Gecko/20100101 Firefox/68.0,,Firefox,68,Windows,10
5,1,327,"""",html-keyboard-response,181,121459,0.0-181.0,"<p> Did you see a disgust face? Press, <br></br> <b>0</b> if <i>no</i>, <br></br> <b>1</b> if <i>yes<i>","""",48,"""",30,Query,"""",0,11/25/2020 1:09,98.252.224.31,Mozilla/5.0 (Windows NT 10.0; Win64; x64; rv:68.0) Gecko/20100101 Firefox/68.0,,Firefox,68,Windows,10
5,1,null,"""",html-keyboard-response,182,122461,0.0-182.0,"<div style=""font-size:60px;"">+</div>","""",null,1000,31,ITI,"""","""",11/25/2020 1:09,98.252.224.31,Mozilla/5.0 (Windows NT 10.0; Win64; x64; rv:68.0) Gecko/20100101 Firefox/68.0,,Firefox,68,Windows,10
5,1,null,"""",image-keyboard-response,183,122711,0.0-183.0,jspsych/scrambledNeutralFaces/scrambledAF17NES.JPG,"""",null,250,31,forwardMask,0,"""",11/25/2020 1:09,98.252.224.31,Mozilla/5.0 (Windows NT 10.0; Win64; x64; rv:68.0) Gecko/20100101 Firefox/68.0,,Firefox,68,Windows,10
5,1,null,"""",image-keyboard-response,184,122795,0.0-184.0,jspsych/neutralFaces/AF17NES.JPG,"""",null,82,31,Cue,"""","""",11/25/2020 1:09,98.252.224.31,Mozilla/5.0 (Windows NT 10.0; Win64; x64; rv:68.0) Gecko/20100101 Firefox/68.0,,Firefox,68,Windows,10
5,1,null,"""",image-keyboard-response,185,122896,0.0-185.0,jspsych/neutralFaces/BF22NES.JPG,"""",null,100,31,backwardMask,"""","""",11/25/2020 1:09,98.252.224.31,Mozilla/5.0 (Windows NT 10.0; Win64; x64; rv:68.0) Gecko/20100101 Firefox/68.0,,Firefox,68,Windows,10
5,1,null,"""",html-keyboard-response,186,123098,0.0-186.0,"<div style=""font-size:60px;"">+</div>","""",null,200,31,fixationBtwnNeutralMaskAndPrompt,"""","""",11/25/2020 1:09,98.252.224.31,Mozilla/5.0 (Windows NT 10.0; Win64; x64; rv:68.0) Gecko/20100101 Firefox/68.0,,Firefox,68,Windows,10
5,1,296,"""",html-keyboard-response,187,123395,0.0-187.0,"<p> Did you see a disgust face? Press, <br></br> <b>0</b> if <i>no</i>, <br></br> <b>1</b> if <i>yes<i>","""",48,"""",31,Query,"""",0,11/25/2020 1:09,98.252.224.31,Mozilla/5.0 (Windows NT 10.0; Win64; x64; rv:68.0) Gecko/20100101 Firefox/68.0,,Firefox,68,Windows,10
5,1,null,"""",html-keyboard-response,188,124397,0.0-188.0,"<div style=""font-size:60px;"">+</div>","""",null,1000,32,ITI,"""","""",11/25/2020 1:09,98.252.224.31,Mozilla/5.0 (Windows NT 10.0; Win64; x64; rv:68.0) Gecko/20100101 Firefox/68.0,,Firefox,68,Windows,10
5,1,null,"""",image-keyboard-response,189,124649,0.0-189.0,jspsych/scrambledNeutralFaces/scrambledBF18NES.JPG,"""",null,250,32,forwardMask,0,"""",11/25/2020 1:09,98.252.224.31,Mozilla/5.0 (Windows NT 10.0; Win64; x64; rv:68.0) Gecko/20100101 Firefox/68.0,,Firefox,68,Windows,10
5,1,null,"""",image-keyboard-response,190,124715,0.0-190.0,jspsych/neutralFaces/BF18NES.JPG,"""",null,66,32,Cue,"""","""",11/25/2020 1:09,98.252.224.31,Mozilla/5.0 (Windows NT 10.0; Win64; x64; rv:68.0) Gecko/20100101 Firefox/68.0,,Firefox,68,Windows,10
5,1,null,"""",image-keyboard-response,191,124817,0.0-191.0,jspsych/neutralFaces/AF04NES.JPG,"""",null,100,32,backwardMask,"""","""",11/25/2020 1:09,98.252.224.31,Mozilla/5.0 (Windows NT 10.0; Win64; x64; rv:68.0) Gecko/20100101 Firefox/68.0,,Firefox,68,Windows,10
5,1,null,"""",html-keyboard-response,192,125018,0.0-192.0,"<div style=""font-size:60px;"">+</div>","""",null,200,32,fixationBtwnNeutralMaskAndPrompt,"""","""",11/25/2020 1:09,98.252.224.31,Mozilla/5.0 (Windows NT 10.0; Win64; x64; rv:68.0) Gecko/20100101 Firefox/68.0,,Firefox,68,Windows,10
5,1,508,"""",html-keyboard-response,193,125527,0.0-193.0,"<p> Did you see a disgust face? Press, <br></br> <b>0</b> if <i>no</i>, <br></br> <b>1</b> if <i>yes<i>","""",48,"""",32,Query,"""",0,11/25/2020 1:09,98.252.224.31,Mozilla/5.0 (Windows NT 10.0; Win64; x64; rv:68.0) Gecko/20100101 Firefox/68.0,,Firefox,68,Windows,10
5,1,null,"""",html-keyboard-response,194,126527,0.0-194.0,"<div style=""font-size:60px;"">+</div>","""",null,1000,33,ITI,"""","""",11/25/2020 1:09,98.252.224.31,Mozilla/5.0 (Windows NT 10.0; Win64; x64; rv:68.0) Gecko/20100101 Firefox/68.0,,Firefox,68,Windows,10
5,1,null,"""",image-keyboard-response,195,126779,0.0-195.0,jspsych/scrambledDisgustFaces/scrambledAF32DIS.JPG,"""",null,250,33,forwardMask,1,"""",11/25/2020 1:09,98.252.224.31,Mozilla/5.0 (Windows NT 10.0; Win64; x64; rv:68.0) Gecko/20100101 Firefox/68.0,,Firefox,68,Windows,10
5,1,null,"""",image-keyboard-response,196,126813,0.0-196.0,jspsych/disgustFaces/AF32DIS.JPG,"""",null,33,33,Cue,"""","""",11/25/2020 1:09,98.252.224.31,Mozilla/5.0 (Windows NT 10.0; Win64; x64; rv:68.0) Gecko/20100101 Firefox/68.0,,Firefox,68,Windows,10
5,1,null,"""",image-keyboard-response,197,126914,0.0-197.0,jspsych/neutralFaces/AM05NES.JPG,"""",null,100,33,backwardMask,"""","""",11/25/2020 1:09,98.252.224.31,Mozilla/5.0 (Windows NT 10.0; Win64; x64; rv:68.0) Gecko/20100101 Firefox/68.0,,Firefox,68,Windows,10
5,1,null,"""",html-keyboard-response,198,127116,0.0-198.0,"<div style=""font-size:60px;"">+</div>","""",null,200,33,fixationBtwnNeutralMaskAndPrompt,"""","""",11/25/2020 1:09,98.252.224.31,Mozilla/5.0 (Windows NT 10.0; Win64; x64; rv:68.0) Gecko/20100101 Firefox/68.0,,Firefox,68,Windows,10
5,1,522,"""",html-keyboard-response,199,127639,0.0-199.0,"<p> Did you see a disgust face? Press, <br></br> <b>0</b> if <i>no</i>, <br></br> <b>1</b> if <i>yes<i>","""",48,"""",33,Query,"""",0,11/25/2020 1:09,98.252.224.31,Mozilla/5.0 (Windows NT 10.0; Win64; x64; rv:68.0) Gecko/20100101 Firefox/68.0,,Firefox,68,Windows,10
5,1,null,"""",html-keyboard-response,200,128639,0.0-200.0,"<div style=""font-size:60px;"">+</div>","""",null,1000,34,ITI,"""","""",11/25/2020 1:09,98.252.224.31,Mozilla/5.0 (Windows NT 10.0; Win64; x64; rv:68.0) Gecko/20100101 Firefox/68.0,,Firefox,68,Windows,10
5,1,null,"""",image-keyboard-response,201,128894,0.0-201.0,jspsych/scrambledNeutralFaces/scrambledBF23NES.JPG,"""",null,250,34,forwardMask,0,"""",11/25/2020 1:09,98.252.224.31,Mozilla/5.0 (Windows NT 10.0; Win64; x64; rv:68.0) Gecko/20100101 Firefox/68.0,,Firefox,68,Windows,10
5,1,null,"""",image-keyboard-response,202,129000,0.0-202.0,jspsych/neutralFaces/BF23NES.JPG,"""",null,104,34,Cue,"""","""",11/25/2020 1:09,98.252.224.31,Mozilla/5.0 (Windows NT 10.0; Win64; x64; rv:68.0) Gecko/20100101 Firefox/68.0,,Firefox,68,Windows,10
5,1,null,"""",image-keyboard-response,203,129102,0.0-203.0,jspsych/neutralFaces/BF33NES.JPG,"""",null,100,34,backwardMask,"""","""",11/25/2020 1:09,98.252.224.31,Mozilla/5.0 (Windows NT 10.0; Win64; x64; rv:68.0) Gecko/20100101 Firefox/68.0,,Firefox,68,Windows,10
5,1,null,"""",html-keyboard-response,204,129303,0.0-204.0,"<div style=""font-size:60px;"">+</div>","""",null,200,34,fixationBtwnNeutralMaskAndPrompt,"""","""",11/25/2020 1:09,98.252.224.31,Mozilla/5.0 (Windows NT 10.0; Win64; x64; rv:68.0) Gecko/20100101 Firefox/68.0,,Firefox,68,Windows,10
5,1,316,"""",html-keyboard-response,205,129620,0.0-205.0,"<p> Did you see a disgust face? Press, <br></br> <b>0</b> if <i>no</i>, <br></br> <b>1</b> if <i>yes<i>","""",48,"""",34,Query,"""",0,11/25/2020 1:09,98.252.224.31,Mozilla/5.0 (Windows NT 10.0; Win64; x64; rv:68.0) Gecko/20100101 Firefox/68.0,,Firefox,68,Windows,10
5,1,null,"""",html-keyboard-response,206,130621,0.0-206.0,"<div style=""font-size:60px;"">+</div>","""",null,1000,35,ITI,"""","""",11/25/2020 1:09,98.252.224.31,Mozilla/5.0 (Windows NT 10.0; Win64; x64; rv:68.0) Gecko/20100101 Firefox/68.0,,Firefox,68,Windows,10
5,1,null,"""",image-keyboard-response,207,130873,0.0-207.0,jspsych/scrambledDisgustFaces/scrambledAM22DIS.JPG,"""",null,250,35,forwardMask,1,"""",11/25/2020 1:09,98.252.224.31,Mozilla/5.0 (Windows NT 10.0; Win64; x64; rv:68.0) Gecko/20100101 Firefox/68.0,,Firefox,68,Windows,10
5,1,null,"""",image-keyboard-response,208,130908,0.0-208.0,jspsych/disgustFaces/AM22DIS.JPG,"""",null,33,35,Cue,"""","""",11/25/2020 1:09,98.252.224.31,Mozilla/5.0 (Windows NT 10.0; Win64; x64; rv:68.0) Gecko/20100101 Firefox/68.0,,Firefox,68,Windows,10
5,1,null,"""",image-keyboard-response,209,131010,0.0-209.0,jspsych/neutralFaces/AM15NES.JPG,"""",null,100,35,backwardMask,"""","""",11/25/2020 1:09,98.252.224.31,Mozilla/5.0 (Windows NT 10.0; Win64; x64; rv:68.0) Gecko/20100101 Firefox/68.0,,Firefox,68,Windows,10
5,1,null,"""",html-keyboard-response,210,131210,0.0-210.0,"<div style=""font-size:60px;"">+</div>","""",null,200,35,fixationBtwnNeutralMaskAndPrompt,"""","""",11/25/2020 1:09,98.252.224.31,Mozilla/5.0 (Windows NT 10.0; Win64; x64; rv:68.0) Gecko/20100101 Firefox/68.0,,Firefox,68,Windows,10
5,1,678,"""",html-keyboard-response,211,131889,0.0-211.0,"<p> Did you see a disgust face? Press, <br></br> <b>0</b> if <i>no</i>, <br></br> <b>1</b> if <i>yes<i>","""",48,"""",35,Query,"""",0,11/25/2020 1:09,98.252.224.31,Mozilla/5.0 (Windows NT 10.0; Win64; x64; rv:68.0) Gecko/20100101 Firefox/68.0,,Firefox,68,Windows,10
5,1,null,"""",html-keyboard-response,212,132893,0.0-212.0,"<div style=""font-size:60px;"">+</div>","""",null,1000,36,ITI,"""","""",11/25/2020 1:09,98.252.224.31,Mozilla/5.0 (Windows NT 10.0; Win64; x64; rv:68.0) Gecko/20100101 Firefox/68.0,,Firefox,68,Windows,10
5,1,null,"""",image-keyboard-response,213,133145,0.0-213.0,jspsych/scrambledDisgustFaces/scrambledAM12DIS.JPG,"""",null,250,36,forwardMask,1,"""",11/25/2020 1:09,98.252.224.31,Mozilla/5.0 (Windows NT 10.0; Win64; x64; rv:68.0) Gecko/20100101 Firefox/68.0,,Firefox,68,Windows,10
5,1,null,"""",image-keyboard-response,214,133252,0.0-214.0,jspsych/disgustFaces/AM12DIS.JPG,"""",null,104,36,Cue,"""","""",11/25/2020 1:09,98.252.224.31,Mozilla/5.0 (Windows NT 10.0; Win64; x64; rv:68.0) Gecko/20100101 Firefox/68.0,,Firefox,68,Windows,10
5,1,null,"""",image-keyboard-response,215,133354,0.0-215.0,jspsych/neutralFaces/BM27NES.JPG,"""",null,100,36,backwardMask,"""","""",11/25/2020 1:09,98.252.224.31,Mozilla/5.0 (Windows NT 10.0; Win64; x64; rv:68.0) Gecko/20100101 Firefox/68.0,,Firefox,68,Windows,10
5,1,null,"""",html-keyboard-response,216,133555,0.0-216.0,"<div style=""font-size:60px;"">+</div>","""",null,200,36,fixationBtwnNeutralMaskAndPrompt,"""","""",11/25/2020 1:09,98.252.224.31,Mozilla/5.0 (Windows NT 10.0; Win64; x64; rv:68.0) Gecko/20100101 Firefox/68.0,,Firefox,68,Windows,10
5,1,733,"""",html-keyboard-response,217,134288,0.0-217.0,"<p> Did you see a disgust face? Press, <br></br> <b>0</b> if <i>no</i>, <br></br> <b>1</b> if <i>yes<i>","""",49,"""",36,Query,"""",1,11/25/2020 1:09,98.252.224.31,Mozilla/5.0 (Windows NT 10.0; Win64; x64; rv:68.0) Gecko/20100101 Firefox/68.0,,Firefox,68,Windows,10
5,1,null,"""",html-keyboard-response,218,135290,0.0-218.0,"<div style=""font-size:60px;"">+</div>","""",null,1000,37,ITI,"""","""",11/25/2020 1:09,98.252.224.31,Mozilla/5.0 (Windows NT 10.0; Win64; x64; rv:68.0) Gecko/20100101 Firefox/68.0,,Firefox,68,Windows,10
5,1,null,"""",image-keyboard-response,219,135542,0.0-219.0,jspsych/scrambledNeutralFaces/scrambledAM07NES.JPG,"""",null,250,37,forwardMask,0,"""",11/25/2020 1:09,98.252.224.31,Mozilla/5.0 (Windows NT 10.0; Win64; x64; rv:68.0) Gecko/20100101 Firefox/68.0,,Firefox,68,Windows,10
5,1,null,"""",image-keyboard-response,220,135578,0.0-220.0,jspsych/neutralFaces/AM07NES.JPG,"""",null,33,37,Cue,"""","""",11/25/2020 1:09,98.252.224.31,Mozilla/5.0 (Windows NT 10.0; Win64; x64; rv:68.0) Gecko/20100101 Firefox/68.0,,Firefox,68,Windows,10
5,1,null,"""",image-keyboard-response,221,135678,0.0-221.0,jspsych/neutralFaces/AF20NES.JPG,"""",null,100,37,backwardMask,"""","""",11/25/2020 1:09,98.252.224.31,Mozilla/5.0 (Windows NT 10.0; Win64; x64; rv:68.0) Gecko/20100101 Firefox/68.0,,Firefox,68,Windows,10
5,1,null,"""",html-keyboard-response,222,135880,0.0-222.0,"<div style=""font-size:60px;"">+</div>","""",null,200,37,fixationBtwnNeutralMaskAndPrompt,"""","""",11/25/2020 1:09,98.252.224.31,Mozilla/5.0 (Windows NT 10.0; Win64; x64; rv:68.0) Gecko/20100101 Firefox/68.0,,Firefox,68,Windows,10
5,1,309,"""",html-keyboard-response,223,136190,0.0-223.0,"<p> Did you see a disgust face? Press, <br></br> <b>0</b> if <i>no</i>, <br></br> <b>1</b> if <i>yes<i>","""",48,"""",37,Query,"""",0,11/25/2020 1:09,98.252.224.31,Mozilla/5.0 (Windows NT 10.0; Win64; x64; rv:68.0) Gecko/20100101 Firefox/68.0,,Firefox,68,Windows,10
5,1,null,"""",html-keyboard-response,224,138191,0.0-224.0,Good job! 25% Done,"""",null,2000,38,encouragement,"""","""",11/25/2020 1:09,98.252.224.31,Mozilla/5.0 (Windows NT 10.0; Win64; x64; rv:68.0) Gecko/20100101 Firefox/68.0,,Firefox,68,Windows,10
5,1,null,"""",html-keyboard-response,225,139195,0.0-225.0,"<div style=""font-size:60px;"">+</div>","""",null,1000,38,ITI,"""","""",11/25/2020 1:09,98.252.224.31,Mozilla/5.0 (Windows NT 10.0; Win64; x64; rv:68.0) Gecko/20100101 Firefox/68.0,,Firefox,68,Windows,10
5,1,null,"""",image-keyboard-response,226,139446,0.0-226.0,jspsych/scrambledDisgustFaces/scrambledAM30DIS.JPG,"""",null,250,38,forwardMask,1,"""",11/25/2020 1:09,98.252.224.31,Mozilla/5.0 (Windows NT 10.0; Win64; x64; rv:68.0) Gecko/20100101 Firefox/68.0,,Firefox,68,Windows,10
5,1,null,"""",image-keyboard-response,227,139513,0.0-227.0,jspsych/disgustFaces/AM30DIS.JPG,"""",null,66,38,Cue,"""","""",11/25/2020 1:09,98.252.224.31,Mozilla/5.0 (Windows NT 10.0; Win64; x64; rv:68.0) Gecko/20100101 Firefox/68.0,,Firefox,68,Windows,10
5,1,null,"""",image-keyboard-response,228,139615,0.0-228.0,jspsych/neutralFaces/AF11NES.JPG,"""",null,100,38,backwardMask,"""","""",11/25/2020 1:09,98.252.224.31,Mozilla/5.0 (Windows NT 10.0; Win64; x64; rv:68.0) Gecko/20100101 Firefox/68.0,,Firefox,68,Windows,10
5,1,null,"""",html-keyboard-response,229,139817,0.0-229.0,"<div style=""font-size:60px;"">+</div>","""",null,200,38,fixationBtwnNeutralMaskAndPrompt,"""","""",11/25/2020 1:09,98.252.224.31,Mozilla/5.0 (Windows NT 10.0; Win64; x64; rv:68.0) Gecko/20100101 Firefox/68.0,,Firefox,68,Windows,10
5,1,299,"""",html-keyboard-response,230,140115,0.0-230.0,"<p> Did you see a disgust face? Press, <br></br> <b>0</b> if <i>no</i>, <br></br> <b>1</b> if <i>yes<i>","""",48,"""",38,Query,"""",0,11/25/2020 1:09,98.252.224.31,Mozilla/5.0 (Windows NT 10.0; Win64; x64; rv:68.0) Gecko/20100101 Firefox/68.0,,Firefox,68,Windows,10
5,1,null,"""",html-keyboard-response,231,141116,0.0-231.0,"<div style=""font-size:60px;"">+</div>","""",null,1000,39,ITI,"""","""",11/25/2020 1:09,98.252.224.31,Mozilla/5.0 (Windows NT 10.0; Win64; x64; rv:68.0) Gecko/20100101 Firefox/68.0,,Firefox,68,Windows,10
5,1,null,"""",image-keyboard-response,232,141370,0.0-232.0,jspsych/scrambledDisgustFaces/scrambledBM22DIS.JPG,"""",null,250,39,forwardMask,1,"""",11/25/2020 1:09,98.252.224.31,Mozilla/5.0 (Windows NT 10.0; Win64; x64; rv:68.0) Gecko/20100101 Firefox/68.0,,Firefox,68,Windows,10
5,1,null,"""",image-keyboard-response,233,141386,0.0-233.0,jspsych/disgustFaces/BM22DIS.JPG,"""",null,16,39,Cue,"""","""",11/25/2020 1:09,98.252.224.31,Mozilla/5.0 (Windows NT 10.0; Win64; x64; rv:68.0) Gecko/20100101 Firefox/68.0,,Firefox,68,Windows,10
5,1,null,"""",image-keyboard-response,234,141488,0.0-234.0,jspsych/neutralFaces/AM35NES.JPG,"""",null,100,39,backwardMask,"""","""",11/25/2020 1:09,98.252.224.31,Mozilla/5.0 (Windows NT 10.0; Win64; x64; rv:68.0) Gecko/20100101 Firefox/68.0,,Firefox,68,Windows,10
5,1,null,"""",html-keyboard-response,235,141689,0.0-235.0,"<div style=""font-size:60px;"">+</div>","""",null,200,39,fixationBtwnNeutralMaskAndPrompt,"""","""",11/25/2020 1:09,98.252.224.31,Mozilla/5.0 (Windows NT 10.0; Win64; x64; rv:68.0) Gecko/20100101 Firefox/68.0,,Firefox,68,Windows,10
5,1,757,"""",html-keyboard-response,236,142445,0.0-236.0,"<p> Did you see a disgust face? Press, <br></br> <b>0</b> if <i>no</i>, <br></br> <b>1</b> if <i>yes<i>","""",48,"""",39,Query,"""",0,11/25/2020 1:09,98.252.224.31,Mozilla/5.0 (Windows NT 10.0; Win64; x64; rv:68.0) Gecko/20100101 Firefox/68.0,,Firefox,68,Windows,10
5,1,null,"""",html-keyboard-response,237,143448,0.0-237.0,"<div style=""font-size:60px;"">+</div>","""",null,1000,40,ITI,"""","""",11/25/2020 1:09,98.252.224.31,Mozilla/5.0 (Windows NT 10.0; Win64; x64; rv:68.0) Gecko/20100101 Firefox/68.0,,Firefox,68,Windows,10
5,1,null,"""",image-keyboard-response,238,143699,0.0-238.0,jspsych/scrambledDisgustFaces/scrambledBF15DIS.JPG,"""",null,250,40,forwardMask,1,"""",11/25/2020 1:09,98.252.224.31,Mozilla/5.0 (Windows NT 10.0; Win64; x64; rv:68.0) Gecko/20100101 Firefox/68.0,,Firefox,68,Windows,10
5,1,null,"""",image-keyboard-response,239,143805,0.0-239.0,jspsych/disgustFaces/BF15DIS.JPG,"""",null,104,40,Cue,"""","""",11/25/2020 1:09,98.252.224.31,Mozilla/5.0 (Windows NT 10.0; Win64; x64; rv:68.0) Gecko/20100101 Firefox/68.0,,Firefox,68,Windows,10
5,1,null,"""",image-keyboard-response,240,143909,0.0-240.0,jspsych/neutralFaces/BM31NES.JPG,"""",null,100,40,backwardMask,"""","""",11/25/2020 1:09,98.252.224.31,Mozilla/5.0 (Windows NT 10.0; Win64; x64; rv:68.0) Gecko/20100101 Firefox/68.0,,Firefox,68,Windows,10
5,1,null,"""",html-keyboard-response,241,144109,0.0-241.0,"<div style=""font-size:60px;"">+</div>","""",null,200,40,fixationBtwnNeutralMaskAndPrompt,"""","""",11/25/2020 1:09,98.252.224.31,Mozilla/5.0 (Windows NT 10.0; Win64; x64; rv:68.0) Gecko/20100101 Firefox/68.0,,Firefox,68,Windows,10
5,1,279,"""",html-keyboard-response,242,144389,0.0-242.0,"<p> Did you see a disgust face? Press, <br></br> <b>0</b> if <i>no</i>, <br></br> <b>1</b> if <i>yes<i>","""",49,"""",40,Query,"""",1,11/25/2020 1:09,98.252.224.31,Mozilla/5.0 (Windows NT 10.0; Win64; x64; rv:68.0) Gecko/20100101 Firefox/68.0,,Firefox,68,Windows,10
5,1,null,"""",html-keyboard-response,243,145391,0.0-243.0,"<div style=""font-size:60px;"">+</div>","""",null,1000,41,ITI,"""","""",11/25/2020 1:09,98.252.224.31,Mozilla/5.0 (Windows NT 10.0; Win64; x64; rv:68.0) Gecko/20100101 Firefox/68.0,,Firefox,68,Windows,10
5,1,null,"""",image-keyboard-response,244,145643,0.0-244.0,jspsych/scrambledNeutralFaces/scrambledBF15NES.JPG,"""",null,250,41,forwardMask,0,"""",11/25/2020 1:09,98.252.224.31,Mozilla/5.0 (Windows NT 10.0; Win64; x64; rv:68.0) Gecko/20100101 Firefox/68.0,,Firefox,68,Windows,10
5,1,null,"""",image-keyboard-response,245,145692,0.0-245.0,jspsych/neutralFaces/BF15NES.JPG,"""",null,49,41,Cue,"""","""",11/25/2020 1:09,98.252.224.31,Mozilla/5.0 (Windows NT 10.0; Win64; x64; rv:68.0) Gecko/20100101 Firefox/68.0,,Firefox,68,Windows,10
5,1,null,"""",image-keyboard-response,246,145793,0.0-246.0,jspsych/neutralFaces/BF28NES.JPG,"""",null,100,41,backwardMask,"""","""",11/25/2020 1:09,98.252.224.31,Mozilla/5.0 (Windows NT 10.0; Win64; x64; rv:68.0) Gecko/20100101 Firefox/68.0,,Firefox,68,Windows,10
5,1,null,"""",html-keyboard-response,247,145994,0.0-247.0,"<div style=""font-size:60px;"">+</div>","""",null,200,41,fixationBtwnNeutralMaskAndPrompt,"""","""",11/25/2020 1:09,98.252.224.31,Mozilla/5.0 (Windows NT 10.0; Win64; x64; rv:68.0) Gecko/20100101 Firefox/68.0,,Firefox,68,Windows,10
5,1,376,"""",html-keyboard-response,248,146370,0.0-248.0,"<p> Did you see a disgust face? Press, <br></br> <b>0</b> if <i>no</i>, <br></br> <b>1</b> if <i>yes<i>","""",48,"""",41,Query,"""",0,11/25/2020 1:09,98.252.224.31,Mozilla/5.0 (Windows NT 10.0; Win64; x64; rv:68.0) Gecko/20100101 Firefox/68.0,,Firefox,68,Windows,10
5,1,null,"""",html-keyboard-response,249,147373,0.0-249.0,"<div style=""font-size:60px;"">+</div>","""",null,1000,42,ITI,"""","""",11/25/2020 1:09,98.252.224.31,Mozilla/5.0 (Windows NT 10.0; Win64; x64; rv:68.0) Gecko/20100101 Firefox/68.0,,Firefox,68,Windows,10
5,1,null,"""",image-keyboard-response,250,147625,0.0-250.0,jspsych/scrambledDisgustFaces/scrambledBM05DIS.JPG,"""",null,250,42,forwardMask,1,"""",11/25/2020 1:09,98.252.224.31,Mozilla/5.0 (Windows NT 10.0; Win64; x64; rv:68.0) Gecko/20100101 Firefox/68.0,,Firefox,68,Windows,10
5,1,null,"""",image-keyboard-response,251,147677,0.0-251.0,jspsych/disgustFaces/BM05DIS.JPG,"""",null,49,42,Cue,"""","""",11/25/2020 1:09,98.252.224.31,Mozilla/5.0 (Windows NT 10.0; Win64; x64; rv:68.0) Gecko/20100101 Firefox/68.0,,Firefox,68,Windows,10
5,1,null,"""",image-keyboard-response,252,147778,0.0-252.0,jspsych/neutralFaces/AM04NES.JPG,"""",null,100,42,backwardMask,"""","""",11/25/2020 1:09,98.252.224.31,Mozilla/5.0 (Windows NT 10.0; Win64; x64; rv:68.0) Gecko/20100101 Firefox/68.0,,Firefox,68,Windows,10
5,1,null,"""",html-keyboard-response,253,147979,0.0-253.0,"<div style=""font-size:60px;"">+</div>","""",null,200,42,fixationBtwnNeutralMaskAndPrompt,"""","""",11/25/2020 1:09,98.252.224.31,Mozilla/5.0 (Windows NT 10.0; Win64; x64; rv:68.0) Gecko/20100101 Firefox/68.0,,Firefox,68,Windows,10
5,1,345,"""",html-keyboard-response,254,148325,0.0-254.0,"<p> Did you see a disgust face? Press, <br></br> <b>0</b> if <i>no</i>, <br></br> <b>1</b> if <i>yes<i>","""",49,"""",42,Query,"""",1,11/25/2020 1:09,98.252.224.31,Mozilla/5.0 (Windows NT 10.0; Win64; x64; rv:68.0) Gecko/20100101 Firefox/68.0,,Firefox,68,Windows,10
5,1,null,"""",html-keyboard-response,255,149325,0.0-255.0,"<div style=""font-size:60px;"">+</div>","""",null,1000,43,ITI,"""","""",11/25/2020 1:09,98.252.224.31,Mozilla/5.0 (Windows NT 10.0; Win64; x64; rv:68.0) Gecko/20100101 Firefox/68.0,,Firefox,68,Windows,10
5,1,null,"""",image-keyboard-response,256,149576,0.0-256.0,jspsych/scrambledDisgustFaces/scrambledAM01DIS.JPG,"""",null,250,43,forwardMask,1,"""",11/25/2020 1:09,98.252.224.31,Mozilla/5.0 (Windows NT 10.0; Win64; x64; rv:68.0) Gecko/20100101 Firefox/68.0,,Firefox,68,Windows,10
5,1,null,"""",image-keyboard-response,257,149593,0.0-257.0,jspsych/disgustFaces/AM01DIS.JPG,"""",null,16,43,Cue,"""","""",11/25/2020 1:09,98.252.224.31,Mozilla/5.0 (Windows NT 10.0; Win64; x64; rv:68.0) Gecko/20100101 Firefox/68.0,,Firefox,68,Windows,10
5,1,null,"""",image-keyboard-response,258,149695,0.0-258.0,jspsych/neutralFaces/BM26NES.JPG,"""",null,100,43,backwardMask,"""","""",11/25/2020 1:09,98.252.224.31,Mozilla/5.0 (Windows NT 10.0; Win64; x64; rv:68.0) Gecko/20100101 Firefox/68.0,,Firefox,68,Windows,10
5,1,null,"""",html-keyboard-response,259,149895,0.0-259.0,"<div style=""font-size:60px;"">+</div>","""",null,200,43,fixationBtwnNeutralMaskAndPrompt,"""","""",11/25/2020 1:09,98.252.224.31,Mozilla/5.0 (Windows NT 10.0; Win64; x64; rv:68.0) Gecko/20100101 Firefox/68.0,,Firefox,68,Windows,10
5,1,408,"""",html-keyboard-response,260,150303,0.0-260.0,"<p> Did you see a disgust face? Press, <br></br> <b>0</b> if <i>no</i>, <br></br> <b>1</b> if <i>yes<i>","""",48,"""",43,Query,"""",0,11/25/2020 1:09,98.252.224.31,Mozilla/5.0 (Windows NT 10.0; Win64; x64; rv:68.0) Gecko/20100101 Firefox/68.0,,Firefox,68,Windows,10
5,1,null,"""",html-keyboard-response,261,151308,0.0-261.0,"<div style=""font-size:60px;"">+</div>","""",null,1000,44,ITI,"""","""",11/25/2020 1:09,98.252.224.31,Mozilla/5.0 (Windows NT 10.0; Win64; x64; rv:68.0) Gecko/20100101 Firefox/68.0,,Firefox,68,Windows,10
5,1,null,"""",image-keyboard-response,262,151559,0.0-262.0,jspsych/scrambledDisgustFaces/scrambledBM33DIS.JPG,"""",null,250,44,forwardMask,1,"""",11/25/2020 1:09,98.252.224.31,Mozilla/5.0 (Windows NT 10.0; Win64; x64; rv:68.0) Gecko/20100101 Firefox/68.0,,Firefox,68,Windows,10
5,1,null,"""",image-keyboard-response,263,151696,0.0-263.0,jspsych/disgustFaces/BM33DIS.JPG,"""",null,136,44,Cue,"""","""",11/25/2020 1:09,98.252.224.31,Mozilla/5.0 (Windows NT 10.0; Win64; x64; rv:68.0) Gecko/20100101 Firefox/68.0,,Firefox,68,Windows,10
5,1,null,"""",image-keyboard-response,264,151798,0.0-264.0,jspsych/neutralFaces/BF29NES.JPG,"""",null,100,44,backwardMask,"""","""",11/25/2020 1:09,98.252.224.31,Mozilla/5.0 (Windows NT 10.0; Win64; x64; rv:68.0) Gecko/20100101 Firefox/68.0,,Firefox,68,Windows,10
5,1,null,"""",html-keyboard-response,265,151999,0.0-265.0,"<div style=""font-size:60px;"">+</div>","""",null,200,44,fixationBtwnNeutralMaskAndPrompt,"""","""",11/25/2020 1:09,98.252.224.31,Mozilla/5.0 (Windows NT 10.0; Win64; x64; rv:68.0) Gecko/20100101 Firefox/68.0,,Firefox,68,Windows,10
5,1,315,"""",html-keyboard-response,266,152314,0.0-266.0,"<p> Did you see a disgust face? Press, <br></br> <b>0</b> if <i>no</i>, <br></br> <b>1</b> if <i>yes<i>","""",49,"""",44,Query,"""",1,11/25/2020 1:09,98.252.224.31,Mozilla/5.0 (Windows NT 10.0; Win64; x64; rv:68.0) Gecko/20100101 Firefox/68.0,,Firefox,68,Windows,10
5,1,null,"""",html-keyboard-response,267,153314,0.0-267.0,"<div style=""font-size:60px;"">+</div>","""",null,1000,45,ITI,"""","""",11/25/2020 1:09,98.252.224.31,Mozilla/5.0 (Windows NT 10.0; Win64; x64; rv:68.0) Gecko/20100101 Firefox/68.0,,Firefox,68,Windows,10
5,1,null,"""",image-keyboard-response,268,153568,0.0-268.0,jspsych/scrambledDisgustFaces/scrambledAM22DIS.JPG,"""",null,250,45,forwardMask,1,"""",11/25/2020 1:09,98.252.224.31,Mozilla/5.0 (Windows NT 10.0; Win64; x64; rv:68.0) Gecko/20100101 Firefox/68.0,,Firefox,68,Windows,10
5,1,null,"""",image-keyboard-response,269,153705,0.0-269.0,jspsych/disgustFaces/AM22DIS.JPG,"""",null,136,45,Cue,"""","""",11/25/2020 1:09,98.252.224.31,Mozilla/5.0 (Windows NT 10.0; Win64; x64; rv:68.0) Gecko/20100101 Firefox/68.0,,Firefox,68,Windows,10
5,1,null,"""",image-keyboard-response,270,153805,0.0-270.0,jspsych/neutralFaces/BM04NES.JPG,"""",null,100,45,backwardMask,"""","""",11/25/2020 1:09,98.252.224.31,Mozilla/5.0 (Windows NT 10.0; Win64; x64; rv:68.0) Gecko/20100101 Firefox/68.0,,Firefox,68,Windows,10
5,1,null,"""",html-keyboard-response,271,154007,0.0-271.0,"<div style=""font-size:60px;"">+</div>","""",null,200,45,fixationBtwnNeutralMaskAndPrompt,"""","""",11/25/2020 1:09,98.252.224.31,Mozilla/5.0 (Windows NT 10.0; Win64; x64; rv:68.0) Gecko/20100101 Firefox/68.0,,Firefox,68,Windows,10
5,1,273,"""",html-keyboard-response,272,154279,0.0-272.0,"<p> Did you see a disgust face? Press, <br></br> <b>0</b> if <i>no</i>, <br></br> <b>1</b> if <i>yes<i>","""",49,"""",45,Query,"""",1,11/25/2020 1:09,98.252.224.31,Mozilla/5.0 (Windows NT 10.0; Win64; x64; rv:68.0) Gecko/20100101 Firefox/68.0,,Firefox,68,Windows,10
5,1,null,"""",html-keyboard-response,273,155280,0.0-273.0,"<div style=""font-size:60px;"">+</div>","""",null,1000,46,ITI,"""","""",11/25/2020 1:09,98.252.224.31,Mozilla/5.0 (Windows NT 10.0; Win64; x64; rv:68.0) Gecko/20100101 Firefox/68.0,,Firefox,68,Windows,10
5,1,null,"""",image-keyboard-response,274,155532,0.0-274.0,jspsych/scrambledNeutralFaces/scrambledAM26NES.JPG,"""",null,250,46,forwardMask,0,"""",11/25/2020 1:09,98.252.224.31,Mozilla/5.0 (Windows NT 10.0; Win64; x64; rv:68.0) Gecko/20100101 Firefox/68.0,,Firefox,68,Windows,10
5,1,null,"""",image-keyboard-response,275,155616,0.0-275.0,jspsych/neutralFaces/AM26NES.JPG,"""",null,82,46,Cue,"""","""",11/25/2020 1:09,98.252.224.31,Mozilla/5.0 (Windows NT 10.0; Win64; x64; rv:68.0) Gecko/20100101 Firefox/68.0,,Firefox,68,Windows,10
5,1,null,"""",image-keyboard-response,276,155718,0.0-276.0,jspsych/neutralFaces/BF13NES.JPG,"""",null,100,46,backwardMask,"""","""",11/25/2020 1:09,98.252.224.31,Mozilla/5.0 (Windows NT 10.0; Win64; x64; rv:68.0) Gecko/20100101 Firefox/68.0,,Firefox,68,Windows,10
5,1,null,"""",html-keyboard-response,277,155918,0.0-277.0,"<div style=""font-size:60px;"">+</div>","""",null,200,46,fixationBtwnNeutralMaskAndPrompt,"""","""",11/25/2020 1:09,98.252.224.31,Mozilla/5.0 (Windows NT 10.0; Win64; x64; rv:68.0) Gecko/20100101 Firefox/68.0,,Firefox,68,Windows,10
5,1,520,"""",html-keyboard-response,278,156439,0.0-278.0,"<p> Did you see a disgust face? Press, <br></br> <b>0</b> if <i>no</i>, <br></br> <b>1</b> if <i>yes<i>","""",48,"""",46,Query,"""",0,11/25/2020 1:09,98.252.224.31,Mozilla/5.0 (Windows NT 10.0; Win64; x64; rv:68.0) Gecko/20100101 Firefox/68.0,,Firefox,68,Windows,10
5,1,null,"""",html-keyboard-response,279,157441,0.0-279.0,"<div style=""font-size:60px;"">+</div>","""",null,1000,47,ITI,"""","""",11/25/2020 1:09,98.252.224.31,Mozilla/5.0 (Windows NT 10.0; Win64; x64; rv:68.0) Gecko/20100101 Firefox/68.0,,Firefox,68,Windows,10
5,1,null,"""",image-keyboard-response,280,157693,0.0-280.0,jspsych/scrambledDisgustFaces/scrambledBM04DIS.JPG,"""",null,250,47,forwardMask,1,"""",11/25/2020 1:09,98.252.224.31,Mozilla/5.0 (Windows NT 10.0; Win64; x64; rv:68.0) Gecko/20100101 Firefox/68.0,,Firefox,68,Windows,10
5,1,null,"""",image-keyboard-response,281,157776,0.0-281.0,jspsych/disgustFaces/BM04DIS.JPG,"""",null,82,47,Cue,"""","""",11/25/2020 1:09,98.252.224.31,Mozilla/5.0 (Windows NT 10.0; Win64; x64; rv:68.0) Gecko/20100101 Firefox/68.0,,Firefox,68,Windows,10
5,1,null,"""",image-keyboard-response,282,157877,0.0-282.0,jspsych/neutralFaces/AM30NES.JPG,"""",null,100,47,backwardMask,"""","""",11/25/2020 1:09,98.252.224.31,Mozilla/5.0 (Windows NT 10.0; Win64; x64; rv:68.0) Gecko/20100101 Firefox/68.0,,Firefox,68,Windows,10
5,1,null,"""",html-keyboard-response,283,158078,0.0-283.0,"<div style=""font-size:60px;"">+</div>","""",null,200,47,fixationBtwnNeutralMaskAndPrompt,"""","""",11/25/2020 1:09,98.252.224.31,Mozilla/5.0 (Windows NT 10.0; Win64; x64; rv:68.0) Gecko/20100101 Firefox/68.0,,Firefox,68,Windows,10
5,1,306,"""",html-keyboard-response,284,158386,0.0-284.0,"<p> Did you see a disgust face? Press, <br></br> <b>0</b> if <i>no</i>, <br></br> <b>1</b> if <i>yes<i>","""",49,"""",47,Query,"""",1,11/25/2020 1:09,98.252.224.31,Mozilla/5.0 (Windows NT 10.0; Win64; x64; rv:68.0) Gecko/20100101 Firefox/68.0,,Firefox,68,Windows,10
5,1,null,"""",html-keyboard-response,285,159388,0.0-285.0,"<div style=""font-size:60px;"">+</div>","""",null,1000,48,ITI,"""","""",11/25/2020 1:09,98.252.224.31,Mozilla/5.0 (Windows NT 10.0; Win64; x64; rv:68.0) Gecko/20100101 Firefox/68.0,,Firefox,68,Windows,10
5,1,null,"""",image-keyboard-response,286,159641,0.0-286.0,jspsych/scrambledDisgustFaces/scrambledAM22DIS.JPG,"""",null,250,48,forwardMask,1,"""",11/25/2020 1:09,98.252.224.31,Mozilla/5.0 (Windows NT 10.0; Win64; x64; rv:68.0) Gecko/20100101 Firefox/68.0,,Firefox,68,Windows,10
5,1,null,"""",image-keyboard-response,287,159691,0.0-287.0,jspsych/disgustFaces/AM22DIS.JPG,"""",null,49,48,Cue,"""","""",11/25/2020 1:09,98.252.224.31,Mozilla/5.0 (Windows NT 10.0; Win64; x64; rv:68.0) Gecko/20100101 Firefox/68.0,,Firefox,68,Windows,10
5,1,null,"""",image-keyboard-response,288,159793,0.0-288.0,jspsych/neutralFaces/AF20NES.JPG,"""",null,100,48,backwardMask,"""","""",11/25/2020 1:09,98.252.224.31,Mozilla/5.0 (Windows NT 10.0; Win64; x64; rv:68.0) Gecko/20100101 Firefox/68.0,,Firefox,68,Windows,10
5,1,null,"""",html-keyboard-response,289,159993,0.0-289.0,"<div style=""font-size:60px;"">+</div>","""",null,200,48,fixationBtwnNeutralMaskAndPrompt,"""","""",11/25/2020 1:09,98.252.224.31,Mozilla/5.0 (Windows NT 10.0; Win64; x64; rv:68.0) Gecko/20100101 Firefox/68.0,,Firefox,68,Windows,10
5,1,1648,"""",html-keyboard-response,290,161641,0.0-290.0,"<p> Did you see a disgust face? Press, <br></br> <b>0</b> if <i>no</i>, <br></br> <b>1</b> if <i>yes<i>","""",49,"""",48,Query,"""",1,11/25/2020 1:09,98.252.224.31,Mozilla/5.0 (Windows NT 10.0; Win64; x64; rv:68.0) Gecko/20100101 Firefox/68.0,,Firefox,68,Windows,10
5,1,null,"""",html-keyboard-response,291,162641,0.0-291.0,"<div style=""font-size:60px;"">+</div>","""",null,1000,49,ITI,"""","""",11/25/2020 1:09,98.252.224.31,Mozilla/5.0 (Windows NT 10.0; Win64; x64; rv:68.0) Gecko/20100101 Firefox/68.0,,Firefox,68,Windows,10
5,1,null,"""",image-keyboard-response,292,162895,0.0-292.0,jspsych/scrambledNeutralFaces/scrambledBF03NES.JPG,"""",null,250,49,forwardMask,0,"""",11/25/2020 1:09,98.252.224.31,Mozilla/5.0 (Windows NT 10.0; Win64; x64; rv:68.0) Gecko/20100101 Firefox/68.0,,Firefox,68,Windows,10
5,1,null,"""",image-keyboard-response,293,162963,0.0-293.0,jspsych/neutralFaces/BF03NES.JPG,"""",null,66,49,Cue,"""","""",11/25/2020 1:09,98.252.224.31,Mozilla/5.0 (Windows NT 10.0; Win64; x64; rv:68.0) Gecko/20100101 Firefox/68.0,,Firefox,68,Windows,10
5,1,null,"""",image-keyboard-response,294,163064,0.0-294.0,jspsych/neutralFaces/AM29NES.JPG,"""",null,100,49,backwardMask,"""","""",11/25/2020 1:09,98.252.224.31,Mozilla/5.0 (Windows NT 10.0; Win64; x64; rv:68.0) Gecko/20100101 Firefox/68.0,,Firefox,68,Windows,10
5,1,null,"""",html-keyboard-response,295,163265,0.0-295.0,"<div style=""font-size:60px;"">+</div>","""",null,200,49,fixationBtwnNeutralMaskAndPrompt,"""","""",11/25/2020 1:09,98.252.224.31,Mozilla/5.0 (Windows NT 10.0; Win64; x64; rv:68.0) Gecko/20100101 Firefox/68.0,,Firefox,68,Windows,10
5,1,221,"""",html-keyboard-response,296,163487,0.0-296.0,"<p> Did you see a disgust face? Press, <br></br> <b>0</b> if <i>no</i>, <br></br> <b>1</b> if <i>yes<i>","""",48,"""",49,Query,"""",0,11/25/2020 1:09,98.252.224.31,Mozilla/5.0 (Windows NT 10.0; Win64; x64; rv:68.0) Gecko/20100101 Firefox/68.0,,Firefox,68,Windows,10
5,1,null,"""",html-keyboard-response,297,164487,0.0-297.0,"<div style=""font-size:60px;"">+</div>","""",null,1000,50,ITI,"""","""",11/25/2020 1:09,98.252.224.31,Mozilla/5.0 (Windows NT 10.0; Win64; x64; rv:68.0) Gecko/20100101 Firefox/68.0,,Firefox,68,Windows,10
5,1,null,"""",image-keyboard-response,298,164739,0.0-298.0,jspsych/scrambledNeutralFaces/scrambledAM34NES.JPG,"""",null,250,50,forwardMask,0,"""",11/25/2020 1:09,98.252.224.31,Mozilla/5.0 (Windows NT 10.0; Win64; x64; rv:68.0) Gecko/20100101 Firefox/68.0,,Firefox,68,Windows,10
5,1,null,"""",image-keyboard-response,299,164877,0.0-299.0,jspsych/neutralFaces/AM34NES.JPG,"""",null,136,50,Cue,"""","""",11/25/2020 1:09,98.252.224.31,Mozilla/5.0 (Windows NT 10.0; Win64; x64; rv:68.0) Gecko/20100101 Firefox/68.0,,Firefox,68,Windows,10
5,1,null,"""",image-keyboard-response,300,164978,0.0-300.0,jspsych/neutralFaces/AF28NES.JPG,"""",null,100,50,backwardMask,"""","""",11/25/2020 1:09,98.252.224.31,Mozilla/5.0 (Windows NT 10.0; Win64; x64; rv:68.0) Gecko/20100101 Firefox/68.0,,Firefox,68,Windows,10
5,1,null,"""",html-keyboard-response,301,165179,0.0-301.0,"<div style=""font-size:60px;"">+</div>","""",null,200,50,fixationBtwnNeutralMaskAndPrompt,"""","""",11/25/2020 1:09,98.252.224.31,Mozilla/5.0 (Windows NT 10.0; Win64; x64; rv:68.0) Gecko/20100101 Firefox/68.0,,Firefox,68,Windows,10
5,1,98,"""",html-keyboard-response,302,165278,0.0-302.0,"<p> Did you see a disgust face? Press, <br></br> <b>0</b> if <i>no</i>, <br></br> <b>1</b> if <i>yes<i>","""",48,"""",50,Query,"""",0,11/25/2020 1:09,98.252.224.31,Mozilla/5.0 (Windows NT 10.0; Win64; x64; rv:68.0) Gecko/20100101 Firefox/68.0,,Firefox,68,Windows,10
5,1,null,"""",html-keyboard-response,303,166278,0.0-303.0,"<div style=""font-size:60px;"">+</div>","""",null,1000,51,ITI,"""","""",11/25/2020 1:09,98.252.224.31,Mozilla/5.0 (Windows NT 10.0; Win64; x64; rv:68.0) Gecko/20100101 Firefox/68.0,,Firefox,68,Windows,10
5,1,null,"""",image-keyboard-response,304,166532,0.0-304.0,jspsych/scrambledNeutralFaces/scrambledAF24NES.JPG,"""",null,250,51,forwardMask,0,"""",11/25/2020 1:09,98.252.224.31,Mozilla/5.0 (Windows NT 10.0; Win64; x64; rv:68.0) Gecko/20100101 Firefox/68.0,,Firefox,68,Windows,10
5,1,null,"""",image-keyboard-response,305,166584,0.0-305.0,jspsych/neutralFaces/AF24NES.JPG,"""",null,49,51,Cue,"""","""",11/25/2020 1:09,98.252.224.31,Mozilla/5.0 (Windows NT 10.0; Win64; x64; rv:68.0) Gecko/20100101 Firefox/68.0,,Firefox,68,Windows,10
5,1,null,"""",image-keyboard-response,306,166687,0.0-306.0,jspsych/neutralFaces/AM25NES.JPG,"""",null,100,51,backwardMask,"""","""",11/25/2020 1:09,98.252.224.31,Mozilla/5.0 (Windows NT 10.0; Win64; x64; rv:68.0) Gecko/20100101 Firefox/68.0,,Firefox,68,Windows,10
5,1,null,"""",html-keyboard-response,307,166888,0.0-307.0,"<div style=""font-size:60px;"">+</div>","""",null,200,51,fixationBtwnNeutralMaskAndPrompt,"""","""",11/25/2020 1:09,98.252.224.31,Mozilla/5.0 (Windows NT 10.0; Win64; x64; rv:68.0) Gecko/20100101 Firefox/68.0,,Firefox,68,Windows,10
5,1,240,"""",html-keyboard-response,308,167128,0.0-308.0,"<p> Did you see a disgust face? Press, <br></br> <b>0</b> if <i>no</i>, <br></br> <b>1</b> if <i>yes<i>","""",48,"""",51,Query,"""",0,11/25/2020 1:09,98.252.224.31,Mozilla/5.0 (Windows NT 10.0; Win64; x64; rv:68.0) Gecko/20100101 Firefox/68.0,,Firefox,68,Windows,10
5,1,null,"""",html-keyboard-response,309,168131,0.0-309.0,"<div style=""font-size:60px;"">+</div>","""",null,1000,52,ITI,"""","""",11/25/2020 1:09,98.252.224.31,Mozilla/5.0 (Windows NT 10.0; Win64; x64; rv:68.0) Gecko/20100101 Firefox/68.0,,Firefox,68,Windows,10
5,1,null,"""",image-keyboard-response,310,168381,0.0-310.0,jspsych/scrambledNeutralFaces/scrambledAF20NES.JPG,"""",null,250,52,forwardMask,0,"""",11/25/2020 1:09,98.252.224.31,Mozilla/5.0 (Windows NT 10.0; Win64; x64; rv:68.0) Gecko/20100101 Firefox/68.0,,Firefox,68,Windows,10
5,1,null,"""",image-keyboard-response,311,168449,0.0-311.0,jspsych/neutralFaces/AF20NES.JPG,"""",null,66,52,Cue,"""","""",11/25/2020 1:09,98.252.224.31,Mozilla/5.0 (Windows NT 10.0; Win64; x64; rv:68.0) Gecko/20100101 Firefox/68.0,,Firefox,68,Windows,10
5,1,null,"""",image-keyboard-response,312,168550,0.0-312.0,jspsych/neutralFaces/AF14NES.JPG,"""",null,100,52,backwardMask,"""","""",11/25/2020 1:09,98.252.224.31,Mozilla/5.0 (Windows NT 10.0; Win64; x64; rv:68.0) Gecko/20100101 Firefox/68.0,,Firefox,68,Windows,10
5,1,null,"""",html-keyboard-response,313,168752,0.0-313.0,"<div style=""font-size:60px;"">+</div>","""",null,200,52,fixationBtwnNeutralMaskAndPrompt,"""","""",11/25/2020 1:09,98.252.224.31,Mozilla/5.0 (Windows NT 10.0; Win64; x64; rv:68.0) Gecko/20100101 Firefox/68.0,,Firefox,68,Windows,10
5,1,218,"""",html-keyboard-response,314,168969,0.0-314.0,"<p> Did you see a disgust face? Press, <br></br> <b>0</b> if <i>no</i>, <br></br> <b>1</b> if <i>yes<i>","""",48,"""",52,Query,"""",0,11/25/2020 1:09,98.252.224.31,Mozilla/5.0 (Windows NT 10.0; Win64; x64; rv:68.0) Gecko/20100101 Firefox/68.0,,Firefox,68,Windows,10
5,1,null,"""",html-keyboard-response,315,169972,0.0-315.0,"<div style=""font-size:60px;"">+</div>","""",null,1000,53,ITI,"""","""",11/25/2020 1:09,98.252.224.31,Mozilla/5.0 (Windows NT 10.0; Win64; x64; rv:68.0) Gecko/20100101 Firefox/68.0,,Firefox,68,Windows,10
5,1,null,"""",image-keyboard-response,316,170224,0.0-316.0,jspsych/scrambledNeutralFaces/scrambledBF02NES.JPG,"""",null,250,53,forwardMask,0,"""",11/25/2020 1:09,98.252.224.31,Mozilla/5.0 (Windows NT 10.0; Win64; x64; rv:68.0) Gecko/20100101 Firefox/68.0,,Firefox,68,Windows,10
5,1,null,"""",image-keyboard-response,317,170274,0.0-317.0,jspsych/neutralFaces/BF02NES.JPG,"""",null,49,53,Cue,"""","""",11/25/2020 1:09,98.252.224.31,Mozilla/5.0 (Windows NT 10.0; Win64; x64; rv:68.0) Gecko/20100101 Firefox/68.0,,Firefox,68,Windows,10
5,1,null,"""",image-keyboard-response,318,170376,0.0-318.0,jspsych/neutralFaces/BF12NES.JPG,"""",null,100,53,backwardMask,"""","""",11/25/2020 1:09,98.252.224.31,Mozilla/5.0 (Windows NT 10.0; Win64; x64; rv:68.0) Gecko/20100101 Firefox/68.0,,Firefox,68,Windows,10
5,1,null,"""",html-keyboard-response,319,170576,0.0-319.0,"<div style=""font-size:60px;"">+</div>","""",null,200,53,fixationBtwnNeutralMaskAndPrompt,"""","""",11/25/2020 1:09,98.252.224.31,Mozilla/5.0 (Windows NT 10.0; Win64; x64; rv:68.0) Gecko/20100101 Firefox/68.0,,Firefox,68,Windows,10
5,1,278,"""",html-keyboard-response,320,170856,0.0-320.0,"<p> Did you see a disgust face? Press, <br></br> <b>0</b> if <i>no</i>, <br></br> <b>1</b> if <i>yes<i>","""",48,"""",53,Query,"""",0,11/25/2020 1:09,98.252.224.31,Mozilla/5.0 (Windows NT 10.0; Win64; x64; rv:68.0) Gecko/20100101 Firefox/68.0,,Firefox,68,Windows,10
5,1,null,"""",html-keyboard-response,321,171856,0.0-321.0,"<div style=""font-size:60px;"">+</div>","""",null,1000,54,ITI,"""","""",11/25/2020 1:09,98.252.224.31,Mozilla/5.0 (Windows NT 10.0; Win64; x64; rv:68.0) Gecko/20100101 Firefox/68.0,,Firefox,68,Windows,10
5,1,null,"""",image-keyboard-response,322,172109,0.0-322.0,jspsych/scrambledDisgustFaces/scrambledAM35DIS.JPG,"""",null,250,54,forwardMask,1,"""",11/25/2020 1:09,98.252.224.31,Mozilla/5.0 (Windows NT 10.0; Win64; x64; rv:68.0) Gecko/20100101 Firefox/68.0,,Firefox,68,Windows,10
5,1,null,"""",image-keyboard-response,323,172178,0.0-323.0,jspsych/disgustFaces/AM35DIS.JPG,"""",null,66,54,Cue,"""","""",11/25/2020 1:09,98.252.224.31,Mozilla/5.0 (Windows NT 10.0; Win64; x64; rv:68.0) Gecko/20100101 Firefox/68.0,,Firefox,68,Windows,10
5,1,null,"""",image-keyboard-response,324,172278,0.0-324.0,jspsych/neutralFaces/AF11NES.JPG,"""",null,100,54,backwardMask,"""","""",11/25/2020 1:09,98.252.224.31,Mozilla/5.0 (Windows NT 10.0; Win64; x64; rv:68.0) Gecko/20100101 Firefox/68.0,,Firefox,68,Windows,10
5,1,null,"""",html-keyboard-response,325,172479,0.0-325.0,"<div style=""font-size:60px;"">+</div>","""",null,200,54,fixationBtwnNeutralMaskAndPrompt,"""","""",11/25/2020 1:09,98.252.224.31,Mozilla/5.0 (Windows NT 10.0; Win64; x64; rv:68.0) Gecko/20100101 Firefox/68.0,,Firefox,68,Windows,10
5,1,565,"""",html-keyboard-response,326,173045,0.0-326.0,"<p> Did you see a disgust face? Press, <br></br> <b>0</b> if <i>no</i>, <br></br> <b>1</b> if <i>yes<i>","""",49,"""",54,Query,"""",1,11/25/2020 1:09,98.252.224.31,Mozilla/5.0 (Windows NT 10.0; Win64; x64; rv:68.0) Gecko/20100101 Firefox/68.0,,Firefox,68,Windows,10
5,1,null,"""",html-keyboard-response,327,174046,0.0-327.0,"<div style=""font-size:60px;"">+</div>","""",null,1000,55,ITI,"""","""",11/25/2020 1:09,98.252.224.31,Mozilla/5.0 (Windows NT 10.0; Win64; x64; rv:68.0) Gecko/20100101 Firefox/68.0,,Firefox,68,Windows,10
5,1,null,"""",image-keyboard-response,328,174298,0.0-328.0,jspsych/scrambledNeutralFaces/scrambledAF27NES.JPG,"""",null,250,55,forwardMask,0,"""",11/25/2020 1:09,98.252.224.31,Mozilla/5.0 (Windows NT 10.0; Win64; x64; rv:68.0) Gecko/20100101 Firefox/68.0,,Firefox,68,Windows,10
5,1,null,"""",image-keyboard-response,329,174315,0.0-329.0,jspsych/neutralFaces/AF27NES.JPG,"""",null,16,55,Cue,"""","""",11/25/2020 1:09,98.252.224.31,Mozilla/5.0 (Windows NT 10.0; Win64; x64; rv:68.0) Gecko/20100101 Firefox/68.0,,Firefox,68,Windows,10
5,1,null,"""",image-keyboard-response,330,174417,0.0-330.0,jspsych/neutralFaces/AM07NES.JPG,"""",null,100,55,backwardMask,"""","""",11/25/2020 1:09,98.252.224.31,Mozilla/5.0 (Windows NT 10.0; Win64; x64; rv:68.0) Gecko/20100101 Firefox/68.0,,Firefox,68,Windows,10
5,1,null,"""",html-keyboard-response,331,174618,0.0-331.0,"<div style=""font-size:60px;"">+</div>","""",null,200,55,fixationBtwnNeutralMaskAndPrompt,"""","""",11/25/2020 1:09,98.252.224.31,Mozilla/5.0 (Windows NT 10.0; Win64; x64; rv:68.0) Gecko/20100101 Firefox/68.0,,Firefox,68,Windows,10
5,1,383,"""",html-keyboard-response,332,175004,0.0-332.0,"<p> Did you see a disgust face? Press, <br></br> <b>0</b> if <i>no</i>, <br></br> <b>1</b> if <i>yes<i>","""",48,"""",55,Query,"""",0,11/25/2020 1:09,98.252.224.31,Mozilla/5.0 (Windows NT 10.0; Win64; x64; rv:68.0) Gecko/20100101 Firefox/68.0,,Firefox,68,Windows,10
5,1,null,"""",html-keyboard-response,333,176005,0.0-333.0,"<div style=""font-size:60px;"">+</div>","""",null,1000,56,ITI,"""","""",11/25/2020 1:09,98.252.224.31,Mozilla/5.0 (Windows NT 10.0; Win64; x64; rv:68.0) Gecko/20100101 Firefox/68.0,,Firefox,68,Windows,10
5,1,null,"""",image-keyboard-response,334,176256,0.0-334.0,jspsych/scrambledNeutralFaces/scrambledBF32NES.JPG,"""",null,250,56,forwardMask,0,"""",11/25/2020 1:09,98.252.224.31,Mozilla/5.0 (Windows NT 10.0; Win64; x64; rv:68.0) Gecko/20100101 Firefox/68.0,,Firefox,68,Windows,10
5,1,null,"""",image-keyboard-response,335,176361,0.0-335.0,jspsych/neutralFaces/BF32NES.JPG,"""",null,104,56,Cue,"""","""",11/25/2020 1:09,98.252.224.31,Mozilla/5.0 (Windows NT 10.0; Win64; x64; rv:68.0) Gecko/20100101 Firefox/68.0,,Firefox,68,Windows,10
5,1,null,"""",image-keyboard-response,336,176464,0.0-336.0,jspsych/neutralFaces/AM07NES.JPG,"""",null,100,56,backwardMask,"""","""",11/25/2020 1:09,98.252.224.31,Mozilla/5.0 (Windows NT 10.0; Win64; x64; rv:68.0) Gecko/20100101 Firefox/68.0,,Firefox,68,Windows,10
5,1,null,"""",html-keyboard-response,337,176665,0.0-337.0,"<div style=""font-size:60px;"">+</div>","""",null,200,56,fixationBtwnNeutralMaskAndPrompt,"""","""",11/25/2020 1:09,98.252.224.31,Mozilla/5.0 (Windows NT 10.0; Win64; x64; rv:68.0) Gecko/20100101 Firefox/68.0,,Firefox,68,Windows,10
5,1,220,"""",html-keyboard-response,338,176886,0.0-338.0,"<p> Did you see a disgust face? Press, <br></br> <b>0</b> if <i>no</i>, <br></br> <b>1</b> if <i>yes<i>","""",48,"""",56,Query,"""",0,11/25/2020 1:09,98.252.224.31,Mozilla/5.0 (Windows NT 10.0; Win64; x64; rv:68.0) Gecko/20100101 Firefox/68.0,,Firefox,68,Windows,10
5,1,null,"""",html-keyboard-response,339,177887,0.0-339.0,"<div style=""font-size:60px;"">+</div>","""",null,1000,57,ITI,"""","""",11/25/2020 1:09,98.252.224.31,Mozilla/5.0 (Windows NT 10.0; Win64; x64; rv:68.0) Gecko/20100101 Firefox/68.0,,Firefox,68,Windows,10
5,1,null,"""",image-keyboard-response,340,178140,0.0-340.0,jspsych/scrambledNeutralFaces/scrambledBF13NES.JPG,"""",null,250,57,forwardMask,0,"""",11/25/2020 1:09,98.252.224.31,Mozilla/5.0 (Windows NT 10.0; Win64; x64; rv:68.0) Gecko/20100101 Firefox/68.0,,Firefox,68,Windows,10
5,1,null,"""",image-keyboard-response,341,178191,0.0-341.0,jspsych/neutralFaces/BF13NES.JPG,"""",null,49,57,Cue,"""","""",11/25/2020 1:09,98.252.224.31,Mozilla/5.0 (Windows NT 10.0; Win64; x64; rv:68.0) Gecko/20100101 Firefox/68.0,,Firefox,68,Windows,10
5,1,null,"""",image-keyboard-response,342,178294,0.0-342.0,jspsych/neutralFaces/BF10NES.JPG,"""",null,100,57,backwardMask,"""","""",11/25/2020 1:09,98.252.224.31,Mozilla/5.0 (Windows NT 10.0; Win64; x64; rv:68.0) Gecko/20100101 Firefox/68.0,,Firefox,68,Windows,10
5,1,null,"""",html-keyboard-response,343,178496,0.0-343.0,"<div style=""font-size:60px;"">+</div>","""",null,200,57,fixationBtwnNeutralMaskAndPrompt,"""","""",11/25/2020 1:09,98.252.224.31,Mozilla/5.0 (Windows NT 10.0; Win64; x64; rv:68.0) Gecko/20100101 Firefox/68.0,,Firefox,68,Windows,10
5,1,331,"""",html-keyboard-response,344,178827,0.0-344.0,"<p> Did you see a disgust face? Press, <br></br> <b>0</b> if <i>no</i>, <br></br> <b>1</b> if <i>yes<i>","""",48,"""",57,Query,"""",0,11/25/2020 1:09,98.252.224.31,Mozilla/5.0 (Windows NT 10.0; Win64; x64; rv:68.0) Gecko/20100101 Firefox/68.0,,Firefox,68,Windows,10
5,1,null,"""",html-keyboard-response,345,179830,0.0-345.0,"<div style=""font-size:60px;"">+</div>","""",null,1000,58,ITI,"""","""",11/25/2020 1:09,98.252.224.31,Mozilla/5.0 (Windows NT 10.0; Win64; x64; rv:68.0) Gecko/20100101 Firefox/68.0,,Firefox,68,Windows,10
5,1,null,"""",image-keyboard-response,346,180081,0.0-346.0,jspsych/scrambledNeutralFaces/scrambledBM34NES.JPG,"""",null,250,58,forwardMask,0,"""",11/25/2020 1:09,98.252.224.31,Mozilla/5.0 (Windows NT 10.0; Win64; x64; rv:68.0) Gecko/20100101 Firefox/68.0,,Firefox,68,Windows,10
5,1,null,"""",image-keyboard-response,347,180098,0.0-347.0,jspsych/neutralFaces/BM34NES.JPG,"""",null,16,58,Cue,"""","""",11/25/2020 1:09,98.252.224.31,Mozilla/5.0 (Windows NT 10.0; Win64; x64; rv:68.0) Gecko/20100101 Firefox/68.0,,Firefox,68,Windows,10
5,1,null,"""",image-keyboard-response,348,180200,0.0-348.0,jspsych/neutralFaces/AM25NES.JPG,"""",null,100,58,backwardMask,"""","""",11/25/2020 1:09,98.252.224.31,Mozilla/5.0 (Windows NT 10.0; Win64; x64; rv:68.0) Gecko/20100101 Firefox/68.0,,Firefox,68,Windows,10
5,1,null,"""",html-keyboard-response,349,180401,0.0-349.0,"<div style=""font-size:60px;"">+</div>","""",null,200,58,fixationBtwnNeutralMaskAndPrompt,"""","""",11/25/2020 1:09,98.252.224.31,Mozilla/5.0 (Windows NT 10.0; Win64; x64; rv:68.0) Gecko/20100101 Firefox/68.0,,Firefox,68,Windows,10
5,1,302,"""",html-keyboard-response,350,180705,0.0-350.0,"<p> Did you see a disgust face? Press, <br></br> <b>0</b> if <i>no</i>, <br></br> <b>1</b> if <i>yes<i>","""",48,"""",58,Query,"""",0,11/25/2020 1:09,98.252.224.31,Mozilla/5.0 (Windows NT 10.0; Win64; x64; rv:68.0) Gecko/20100101 Firefox/68.0,,Firefox,68,Windows,10
5,1,null,"""",html-keyboard-response,351,181707,0.0-351.0,"<div style=""font-size:60px;"">+</div>","""",null,1000,59,ITI,"""","""",11/25/2020 1:09,98.252.224.31,Mozilla/5.0 (Windows NT 10.0; Win64; x64; rv:68.0) Gecko/20100101 Firefox/68.0,,Firefox,68,Windows,10
5,1,null,"""",image-keyboard-response,352,181958,0.0-352.0,jspsych/scrambledNeutralFaces/scrambledBM23NES.JPG,"""",null,250,59,forwardMask,0,"""",11/25/2020 1:09,98.252.224.31,Mozilla/5.0 (Windows NT 10.0; Win64; x64; rv:68.0) Gecko/20100101 Firefox/68.0,,Firefox,68,Windows,10
5,1,null,"""",image-keyboard-response,353,181975,0.0-353.0,jspsych/neutralFaces/BM23NES.JPG,"""",null,16,59,Cue,"""","""",11/25/2020 1:09,98.252.224.31,Mozilla/5.0 (Windows NT 10.0; Win64; x64; rv:68.0) Gecko/20100101 Firefox/68.0,,Firefox,68,Windows,10
5,1,null,"""",image-keyboard-response,354,182078,0.0-354.0,jspsych/neutralFaces/AF03NES.JPG,"""",null,100,59,backwardMask,"""","""",11/25/2020 1:09,98.252.224.31,Mozilla/5.0 (Windows NT 10.0; Win64; x64; rv:68.0) Gecko/20100101 Firefox/68.0,,Firefox,68,Windows,10
5,1,null,"""",html-keyboard-response,355,182279,0.0-355.0,"<div style=""font-size:60px;"">+</div>","""",null,200,59,fixationBtwnNeutralMaskAndPrompt,"""","""",11/25/2020 1:09,98.252.224.31,Mozilla/5.0 (Windows NT 10.0; Win64; x64; rv:68.0) Gecko/20100101 Firefox/68.0,,Firefox,68,Windows,10
5,1,265,"""",html-keyboard-response,356,182545,0.0-356.0,"<p> Did you see a disgust face? Press, <br></br> <b>0</b> if <i>no</i>, <br></br> <b>1</b> if <i>yes<i>","""",48,"""",59,Query,"""",0,11/25/2020 1:09,98.252.224.31,Mozilla/5.0 (Windows NT 10.0; Win64; x64; rv:68.0) Gecko/20100101 Firefox/68.0,,Firefox,68,Windows,10
5,1,null,"""",html-keyboard-response,357,183546,0.0-357.0,"<div style=""font-size:60px;"">+</div>","""",null,1000,60,ITI,"""","""",11/25/2020 1:09,98.252.224.31,Mozilla/5.0 (Windows NT 10.0; Win64; x64; rv:68.0) Gecko/20100101 Firefox/68.0,,Firefox,68,Windows,10
5,1,null,"""",image-keyboard-response,358,183800,0.0-358.0,jspsych/scrambledDisgustFaces/scrambledAF17DIS.JPG,"""",null,250,60,forwardMask,1,"""",11/25/2020 1:09,98.252.224.31,Mozilla/5.0 (Windows NT 10.0; Win64; x64; rv:68.0) Gecko/20100101 Firefox/68.0,,Firefox,68,Windows,10
