run_id,condition,rt,responses,trial_type,trial_index,time_elapsed,internal_node_id,stimulus,button_pressed,iTrial,Phase,ExperimentPhase,key_press,StimulusDurationSetting,correctResponse,slider_start,response,rearranged,Face,Name,didSubjectEnterRearranged,recorded_at,ip,user_agent,device,browser,browser_version,platform,platform_version
110,1,2955.65,"{""Q0"":""123""}",survey-text,0,2970,0.0-0.0,"""","""","""","""","""","""","""","""","""","""","""","""","""","""",1/27/2021 2:20,67.83.183.0,"Mozilla/5.0 (Windows NT 10.0; Win64; x64) AppleWebKit/537.36 (KHTML, like Gecko) Chrome/87.0.4280.141 Safari/537.36",WebKit,Chrome,87.0.4280.141,Windows,10
110,1,2210.3,"""",image-button-response,1,5213,0.0-1.0,directionsMemoryAssociation1.JPG,0,1,IntroDirections1,break,"""","""","""","""","""","""","""","""","""",1/27/2021 2:20,67.83.183.0,"Mozilla/5.0 (Windows NT 10.0; Win64; x64) AppleWebKit/537.36 (KHTML, like Gecko) Chrome/87.0.4280.141 Safari/537.36",WebKit,Chrome,87.0.4280.141,Windows,10
110,1,423.24,"""",image-button-response,2,5641,0.0-2.0,directionsMemoryAssociation2.JPG,0,1,IntroDirections2,break,"""","""","""","""","""","""","""","""","""",1/27/2021 2:20,67.83.183.0,"Mozilla/5.0 (Windows NT 10.0; Win64; x64) AppleWebKit/537.36 (KHTML, like Gecko) Chrome/87.0.4280.141 Safari/537.36",WebKit,Chrome,87.0.4280.141,Windows,10
110,1,1555.455,"""",image-button-response,3,7222,0.0-3.0,directionsForTest.JPG,0,1,directionsForTest,break,"""","""","""","""","""","""","""","""","""",1/27/2021 2:20,67.83.183.0,"Mozilla/5.0 (Windows NT 10.0; Win64; x64) AppleWebKit/537.36 (KHTML, like Gecko) Chrome/87.0.4280.141 Safari/537.36",WebKit,Chrome,87.0.4280.141,Windows,10
110,1,610.13,"""",image-button-response,4,7836,0.0-4.0,directionsForTest2.JPG,0,1,directionsForTest2,break,"""","""","""","""","""","""","""","""","""",1/27/2021 2:20,67.83.183.0,"Mozilla/5.0 (Windows NT 10.0; Win64; x64) AppleWebKit/537.36 (KHTML, like Gecko) Chrome/87.0.4280.141 Safari/537.36",WebKit,Chrome,87.0.4280.141,Windows,10
110,1,570.17,"""",image-button-response,5,8410,0.0-5.0,directionsMemoryAssociation3.JPG,0,1,DirectionsBeforeActualTEst,Break,"""","""","""","""","""","""","""","""","""",1/27/2021 2:20,67.83.183.0,"Mozilla/5.0 (Windows NT 10.0; Win64; x64) AppleWebKit/537.36 (KHTML, like Gecko) Chrome/87.0.4280.141 Safari/537.36",WebKit,Chrome,87.0.4280.141,Windows,10
110,1,1065.415,"""",html-keyboard-response,6,9477,0.0-6.0,Press Key to Begin Memory Test,"""",1,welcomeScreen,Break,74,"""","""","""","""","""","""","""","""",1/27/2021 2:20,67.83.183.0,"Mozilla/5.0 (Windows NT 10.0; Win64; x64) AppleWebKit/537.36 (KHTML, like Gecko) Chrome/87.0.4280.141 Safari/537.36",WebKit,Chrome,87.0.4280.141,Windows,10
110,1,null,"""",html-keyboard-response,7,10479,0.0-7.0,"<div style=""font-size:60px;"">+</div>","""",1,ITI,Test,null,1000,"""","""","""","""","""","""","""",1/27/2021 2:20,67.83.183.0,"Mozilla/5.0 (Windows NT 10.0; Win64; x64) AppleWebKit/537.36 (KHTML, like Gecko) Chrome/87.0.4280.141 Safari/537.36",WebKit,Chrome,87.0.4280.141,Windows,10
110,1,null,"""",image-keyboard-response,8,10733,0.0-8.0,jspsych/scrambledDisgustFaces/scrambledBM28DIS.JPG,"""",1,forwardMask,Test,null,250,d,"""","""","""","""","""","""",1/27/2021 2:20,67.83.183.0,"Mozilla/5.0 (Windows NT 10.0; Win64; x64) AppleWebKit/537.36 (KHTML, like Gecko) Chrome/87.0.4280.141 Safari/537.36",WebKit,Chrome,87.0.4280.141,Windows,10
110,1,null,"""",image-keyboard-response,9,10752,0.0-9.0,jspsych/disgustFaces/BM29DIS.JPG,"""",1,Cue,Test,null,16,"""","""","""","""","""","""","""",1/27/2021 2:20,67.83.183.0,"Mozilla/5.0 (Windows NT 10.0; Win64; x64) AppleWebKit/537.36 (KHTML, like Gecko) Chrome/87.0.4280.141 Safari/537.36",WebKit,Chrome,87.0.4280.141,Windows,10
110,1,null,"""",image-keyboard-response,10,10857,0.0-10.0,jspsych/neutralFaces/AM33NES.JPG,"""",1,backwardMask,Test,null,100,"""","""","""","""","""","""","""",1/27/2021 2:20,67.83.183.0,"Mozilla/5.0 (Windows NT 10.0; Win64; x64) AppleWebKit/537.36 (KHTML, like Gecko) Chrome/87.0.4280.141 Safari/537.36",WebKit,Chrome,87.0.4280.141,Windows,10
110,1,null,"""",html-keyboard-response,11,11860,0.0-11.0,"<div style=""font-size:60px;"">+</div>","""",1,fixationBtwnNeutralMaskAndPrompt,Test,null,1000,"""","""","""","""","""","""","""",1/27/2021 2:20,67.83.183.0,"Mozilla/5.0 (Windows NT 10.0; Win64; x64) AppleWebKit/537.36 (KHTML, like Gecko) Chrome/87.0.4280.141 Safari/537.36",WebKit,Chrome,87.0.4280.141,Windows,10
110,1,null,"""",html-slider-response,12,11965,0.0-12.0,"<img src='jspsych/CFDfaces/CFD-BF-005-001-N.jpg' height=""250px"">,</br><b>Alicia</b>","""",1,ConfidenceQuery,Test,"""","""","""",50,null,1,CFD-BF-005-001-N.jpg,Alicia,0,1/27/2021 2:20,67.83.183.0,"Mozilla/5.0 (Windows NT 10.0; Win64; x64) AppleWebKit/537.36 (KHTML, like Gecko) Chrome/87.0.4280.141 Safari/537.36",WebKit,Chrome,87.0.4280.141,Windows,10
110,1,null,"""",html-keyboard-response,13,13739,0.0-13.0,"<div style=""font-size:60px;"">+</div>","""",2,ITI,Test,null,1000,"""","""","""","""","""","""","""",1/27/2021 2:20,67.83.183.0,"Mozilla/5.0 (Windows NT 10.0; Win64; x64) AppleWebKit/537.36 (KHTML, like Gecko) Chrome/87.0.4280.141 Safari/537.36",WebKit,Chrome,87.0.4280.141,Windows,10
110,1,null,"""",image-keyboard-response,14,14739,0.0-14.0,jspsych/scrambledNeutralFaces/scrambledBF17NES.JPG,"""",2,forwardMask,Test,null,250,n,"""","""","""","""","""","""",1/27/2021 2:20,67.83.183.0,"Mozilla/5.0 (Windows NT 10.0; Win64; x64) AppleWebKit/537.36 (KHTML, like Gecko) Chrome/87.0.4280.141 Safari/537.36",WebKit,Chrome,87.0.4280.141,Windows,10
110,1,null,"""",image-keyboard-response,15,15738,0.0-15.0,jspsych/neutralFaces/BF17NES.JPG,"""",2,Cue,Test,null,16,"""","""","""","""","""","""","""",1/27/2021 2:20,67.83.183.0,"Mozilla/5.0 (Windows NT 10.0; Win64; x64) AppleWebKit/537.36 (KHTML, like Gecko) Chrome/87.0.4280.141 Safari/537.36",WebKit,Chrome,87.0.4280.141,Windows,10
110,1,null,"""",image-keyboard-response,16,16739,0.0-16.0,jspsych/neutralFaces/BF16NES.JPG,"""",2,backwardMask,Test,null,100,"""","""","""","""","""","""","""",1/27/2021 2:20,67.83.183.0,"Mozilla/5.0 (Windows NT 10.0; Win64; x64) AppleWebKit/537.36 (KHTML, like Gecko) Chrome/87.0.4280.141 Safari/537.36",WebKit,Chrome,87.0.4280.141,Windows,10
110,1,null,"""",html-keyboard-response,17,17742,0.0-17.0,"<div style=""font-size:60px;"">+</div>","""",2,fixationBtwnNeutralMaskAndPrompt,Test,null,1000,"""","""","""","""","""","""","""",1/27/2021 2:20,67.83.183.0,"Mozilla/5.0 (Windows NT 10.0; Win64; x64) AppleWebKit/537.36 (KHTML, like Gecko) Chrome/87.0.4280.141 Safari/537.36",WebKit,Chrome,87.0.4280.141,Windows,10
110,1,null,"""",html-slider-response,18,18739,0.0-18.0,"<img src='jspsych/CFDfaces/CFD-WM-006-002-N.jpg' height=""250px"">,</br><b>Luis</b>","""",2,ConfidenceQuery,Test,"""","""","""",50,null,1,CFD-WM-006-002-N.jpg,Luis,0,1/27/2021 2:20,67.83.183.0,"Mozilla/5.0 (Windows NT 10.0; Win64; x64) AppleWebKit/537.36 (KHTML, like Gecko) Chrome/87.0.4280.141 Safari/537.36",WebKit,Chrome,87.0.4280.141,Windows,10
110,1,null,"""",html-keyboard-response,19,20739,0.0-19.0,"<div style=""font-size:60px;"">+</div>","""",3,ITI,Test,null,1000,"""","""","""","""","""","""","""",1/27/2021 2:20,67.83.183.0,"Mozilla/5.0 (Windows NT 10.0; Win64; x64) AppleWebKit/537.36 (KHTML, like Gecko) Chrome/87.0.4280.141 Safari/537.36",WebKit,Chrome,87.0.4280.141,Windows,10
110,1,null,"""",image-keyboard-response,20,21739,0.0-20.0,jspsych/scrambledNeutralFaces/scrambledAM27NES.JPG,"""",3,forwardMask,Test,null,250,n,"""","""","""","""","""","""",1/27/2021 2:20,67.83.183.0,"Mozilla/5.0 (Windows NT 10.0; Win64; x64) AppleWebKit/537.36 (KHTML, like Gecko) Chrome/87.0.4280.141 Safari/537.36",WebKit,Chrome,87.0.4280.141,Windows,10
110,1,null,"""",image-keyboard-response,21,22739,0.0-21.0,jspsych/neutralFaces/AM27NES.JPG,"""",3,Cue,Test,null,16,"""","""","""","""","""","""","""",1/27/2021 2:20,67.83.183.0,"Mozilla/5.0 (Windows NT 10.0; Win64; x64) AppleWebKit/537.36 (KHTML, like Gecko) Chrome/87.0.4280.141 Safari/537.36",WebKit,Chrome,87.0.4280.141,Windows,10
110,1,null,"""",image-keyboard-response,22,23739,0.0-22.0,jspsych/neutralFaces/BM13NES.JPG,"""",3,backwardMask,Test,null,100,"""","""","""","""","""","""","""",1/27/2021 2:20,67.83.183.0,"Mozilla/5.0 (Windows NT 10.0; Win64; x64) AppleWebKit/537.36 (KHTML, like Gecko) Chrome/87.0.4280.141 Safari/537.36",WebKit,Chrome,87.0.4280.141,Windows,10
110,1,null,"""",html-keyboard-response,23,24742,0.0-23.0,"<div style=""font-size:60px;"">+</div>","""",3,fixationBtwnNeutralMaskAndPrompt,Test,null,1000,"""","""","""","""","""","""","""",1/27/2021 2:20,67.83.183.0,"Mozilla/5.0 (Windows NT 10.0; Win64; x64) AppleWebKit/537.36 (KHTML, like Gecko) Chrome/87.0.4280.141 Safari/537.36",WebKit,Chrome,87.0.4280.141,Windows,10
110,1,null,"""",html-slider-response,24,25739,0.0-24.0,"<img src='jspsych/CFDfaces/CFD-BM-002-013-N.jpg' height=""250px"">,</br><b>Kyle</b>","""",3,ConfidenceQuery,Test,"""","""","""",50,null,0,CFD-BM-002-013-N.jpg,Kyle,0,1/27/2021 2:20,67.83.183.0,"Mozilla/5.0 (Windows NT 10.0; Win64; x64) AppleWebKit/537.36 (KHTML, like Gecko) Chrome/87.0.4280.141 Safari/537.36",WebKit,Chrome,87.0.4280.141,Windows,10
110,1,null,"""",html-keyboard-response,25,27738,0.0-25.0,"<div style=""font-size:60px;"">+</div>","""",4,ITI,Test,null,1000,"""","""","""","""","""","""","""",1/27/2021 2:20,67.83.183.0,"Mozilla/5.0 (Windows NT 10.0; Win64; x64) AppleWebKit/537.36 (KHTML, like Gecko) Chrome/87.0.4280.141 Safari/537.36",WebKit,Chrome,87.0.4280.141,Windows,10
110,1,null,"""",image-keyboard-response,26,28738,0.0-26.0,jspsych/scrambledNeutralFaces/scrambledAF26NES.JPG,"""",4,forwardMask,Test,null,250,n,"""","""","""","""","""","""",1/27/2021 2:20,67.83.183.0,"Mozilla/5.0 (Windows NT 10.0; Win64; x64) AppleWebKit/537.36 (KHTML, like Gecko) Chrome/87.0.4280.141 Safari/537.36",WebKit,Chrome,87.0.4280.141,Windows,10
110,1,null,"""",image-keyboard-response,27,29739,0.0-27.0,jspsych/neutralFaces/AF26NES.JPG,"""",4,Cue,Test,null,16,"""","""","""","""","""","""","""",1/27/2021 2:20,67.83.183.0,"Mozilla/5.0 (Windows NT 10.0; Win64; x64) AppleWebKit/537.36 (KHTML, like Gecko) Chrome/87.0.4280.141 Safari/537.36",WebKit,Chrome,87.0.4280.141,Windows,10
110,1,null,"""",image-keyboard-response,28,30739,0.0-28.0,jspsych/neutralFaces/AF03NES.JPG,"""",4,backwardMask,Test,null,100,"""","""","""","""","""","""","""",1/27/2021 2:20,67.83.183.0,"Mozilla/5.0 (Windows NT 10.0; Win64; x64) AppleWebKit/537.36 (KHTML, like Gecko) Chrome/87.0.4280.141 Safari/537.36",WebKit,Chrome,87.0.4280.141,Windows,10
110,1,null,"""",html-keyboard-response,29,31741,0.0-29.0,"<div style=""font-size:60px;"">+</div>","""",4,fixationBtwnNeutralMaskAndPrompt,Test,null,1000,"""","""","""","""","""","""","""",1/27/2021 2:20,67.83.183.0,"Mozilla/5.0 (Windows NT 10.0; Win64; x64) AppleWebKit/537.36 (KHTML, like Gecko) Chrome/87.0.4280.141 Safari/537.36",WebKit,Chrome,87.0.4280.141,Windows,10
110,1,null,"""",html-slider-response,30,32739,0.0-30.0,"<img src='jspsych/CFDfaces/CFD-WM-011-002-N.jpg' height=""250px"">,</br><b>Sean</b>","""",4,ConfidenceQuery,Test,"""","""","""",50,null,1,CFD-WM-011-002-N.jpg,Sean,0,1/27/2021 2:20,67.83.183.0,"Mozilla/5.0 (Windows NT 10.0; Win64; x64) AppleWebKit/537.36 (KHTML, like Gecko) Chrome/87.0.4280.141 Safari/537.36",WebKit,Chrome,87.0.4280.141,Windows,10
110,1,null,"""",html-keyboard-response,31,34739,0.0-31.0,"<div style=""font-size:60px;"">+</div>","""",5,ITI,Test,null,1000,"""","""","""","""","""","""","""",1/27/2021 2:20,67.83.183.0,"Mozilla/5.0 (Windows NT 10.0; Win64; x64) AppleWebKit/537.36 (KHTML, like Gecko) Chrome/87.0.4280.141 Safari/537.36",WebKit,Chrome,87.0.4280.141,Windows,10
110,1,null,"""",image-keyboard-response,32,35739,0.0-32.0,jspsych/scrambledNeutralFaces/scrambledBM30NES.JPG,"""",5,forwardMask,Test,null,250,n,"""","""","""","""","""","""",1/27/2021 2:20,67.83.183.0,"Mozilla/5.0 (Windows NT 10.0; Win64; x64) AppleWebKit/537.36 (KHTML, like Gecko) Chrome/87.0.4280.141 Safari/537.36",WebKit,Chrome,87.0.4280.141,Windows,10
110,1,null,"""",image-keyboard-response,33,36739,0.0-33.0,jspsych/neutralFaces/BM30NES.JPG,"""",5,Cue,Test,null,16,"""","""","""","""","""","""","""",1/27/2021 2:20,67.83.183.0,"Mozilla/5.0 (Windows NT 10.0; Win64; x64) AppleWebKit/537.36 (KHTML, like Gecko) Chrome/87.0.4280.141 Safari/537.36",WebKit,Chrome,87.0.4280.141,Windows,10
110,1,null,"""",image-keyboard-response,34,37739,0.0-34.0,jspsych/neutralFaces/AM02NES.JPG,"""",5,backwardMask,Test,null,100,"""","""","""","""","""","""","""",1/27/2021 2:20,67.83.183.0,"Mozilla/5.0 (Windows NT 10.0; Win64; x64) AppleWebKit/537.36 (KHTML, like Gecko) Chrome/87.0.4280.141 Safari/537.36",WebKit,Chrome,87.0.4280.141,Windows,10
110,1,null,"""",html-keyboard-response,35,38740,0.0-35.0,"<div style=""font-size:60px;"">+</div>","""",5,fixationBtwnNeutralMaskAndPrompt,Test,null,1000,"""","""","""","""","""","""","""",1/27/2021 2:20,67.83.183.0,"Mozilla/5.0 (Windows NT 10.0; Win64; x64) AppleWebKit/537.36 (KHTML, like Gecko) Chrome/87.0.4280.141 Safari/537.36",WebKit,Chrome,87.0.4280.141,Windows,10
110,1,null,"""",html-slider-response,36,39739,0.0-36.0,"<img src='jspsych/CFDfaces/CFD-AM-243-212-N.jpg' height=""250px"">,</br><b>Joshua</b>","""",5,ConfidenceQuery,Test,"""","""","""",50,null,0,CFD-AM-243-212-N.jpg,Joshua,0,1/27/2021 2:20,67.83.183.0,"Mozilla/5.0 (Windows NT 10.0; Win64; x64) AppleWebKit/537.36 (KHTML, like Gecko) Chrome/87.0.4280.141 Safari/537.36",WebKit,Chrome,87.0.4280.141,Windows,10
110,1,null,"""",html-keyboard-response,37,41739,0.0-37.0,"<div style=""font-size:60px;"">+</div>","""",6,ITI,Test,null,1000,"""","""","""","""","""","""","""",1/27/2021 2:20,67.83.183.0,"Mozilla/5.0 (Windows NT 10.0; Win64; x64) AppleWebKit/537.36 (KHTML, like Gecko) Chrome/87.0.4280.141 Safari/537.36",WebKit,Chrome,87.0.4280.141,Windows,10
110,1,null,"""",image-keyboard-response,38,42738,0.0-38.0,jspsych/scrambledDisgustFaces/scrambledAF24DIS.JPG,"""",6,forwardMask,Test,null,250,d,"""","""","""","""","""","""",1/27/2021 2:20,67.83.183.0,"Mozilla/5.0 (Windows NT 10.0; Win64; x64) AppleWebKit/537.36 (KHTML, like Gecko) Chrome/87.0.4280.141 Safari/537.36",WebKit,Chrome,87.0.4280.141,Windows,10
110,1,null,"""",image-keyboard-response,39,43739,0.0-39.0,jspsych/disgustFaces/AF24DIS.JPG,"""",6,Cue,Test,null,16,"""","""","""","""","""","""","""",1/27/2021 2:20,67.83.183.0,"Mozilla/5.0 (Windows NT 10.0; Win64; x64) AppleWebKit/537.36 (KHTML, like Gecko) Chrome/87.0.4280.141 Safari/537.36",WebKit,Chrome,87.0.4280.141,Windows,10
110,1,null,"""",image-keyboard-response,40,44739,0.0-40.0,jspsych/neutralFaces/AF06NES.JPG,"""",6,backwardMask,Test,null,100,"""","""","""","""","""","""","""",1/27/2021 2:20,67.83.183.0,"Mozilla/5.0 (Windows NT 10.0; Win64; x64) AppleWebKit/537.36 (KHTML, like Gecko) Chrome/87.0.4280.141 Safari/537.36",WebKit,Chrome,87.0.4280.141,Windows,10
110,1,null,"""",html-keyboard-response,41,45741,0.0-41.0,"<div style=""font-size:60px;"">+</div>","""",6,fixationBtwnNeutralMaskAndPrompt,Test,null,1000,"""","""","""","""","""","""","""",1/27/2021 2:20,67.83.183.0,"Mozilla/5.0 (Windows NT 10.0; Win64; x64) AppleWebKit/537.36 (KHTML, like Gecko) Chrome/87.0.4280.141 Safari/537.36",WebKit,Chrome,87.0.4280.141,Windows,10
110,1,null,"""",html-slider-response,42,46739,0.0-42.0,"<img src='jspsych/CFDfaces/CFD-BF-008-001-N.jpg' height=""250px"">,</br><b>Sarah</b>","""",6,ConfidenceQuery,Test,"""","""","""",50,null,0,CFD-BF-008-001-N.jpg,Sarah,0,1/27/2021 2:20,67.83.183.0,"Mozilla/5.0 (Windows NT 10.0; Win64; x64) AppleWebKit/537.36 (KHTML, like Gecko) Chrome/87.0.4280.141 Safari/537.36",WebKit,Chrome,87.0.4280.141,Windows,10
110,1,null,"""",html-keyboard-response,43,48739,0.0-43.0,"<div style=""font-size:60px;"">+</div>","""",7,ITI,Test,null,1000,"""","""","""","""","""","""","""",1/27/2021 2:20,67.83.183.0,"Mozilla/5.0 (Windows NT 10.0; Win64; x64) AppleWebKit/537.36 (KHTML, like Gecko) Chrome/87.0.4280.141 Safari/537.36",WebKit,Chrome,87.0.4280.141,Windows,10
110,1,null,"""",image-keyboard-response,44,49739,0.0-44.0,jspsych/scrambledNeutralFaces/scrambledBM33NES.JPG,"""",7,forwardMask,Test,null,250,n,"""","""","""","""","""","""",1/27/2021 2:20,67.83.183.0,"Mozilla/5.0 (Windows NT 10.0; Win64; x64) AppleWebKit/537.36 (KHTML, like Gecko) Chrome/87.0.4280.141 Safari/537.36",WebKit,Chrome,87.0.4280.141,Windows,10
110,1,null,"""",image-keyboard-response,45,50739,0.0-45.0,jspsych/neutralFaces/BM33NES.JPG,"""",7,Cue,Test,null,16,"""","""","""","""","""","""","""",1/27/2021 2:20,67.83.183.0,"Mozilla/5.0 (Windows NT 10.0; Win64; x64) AppleWebKit/537.36 (KHTML, like Gecko) Chrome/87.0.4280.141 Safari/537.36",WebKit,Chrome,87.0.4280.141,Windows,10
110,1,null,"""",image-keyboard-response,46,51740,0.0-46.0,jspsych/neutralFaces/BM23NES.JPG,"""",7,backwardMask,Test,null,100,"""","""","""","""","""","""","""",1/27/2021 2:20,67.83.183.0,"Mozilla/5.0 (Windows NT 10.0; Win64; x64) AppleWebKit/537.36 (KHTML, like Gecko) Chrome/87.0.4280.141 Safari/537.36",WebKit,Chrome,87.0.4280.141,Windows,10
110,1,null,"""",html-keyboard-response,47,52742,0.0-47.0,"<div style=""font-size:60px;"">+</div>","""",7,fixationBtwnNeutralMaskAndPrompt,Test,null,1000,"""","""","""","""","""","""","""",1/27/2021 2:20,67.83.183.0,"Mozilla/5.0 (Windows NT 10.0; Win64; x64) AppleWebKit/537.36 (KHTML, like Gecko) Chrome/87.0.4280.141 Safari/537.36",WebKit,Chrome,87.0.4280.141,Windows,10
110,1,null,"""",html-slider-response,48,53739,0.0-48.0,"<img src='jspsych/CFDfaces/CFD-BM-041-035-N.jpg' height=""250px"">,</br><b>Keith</b>","""",7,ConfidenceQuery,Test,"""","""","""",50,null,1,CFD-BM-041-035-N.jpg,Keith,0,1/27/2021 2:20,67.83.183.0,"Mozilla/5.0 (Windows NT 10.0; Win64; x64) AppleWebKit/537.36 (KHTML, like Gecko) Chrome/87.0.4280.141 Safari/537.36",WebKit,Chrome,87.0.4280.141,Windows,10
110,1,null,"""",html-keyboard-response,49,55739,0.0-49.0,"<div style=""font-size:60px;"">+</div>","""",8,ITI,Test,null,1000,"""","""","""","""","""","""","""",1/27/2021 2:20,67.83.183.0,"Mozilla/5.0 (Windows NT 10.0; Win64; x64) AppleWebKit/537.36 (KHTML, like Gecko) Chrome/87.0.4280.141 Safari/537.36",WebKit,Chrome,87.0.4280.141,Windows,10
110,1,null,"""",image-keyboard-response,50,56741,0.0-50.0,jspsych/scrambledDisgustFaces/scrambledBF07DIS.JPG,"""",8,forwardMask,Test,null,250,d,"""","""","""","""","""","""",1/27/2021 2:20,67.83.183.0,"Mozilla/5.0 (Windows NT 10.0; Win64; x64) AppleWebKit/537.36 (KHTML, like Gecko) Chrome/87.0.4280.141 Safari/537.36",WebKit,Chrome,87.0.4280.141,Windows,10
110,1,null,"""",image-keyboard-response,51,57739,0.0-51.0,jspsych/disgustFaces/BF07DIS.JPG,"""",8,Cue,Test,null,16,"""","""","""","""","""","""","""",1/27/2021 2:20,67.83.183.0,"Mozilla/5.0 (Windows NT 10.0; Win64; x64) AppleWebKit/537.36 (KHTML, like Gecko) Chrome/87.0.4280.141 Safari/537.36",WebKit,Chrome,87.0.4280.141,Windows,10
110,1,null,"""",image-keyboard-response,52,58739,0.0-52.0,jspsych/neutralFaces/BF30NES.JPG,"""",8,backwardMask,Test,null,100,"""","""","""","""","""","""","""",1/27/2021 2:20,67.83.183.0,"Mozilla/5.0 (Windows NT 10.0; Win64; x64) AppleWebKit/537.36 (KHTML, like Gecko) Chrome/87.0.4280.141 Safari/537.36",WebKit,Chrome,87.0.4280.141,Windows,10
110,1,null,"""",html-keyboard-response,53,59741,0.0-53.0,"<div style=""font-size:60px;"">+</div>","""",8,fixationBtwnNeutralMaskAndPrompt,Test,null,1000,"""","""","""","""","""","""","""",1/27/2021 2:20,67.83.183.0,"Mozilla/5.0 (Windows NT 10.0; Win64; x64) AppleWebKit/537.36 (KHTML, like Gecko) Chrome/87.0.4280.141 Safari/537.36",WebKit,Chrome,87.0.4280.141,Windows,10
110,1,null,"""",html-slider-response,54,60739,0.0-54.0,"<img src='jspsych/CFDfaces/CFD-WM-015-002-N.jpg' height=""250px"">,</br><b>Ryan</b>","""",8,ConfidenceQuery,Test,"""","""","""",50,null,0,CFD-WM-015-002-N.jpg,Ryan,0,1/27/2021 2:20,67.83.183.0,"Mozilla/5.0 (Windows NT 10.0; Win64; x64) AppleWebKit/537.36 (KHTML, like Gecko) Chrome/87.0.4280.141 Safari/537.36",WebKit,Chrome,87.0.4280.141,Windows,10
110,1,null,"""",html-keyboard-response,55,62739,0.0-55.0,"<div style=""font-size:60px;"">+</div>","""",9,ITI,Test,null,1000,"""","""","""","""","""","""","""",1/27/2021 2:20,67.83.183.0,"Mozilla/5.0 (Windows NT 10.0; Win64; x64) AppleWebKit/537.36 (KHTML, like Gecko) Chrome/87.0.4280.141 Safari/537.36",WebKit,Chrome,87.0.4280.141,Windows,10
110,1,null,"""",image-keyboard-response,56,63739,0.0-56.0,jspsych/scrambledDisgustFaces/scrambledBM20DIS.JPG,"""",9,forwardMask,Test,null,250,d,"""","""","""","""","""","""",1/27/2021 2:20,67.83.183.0,"Mozilla/5.0 (Windows NT 10.0; Win64; x64) AppleWebKit/537.36 (KHTML, like Gecko) Chrome/87.0.4280.141 Safari/537.36",WebKit,Chrome,87.0.4280.141,Windows,10
110,1,null,"""",image-keyboard-response,57,64739,0.0-57.0,jspsych/disgustFaces/BM21DIS.JPG,"""",9,Cue,Test,null,16,"""","""","""","""","""","""","""",1/27/2021 2:20,67.83.183.0,"Mozilla/5.0 (Windows NT 10.0; Win64; x64) AppleWebKit/537.36 (KHTML, like Gecko) Chrome/87.0.4280.141 Safari/537.36",WebKit,Chrome,87.0.4280.141,Windows,10
110,1,null,"""",image-keyboard-response,58,65740,0.0-58.0,jspsych/neutralFaces/AM07NES.JPG,"""",9,backwardMask,Test,null,100,"""","""","""","""","""","""","""",1/27/2021 2:20,67.83.183.0,"Mozilla/5.0 (Windows NT 10.0; Win64; x64) AppleWebKit/537.36 (KHTML, like Gecko) Chrome/87.0.4280.141 Safari/537.36",WebKit,Chrome,87.0.4280.141,Windows,10
110,1,null,"""",html-keyboard-response,59,66742,0.0-59.0,"<div style=""font-size:60px;"">+</div>","""",9,fixationBtwnNeutralMaskAndPrompt,Test,null,1000,"""","""","""","""","""","""","""",1/27/2021 2:20,67.83.183.0,"Mozilla/5.0 (Windows NT 10.0; Win64; x64) AppleWebKit/537.36 (KHTML, like Gecko) Chrome/87.0.4280.141 Safari/537.36",WebKit,Chrome,87.0.4280.141,Windows,10
110,1,null,"""",html-slider-response,60,67740,0.0-60.0,"<img src='jspsych/CFDfaces/CFD-BM-039-029-N.jpg' height=""250px"">,</br><b>Stephen</b>","""",9,ConfidenceQuery,Test,"""","""","""",50,null,0,CFD-BM-039-029-N.jpg,Stephen,0,1/27/2021 2:20,67.83.183.0,"Mozilla/5.0 (Windows NT 10.0; Win64; x64) AppleWebKit/537.36 (KHTML, like Gecko) Chrome/87.0.4280.141 Safari/537.36",WebKit,Chrome,87.0.4280.141,Windows,10
110,1,null,"""",html-keyboard-response,61,69739,0.0-61.0,"<div style=""font-size:60px;"">+</div>","""",10,ITI,Test,null,1000,"""","""","""","""","""","""","""",1/27/2021 2:20,67.83.183.0,"Mozilla/5.0 (Windows NT 10.0; Win64; x64) AppleWebKit/537.36 (KHTML, like Gecko) Chrome/87.0.4280.141 Safari/537.36",WebKit,Chrome,87.0.4280.141,Windows,10
110,1,null,"""",image-keyboard-response,62,70739,0.0-62.0,jspsych/scrambledDisgustFaces/scrambledBF12DIS.JPG,"""",10,forwardMask,Test,null,250,d,"""","""","""","""","""","""",1/27/2021 2:20,67.83.183.0,"Mozilla/5.0 (Windows NT 10.0; Win64; x64) AppleWebKit/537.36 (KHTML, like Gecko) Chrome/87.0.4280.141 Safari/537.36",WebKit,Chrome,87.0.4280.141,Windows,10
110,1,null,"""",image-keyboard-response,63,71740,0.0-63.0,jspsych/disgustFaces/BF12DIS.JPG,"""",10,Cue,Test,null,16,"""","""","""","""","""","""","""",1/27/2021 2:20,67.83.183.0,"Mozilla/5.0 (Windows NT 10.0; Win64; x64) AppleWebKit/537.36 (KHTML, like Gecko) Chrome/87.0.4280.141 Safari/537.36",WebKit,Chrome,87.0.4280.141,Windows,10
110,1,null,"""",image-keyboard-response,64,72739,0.0-64.0,jspsych/neutralFaces/BF10NES.JPG,"""",10,backwardMask,Test,null,100,"""","""","""","""","""","""","""",1/27/2021 2:20,67.83.183.0,"Mozilla/5.0 (Windows NT 10.0; Win64; x64) AppleWebKit/537.36 (KHTML, like Gecko) Chrome/87.0.4280.141 Safari/537.36",WebKit,Chrome,87.0.4280.141,Windows,10
110,1,null,"""",html-keyboard-response,65,73741,0.0-65.0,"<div style=""font-size:60px;"">+</div>","""",10,fixationBtwnNeutralMaskAndPrompt,Test,null,1000,"""","""","""","""","""","""","""",1/27/2021 2:20,67.83.183.0,"Mozilla/5.0 (Windows NT 10.0; Win64; x64) AppleWebKit/537.36 (KHTML, like Gecko) Chrome/87.0.4280.141 Safari/537.36",WebKit,Chrome,87.0.4280.141,Windows,10
110,1,null,"""",html-slider-response,66,74740,0.0-66.0,"<img src='jspsych/CFDfaces/CFD-AM-207-108-N.jpg' height=""250px"">,</br><b>Steven</b>","""",10,ConfidenceQuery,Test,"""","""","""",50,null,1,CFD-AM-207-108-N.jpg,Steven,0,1/27/2021 2:20,67.83.183.0,"Mozilla/5.0 (Windows NT 10.0; Win64; x64) AppleWebKit/537.36 (KHTML, like Gecko) Chrome/87.0.4280.141 Safari/537.36",WebKit,Chrome,87.0.4280.141,Windows,10
110,1,null,"""",html-keyboard-response,67,76740,0.0-67.0,"<div style=""font-size:60px;"">+</div>","""",11,ITI,Test,null,1000,"""","""","""","""","""","""","""",1/27/2021 2:20,67.83.183.0,"Mozilla/5.0 (Windows NT 10.0; Win64; x64) AppleWebKit/537.36 (KHTML, like Gecko) Chrome/87.0.4280.141 Safari/537.36",WebKit,Chrome,87.0.4280.141,Windows,10
110,1,null,"""",image-keyboard-response,68,77739,0.0-68.0,jspsych/scrambledNeutralFaces/scrambledAM06NES.JPG,"""",11,forwardMask,Test,null,250,n,"""","""","""","""","""","""",1/27/2021 2:20,67.83.183.0,"Mozilla/5.0 (Windows NT 10.0; Win64; x64) AppleWebKit/537.36 (KHTML, like Gecko) Chrome/87.0.4280.141 Safari/537.36",WebKit,Chrome,87.0.4280.141,Windows,10
110,1,null,"""",image-keyboard-response,69,78739,0.0-69.0,jspsych/neutralFaces/AM06NES.JPG,"""",11,Cue,Test,null,16,"""","""","""","""","""","""","""",1/27/2021 2:20,67.83.183.0,"Mozilla/5.0 (Windows NT 10.0; Win64; x64) AppleWebKit/537.36 (KHTML, like Gecko) Chrome/87.0.4280.141 Safari/537.36",WebKit,Chrome,87.0.4280.141,Windows,10
110,1,null,"""",image-keyboard-response,70,79739,0.0-70.0,jspsych/neutralFaces/BM26NES.JPG,"""",11,backwardMask,Test,null,100,"""","""","""","""","""","""","""",1/27/2021 2:20,67.83.183.0,"Mozilla/5.0 (Windows NT 10.0; Win64; x64) AppleWebKit/537.36 (KHTML, like Gecko) Chrome/87.0.4280.141 Safari/537.36",WebKit,Chrome,87.0.4280.141,Windows,10
110,1,null,"""",html-keyboard-response,71,80740,0.0-71.0,"<div style=""font-size:60px;"">+</div>","""",11,fixationBtwnNeutralMaskAndPrompt,Test,null,1000,"""","""","""","""","""","""","""",1/27/2021 2:20,67.83.183.0,"Mozilla/5.0 (Windows NT 10.0; Win64; x64) AppleWebKit/537.36 (KHTML, like Gecko) Chrome/87.0.4280.141 Safari/537.36",WebKit,Chrome,87.0.4280.141,Windows,10
110,1,null,"""",html-slider-response,72,81739,0.0-72.0,"<img src='jspsych/CFDfaces/CFD-AM-231-136-N.jpg' height=""250px"">,</br><b>Daniel</b>","""",11,ConfidenceQuery,Test,"""","""","""",50,null,1,CFD-AM-231-136-N.jpg,Daniel,0,1/27/2021 2:20,67.83.183.0,"Mozilla/5.0 (Windows NT 10.0; Win64; x64) AppleWebKit/537.36 (KHTML, like Gecko) Chrome/87.0.4280.141 Safari/537.36",WebKit,Chrome,87.0.4280.141,Windows,10
110,1,null,"""",html-keyboard-response,73,83740,0.0-73.0,"<div style=""font-size:60px;"">+</div>","""",12,ITI,Test,null,1000,"""","""","""","""","""","""","""",1/27/2021 2:20,67.83.183.0,"Mozilla/5.0 (Windows NT 10.0; Win64; x64) AppleWebKit/537.36 (KHTML, like Gecko) Chrome/87.0.4280.141 Safari/537.36",WebKit,Chrome,87.0.4280.141,Windows,10
110,1,null,"""",image-keyboard-response,74,84739,0.0-74.0,jspsych/scrambledNeutralFaces/scrambledAF31NES.JPG,"""",12,forwardMask,Test,null,250,n,"""","""","""","""","""","""",1/27/2021 2:20,67.83.183.0,"Mozilla/5.0 (Windows NT 10.0; Win64; x64) AppleWebKit/537.36 (KHTML, like Gecko) Chrome/87.0.4280.141 Safari/537.36",WebKit,Chrome,87.0.4280.141,Windows,10
110,1,null,"""",image-keyboard-response,75,85740,0.0-75.0,jspsych/neutralFaces/AF31NES.JPG,"""",12,Cue,Test,null,16,"""","""","""","""","""","""","""",1/27/2021 2:20,67.83.183.0,"Mozilla/5.0 (Windows NT 10.0; Win64; x64) AppleWebKit/537.36 (KHTML, like Gecko) Chrome/87.0.4280.141 Safari/537.36",WebKit,Chrome,87.0.4280.141,Windows,10
110,1,null,"""",image-keyboard-response,76,86739,0.0-76.0,jspsych/neutralFaces/BF20NES.JPG,"""",12,backwardMask,Test,null,100,"""","""","""","""","""","""","""",1/27/2021 2:20,67.83.183.0,"Mozilla/5.0 (Windows NT 10.0; Win64; x64) AppleWebKit/537.36 (KHTML, like Gecko) Chrome/87.0.4280.141 Safari/537.36",WebKit,Chrome,87.0.4280.141,Windows,10
110,1,null,"""",html-keyboard-response,77,88739,0.0-77.0,"<div style=""font-size:60px;"">+</div>","""",12,fixationBtwnNeutralMaskAndPrompt,Test,null,1000,"""","""","""","""","""","""","""",1/27/2021 2:20,67.83.183.0,"Mozilla/5.0 (Windows NT 10.0; Win64; x64) AppleWebKit/537.36 (KHTML, like Gecko) Chrome/87.0.4280.141 Safari/537.36",WebKit,Chrome,87.0.4280.141,Windows,10
110,1,null,"""",html-slider-response,78,89739,0.0-78.0,"<img src='jspsych/CFDfaces/CFD-BM-043-071-N.jpg' height=""250px"">,</br><b>George</b>","""",12,ConfidenceQuery,Test,"""","""","""",50,null,0,CFD-BM-043-071-N.jpg,George,0,1/27/2021 2:20,67.83.183.0,"Mozilla/5.0 (Windows NT 10.0; Win64; x64) AppleWebKit/537.36 (KHTML, like Gecko) Chrome/87.0.4280.141 Safari/537.36",WebKit,Chrome,87.0.4280.141,Windows,10
110,1,null,"""",html-keyboard-response,79,91739,0.0-79.0,"<div style=""font-size:60px;"">+</div>","""",13,ITI,Test,null,1000,"""","""","""","""","""","""","""",1/27/2021 2:20,67.83.183.0,"Mozilla/5.0 (Windows NT 10.0; Win64; x64) AppleWebKit/537.36 (KHTML, like Gecko) Chrome/87.0.4280.141 Safari/537.36",WebKit,Chrome,87.0.4280.141,Windows,10
110,1,null,"""",image-keyboard-response,80,92739,0.0-80.0,jspsych/scrambledDisgustFaces/scrambledAM24DIS.JPG,"""",13,forwardMask,Test,null,250,d,"""","""","""","""","""","""",1/27/2021 2:20,67.83.183.0,"Mozilla/5.0 (Windows NT 10.0; Win64; x64) AppleWebKit/537.36 (KHTML, like Gecko) Chrome/87.0.4280.141 Safari/537.36",WebKit,Chrome,87.0.4280.141,Windows,10
110,1,null,"""",image-keyboard-response,81,93740,0.0-81.0,jspsych/disgustFaces/AM24DIS.JPG,"""",13,Cue,Test,null,16,"""","""","""","""","""","""","""",1/27/2021 2:20,67.83.183.0,"Mozilla/5.0 (Windows NT 10.0; Win64; x64) AppleWebKit/537.36 (KHTML, like Gecko) Chrome/87.0.4280.141 Safari/537.36",WebKit,Chrome,87.0.4280.141,Windows,10
110,1,null,"""",image-keyboard-response,82,94740,0.0-82.0,jspsych/neutralFaces/BM33NES.JPG,"""",13,backwardMask,Test,null,100,"""","""","""","""","""","""","""",1/27/2021 2:20,67.83.183.0,"Mozilla/5.0 (Windows NT 10.0; Win64; x64) AppleWebKit/537.36 (KHTML, like Gecko) Chrome/87.0.4280.141 Safari/537.36",WebKit,Chrome,87.0.4280.141,Windows,10
110,1,null,"""",html-keyboard-response,83,96740,0.0-83.0,"<div style=""font-size:60px;"">+</div>","""",13,fixationBtwnNeutralMaskAndPrompt,Test,null,1000,"""","""","""","""","""","""","""",1/27/2021 2:20,67.83.183.0,"Mozilla/5.0 (Windows NT 10.0; Win64; x64) AppleWebKit/537.36 (KHTML, like Gecko) Chrome/87.0.4280.141 Safari/537.36",WebKit,Chrome,87.0.4280.141,Windows,10
110,1,null,"""",html-slider-response,84,97739,0.0-84.0,"<img src='jspsych/CFDfaces/CFD-AF-243-170-N.jpg' height=""250px"">,</br><b>Maria</b>","""",13,ConfidenceQuery,Test,"""","""","""",50,null,0,CFD-AF-243-170-N.jpg,Maria,0,1/27/2021 2:20,67.83.183.0,"Mozilla/5.0 (Windows NT 10.0; Win64; x64) AppleWebKit/537.36 (KHTML, like Gecko) Chrome/87.0.4280.141 Safari/537.36",WebKit,Chrome,87.0.4280.141,Windows,10
110,1,null,"""",html-keyboard-response,85,99739,0.0-85.0,"<div style=""font-size:60px;"">+</div>","""",14,ITI,Test,null,1000,"""","""","""","""","""","""","""",1/27/2021 2:20,67.83.183.0,"Mozilla/5.0 (Windows NT 10.0; Win64; x64) AppleWebKit/537.36 (KHTML, like Gecko) Chrome/87.0.4280.141 Safari/537.36",WebKit,Chrome,87.0.4280.141,Windows,10
110,1,null,"""",image-keyboard-response,86,100740,0.0-86.0,jspsych/scrambledNeutralFaces/scrambledAF05NES.JPG,"""",14,forwardMask,Test,null,250,n,"""","""","""","""","""","""",1/27/2021 2:20,67.83.183.0,"Mozilla/5.0 (Windows NT 10.0; Win64; x64) AppleWebKit/537.36 (KHTML, like Gecko) Chrome/87.0.4280.141 Safari/537.36",WebKit,Chrome,87.0.4280.141,Windows,10
110,1,null,"""",image-keyboard-response,87,101739,0.0-87.0,jspsych/neutralFaces/AF05NES.JPG,"""",14,Cue,Test,null,16,"""","""","""","""","""","""","""",1/27/2021 2:20,67.83.183.0,"Mozilla/5.0 (Windows NT 10.0; Win64; x64) AppleWebKit/537.36 (KHTML, like Gecko) Chrome/87.0.4280.141 Safari/537.36",WebKit,Chrome,87.0.4280.141,Windows,10
110,1,null,"""",image-keyboard-response,88,102740,0.0-88.0,jspsych/neutralFaces/AF02NES.JPG,"""",14,backwardMask,Test,null,100,"""","""","""","""","""","""","""",1/27/2021 2:20,67.83.183.0,"Mozilla/5.0 (Windows NT 10.0; Win64; x64) AppleWebKit/537.36 (KHTML, like Gecko) Chrome/87.0.4280.141 Safari/537.36",WebKit,Chrome,87.0.4280.141,Windows,10
110,1,null,"""",html-keyboard-response,89,104740,0.0-89.0,"<div style=""font-size:60px;"">+</div>","""",14,fixationBtwnNeutralMaskAndPrompt,Test,null,1000,"""","""","""","""","""","""","""",1/27/2021 2:20,67.83.183.0,"Mozilla/5.0 (Windows NT 10.0; Win64; x64) AppleWebKit/537.36 (KHTML, like Gecko) Chrome/87.0.4280.141 Safari/537.36",WebKit,Chrome,87.0.4280.141,Windows,10
110,1,null,"""",html-slider-response,90,105740,0.0-90.0,"<img src='jspsych/CFDfaces/CFD-BM-211-174-N.jpg' height=""250px"">,</br><b>Cody</b>","""",14,ConfidenceQuery,Test,"""","""","""",50,null,0,CFD-BM-211-174-N.jpg,Cody,0,1/27/2021 2:20,67.83.183.0,"Mozilla/5.0 (Windows NT 10.0; Win64; x64) AppleWebKit/537.36 (KHTML, like Gecko) Chrome/87.0.4280.141 Safari/537.36",WebKit,Chrome,87.0.4280.141,Windows,10
110,1,null,"""",html-keyboard-response,91,107739,0.0-91.0,"<div style=""font-size:60px;"">+</div>","""",15,ITI,Test,null,1000,"""","""","""","""","""","""","""",1/27/2021 2:20,67.83.183.0,"Mozilla/5.0 (Windows NT 10.0; Win64; x64) AppleWebKit/537.36 (KHTML, like Gecko) Chrome/87.0.4280.141 Safari/537.36",WebKit,Chrome,87.0.4280.141,Windows,10
110,1,null,"""",image-keyboard-response,92,108739,0.0-92.0,jspsych/scrambledDisgustFaces/scrambledBM10DIS.JPG,"""",15,forwardMask,Test,null,250,d,"""","""","""","""","""","""",1/27/2021 2:20,67.83.183.0,"Mozilla/5.0 (Windows NT 10.0; Win64; x64) AppleWebKit/537.36 (KHTML, like Gecko) Chrome/87.0.4280.141 Safari/537.36",WebKit,Chrome,87.0.4280.141,Windows,10
110,1,null,"""",image-keyboard-response,93,109739,0.0-93.0,jspsych/disgustFaces/BM11DIS.JPG,"""",15,Cue,Test,null,16,"""","""","""","""","""","""","""",1/27/2021 2:20,67.83.183.0,"Mozilla/5.0 (Windows NT 10.0; Win64; x64) AppleWebKit/537.36 (KHTML, like Gecko) Chrome/87.0.4280.141 Safari/537.36",WebKit,Chrome,87.0.4280.141,Windows,10
110,1,null,"""",image-keyboard-response,94,110739,0.0-94.0,jspsych/neutralFaces/AM09NES.JPG,"""",15,backwardMask,Test,null,100,"""","""","""","""","""","""","""",1/27/2021 2:20,67.83.183.0,"Mozilla/5.0 (Windows NT 10.0; Win64; x64) AppleWebKit/537.36 (KHTML, like Gecko) Chrome/87.0.4280.141 Safari/537.36",WebKit,Chrome,87.0.4280.141,Windows,10
110,1,null,"""",html-keyboard-response,95,112739,0.0-95.0,"<div style=""font-size:60px;"">+</div>","""",15,fixationBtwnNeutralMaskAndPrompt,Test,null,1000,"""","""","""","""","""","""","""",1/27/2021 2:20,67.83.183.0,"Mozilla/5.0 (Windows NT 10.0; Win64; x64) AppleWebKit/537.36 (KHTML, like Gecko) Chrome/87.0.4280.141 Safari/537.36",WebKit,Chrome,87.0.4280.141,Windows,10
110,1,null,"""",html-slider-response,96,113739,0.0-96.0,"<img src='jspsych/CFDfaces/CFD-BF-025-002-N.jpg' height=""250px"">,</br><b>Erika</b>","""",15,ConfidenceQuery,Test,"""","""","""",50,null,1,CFD-BF-025-002-N.jpg,Erika,0,1/27/2021 2:20,67.83.183.0,"Mozilla/5.0 (Windows NT 10.0; Win64; x64) AppleWebKit/537.36 (KHTML, like Gecko) Chrome/87.0.4280.141 Safari/537.36",WebKit,Chrome,87.0.4280.141,Windows,10
110,1,null,"""",html-keyboard-response,97,115762,0.0-97.0,"<div style=""font-size:60px;"">+</div>","""",16,ITI,Test,null,1000,"""","""","""","""","""","""","""",1/27/2021 2:20,67.83.183.0,"Mozilla/5.0 (Windows NT 10.0; Win64; x64) AppleWebKit/537.36 (KHTML, like Gecko) Chrome/87.0.4280.141 Safari/537.36",WebKit,Chrome,87.0.4280.141,Windows,10
110,1,null,"""",image-keyboard-response,98,116739,0.0-98.0,jspsych/scrambledDisgustFaces/scrambledAF34DIS.JPG,"""",16,forwardMask,Test,null,250,d,"""","""","""","""","""","""",1/27/2021 2:20,67.83.183.0,"Mozilla/5.0 (Windows NT 10.0; Win64; x64) AppleWebKit/537.36 (KHTML, like Gecko) Chrome/87.0.4280.141 Safari/537.36",WebKit,Chrome,87.0.4280.141,Windows,10
110,1,null,"""",image-keyboard-response,99,117739,0.0-99.0,jspsych/disgustFaces/AF34DIS.JPG,"""",16,Cue,Test,null,16,"""","""","""","""","""","""","""",1/27/2021 2:20,67.83.183.0,"Mozilla/5.0 (Windows NT 10.0; Win64; x64) AppleWebKit/537.36 (KHTML, like Gecko) Chrome/87.0.4280.141 Safari/537.36",WebKit,Chrome,87.0.4280.141,Windows,10
110,1,null,"""",image-keyboard-response,100,118740,0.0-100.0,jspsych/neutralFaces/AF14NES.JPG,"""",16,backwardMask,Test,null,100,"""","""","""","""","""","""","""",1/27/2021 2:20,67.83.183.0,"Mozilla/5.0 (Windows NT 10.0; Win64; x64) AppleWebKit/537.36 (KHTML, like Gecko) Chrome/87.0.4280.141 Safari/537.36",WebKit,Chrome,87.0.4280.141,Windows,10
110,1,null,"""",html-keyboard-response,101,120740,0.0-101.0,"<div style=""font-size:60px;"">+</div>","""",16,fixationBtwnNeutralMaskAndPrompt,Test,null,1000,"""","""","""","""","""","""","""",1/27/2021 2:20,67.83.183.0,"Mozilla/5.0 (Windows NT 10.0; Win64; x64) AppleWebKit/537.36 (KHTML, like Gecko) Chrome/87.0.4280.141 Safari/537.36",WebKit,Chrome,87.0.4280.141,Windows,10
110,1,null,"""",html-slider-response,102,121739,0.0-102.0,"<img src='jspsych/CFDfaces/CFD-LF-218-072-N.jpg' height=""250px"">,</br><b>Rachel</b>","""",16,ConfidenceQuery,Test,"""","""","""",50,null,0,CFD-LF-218-072-N.jpg,Rachel,0,1/27/2021 2:20,67.83.183.0,"Mozilla/5.0 (Windows NT 10.0; Win64; x64) AppleWebKit/537.36 (KHTML, like Gecko) Chrome/87.0.4280.141 Safari/537.36",WebKit,Chrome,87.0.4280.141,Windows,10
110,1,null,"""",html-keyboard-response,103,123739,0.0-103.0,"<div style=""font-size:60px;"">+</div>","""",17,ITI,Test,null,1000,"""","""","""","""","""","""","""",1/27/2021 2:20,67.83.183.0,"Mozilla/5.0 (Windows NT 10.0; Win64; x64) AppleWebKit/537.36 (KHTML, like Gecko) Chrome/87.0.4280.141 Safari/537.36",WebKit,Chrome,87.0.4280.141,Windows,10
110,1,null,"""",image-keyboard-response,104,124739,0.0-104.0,jspsych/scrambledNeutralFaces/scrambledAM10NES.JPG,"""",17,forwardMask,Test,null,250,n,"""","""","""","""","""","""",1/27/2021 2:20,67.83.183.0,"Mozilla/5.0 (Windows NT 10.0; Win64; x64) AppleWebKit/537.36 (KHTML, like Gecko) Chrome/87.0.4280.141 Safari/537.36",WebKit,Chrome,87.0.4280.141,Windows,10
110,1,null,"""",image-keyboard-response,105,125739,0.0-105.0,jspsych/neutralFaces/AM10NES.JPG,"""",17,Cue,Test,null,16,"""","""","""","""","""","""","""",1/27/2021 2:20,67.83.183.0,"Mozilla/5.0 (Windows NT 10.0; Win64; x64) AppleWebKit/537.36 (KHTML, like Gecko) Chrome/87.0.4280.141 Safari/537.36",WebKit,Chrome,87.0.4280.141,Windows,10
110,1,null,"""",image-keyboard-response,106,126740,0.0-106.0,jspsych/neutralFaces/BM13NES.JPG,"""",17,backwardMask,Test,null,100,"""","""","""","""","""","""","""",1/27/2021 2:20,67.83.183.0,"Mozilla/5.0 (Windows NT 10.0; Win64; x64) AppleWebKit/537.36 (KHTML, like Gecko) Chrome/87.0.4280.141 Safari/537.36",WebKit,Chrome,87.0.4280.141,Windows,10
110,1,null,"""",html-keyboard-response,107,128739,0.0-107.0,"<div style=""font-size:60px;"">+</div>","""",17,fixationBtwnNeutralMaskAndPrompt,Test,null,1000,"""","""","""","""","""","""","""",1/27/2021 2:20,67.83.183.0,"Mozilla/5.0 (Windows NT 10.0; Win64; x64) AppleWebKit/537.36 (KHTML, like Gecko) Chrome/87.0.4280.141 Safari/537.36",WebKit,Chrome,87.0.4280.141,Windows,10
110,1,null,"""",html-slider-response,108,129739,0.0-108.0,"<img src='jspsych/CFDfaces/CFD-LM-233-171-N.jpg' height=""250px"">,</br><b>Christopher</b>","""",17,ConfidenceQuery,Test,"""","""","""",50,null,0,CFD-LM-233-171-N.jpg,Christopher,0,1/27/2021 2:20,67.83.183.0,"Mozilla/5.0 (Windows NT 10.0; Win64; x64) AppleWebKit/537.36 (KHTML, like Gecko) Chrome/87.0.4280.141 Safari/537.36",WebKit,Chrome,87.0.4280.141,Windows,10
110,1,null,"""",html-keyboard-response,109,131740,0.0-109.0,"<div style=""font-size:60px;"">+</div>","""",18,ITI,Test,null,1000,"""","""","""","""","""","""","""",1/27/2021 2:20,67.83.183.0,"Mozilla/5.0 (Windows NT 10.0; Win64; x64) AppleWebKit/537.36 (KHTML, like Gecko) Chrome/87.0.4280.141 Safari/537.36",WebKit,Chrome,87.0.4280.141,Windows,10
110,1,null,"""",image-keyboard-response,110,132739,0.0-110.0,jspsych/scrambledDisgustFaces/scrambledBF04DIS.JPG,"""",18,forwardMask,Test,null,250,d,"""","""","""","""","""","""",1/27/2021 2:20,67.83.183.0,"Mozilla/5.0 (Windows NT 10.0; Win64; x64) AppleWebKit/537.36 (KHTML, like Gecko) Chrome/87.0.4280.141 Safari/537.36",WebKit,Chrome,87.0.4280.141,Windows,10
110,1,null,"""",image-keyboard-response,111,133738,0.0-111.0,jspsych/disgustFaces/BF04DIS.JPG,"""",18,Cue,Test,null,16,"""","""","""","""","""","""","""",1/27/2021 2:20,67.83.183.0,"Mozilla/5.0 (Windows NT 10.0; Win64; x64) AppleWebKit/537.36 (KHTML, like Gecko) Chrome/87.0.4280.141 Safari/537.36",WebKit,Chrome,87.0.4280.141,Windows,10
110,1,null,"""",image-keyboard-response,112,134739,0.0-112.0,jspsych/neutralFaces/BF03NES.JPG,"""",18,backwardMask,Test,null,100,"""","""","""","""","""","""","""",1/27/2021 2:20,67.83.183.0,"Mozilla/5.0 (Windows NT 10.0; Win64; x64) AppleWebKit/537.36 (KHTML, like Gecko) Chrome/87.0.4280.141 Safari/537.36",WebKit,Chrome,87.0.4280.141,Windows,10
110,1,null,"""",html-keyboard-response,113,136740,0.0-113.0,"<div style=""font-size:60px;"">+</div>","""",18,fixationBtwnNeutralMaskAndPrompt,Test,null,1000,"""","""","""","""","""","""","""",1/27/2021 2:20,67.83.183.0,"Mozilla/5.0 (Windows NT 10.0; Win64; x64) AppleWebKit/537.36 (KHTML, like Gecko) Chrome/87.0.4280.141 Safari/537.36",WebKit,Chrome,87.0.4280.141,Windows,10
110,1,null,"""",html-slider-response,114,137739,0.0-114.0,"<img src='jspsych/CFDfaces/CFD-BM-207-024-N.jpg' height=""250px"">,</br><b>Jonathan</b>","""",18,ConfidenceQuery,Test,"""","""","""",50,null,1,CFD-BM-207-024-N.jpg,Jonathan,0,1/27/2021 2:20,67.83.183.0,"Mozilla/5.0 (Windows NT 10.0; Win64; x64) AppleWebKit/537.36 (KHTML, like Gecko) Chrome/87.0.4280.141 Safari/537.36",WebKit,Chrome,87.0.4280.141,Windows,10
110,1,null,"""",html-keyboard-response,115,139740,0.0-115.0,"<div style=""font-size:60px;"">+</div>","""",19,ITI,Test,null,1000,"""","""","""","""","""","""","""",1/27/2021 2:20,67.83.183.0,"Mozilla/5.0 (Windows NT 10.0; Win64; x64) AppleWebKit/537.36 (KHTML, like Gecko) Chrome/87.0.4280.141 Safari/537.36",WebKit,Chrome,87.0.4280.141,Windows,10
110,1,null,"""",image-keyboard-response,116,140739,0.0-116.0,jspsych/scrambledNeutralFaces/scrambledBM23NES.JPG,"""",19,forwardMask,Test,null,250,n,"""","""","""","""","""","""",1/27/2021 2:20,67.83.183.0,"Mozilla/5.0 (Windows NT 10.0; Win64; x64) AppleWebKit/537.36 (KHTML, like Gecko) Chrome/87.0.4280.141 Safari/537.36",WebKit,Chrome,87.0.4280.141,Windows,10
110,1,null,"""",image-keyboard-response,117,141740,0.0-117.0,jspsych/neutralFaces/BM23NES.JPG,"""",19,Cue,Test,null,16,"""","""","""","""","""","""","""",1/27/2021 2:20,67.83.183.0,"Mozilla/5.0 (Windows NT 10.0; Win64; x64) AppleWebKit/537.36 (KHTML, like Gecko) Chrome/87.0.4280.141 Safari/537.36",WebKit,Chrome,87.0.4280.141,Windows,10
110,1,null,"""",image-keyboard-response,118,142739,0.0-118.0,jspsych/neutralFaces/BM05NES.JPG,"""",19,backwardMask,Test,null,100,"""","""","""","""","""","""","""",1/27/2021 2:20,67.83.183.0,"Mozilla/5.0 (Windows NT 10.0; Win64; x64) AppleWebKit/537.36 (KHTML, like Gecko) Chrome/87.0.4280.141 Safari/537.36",WebKit,Chrome,87.0.4280.141,Windows,10
110,1,null,"""",html-keyboard-response,119,144739,0.0-119.0,"<div style=""font-size:60px;"">+</div>","""",19,fixationBtwnNeutralMaskAndPrompt,Test,null,1000,"""","""","""","""","""","""","""",1/27/2021 2:20,67.83.183.0,"Mozilla/5.0 (Windows NT 10.0; Win64; x64) AppleWebKit/537.36 (KHTML, like Gecko) Chrome/87.0.4280.141 Safari/537.36",WebKit,Chrome,87.0.4280.141,Windows,10
110,1,null,"""",html-slider-response,120,145739,0.0-120.0,"<img src='jspsych/CFDfaces/CFD-LF-205-100-N.jpg' height=""250px"">,</br><b>Christine</b>","""",19,ConfidenceQuery,Test,"""","""","""",50,null,0,CFD-LF-205-100-N.jpg,Christine,0,1/27/2021 2:20,67.83.183.0,"Mozilla/5.0 (Windows NT 10.0; Win64; x64) AppleWebKit/537.36 (KHTML, like Gecko) Chrome/87.0.4280.141 Safari/537.36",WebKit,Chrome,87.0.4280.141,Windows,10
110,1,null,"""",html-keyboard-response,121,147739,0.0-121.0,"<div style=""font-size:60px;"">+</div>","""",20,ITI,Test,null,1000,"""","""","""","""","""","""","""",1/27/2021 2:20,67.83.183.0,"Mozilla/5.0 (Windows NT 10.0; Win64; x64) AppleWebKit/537.36 (KHTML, like Gecko) Chrome/87.0.4280.141 Safari/537.36",WebKit,Chrome,87.0.4280.141,Windows,10
110,1,null,"""",image-keyboard-response,122,148739,0.0-122.0,jspsych/scrambledNeutralFaces/scrambledAF05NES.JPG,"""",20,forwardMask,Test,null,250,n,"""","""","""","""","""","""",1/27/2021 2:20,67.83.183.0,"Mozilla/5.0 (Windows NT 10.0; Win64; x64) AppleWebKit/537.36 (KHTML, like Gecko) Chrome/87.0.4280.141 Safari/537.36",WebKit,Chrome,87.0.4280.141,Windows,10
110,1,null,"""",image-keyboard-response,123,149739,0.0-123.0,jspsych/neutralFaces/AF05NES.JPG,"""",20,Cue,Test,null,16,"""","""","""","""","""","""","""",1/27/2021 2:20,67.83.183.0,"Mozilla/5.0 (Windows NT 10.0; Win64; x64) AppleWebKit/537.36 (KHTML, like Gecko) Chrome/87.0.4280.141 Safari/537.36",WebKit,Chrome,87.0.4280.141,Windows,10
110,1,null,"""",image-keyboard-response,124,150739,0.0-124.0,jspsych/neutralFaces/AF04NES.JPG,"""",20,backwardMask,Test,null,100,"""","""","""","""","""","""","""",1/27/2021 2:20,67.83.183.0,"Mozilla/5.0 (Windows NT 10.0; Win64; x64) AppleWebKit/537.36 (KHTML, like Gecko) Chrome/87.0.4280.141 Safari/537.36",WebKit,Chrome,87.0.4280.141,Windows,10
110,1,null,"""",html-keyboard-response,125,151741,0.0-125.0,"<div style=""font-size:60px;"">+</div>","""",20,fixationBtwnNeutralMaskAndPrompt,Test,null,1000,"""","""","""","""","""","""","""",1/27/2021 2:20,67.83.183.0,"Mozilla/5.0 (Windows NT 10.0; Win64; x64) AppleWebKit/537.36 (KHTML, like Gecko) Chrome/87.0.4280.141 Safari/537.36",WebKit,Chrome,87.0.4280.141,Windows,10
110,1,null,"""",html-slider-response,126,152739,0.0-126.0,"<img src='jspsych/CFDfaces/CFD-BF-209-172-N.jpg' height=""250px"">,</br><b>April</b>","""",20,ConfidenceQuery,Test,"""","""","""",50,null,1,CFD-BF-209-172-N.jpg,April,0,1/27/2021 2:20,67.83.183.0,"Mozilla/5.0 (Windows NT 10.0; Win64; x64) AppleWebKit/537.36 (KHTML, like Gecko) Chrome/87.0.4280.141 Safari/537.36",WebKit,Chrome,87.0.4280.141,Windows,10
110,1,null,"""",html-keyboard-response,127,154739,0.0-127.0,"<div style=""font-size:60px;"">+</div>","""",21,ITI,Test,null,1000,"""","""","""","""","""","""","""",1/27/2021 2:20,67.83.183.0,"Mozilla/5.0 (Windows NT 10.0; Win64; x64) AppleWebKit/537.36 (KHTML, like Gecko) Chrome/87.0.4280.141 Safari/537.36",WebKit,Chrome,87.0.4280.141,Windows,10
110,1,null,"""",image-keyboard-response,128,155739,0.0-128.0,jspsych/scrambledNeutralFaces/scrambledBM31NES.JPG,"""",21,forwardMask,Test,null,250,n,"""","""","""","""","""","""",1/27/2021 2:20,67.83.183.0,"Mozilla/5.0 (Windows NT 10.0; Win64; x64) AppleWebKit/537.36 (KHTML, like Gecko) Chrome/87.0.4280.141 Safari/537.36",WebKit,Chrome,87.0.4280.141,Windows,10
110,1,null,"""",image-keyboard-response,129,156739,0.0-129.0,jspsych/neutralFaces/BM31NES.JPG,"""",21,Cue,Test,null,16,"""","""","""","""","""","""","""",1/27/2021 2:20,67.83.183.0,"Mozilla/5.0 (Windows NT 10.0; Win64; x64) AppleWebKit/537.36 (KHTML, like Gecko) Chrome/87.0.4280.141 Safari/537.36",WebKit,Chrome,87.0.4280.141,Windows,10
110,1,null,"""",image-keyboard-response,130,157739,0.0-130.0,jspsych/neutralFaces/AM30NES.JPG,"""",21,backwardMask,Test,null,100,"""","""","""","""","""","""","""",1/27/2021 2:20,67.83.183.0,"Mozilla/5.0 (Windows NT 10.0; Win64; x64) AppleWebKit/537.36 (KHTML, like Gecko) Chrome/87.0.4280.141 Safari/537.36",WebKit,Chrome,87.0.4280.141,Windows,10
110,1,null,"""",html-keyboard-response,131,158740,0.0-131.0,"<div style=""font-size:60px;"">+</div>","""",21,fixationBtwnNeutralMaskAndPrompt,Test,null,1000,"""","""","""","""","""","""","""",1/27/2021 2:20,67.83.183.0,"Mozilla/5.0 (Windows NT 10.0; Win64; x64) AppleWebKit/537.36 (KHTML, like Gecko) Chrome/87.0.4280.141 Safari/537.36",WebKit,Chrome,87.0.4280.141,Windows,10
110,1,null,"""",html-slider-response,132,159740,0.0-132.0,"<img src='jspsych/CFDfaces/CFD-BF-218-207-N.jpg' height=""250px"">,</br><b>Katie</b>","""",21,ConfidenceQuery,Test,"""","""","""",50,null,1,CFD-BF-218-207-N.jpg,Katie,0,1/27/2021 2:20,67.83.183.0,"Mozilla/5.0 (Windows NT 10.0; Win64; x64) AppleWebKit/537.36 (KHTML, like Gecko) Chrome/87.0.4280.141 Safari/537.36",WebKit,Chrome,87.0.4280.141,Windows,10
110,1,null,"""",html-keyboard-response,133,161739,0.0-133.0,"<div style=""font-size:60px;"">+</div>","""",22,ITI,Test,null,1000,"""","""","""","""","""","""","""",1/27/2021 2:20,67.83.183.0,"Mozilla/5.0 (Windows NT 10.0; Win64; x64) AppleWebKit/537.36 (KHTML, like Gecko) Chrome/87.0.4280.141 Safari/537.36",WebKit,Chrome,87.0.4280.141,Windows,10
110,1,null,"""",image-keyboard-response,134,162739,0.0-134.0,jspsych/scrambledNeutralFaces/scrambledBF09NES.JPG,"""",22,forwardMask,Test,null,250,n,"""","""","""","""","""","""",1/27/2021 2:20,67.83.183.0,"Mozilla/5.0 (Windows NT 10.0; Win64; x64) AppleWebKit/537.36 (KHTML, like Gecko) Chrome/87.0.4280.141 Safari/537.36",WebKit,Chrome,87.0.4280.141,Windows,10
110,1,null,"""",image-keyboard-response,135,163739,0.0-135.0,jspsych/neutralFaces/BF09NES.JPG,"""",22,Cue,Test,null,16,"""","""","""","""","""","""","""",1/27/2021 2:20,67.83.183.0,"Mozilla/5.0 (Windows NT 10.0; Win64; x64) AppleWebKit/537.36 (KHTML, like Gecko) Chrome/87.0.4280.141 Safari/537.36",WebKit,Chrome,87.0.4280.141,Windows,10
110,1,null,"""",image-keyboard-response,136,164739,0.0-136.0,jspsych/neutralFaces/BF16NES.JPG,"""",22,backwardMask,Test,null,100,"""","""","""","""","""","""","""",1/27/2021 2:20,67.83.183.0,"Mozilla/5.0 (Windows NT 10.0; Win64; x64) AppleWebKit/537.36 (KHTML, like Gecko) Chrome/87.0.4280.141 Safari/537.36",WebKit,Chrome,87.0.4280.141,Windows,10
110,1,null,"""",html-keyboard-response,137,165741,0.0-137.0,"<div style=""font-size:60px;"">+</div>","""",22,fixationBtwnNeutralMaskAndPrompt,Test,null,1000,"""","""","""","""","""","""","""",1/27/2021 2:20,67.83.183.0,"Mozilla/5.0 (Windows NT 10.0; Win64; x64) AppleWebKit/537.36 (KHTML, like Gecko) Chrome/87.0.4280.141 Safari/537.36",WebKit,Chrome,87.0.4280.141,Windows,10
110,1,null,"""",html-slider-response,138,166739,0.0-138.0,"<img src='jspsych/CFDfaces/CFD-AF-235-170-N.jpg' height=""250px"">,</br><b>Christina</b>","""",22,ConfidenceQuery,Test,"""","""","""",50,null,0,CFD-AF-235-170-N.jpg,Christina,0,1/27/2021 2:20,67.83.183.0,"Mozilla/5.0 (Windows NT 10.0; Win64; x64) AppleWebKit/537.36 (KHTML, like Gecko) Chrome/87.0.4280.141 Safari/537.36",WebKit,Chrome,87.0.4280.141,Windows,10
110,1,null,"""",html-keyboard-response,139,168739,0.0-139.0,"<div style=""font-size:60px;"">+</div>","""",23,ITI,Test,null,1000,"""","""","""","""","""","""","""",1/27/2021 2:20,67.83.183.0,"Mozilla/5.0 (Windows NT 10.0; Win64; x64) AppleWebKit/537.36 (KHTML, like Gecko) Chrome/87.0.4280.141 Safari/537.36",WebKit,Chrome,87.0.4280.141,Windows,10
110,1,null,"""",image-keyboard-response,140,169739,0.0-140.0,jspsych/scrambledDisgustFaces/scrambledAM14DIS.JPG,"""",23,forwardMask,Test,null,250,d,"""","""","""","""","""","""",1/27/2021 2:20,67.83.183.0,"Mozilla/5.0 (Windows NT 10.0; Win64; x64) AppleWebKit/537.36 (KHTML, like Gecko) Chrome/87.0.4280.141 Safari/537.36",WebKit,Chrome,87.0.4280.141,Windows,10
110,1,null,"""",image-keyboard-response,141,170740,0.0-141.0,jspsych/disgustFaces/AM14DIS.JPG,"""",23,Cue,Test,null,16,"""","""","""","""","""","""","""",1/27/2021 2:20,67.83.183.0,"Mozilla/5.0 (Windows NT 10.0; Win64; x64) AppleWebKit/537.36 (KHTML, like Gecko) Chrome/87.0.4280.141 Safari/537.36",WebKit,Chrome,87.0.4280.141,Windows,10
110,1,null,"""",image-keyboard-response,142,171740,0.0-142.0,jspsych/neutralFaces/BM13NES.JPG,"""",23,backwardMask,Test,null,100,"""","""","""","""","""","""","""",1/27/2021 2:20,67.83.183.0,"Mozilla/5.0 (Windows NT 10.0; Win64; x64) AppleWebKit/537.36 (KHTML, like Gecko) Chrome/87.0.4280.141 Safari/537.36",WebKit,Chrome,87.0.4280.141,Windows,10
110,1,null,"""",html-keyboard-response,143,172741,0.0-143.0,"<div style=""font-size:60px;"">+</div>","""",23,fixationBtwnNeutralMaskAndPrompt,Test,null,1000,"""","""","""","""","""","""","""",1/27/2021 2:20,67.83.183.0,"Mozilla/5.0 (Windows NT 10.0; Win64; x64) AppleWebKit/537.36 (KHTML, like Gecko) Chrome/87.0.4280.141 Safari/537.36",WebKit,Chrome,87.0.4280.141,Windows,10
110,1,null,"""",html-slider-response,144,173740,0.0-144.0,"<img src='jspsych/CFDfaces/CFD-WF-017-003-N.jpg' height=""250px"">,</br><b>Jenna</b>","""",23,ConfidenceQuery,Test,"""","""","""",50,null,0,CFD-WF-017-003-N.jpg,Jenna,0,1/27/2021 2:20,67.83.183.0,"Mozilla/5.0 (Windows NT 10.0; Win64; x64) AppleWebKit/537.36 (KHTML, like Gecko) Chrome/87.0.4280.141 Safari/537.36",WebKit,Chrome,87.0.4280.141,Windows,10
110,1,null,"""",html-keyboard-response,145,175740,0.0-145.0,"<div style=""font-size:60px;"">+</div>","""",24,ITI,Test,null,1000,"""","""","""","""","""","""","""",1/27/2021 2:20,67.83.183.0,"Mozilla/5.0 (Windows NT 10.0; Win64; x64) AppleWebKit/537.36 (KHTML, like Gecko) Chrome/87.0.4280.141 Safari/537.36",WebKit,Chrome,87.0.4280.141,Windows,10
110,1,null,"""",image-keyboard-response,146,176739,0.0-146.0,jspsych/scrambledNeutralFaces/scrambledBF35NES.JPG,"""",24,forwardMask,Test,null,250,n,"""","""","""","""","""","""",1/27/2021 2:20,67.83.183.0,"Mozilla/5.0 (Windows NT 10.0; Win64; x64) AppleWebKit/537.36 (KHTML, like Gecko) Chrome/87.0.4280.141 Safari/537.36",WebKit,Chrome,87.0.4280.141,Windows,10
110,1,null,"""",image-keyboard-response,147,177741,0.0-147.0,jspsych/neutralFaces/BF35NES.JPG,"""",24,Cue,Test,null,16,"""","""","""","""","""","""","""",1/27/2021 2:20,67.83.183.0,"Mozilla/5.0 (Windows NT 10.0; Win64; x64) AppleWebKit/537.36 (KHTML, like Gecko) Chrome/87.0.4280.141 Safari/537.36",WebKit,Chrome,87.0.4280.141,Windows,10
110,1,null,"""",image-keyboard-response,148,178739,0.0-148.0,jspsych/neutralFaces/AF02NES.JPG,"""",24,backwardMask,Test,null,100,"""","""","""","""","""","""","""",1/27/2021 2:20,67.83.183.0,"Mozilla/5.0 (Windows NT 10.0; Win64; x64) AppleWebKit/537.36 (KHTML, like Gecko) Chrome/87.0.4280.141 Safari/537.36",WebKit,Chrome,87.0.4280.141,Windows,10
110,1,null,"""",html-keyboard-response,149,180739,0.0-149.0,"<div style=""font-size:60px;"">+</div>","""",24,fixationBtwnNeutralMaskAndPrompt,Test,null,1000,"""","""","""","""","""","""","""",1/27/2021 2:20,67.83.183.0,"Mozilla/5.0 (Windows NT 10.0; Win64; x64) AppleWebKit/537.36 (KHTML, like Gecko) Chrome/87.0.4280.141 Safari/537.36",WebKit,Chrome,87.0.4280.141,Windows,10
110,1,null,"""",html-slider-response,150,181740,0.0-150.0,"<img src='jspsych/CFDfaces/CFD-LM-220-329-N.jpg' height=""250px"">,</br><b>Cory</b>","""",24,ConfidenceQuery,Test,"""","""","""",50,null,1,CFD-LM-220-329-N.jpg,Cory,0,1/27/2021 2:20,67.83.183.0,"Mozilla/5.0 (Windows NT 10.0; Win64; x64) AppleWebKit/537.36 (KHTML, like Gecko) Chrome/87.0.4280.141 Safari/537.36",WebKit,Chrome,87.0.4280.141,Windows,10
110,1,null,"""",html-keyboard-response,151,183739,0.0-151.0,"<div style=""font-size:60px;"">+</div>","""",25,ITI,Test,null,1000,"""","""","""","""","""","""","""",1/27/2021 2:20,67.83.183.0,"Mozilla/5.0 (Windows NT 10.0; Win64; x64) AppleWebKit/537.36 (KHTML, like Gecko) Chrome/87.0.4280.141 Safari/537.36",WebKit,Chrome,87.0.4280.141,Windows,10
110,1,null,"""",image-keyboard-response,152,184739,0.0-152.0,jspsych/scrambledNeutralFaces/scrambledBM21NES.JPG,"""",25,forwardMask,Test,null,250,n,"""","""","""","""","""","""",1/27/2021 2:20,67.83.183.0,"Mozilla/5.0 (Windows NT 10.0; Win64; x64) AppleWebKit/537.36 (KHTML, like Gecko) Chrome/87.0.4280.141 Safari/537.36",WebKit,Chrome,87.0.4280.141,Windows,10
110,1,null,"""",image-keyboard-response,153,185739,0.0-153.0,jspsych/neutralFaces/BM21NES.JPG,"""",25,Cue,Test,null,16,"""","""","""","""","""","""","""",1/27/2021 2:20,67.83.183.0,"Mozilla/5.0 (Windows NT 10.0; Win64; x64) AppleWebKit/537.36 (KHTML, like Gecko) Chrome/87.0.4280.141 Safari/537.36",WebKit,Chrome,87.0.4280.141,Windows,10
110,1,null,"""",image-keyboard-response,154,186739,0.0-154.0,jspsych/neutralFaces/AM17NES.JPG,"""",25,backwardMask,Test,null,100,"""","""","""","""","""","""","""",1/27/2021 2:20,67.83.183.0,"Mozilla/5.0 (Windows NT 10.0; Win64; x64) AppleWebKit/537.36 (KHTML, like Gecko) Chrome/87.0.4280.141 Safari/537.36",WebKit,Chrome,87.0.4280.141,Windows,10
110,1,null,"""",html-keyboard-response,155,188739,0.0-155.0,"<div style=""font-size:60px;"">+</div>","""",25,fixationBtwnNeutralMaskAndPrompt,Test,null,1000,"""","""","""","""","""","""","""",1/27/2021 2:20,67.83.183.0,"Mozilla/5.0 (Windows NT 10.0; Win64; x64) AppleWebKit/537.36 (KHTML, like Gecko) Chrome/87.0.4280.141 Safari/537.36",WebKit,Chrome,87.0.4280.141,Windows,10
110,1,null,"""",html-slider-response,156,189739,0.0-156.0,"<img src='jspsych/CFDfaces/CFD-LF-206-078-N.jpg' height=""250px"">,</br><b>Brooke</b>","""",25,ConfidenceQuery,Test,"""","""","""",50,null,1,CFD-LF-206-078-N.jpg,Brooke,0,1/27/2021 2:20,67.83.183.0,"Mozilla/5.0 (Windows NT 10.0; Win64; x64) AppleWebKit/537.36 (KHTML, like Gecko) Chrome/87.0.4280.141 Safari/537.36",WebKit,Chrome,87.0.4280.141,Windows,10
110,1,null,"""",html-keyboard-response,157,191744,0.0-157.0,"<div style=""font-size:60px;"">+</div>","""",26,ITI,Test,null,1000,"""","""","""","""","""","""","""",1/27/2021 2:20,67.83.183.0,"Mozilla/5.0 (Windows NT 10.0; Win64; x64) AppleWebKit/537.36 (KHTML, like Gecko) Chrome/87.0.4280.141 Safari/537.36",WebKit,Chrome,87.0.4280.141,Windows,10
110,1,null,"""",image-keyboard-response,158,192739,0.0-158.0,jspsych/scrambledDisgustFaces/scrambledAF32DIS.JPG,"""",26,forwardMask,Test,null,250,d,"""","""","""","""","""","""",1/27/2021 2:20,67.83.183.0,"Mozilla/5.0 (Windows NT 10.0; Win64; x64) AppleWebKit/537.36 (KHTML, like Gecko) Chrome/87.0.4280.141 Safari/537.36",WebKit,Chrome,87.0.4280.141,Windows,10
110,1,null,"""",image-keyboard-response,159,193739,0.0-159.0,jspsych/disgustFaces/AF32DIS.JPG,"""",26,Cue,Test,null,16,"""","""","""","""","""","""","""",1/27/2021 2:20,67.83.183.0,"Mozilla/5.0 (Windows NT 10.0; Win64; x64) AppleWebKit/537.36 (KHTML, like Gecko) Chrome/87.0.4280.141 Safari/537.36",WebKit,Chrome,87.0.4280.141,Windows,10
110,1,null,"""",image-keyboard-response,160,194739,0.0-160.0,jspsych/neutralFaces/AF07NES.JPG,"""",26,backwardMask,Test,null,100,"""","""","""","""","""","""","""",1/27/2021 2:20,67.83.183.0,"Mozilla/5.0 (Windows NT 10.0; Win64; x64) AppleWebKit/537.36 (KHTML, like Gecko) Chrome/87.0.4280.141 Safari/537.36",WebKit,Chrome,87.0.4280.141,Windows,10
110,1,null,"""",html-keyboard-response,161,196739,0.0-161.0,"<div style=""font-size:60px;"">+</div>","""",26,fixationBtwnNeutralMaskAndPrompt,Test,null,1000,"""","""","""","""","""","""","""",1/27/2021 2:20,67.83.183.0,"Mozilla/5.0 (Windows NT 10.0; Win64; x64) AppleWebKit/537.36 (KHTML, like Gecko) Chrome/87.0.4280.141 Safari/537.36",WebKit,Chrome,87.0.4280.141,Windows,10
110,1,null,"""",html-slider-response,162,197739,0.0-162.0,"<img src='jspsych/CFDfaces/CFD-AM-228-214-N.jpg' height=""250px"">,</br><b>Robert</b>","""",26,ConfidenceQuery,Test,"""","""","""",50,null,0,CFD-AM-228-214-N.jpg,Robert,0,1/27/2021 2:20,67.83.183.0,"Mozilla/5.0 (Windows NT 10.0; Win64; x64) AppleWebKit/537.36 (KHTML, like Gecko) Chrome/87.0.4280.141 Safari/537.36",WebKit,Chrome,87.0.4280.141,Windows,10
110,1,null,"""",html-keyboard-response,163,199739,0.0-163.0,"<div style=""font-size:60px;"">+</div>","""",27,ITI,Test,null,1000,"""","""","""","""","""","""","""",1/27/2021 2:20,67.83.183.0,"Mozilla/5.0 (Windows NT 10.0; Win64; x64) AppleWebKit/537.36 (KHTML, like Gecko) Chrome/87.0.4280.141 Safari/537.36",WebKit,Chrome,87.0.4280.141,Windows,10
110,1,null,"""",image-keyboard-response,164,200739,0.0-164.0,jspsych/scrambledNeutralFaces/scrambledBM09NES.JPG,"""",27,forwardMask,Test,null,250,n,"""","""","""","""","""","""",1/27/2021 2:20,67.83.183.0,"Mozilla/5.0 (Windows NT 10.0; Win64; x64) AppleWebKit/537.36 (KHTML, like Gecko) Chrome/87.0.4280.141 Safari/537.36",WebKit,Chrome,87.0.4280.141,Windows,10
110,1,null,"""",image-keyboard-response,165,201739,0.0-165.0,jspsych/neutralFaces/BM09NES.JPG,"""",27,Cue,Test,null,16,"""","""","""","""","""","""","""",1/27/2021 2:20,67.83.183.0,"Mozilla/5.0 (Windows NT 10.0; Win64; x64) AppleWebKit/537.36 (KHTML, like Gecko) Chrome/87.0.4280.141 Safari/537.36",WebKit,Chrome,87.0.4280.141,Windows,10
110,1,null,"""",image-keyboard-response,166,202845,0.0-166.0,jspsych/neutralFaces/BM07NES.JPG,"""",27,backwardMask,Test,null,100,"""","""","""","""","""","""","""",1/27/2021 2:20,67.83.183.0,"Mozilla/5.0 (Windows NT 10.0; Win64; x64) AppleWebKit/537.36 (KHTML, like Gecko) Chrome/87.0.4280.141 Safari/537.36",WebKit,Chrome,87.0.4280.141,Windows,10
110,1,null,"""",html-keyboard-response,167,204739,0.0-167.0,"<div style=""font-size:60px;"">+</div>","""",27,fixationBtwnNeutralMaskAndPrompt,Test,null,1000,"""","""","""","""","""","""","""",1/27/2021 2:20,67.83.183.0,"Mozilla/5.0 (Windows NT 10.0; Win64; x64) AppleWebKit/537.36 (KHTML, like Gecko) Chrome/87.0.4280.141 Safari/537.36",WebKit,Chrome,87.0.4280.141,Windows,10
110,1,null,"""",html-slider-response,168,205749,0.0-168.0,"<img src='jspsych/CFDfaces/CFD-WM-019-003-N.jpg' height=""250px"">,</br><b>Jeremy</b>","""",27,ConfidenceQuery,Test,"""","""","""",50,null,0,CFD-WM-019-003-N.jpg,Jeremy,0,1/27/2021 2:20,67.83.183.0,"Mozilla/5.0 (Windows NT 10.0; Win64; x64) AppleWebKit/537.36 (KHTML, like Gecko) Chrome/87.0.4280.141 Safari/537.36",WebKit,Chrome,87.0.4280.141,Windows,10
110,1,null,"""",html-keyboard-response,169,207831,0.0-169.0,"<div style=""font-size:60px;"">+</div>","""",28,ITI,Test,null,1000,"""","""","""","""","""","""","""",1/27/2021 2:20,67.83.183.0,"Mozilla/5.0 (Windows NT 10.0; Win64; x64) AppleWebKit/537.36 (KHTML, like Gecko) Chrome/87.0.4280.141 Safari/537.36",WebKit,Chrome,87.0.4280.141,Windows,10
110,1,null,"""",image-keyboard-response,170,208743,0.0-170.0,jspsych/scrambledDisgustFaces/scrambledBF11DIS.JPG,"""",28,forwardMask,Test,null,250,d,"""","""","""","""","""","""",1/27/2021 2:20,67.83.183.0,"Mozilla/5.0 (Windows NT 10.0; Win64; x64) AppleWebKit/537.36 (KHTML, like Gecko) Chrome/87.0.4280.141 Safari/537.36",WebKit,Chrome,87.0.4280.141,Windows,10
110,1,null,"""",image-keyboard-response,171,209739,0.0-171.0,jspsych/disgustFaces/BF11DIS.JPG,"""",28,Cue,Test,null,16,"""","""","""","""","""","""","""",1/27/2021 2:20,67.83.183.0,"Mozilla/5.0 (Windows NT 10.0; Win64; x64) AppleWebKit/537.36 (KHTML, like Gecko) Chrome/87.0.4280.141 Safari/537.36",WebKit,Chrome,87.0.4280.141,Windows,10
110,1,null,"""",image-keyboard-response,172,210740,0.0-172.0,jspsych/neutralFaces/BF33NES.JPG,"""",28,backwardMask,Test,null,100,"""","""","""","""","""","""","""",1/27/2021 2:20,67.83.183.0,"Mozilla/5.0 (Windows NT 10.0; Win64; x64) AppleWebKit/537.36 (KHTML, like Gecko) Chrome/87.0.4280.141 Safari/537.36",WebKit,Chrome,87.0.4280.141,Windows,10
110,1,null,"""",html-keyboard-response,173,212740,0.0-173.0,"<div style=""font-size:60px;"">+</div>","""",28,fixationBtwnNeutralMaskAndPrompt,Test,null,1000,"""","""","""","""","""","""","""",1/27/2021 2:20,67.83.183.0,"Mozilla/5.0 (Windows NT 10.0; Win64; x64) AppleWebKit/537.36 (KHTML, like Gecko) Chrome/87.0.4280.141 Safari/537.36",WebKit,Chrome,87.0.4280.141,Windows,10
110,1,null,"""",html-slider-response,174,213740,0.0-174.0,"<img src='jspsych/CFDfaces/CFD-WF-003-003-N.jpg' height=""250px"">,</br><b>Lindsey</b>","""",28,ConfidenceQuery,Test,"""","""","""",50,null,1,CFD-WF-003-003-N.jpg,Lindsey,0,1/27/2021 2:20,67.83.183.0,"Mozilla/5.0 (Windows NT 10.0; Win64; x64) AppleWebKit/537.36 (KHTML, like Gecko) Chrome/87.0.4280.141 Safari/537.36",WebKit,Chrome,87.0.4280.141,Windows,10
110,1,null,"""",html-keyboard-response,175,215739,0.0-175.0,"<div style=""font-size:60px;"">+</div>","""",29,ITI,Test,null,1000,"""","""","""","""","""","""","""",1/27/2021 2:20,67.83.183.0,"Mozilla/5.0 (Windows NT 10.0; Win64; x64) AppleWebKit/537.36 (KHTML, like Gecko) Chrome/87.0.4280.141 Safari/537.36",WebKit,Chrome,87.0.4280.141,Windows,10
110,1,null,"""",image-keyboard-response,176,216740,0.0-176.0,jspsych/scrambledNeutralFaces/scrambledBM02NES.JPG,"""",29,forwardMask,Test,null,250,n,"""","""","""","""","""","""",1/27/2021 2:20,67.83.183.0,"Mozilla/5.0 (Windows NT 10.0; Win64; x64) AppleWebKit/537.36 (KHTML, like Gecko) Chrome/87.0.4280.141 Safari/537.36",WebKit,Chrome,87.0.4280.141,Windows,10
110,1,null,"""",image-keyboard-response,177,217739,0.0-177.0,jspsych/neutralFaces/BM02NES.JPG,"""",29,Cue,Test,null,16,"""","""","""","""","""","""","""",1/27/2021 2:20,67.83.183.0,"Mozilla/5.0 (Windows NT 10.0; Win64; x64) AppleWebKit/537.36 (KHTML, like Gecko) Chrome/87.0.4280.141 Safari/537.36",WebKit,Chrome,87.0.4280.141,Windows,10
110,1,null,"""",image-keyboard-response,178,218739,0.0-178.0,jspsych/neutralFaces/AM13NES.JPG,"""",29,backwardMask,Test,null,100,"""","""","""","""","""","""","""",1/27/2021 2:20,67.83.183.0,"Mozilla/5.0 (Windows NT 10.0; Win64; x64) AppleWebKit/537.36 (KHTML, like Gecko) Chrome/87.0.4280.141 Safari/537.36",WebKit,Chrome,87.0.4280.141,Windows,10
110,1,null,"""",html-keyboard-response,179,220739,0.0-179.0,"<div style=""font-size:60px;"">+</div>","""",29,fixationBtwnNeutralMaskAndPrompt,Test,null,1000,"""","""","""","""","""","""","""",1/27/2021 2:20,67.83.183.0,"Mozilla/5.0 (Windows NT 10.0; Win64; x64) AppleWebKit/537.36 (KHTML, like Gecko) Chrome/87.0.4280.141 Safari/537.36",WebKit,Chrome,87.0.4280.141,Windows,10
110,1,null,"""",html-slider-response,180,221739,0.0-180.0,"<img src='jspsych/CFDfaces/CFD-BM-001-014-N.jpg' height=""250px"">,</br><b>Phillip</b>","""",29,ConfidenceQuery,Test,"""","""","""",50,null,1,CFD-BM-001-014-N.jpg,Phillip,0,1/27/2021 2:20,67.83.183.0,"Mozilla/5.0 (Windows NT 10.0; Win64; x64) AppleWebKit/537.36 (KHTML, like Gecko) Chrome/87.0.4280.141 Safari/537.36",WebKit,Chrome,87.0.4280.141,Windows,10
110,1,null,"""",html-keyboard-response,181,223740,0.0-181.0,"<div style=""font-size:60px;"">+</div>","""",30,ITI,Test,null,1000,"""","""","""","""","""","""","""",1/27/2021 2:20,67.83.183.0,"Mozilla/5.0 (Windows NT 10.0; Win64; x64) AppleWebKit/537.36 (KHTML, like Gecko) Chrome/87.0.4280.141 Safari/537.36",WebKit,Chrome,87.0.4280.141,Windows,10
110,1,null,"""",image-keyboard-response,182,224739,0.0-182.0,jspsych/scrambledNeutralFaces/scrambledBF10NES.JPG,"""",30,forwardMask,Test,null,250,n,"""","""","""","""","""","""",1/27/2021 2:20,67.83.183.0,"Mozilla/5.0 (Windows NT 10.0; Win64; x64) AppleWebKit/537.36 (KHTML, like Gecko) Chrome/87.0.4280.141 Safari/537.36",WebKit,Chrome,87.0.4280.141,Windows,10
110,1,null,"""",image-keyboard-response,183,225740,0.0-183.0,jspsych/neutralFaces/BF10NES.JPG,"""",30,Cue,Test,null,16,"""","""","""","""","""","""","""",1/27/2021 2:20,67.83.183.0,"Mozilla/5.0 (Windows NT 10.0; Win64; x64) AppleWebKit/537.36 (KHTML, like Gecko) Chrome/87.0.4280.141 Safari/537.36",WebKit,Chrome,87.0.4280.141,Windows,10
110,1,null,"""",image-keyboard-response,184,226739,0.0-184.0,jspsych/neutralFaces/AF17NES.JPG,"""",30,backwardMask,Test,null,100,"""","""","""","""","""","""","""",1/27/2021 2:20,67.83.183.0,"Mozilla/5.0 (Windows NT 10.0; Win64; x64) AppleWebKit/537.36 (KHTML, like Gecko) Chrome/87.0.4280.141 Safari/537.36",WebKit,Chrome,87.0.4280.141,Windows,10
110,1,null,"""",html-keyboard-response,185,228740,0.0-185.0,"<div style=""font-size:60px;"">+</div>","""",30,fixationBtwnNeutralMaskAndPrompt,Test,null,1000,"""","""","""","""","""","""","""",1/27/2021 2:20,67.83.183.0,"Mozilla/5.0 (Windows NT 10.0; Win64; x64) AppleWebKit/537.36 (KHTML, like Gecko) Chrome/87.0.4280.141 Safari/537.36",WebKit,Chrome,87.0.4280.141,Windows,10
110,1,null,"""",html-slider-response,186,229739,0.0-186.0,"<img src='jspsych/CFDfaces/CFD-LM-248-089-N.jpg' height=""250px"">,</br><b>Austin</b>","""",30,ConfidenceQuery,Test,"""","""","""",50,null,0,CFD-LM-248-089-N.jpg,Austin,0,1/27/2021 2:20,67.83.183.0,"Mozilla/5.0 (Windows NT 10.0; Win64; x64) AppleWebKit/537.36 (KHTML, like Gecko) Chrome/87.0.4280.141 Safari/537.36",WebKit,Chrome,87.0.4280.141,Windows,10
110,1,null,"""",html-keyboard-response,187,231739,0.0-187.0,"<div style=""font-size:60px;"">+</div>","""",31,ITI,Test,null,1000,"""","""","""","""","""","""","""",1/27/2021 2:20,67.83.183.0,"Mozilla/5.0 (Windows NT 10.0; Win64; x64) AppleWebKit/537.36 (KHTML, like Gecko) Chrome/87.0.4280.141 Safari/537.36",WebKit,Chrome,87.0.4280.141,Windows,10
110,1,null,"""",image-keyboard-response,188,232739,0.0-188.0,jspsych/scrambledNeutralFaces/scrambledBM07NES.JPG,"""",31,forwardMask,Test,null,250,n,"""","""","""","""","""","""",1/27/2021 2:20,67.83.183.0,"Mozilla/5.0 (Windows NT 10.0; Win64; x64) AppleWebKit/537.36 (KHTML, like Gecko) Chrome/87.0.4280.141 Safari/537.36",WebKit,Chrome,87.0.4280.141,Windows,10
110,1,null,"""",image-keyboard-response,189,233740,0.0-189.0,jspsych/neutralFaces/BM07NES.JPG,"""",31,Cue,Test,null,16,"""","""","""","""","""","""","""",1/27/2021 2:20,67.83.183.0,"Mozilla/5.0 (Windows NT 10.0; Win64; x64) AppleWebKit/537.36 (KHTML, like Gecko) Chrome/87.0.4280.141 Safari/537.36",WebKit,Chrome,87.0.4280.141,Windows,10
110,1,null,"""",image-keyboard-response,190,234739,0.0-190.0,jspsych/neutralFaces/BM02NES.JPG,"""",31,backwardMask,Test,null,100,"""","""","""","""","""","""","""",1/27/2021 2:20,67.83.183.0,"Mozilla/5.0 (Windows NT 10.0; Win64; x64) AppleWebKit/537.36 (KHTML, like Gecko) Chrome/87.0.4280.141 Safari/537.36",WebKit,Chrome,87.0.4280.141,Windows,10
110,1,null,"""",html-keyboard-response,191,236739,0.0-191.0,"<div style=""font-size:60px;"">+</div>","""",31,fixationBtwnNeutralMaskAndPrompt,Test,null,1000,"""","""","""","""","""","""","""",1/27/2021 2:20,67.83.183.0,"Mozilla/5.0 (Windows NT 10.0; Win64; x64) AppleWebKit/537.36 (KHTML, like Gecko) Chrome/87.0.4280.141 Safari/537.36",WebKit,Chrome,87.0.4280.141,Windows,10
110,1,null,"""",html-slider-response,192,237739,0.0-192.0,"<img src='jspsych/CFDfaces/CFD-LM-223-175-N.jpg' height=""250px"">,</br><b>Aaron</b>","""",31,ConfidenceQuery,Test,"""","""","""",50,null,1,CFD-LM-223-175-N.jpg,Aaron,0,1/27/2021 2:20,67.83.183.0,"Mozilla/5.0 (Windows NT 10.0; Win64; x64) AppleWebKit/537.36 (KHTML, like Gecko) Chrome/87.0.4280.141 Safari/537.36",WebKit,Chrome,87.0.4280.141,Windows,10
110,1,null,"""",html-keyboard-response,193,239740,0.0-193.0,"<div style=""font-size:60px;"">+</div>","""",32,ITI,Test,null,1000,"""","""","""","""","""","""","""",1/27/2021 2:20,67.83.183.0,"Mozilla/5.0 (Windows NT 10.0; Win64; x64) AppleWebKit/537.36 (KHTML, like Gecko) Chrome/87.0.4280.141 Safari/537.36",WebKit,Chrome,87.0.4280.141,Windows,10
110,1,null,"""",image-keyboard-response,194,240739,0.0-194.0,jspsych/scrambledDisgustFaces/scrambledBF01DIS.JPG,"""",32,forwardMask,Test,null,250,d,"""","""","""","""","""","""",1/27/2021 2:20,67.83.183.0,"Mozilla/5.0 (Windows NT 10.0; Win64; x64) AppleWebKit/537.36 (KHTML, like Gecko) Chrome/87.0.4280.141 Safari/537.36",WebKit,Chrome,87.0.4280.141,Windows,10
110,1,null,"""",image-keyboard-response,195,241739,0.0-195.0,jspsych/disgustFaces/BF01DIS.JPG,"""",32,Cue,Test,null,16,"""","""","""","""","""","""","""",1/27/2021 2:20,67.83.183.0,"Mozilla/5.0 (Windows NT 10.0; Win64; x64) AppleWebKit/537.36 (KHTML, like Gecko) Chrome/87.0.4280.141 Safari/537.36",WebKit,Chrome,87.0.4280.141,Windows,10
110,1,null,"""",image-keyboard-response,196,242740,0.0-196.0,jspsych/neutralFaces/AF29NES.JPG,"""",32,backwardMask,Test,null,100,"""","""","""","""","""","""","""",1/27/2021 2:20,67.83.183.0,"Mozilla/5.0 (Windows NT 10.0; Win64; x64) AppleWebKit/537.36 (KHTML, like Gecko) Chrome/87.0.4280.141 Safari/537.36",WebKit,Chrome,87.0.4280.141,Windows,10
110,1,null,"""",html-keyboard-response,197,244739,0.0-197.0,"<div style=""font-size:60px;"">+</div>","""",32,fixationBtwnNeutralMaskAndPrompt,Test,null,1000,"""","""","""","""","""","""","""",1/27/2021 2:20,67.83.183.0,"Mozilla/5.0 (Windows NT 10.0; Win64; x64) AppleWebKit/537.36 (KHTML, like Gecko) Chrome/87.0.4280.141 Safari/537.36",WebKit,Chrome,87.0.4280.141,Windows,10
110,1,null,"""",html-slider-response,198,245739,0.0-198.0,"<img src='jspsych/CFDfaces/CFD-LF-208-127-N.jpg' height=""250px"">,</br><b>Hannah</b>","""",32,ConfidenceQuery,Test,"""","""","""",50,null,0,CFD-LF-208-127-N.jpg,Hannah,0,1/27/2021 2:20,67.83.183.0,"Mozilla/5.0 (Windows NT 10.0; Win64; x64) AppleWebKit/537.36 (KHTML, like Gecko) Chrome/87.0.4280.141 Safari/537.36",WebKit,Chrome,87.0.4280.141,Windows,10
110,1,null,"""",html-keyboard-response,199,247739,0.0-199.0,"<div style=""font-size:60px;"">+</div>","""",33,ITI,Test,null,1000,"""","""","""","""","""","""","""",1/27/2021 2:20,67.83.183.0,"Mozilla/5.0 (Windows NT 10.0; Win64; x64) AppleWebKit/537.36 (KHTML, like Gecko) Chrome/87.0.4280.141 Safari/537.36",WebKit,Chrome,87.0.4280.141,Windows,10
110,1,null,"""",image-keyboard-response,200,248739,0.0-200.0,jspsych/scrambledNeutralFaces/scrambledBM33NES.JPG,"""",33,forwardMask,Test,null,250,n,"""","""","""","""","""","""",1/27/2021 2:20,67.83.183.0,"Mozilla/5.0 (Windows NT 10.0; Win64; x64) AppleWebKit/537.36 (KHTML, like Gecko) Chrome/87.0.4280.141 Safari/537.36",WebKit,Chrome,87.0.4280.141,Windows,10
110,1,null,"""",image-keyboard-response,201,249739,0.0-201.0,jspsych/neutralFaces/BM33NES.JPG,"""",33,Cue,Test,null,16,"""","""","""","""","""","""","""",1/27/2021 2:20,67.83.183.0,"Mozilla/5.0 (Windows NT 10.0; Win64; x64) AppleWebKit/537.36 (KHTML, like Gecko) Chrome/87.0.4280.141 Safari/537.36",WebKit,Chrome,87.0.4280.141,Windows,10
110,1,null,"""",image-keyboard-response,202,250739,0.0-202.0,jspsych/neutralFaces/BM12NES.JPG,"""",33,backwardMask,Test,null,100,"""","""","""","""","""","""","""",1/27/2021 2:20,67.83.183.0,"Mozilla/5.0 (Windows NT 10.0; Win64; x64) AppleWebKit/537.36 (KHTML, like Gecko) Chrome/87.0.4280.141 Safari/537.36",WebKit,Chrome,87.0.4280.141,Windows,10
110,1,null,"""",html-keyboard-response,203,252739,0.0-203.0,"<div style=""font-size:60px;"">+</div>","""",33,fixationBtwnNeutralMaskAndPrompt,Test,null,1000,"""","""","""","""","""","""","""",1/27/2021 2:20,67.83.183.0,"Mozilla/5.0 (Windows NT 10.0; Win64; x64) AppleWebKit/537.36 (KHTML, like Gecko) Chrome/87.0.4280.141 Safari/537.36",WebKit,Chrome,87.0.4280.141,Windows,10
110,1,null,"""",html-slider-response,204,253739,0.0-204.0,"<img src='jspsych/CFDfaces/CFD-BM-210-148-N.jpg' height=""250px"">,</br><b>Chad</b>","""",33,ConfidenceQuery,Test,"""","""","""",50,null,1,CFD-BM-210-148-N.jpg,Chad,0,1/27/2021 2:20,67.83.183.0,"Mozilla/5.0 (Windows NT 10.0; Win64; x64) AppleWebKit/537.36 (KHTML, like Gecko) Chrome/87.0.4280.141 Safari/537.36",WebKit,Chrome,87.0.4280.141,Windows,10
110,1,null,"""",html-keyboard-response,205,255739,0.0-205.0,"<div style=""font-size:60px;"">+</div>","""",34,ITI,Test,null,1000,"""","""","""","""","""","""","""",1/27/2021 2:20,67.83.183.0,"Mozilla/5.0 (Windows NT 10.0; Win64; x64) AppleWebKit/537.36 (KHTML, like Gecko) Chrome/87.0.4280.141 Safari/537.36",WebKit,Chrome,87.0.4280.141,Windows,10
110,1,null,"""",image-keyboard-response,206,256739,0.0-206.0,jspsych/scrambledNeutralFaces/scrambledAF09NES.JPG,"""",34,forwardMask,Test,null,250,n,"""","""","""","""","""","""",1/27/2021 2:20,67.83.183.0,"Mozilla/5.0 (Windows NT 10.0; Win64; x64) AppleWebKit/537.36 (KHTML, like Gecko) Chrome/87.0.4280.141 Safari/537.36",WebKit,Chrome,87.0.4280.141,Windows,10
110,1,null,"""",image-keyboard-response,207,257739,0.0-207.0,jspsych/neutralFaces/AF09NES.JPG,"""",34,Cue,Test,null,16,"""","""","""","""","""","""","""",1/27/2021 2:20,67.83.183.0,"Mozilla/5.0 (Windows NT 10.0; Win64; x64) AppleWebKit/537.36 (KHTML, like Gecko) Chrome/87.0.4280.141 Safari/537.36",WebKit,Chrome,87.0.4280.141,Windows,10
110,1,null,"""",image-keyboard-response,208,258739,0.0-208.0,jspsych/neutralFaces/BF01NES.JPG,"""",34,backwardMask,Test,null,100,"""","""","""","""","""","""","""",1/27/2021 2:20,67.83.183.0,"Mozilla/5.0 (Windows NT 10.0; Win64; x64) AppleWebKit/537.36 (KHTML, like Gecko) Chrome/87.0.4280.141 Safari/537.36",WebKit,Chrome,87.0.4280.141,Windows,10
110,1,null,"""",html-keyboard-response,209,260739,0.0-209.0,"<div style=""font-size:60px;"">+</div>","""",34,fixationBtwnNeutralMaskAndPrompt,Test,null,1000,"""","""","""","""","""","""","""",1/27/2021 2:20,67.83.183.0,"Mozilla/5.0 (Windows NT 10.0; Win64; x64) AppleWebKit/537.36 (KHTML, like Gecko) Chrome/87.0.4280.141 Safari/537.36",WebKit,Chrome,87.0.4280.141,Windows,10
110,1,null,"""",html-slider-response,210,261739,0.0-210.0,"<img src='jspsych/CFDfaces/CFD-BF-047-003-N.jpg' height=""250px"">,</br><b>Jessica</b>","""",34,ConfidenceQuery,Test,"""","""","""",50,null,1,CFD-BF-047-003-N.jpg,Jessica,0,1/27/2021 2:20,67.83.183.0,"Mozilla/5.0 (Windows NT 10.0; Win64; x64) AppleWebKit/537.36 (KHTML, like Gecko) Chrome/87.0.4280.141 Safari/537.36",WebKit,Chrome,87.0.4280.141,Windows,10
110,1,null,"""",html-keyboard-response,211,263740,0.0-211.0,"<div style=""font-size:60px;"">+</div>","""",35,ITI,Test,null,1000,"""","""","""","""","""","""","""",1/27/2021 2:20,67.83.183.0,"Mozilla/5.0 (Windows NT 10.0; Win64; x64) AppleWebKit/537.36 (KHTML, like Gecko) Chrome/87.0.4280.141 Safari/537.36",WebKit,Chrome,87.0.4280.141,Windows,10
110,1,null,"""",image-keyboard-response,212,264738,0.0-212.0,jspsych/scrambledDisgustFaces/scrambledBM20DIS.JPG,"""",35,forwardMask,Test,null,250,d,"""","""","""","""","""","""",1/27/2021 2:20,67.83.183.0,"Mozilla/5.0 (Windows NT 10.0; Win64; x64) AppleWebKit/537.36 (KHTML, like Gecko) Chrome/87.0.4280.141 Safari/537.36",WebKit,Chrome,87.0.4280.141,Windows,10
110,1,null,"""",image-keyboard-response,213,265739,0.0-213.0,jspsych/disgustFaces/BM21DIS.JPG,"""",35,Cue,Test,null,16,"""","""","""","""","""","""","""",1/27/2021 2:20,67.83.183.0,"Mozilla/5.0 (Windows NT 10.0; Win64; x64) AppleWebKit/537.36 (KHTML, like Gecko) Chrome/87.0.4280.141 Safari/537.36",WebKit,Chrome,87.0.4280.141,Windows,10
110,1,null,"""",image-keyboard-response,214,266739,0.0-214.0,jspsych/neutralFaces/BM10NES.JPG,"""",35,backwardMask,Test,null,100,"""","""","""","""","""","""","""",1/27/2021 2:20,67.83.183.0,"Mozilla/5.0 (Windows NT 10.0; Win64; x64) AppleWebKit/537.36 (KHTML, like Gecko) Chrome/87.0.4280.141 Safari/537.36",WebKit,Chrome,87.0.4280.141,Windows,10
110,1,null,"""",html-keyboard-response,215,267741,0.0-215.0,"<div style=""font-size:60px;"">+</div>","""",35,fixationBtwnNeutralMaskAndPrompt,Test,null,1000,"""","""","""","""","""","""","""",1/27/2021 2:20,67.83.183.0,"Mozilla/5.0 (Windows NT 10.0; Win64; x64) AppleWebKit/537.36 (KHTML, like Gecko) Chrome/87.0.4280.141 Safari/537.36",WebKit,Chrome,87.0.4280.141,Windows,10
110,1,null,"""",html-slider-response,216,268739,0.0-216.0,"<img src='jspsych/CFDfaces/CFD-LF-200-058-N.jpg' height=""250px"">,</br><b>Danielle</b>","""",35,ConfidenceQuery,Test,"""","""","""",50,null,1,CFD-LF-200-058-N.jpg,Danielle,0,1/27/2021 2:20,67.83.183.0,"Mozilla/5.0 (Windows NT 10.0; Win64; x64) AppleWebKit/537.36 (KHTML, like Gecko) Chrome/87.0.4280.141 Safari/537.36",WebKit,Chrome,87.0.4280.141,Windows,10
110,1,null,"""",html-keyboard-response,217,270740,0.0-217.0,"<div style=""font-size:60px;"">+</div>","""",36,ITI,Test,null,1000,"""","""","""","""","""","""","""",1/27/2021 2:20,67.83.183.0,"Mozilla/5.0 (Windows NT 10.0; Win64; x64) AppleWebKit/537.36 (KHTML, like Gecko) Chrome/87.0.4280.141 Safari/537.36",WebKit,Chrome,87.0.4280.141,Windows,10
110,1,null,"""",image-keyboard-response,218,271740,0.0-218.0,jspsych/scrambledNeutralFaces/scrambledAF17NES.JPG,"""",36,forwardMask,Test,null,250,n,"""","""","""","""","""","""",1/27/2021 2:20,67.83.183.0,"Mozilla/5.0 (Windows NT 10.0; Win64; x64) AppleWebKit/537.36 (KHTML, like Gecko) Chrome/87.0.4280.141 Safari/537.36",WebKit,Chrome,87.0.4280.141,Windows,10
110,1,null,"""",image-keyboard-response,219,272739,0.0-219.0,jspsych/neutralFaces/AF17NES.JPG,"""",36,Cue,Test,null,16,"""","""","""","""","""","""","""",1/27/2021 2:20,67.83.183.0,"Mozilla/5.0 (Windows NT 10.0; Win64; x64) AppleWebKit/537.36 (KHTML, like Gecko) Chrome/87.0.4280.141 Safari/537.36",WebKit,Chrome,87.0.4280.141,Windows,10
110,1,null,"""",image-keyboard-response,220,273740,0.0-220.0,jspsych/neutralFaces/BF23NES.JPG,"""",36,backwardMask,Test,null,100,"""","""","""","""","""","""","""",1/27/2021 2:20,67.83.183.0,"Mozilla/5.0 (Windows NT 10.0; Win64; x64) AppleWebKit/537.36 (KHTML, like Gecko) Chrome/87.0.4280.141 Safari/537.36",WebKit,Chrome,87.0.4280.141,Windows,10
110,1,null,"""",html-keyboard-response,221,274741,0.0-221.0,"<div style=""font-size:60px;"">+</div>","""",36,fixationBtwnNeutralMaskAndPrompt,Test,null,1000,"""","""","""","""","""","""","""",1/27/2021 2:20,67.83.183.0,"Mozilla/5.0 (Windows NT 10.0; Win64; x64) AppleWebKit/537.36 (KHTML, like Gecko) Chrome/87.0.4280.141 Safari/537.36",WebKit,Chrome,87.0.4280.141,Windows,10
110,1,null,"""",html-slider-response,222,275739,0.0-222.0,"<img src='jspsych/CFDfaces/CFD-AM-211-052-N.jpg' height=""250px"">,</br><b>Ian</b>","""",36,ConfidenceQuery,Test,"""","""","""",50,null,0,CFD-AM-211-052-N.jpg,Ian,0,1/27/2021 2:20,67.83.183.0,"Mozilla/5.0 (Windows NT 10.0; Win64; x64) AppleWebKit/537.36 (KHTML, like Gecko) Chrome/87.0.4280.141 Safari/537.36",WebKit,Chrome,87.0.4280.141,Windows,10
110,1,null,"""",html-keyboard-response,223,277738,0.0-223.0,"<div style=""font-size:60px;"">+</div>","""",37,ITI,Test,null,1000,"""","""","""","""","""","""","""",1/27/2021 2:20,67.83.183.0,"Mozilla/5.0 (Windows NT 10.0; Win64; x64) AppleWebKit/537.36 (KHTML, like Gecko) Chrome/87.0.4280.141 Safari/537.36",WebKit,Chrome,87.0.4280.141,Windows,10
110,1,null,"""",image-keyboard-response,224,278739,0.0-224.0,jspsych/scrambledDisgustFaces/scrambledAM14DIS.JPG,"""",37,forwardMask,Test,null,250,d,"""","""","""","""","""","""",1/27/2021 2:20,67.83.183.0,"Mozilla/5.0 (Windows NT 10.0; Win64; x64) AppleWebKit/537.36 (KHTML, like Gecko) Chrome/87.0.4280.141 Safari/537.36",WebKit,Chrome,87.0.4280.141,Windows,10
110,1,null,"""",image-keyboard-response,225,279739,0.0-225.0,jspsych/disgustFaces/AM14DIS.JPG,"""",37,Cue,Test,null,16,"""","""","""","""","""","""","""",1/27/2021 2:20,67.83.183.0,"Mozilla/5.0 (Windows NT 10.0; Win64; x64) AppleWebKit/537.36 (KHTML, like Gecko) Chrome/87.0.4280.141 Safari/537.36",WebKit,Chrome,87.0.4280.141,Windows,10
110,1,null,"""",image-keyboard-response,226,280740,0.0-226.0,jspsych/neutralFaces/BM16NES.JPG,"""",37,backwardMask,Test,null,100,"""","""","""","""","""","""","""",1/27/2021 2:20,67.83.183.0,"Mozilla/5.0 (Windows NT 10.0; Win64; x64) AppleWebKit/537.36 (KHTML, like Gecko) Chrome/87.0.4280.141 Safari/537.36",WebKit,Chrome,87.0.4280.141,Windows,10
110,1,null,"""",html-keyboard-response,227,281741,0.0-227.0,"<div style=""font-size:60px;"">+</div>","""",37,fixationBtwnNeutralMaskAndPrompt,Test,null,1000,"""","""","""","""","""","""","""",1/27/2021 2:20,67.83.183.0,"Mozilla/5.0 (Windows NT 10.0; Win64; x64) AppleWebKit/537.36 (KHTML, like Gecko) Chrome/87.0.4280.141 Safari/537.36",WebKit,Chrome,87.0.4280.141,Windows,10
110,1,null,"""",html-slider-response,228,282738,0.0-228.0,"<img src='jspsych/CFDfaces/CFD-LM-225-130-N.jpg' height=""250px"">,</br><b>David</b>","""",37,ConfidenceQuery,Test,"""","""","""",50,null,1,CFD-LM-225-130-N.jpg,David,0,1/27/2021 2:20,67.83.183.0,"Mozilla/5.0 (Windows NT 10.0; Win64; x64) AppleWebKit/537.36 (KHTML, like Gecko) Chrome/87.0.4280.141 Safari/537.36",WebKit,Chrome,87.0.4280.141,Windows,10
110,1,null,"""",html-keyboard-response,229,284739,0.0-229.0,"<div style=""font-size:60px;"">+</div>","""",38,ITI,Test,null,1000,"""","""","""","""","""","""","""",1/27/2021 2:20,67.83.183.0,"Mozilla/5.0 (Windows NT 10.0; Win64; x64) AppleWebKit/537.36 (KHTML, like Gecko) Chrome/87.0.4280.141 Safari/537.36",WebKit,Chrome,87.0.4280.141,Windows,10
110,1,null,"""",image-keyboard-response,230,285739,0.0-230.0,jspsych/scrambledDisgustFaces/scrambledBF03DIS.JPG,"""",38,forwardMask,Test,null,250,d,"""","""","""","""","""","""",1/27/2021 2:20,67.83.183.0,"Mozilla/5.0 (Windows NT 10.0; Win64; x64) AppleWebKit/537.36 (KHTML, like Gecko) Chrome/87.0.4280.141 Safari/537.36",WebKit,Chrome,87.0.4280.141,Windows,10
110,1,null,"""",image-keyboard-response,231,286739,0.0-231.0,jspsych/disgustFaces/BF03DIS.JPG,"""",38,Cue,Test,null,16,"""","""","""","""","""","""","""",1/27/2021 2:20,67.83.183.0,"Mozilla/5.0 (Windows NT 10.0; Win64; x64) AppleWebKit/537.36 (KHTML, like Gecko) Chrome/87.0.4280.141 Safari/537.36",WebKit,Chrome,87.0.4280.141,Windows,10
110,1,null,"""",image-keyboard-response,232,287740,0.0-232.0,jspsych/neutralFaces/AF06NES.JPG,"""",38,backwardMask,Test,null,100,"""","""","""","""","""","""","""",1/27/2021 2:20,67.83.183.0,"Mozilla/5.0 (Windows NT 10.0; Win64; x64) AppleWebKit/537.36 (KHTML, like Gecko) Chrome/87.0.4280.141 Safari/537.36",WebKit,Chrome,87.0.4280.141,Windows,10
110,1,null,"""",html-keyboard-response,233,289739,0.0-233.0,"<div style=""font-size:60px;"">+</div>","""",38,fixationBtwnNeutralMaskAndPrompt,Test,null,1000,"""","""","""","""","""","""","""",1/27/2021 2:20,67.83.183.0,"Mozilla/5.0 (Windows NT 10.0; Win64; x64) AppleWebKit/537.36 (KHTML, like Gecko) Chrome/87.0.4280.141 Safari/537.36",WebKit,Chrome,87.0.4280.141,Windows,10
110,1,null,"""",html-slider-response,234,290740,0.0-234.0,"<img src='jspsych/CFDfaces/CFD-AM-230-150-N.jpg' height=""250px"">,</br><b>Juan</b>","""",38,ConfidenceQuery,Test,"""","""","""",50,null,0,CFD-AM-230-150-N.jpg,Juan,0,1/27/2021 2:20,67.83.183.0,"Mozilla/5.0 (Windows NT 10.0; Win64; x64) AppleWebKit/537.36 (KHTML, like Gecko) Chrome/87.0.4280.141 Safari/537.36",WebKit,Chrome,87.0.4280.141,Windows,10
110,1,null,"""",html-keyboard-response,235,292739,0.0-235.0,"<div style=""font-size:60px;"">+</div>","""",39,ITI,Test,null,1000,"""","""","""","""","""","""","""",1/27/2021 2:20,67.83.183.0,"Mozilla/5.0 (Windows NT 10.0; Win64; x64) AppleWebKit/537.36 (KHTML, like Gecko) Chrome/87.0.4280.141 Safari/537.36",WebKit,Chrome,87.0.4280.141,Windows,10
110,1,null,"""",image-keyboard-response,236,293739,0.0-236.0,jspsych/scrambledNeutralFaces/scrambledBM22NES.JPG,"""",39,forwardMask,Test,null,250,n,"""","""","""","""","""","""",1/27/2021 2:20,67.83.183.0,"Mozilla/5.0 (Windows NT 10.0; Win64; x64) AppleWebKit/537.36 (KHTML, like Gecko) Chrome/87.0.4280.141 Safari/537.36",WebKit,Chrome,87.0.4280.141,Windows,10
110,1,null,"""",image-keyboard-response,237,294740,0.0-237.0,jspsych/neutralFaces/BM22NES.JPG,"""",39,Cue,Test,null,16,"""","""","""","""","""","""","""",1/27/2021 2:20,67.83.183.0,"Mozilla/5.0 (Windows NT 10.0; Win64; x64) AppleWebKit/537.36 (KHTML, like Gecko) Chrome/87.0.4280.141 Safari/537.36",WebKit,Chrome,87.0.4280.141,Windows,10
110,1,null,"""",image-keyboard-response,238,295739,0.0-238.0,jspsych/neutralFaces/BM09NES.JPG,"""",39,backwardMask,Test,null,100,"""","""","""","""","""","""","""",1/27/2021 2:20,67.83.183.0,"Mozilla/5.0 (Windows NT 10.0; Win64; x64) AppleWebKit/537.36 (KHTML, like Gecko) Chrome/87.0.4280.141 Safari/537.36",WebKit,Chrome,87.0.4280.141,Windows,10
110,1,null,"""",html-keyboard-response,239,297740,0.0-239.0,"<div style=""font-size:60px;"">+</div>","""",39,fixationBtwnNeutralMaskAndPrompt,Test,null,1000,"""","""","""","""","""","""","""",1/27/2021 2:20,67.83.183.0,"Mozilla/5.0 (Windows NT 10.0; Win64; x64) AppleWebKit/537.36 (KHTML, like Gecko) Chrome/87.0.4280.141 Safari/537.36",WebKit,Chrome,87.0.4280.141,Windows,10
110,1,null,"""",html-slider-response,240,298739,0.0-240.0,"<img src='jspsych/CFDfaces/CFD-AM-238-269-N.jpg' height=""250px"">,</br><b>Eric</b>","""",39,ConfidenceQuery,Test,"""","""","""",50,null,0,CFD-AM-238-269-N.jpg,Eric,0,1/27/2021 2:20,67.83.183.0,"Mozilla/5.0 (Windows NT 10.0; Win64; x64) AppleWebKit/537.36 (KHTML, like Gecko) Chrome/87.0.4280.141 Safari/537.36",WebKit,Chrome,87.0.4280.141,Windows,10
110,1,null,"""",html-keyboard-response,241,300739,0.0-241.0,"<div style=""font-size:60px;"">+</div>","""",40,ITI,Test,null,1000,"""","""","""","""","""","""","""",1/27/2021 2:20,67.83.183.0,"Mozilla/5.0 (Windows NT 10.0; Win64; x64) AppleWebKit/537.36 (KHTML, like Gecko) Chrome/87.0.4280.141 Safari/537.36",WebKit,Chrome,87.0.4280.141,Windows,10
110,1,null,"""",image-keyboard-response,242,301740,0.0-242.0,jspsych/scrambledNeutralFaces/scrambledBF18NES.JPG,"""",40,forwardMask,Test,null,250,n,"""","""","""","""","""","""",1/27/2021 2:20,67.83.183.0,"Mozilla/5.0 (Windows NT 10.0; Win64; x64) AppleWebKit/537.36 (KHTML, like Gecko) Chrome/87.0.4280.141 Safari/537.36",WebKit,Chrome,87.0.4280.141,Windows,10
110,1,null,"""",image-keyboard-response,243,302740,0.0-243.0,jspsych/neutralFaces/BF18NES.JPG,"""",40,Cue,Test,null,16,"""","""","""","""","""","""","""",1/27/2021 2:20,67.83.183.0,"Mozilla/5.0 (Windows NT 10.0; Win64; x64) AppleWebKit/537.36 (KHTML, like Gecko) Chrome/87.0.4280.141 Safari/537.36",WebKit,Chrome,87.0.4280.141,Windows,10
110,1,null,"""",image-keyboard-response,244,303740,0.0-244.0,jspsych/neutralFaces/AF02NES.JPG,"""",40,backwardMask,Test,null,100,"""","""","""","""","""","""","""",1/27/2021 2:20,67.83.183.0,"Mozilla/5.0 (Windows NT 10.0; Win64; x64) AppleWebKit/537.36 (KHTML, like Gecko) Chrome/87.0.4280.141 Safari/537.36",WebKit,Chrome,87.0.4280.141,Windows,10
110,1,null,"""",html-keyboard-response,245,305739,0.0-245.0,"<div style=""font-size:60px;"">+</div>","""",40,fixationBtwnNeutralMaskAndPrompt,Test,null,1000,"""","""","""","""","""","""","""",1/27/2021 2:20,67.83.183.0,"Mozilla/5.0 (Windows NT 10.0; Win64; x64) AppleWebKit/537.36 (KHTML, like Gecko) Chrome/87.0.4280.141 Safari/537.36",WebKit,Chrome,87.0.4280.141,Windows,10
110,1,null,"""",html-slider-response,246,306739,0.0-246.0,"<img src='jspsych/CFDfaces/CFD-LM-224-162-N.jpg' height=""250px"">,</br><b>Paul</b>","""",40,ConfidenceQuery,Test,"""","""","""",50,null,0,CFD-LM-224-162-N.jpg,Paul,0,1/27/2021 2:20,67.83.183.0,"Mozilla/5.0 (Windows NT 10.0; Win64; x64) AppleWebKit/537.36 (KHTML, like Gecko) Chrome/87.0.4280.141 Safari/537.36",WebKit,Chrome,87.0.4280.141,Windows,10
110,1,null,"""",html-keyboard-response,247,308739,0.0-247.0,"<div style=""font-size:60px;"">+</div>","""",41,ITI,Test,null,1000,"""","""","""","""","""","""","""",1/27/2021 2:20,67.83.183.0,"Mozilla/5.0 (Windows NT 10.0; Win64; x64) AppleWebKit/537.36 (KHTML, like Gecko) Chrome/87.0.4280.141 Safari/537.36",WebKit,Chrome,87.0.4280.141,Windows,10
110,1,null,"""",image-keyboard-response,248,309739,0.0-248.0,jspsych/scrambledDisgustFaces/scrambledBM34DIS.JPG,"""",41,forwardMask,Test,null,250,d,"""","""","""","""","""","""",1/27/2021 2:20,67.83.183.0,"Mozilla/5.0 (Windows NT 10.0; Win64; x64) AppleWebKit/537.36 (KHTML, like Gecko) Chrome/87.0.4280.141 Safari/537.36",WebKit,Chrome,87.0.4280.141,Windows,10
110,1,null,"""",image-keyboard-response,249,310739,0.0-249.0,jspsych/disgustFaces/BM35DIS.JPG,"""",41,Cue,Test,null,16,"""","""","""","""","""","""","""",1/27/2021 2:20,67.83.183.0,"Mozilla/5.0 (Windows NT 10.0; Win64; x64) AppleWebKit/537.36 (KHTML, like Gecko) Chrome/87.0.4280.141 Safari/537.36",WebKit,Chrome,87.0.4280.141,Windows,10
110,1,null,"""",image-keyboard-response,250,311738,0.0-250.0,jspsych/neutralFaces/BM05NES.JPG,"""",41,backwardMask,Test,null,100,"""","""","""","""","""","""","""",1/27/2021 2:20,67.83.183.0,"Mozilla/5.0 (Windows NT 10.0; Win64; x64) AppleWebKit/537.36 (KHTML, like Gecko) Chrome/87.0.4280.141 Safari/537.36",WebKit,Chrome,87.0.4280.141,Windows,10
110,1,null,"""",html-keyboard-response,251,313739,0.0-251.0,"<div style=""font-size:60px;"">+</div>","""",41,fixationBtwnNeutralMaskAndPrompt,Test,null,1000,"""","""","""","""","""","""","""",1/27/2021 2:20,67.83.183.0,"Mozilla/5.0 (Windows NT 10.0; Win64; x64) AppleWebKit/537.36 (KHTML, like Gecko) Chrome/87.0.4280.141 Safari/537.36",WebKit,Chrome,87.0.4280.141,Windows,10
110,1,null,"""",html-slider-response,252,314739,0.0-252.0,"<img src='jspsych/CFDfaces/CFD-BF-009-002-N.jpg' height=""250px"">,</br><b>Alexandra</b>","""",41,ConfidenceQuery,Test,"""","""","""",50,null,1,CFD-BF-009-002-N.jpg,Alexandra,0,1/27/2021 2:20,67.83.183.0,"Mozilla/5.0 (Windows NT 10.0; Win64; x64) AppleWebKit/537.36 (KHTML, like Gecko) Chrome/87.0.4280.141 Safari/537.36",WebKit,Chrome,87.0.4280.141,Windows,10
110,1,null,"""",html-keyboard-response,253,316738,0.0-253.0,"<div style=""font-size:60px;"">+</div>","""",42,ITI,Test,null,1000,"""","""","""","""","""","""","""",1/27/2021 2:20,67.83.183.0,"Mozilla/5.0 (Windows NT 10.0; Win64; x64) AppleWebKit/537.36 (KHTML, like Gecko) Chrome/87.0.4280.141 Safari/537.36",WebKit,Chrome,87.0.4280.141,Windows,10
110,1,null,"""",image-keyboard-response,254,317740,0.0-254.0,jspsych/scrambledNeutralFaces/scrambledBF09NES.JPG,"""",42,forwardMask,Test,null,250,n,"""","""","""","""","""","""",1/27/2021 2:20,67.83.183.0,"Mozilla/5.0 (Windows NT 10.0; Win64; x64) AppleWebKit/537.36 (KHTML, like Gecko) Chrome/87.0.4280.141 Safari/537.36",WebKit,Chrome,87.0.4280.141,Windows,10
110,1,null,"""",image-keyboard-response,255,318739,0.0-255.0,jspsych/neutralFaces/BF09NES.JPG,"""",42,Cue,Test,null,16,"""","""","""","""","""","""","""",1/27/2021 2:20,67.83.183.0,"Mozilla/5.0 (Windows NT 10.0; Win64; x64) AppleWebKit/537.36 (KHTML, like Gecko) Chrome/87.0.4280.141 Safari/537.36",WebKit,Chrome,87.0.4280.141,Windows,10
110,1,null,"""",image-keyboard-response,256,319739,0.0-256.0,jspsych/neutralFaces/BF15NES.JPG,"""",42,backwardMask,Test,null,100,"""","""","""","""","""","""","""",1/27/2021 2:20,67.83.183.0,"Mozilla/5.0 (Windows NT 10.0; Win64; x64) AppleWebKit/537.36 (KHTML, like Gecko) Chrome/87.0.4280.141 Safari/537.36",WebKit,Chrome,87.0.4280.141,Windows,10
110,1,null,"""",html-keyboard-response,257,321739,0.0-257.0,"<div style=""font-size:60px;"">+</div>","""",42,fixationBtwnNeutralMaskAndPrompt,Test,null,1000,"""","""","""","""","""","""","""",1/27/2021 2:20,67.83.183.0,"Mozilla/5.0 (Windows NT 10.0; Win64; x64) AppleWebKit/537.36 (KHTML, like Gecko) Chrome/87.0.4280.141 Safari/537.36",WebKit,Chrome,87.0.4280.141,Windows,10
110,1,null,"""",html-slider-response,258,322739,0.0-258.0,"<img src='jspsych/CFDfaces/CFD-BF-221-223-N.jpg' height=""250px"">,</br><b>Crystal</b>","""",42,ConfidenceQuery,Test,"""","""","""",50,null,0,CFD-BF-221-223-N.jpg,Crystal,0,1/27/2021 2:20,67.83.183.0,"Mozilla/5.0 (Windows NT 10.0; Win64; x64) AppleWebKit/537.36 (KHTML, like Gecko) Chrome/87.0.4280.141 Safari/537.36",WebKit,Chrome,87.0.4280.141,Windows,10
110,1,null,"""",html-keyboard-response,259,324764,0.0-259.0,"<div style=""font-size:60px;"">+</div>","""",43,ITI,Test,null,1000,"""","""","""","""","""","""","""",1/27/2021 2:20,67.83.183.0,"Mozilla/5.0 (Windows NT 10.0; Win64; x64) AppleWebKit/537.36 (KHTML, like Gecko) Chrome/87.0.4280.141 Safari/537.36",WebKit,Chrome,87.0.4280.141,Windows,10
110,1,null,"""",image-keyboard-response,260,325739,0.0-260.0,jspsych/scrambledDisgustFaces/scrambledBM12DIS.JPG,"""",43,forwardMask,Test,null,250,d,"""","""","""","""","""","""",1/27/2021 2:20,67.83.183.0,"Mozilla/5.0 (Windows NT 10.0; Win64; x64) AppleWebKit/537.36 (KHTML, like Gecko) Chrome/87.0.4280.141 Safari/537.36",WebKit,Chrome,87.0.4280.141,Windows,10
110,1,null,"""",image-keyboard-response,261,326739,0.0-261.0,jspsych/disgustFaces/BM13DIS.JPG,"""",43,Cue,Test,null,16,"""","""","""","""","""","""","""",1/27/2021 2:20,67.83.183.0,"Mozilla/5.0 (Windows NT 10.0; Win64; x64) AppleWebKit/537.36 (KHTML, like Gecko) Chrome/87.0.4280.141 Safari/537.36",WebKit,Chrome,87.0.4280.141,Windows,10
110,1,null,"""",image-keyboard-response,262,327757,0.0-262.0,jspsych/neutralFaces/AM26NES.JPG,"""",43,backwardMask,Test,null,100,"""","""","""","""","""","""","""",1/27/2021 2:20,67.83.183.0,"Mozilla/5.0 (Windows NT 10.0; Win64; x64) AppleWebKit/537.36 (KHTML, like Gecko) Chrome/87.0.4280.141 Safari/537.36",WebKit,Chrome,87.0.4280.141,Windows,10
110,1,null,"""",html-keyboard-response,263,329895,0.0-263.0,"<div style=""font-size:60px;"">+</div>","""",43,fixationBtwnNeutralMaskAndPrompt,Test,null,1000,"""","""","""","""","""","""","""",1/27/2021 2:20,67.83.183.0,"Mozilla/5.0 (Windows NT 10.0; Win64; x64) AppleWebKit/537.36 (KHTML, like Gecko) Chrome/87.0.4280.141 Safari/537.36",WebKit,Chrome,87.0.4280.141,Windows,10
110,1,null,"""",html-slider-response,264,330740,0.0-264.0,"<img src='jspsych/CFDfaces/CFD-BM-203-001-N.jpg' height=""250px"">,</br><b>Jose</b>","""",43,ConfidenceQuery,Test,"""","""","""",50,null,1,CFD-BM-203-001-N.jpg,Jose,0,1/27/2021 2:20,67.83.183.0,"Mozilla/5.0 (Windows NT 10.0; Win64; x64) AppleWebKit/537.36 (KHTML, like Gecko) Chrome/87.0.4280.141 Safari/537.36",WebKit,Chrome,87.0.4280.141,Windows,10
110,1,null,"""",html-keyboard-response,265,332740,0.0-265.0,"<div style=""font-size:60px;"">+</div>","""",44,ITI,Test,null,1000,"""","""","""","""","""","""","""",1/27/2021 2:20,67.83.183.0,"Mozilla/5.0 (Windows NT 10.0; Win64; x64) AppleWebKit/537.36 (KHTML, like Gecko) Chrome/87.0.4280.141 Safari/537.36",WebKit,Chrome,87.0.4280.141,Windows,10
110,1,null,"""",image-keyboard-response,266,333741,0.0-266.0,jspsych/scrambledDisgustFaces/scrambledAF10DIS.JPG,"""",44,forwardMask,Test,null,250,d,"""","""","""","""","""","""",1/27/2021 2:20,67.83.183.0,"Mozilla/5.0 (Windows NT 10.0; Win64; x64) AppleWebKit/537.36 (KHTML, like Gecko) Chrome/87.0.4280.141 Safari/537.36",WebKit,Chrome,87.0.4280.141,Windows,10
110,1,null,"""",image-keyboard-response,267,334739,0.0-267.0,jspsych/disgustFaces/AF10DIS.JPG,"""",44,Cue,Test,null,16,"""","""","""","""","""","""","""",1/27/2021 2:20,67.83.183.0,"Mozilla/5.0 (Windows NT 10.0; Win64; x64) AppleWebKit/537.36 (KHTML, like Gecko) Chrome/87.0.4280.141 Safari/537.36",WebKit,Chrome,87.0.4280.141,Windows,10
110,1,null,"""",image-keyboard-response,268,335739,0.0-268.0,jspsych/neutralFaces/BF23NES.JPG,"""",44,backwardMask,Test,null,100,"""","""","""","""","""","""","""",1/27/2021 2:20,67.83.183.0,"Mozilla/5.0 (Windows NT 10.0; Win64; x64) AppleWebKit/537.36 (KHTML, like Gecko) Chrome/87.0.4280.141 Safari/537.36",WebKit,Chrome,87.0.4280.141,Windows,10
110,1,null,"""",html-keyboard-response,269,337739,0.0-269.0,"<div style=""font-size:60px;"">+</div>","""",44,fixationBtwnNeutralMaskAndPrompt,Test,null,1000,"""","""","""","""","""","""","""",1/27/2021 2:20,67.83.183.0,"Mozilla/5.0 (Windows NT 10.0; Win64; x64) AppleWebKit/537.36 (KHTML, like Gecko) Chrome/87.0.4280.141 Safari/537.36",WebKit,Chrome,87.0.4280.141,Windows,10
110,1,null,"""",html-slider-response,270,338739,0.0-270.0,"<img src='jspsych/CFDfaces/CFD-WM-020-001-N.jpg' height=""250px"">,</br><b>Jacob</b>","""",44,ConfidenceQuery,Test,"""","""","""",50,null,1,CFD-WM-020-001-N.jpg,Jacob,0,1/27/2021 2:20,67.83.183.0,"Mozilla/5.0 (Windows NT 10.0; Win64; x64) AppleWebKit/537.36 (KHTML, like Gecko) Chrome/87.0.4280.141 Safari/537.36",WebKit,Chrome,87.0.4280.141,Windows,10
110,1,null,"""",html-keyboard-response,271,340739,0.0-271.0,"<div style=""font-size:60px;"">+</div>","""",45,ITI,Test,null,1000,"""","""","""","""","""","""","""",1/27/2021 2:20,67.83.183.0,"Mozilla/5.0 (Windows NT 10.0; Win64; x64) AppleWebKit/537.36 (KHTML, like Gecko) Chrome/87.0.4280.141 Safari/537.36",WebKit,Chrome,87.0.4280.141,Windows,10
110,1,null,"""",image-keyboard-response,272,341740,0.0-272.0,jspsych/scrambledNeutralFaces/scrambledAM13NES.JPG,"""",45,forwardMask,Test,null,250,n,"""","""","""","""","""","""",1/27/2021 2:20,67.83.183.0,"Mozilla/5.0 (Windows NT 10.0; Win64; x64) AppleWebKit/537.36 (KHTML, like Gecko) Chrome/87.0.4280.141 Safari/537.36",WebKit,Chrome,87.0.4280.141,Windows,10
110,1,null,"""",image-keyboard-response,273,342739,0.0-273.0,jspsych/neutralFaces/AM13NES.JPG,"""",45,Cue,Test,null,16,"""","""","""","""","""","""","""",1/27/2021 2:20,67.83.183.0,"Mozilla/5.0 (Windows NT 10.0; Win64; x64) AppleWebKit/537.36 (KHTML, like Gecko) Chrome/87.0.4280.141 Safari/537.36",WebKit,Chrome,87.0.4280.141,Windows,10
110,1,null,"""",image-keyboard-response,274,343738,0.0-274.0,jspsych/neutralFaces/BM34NES.JPG,"""",45,backwardMask,Test,null,100,"""","""","""","""","""","""","""",1/27/2021 2:20,67.83.183.0,"Mozilla/5.0 (Windows NT 10.0; Win64; x64) AppleWebKit/537.36 (KHTML, like Gecko) Chrome/87.0.4280.141 Safari/537.36",WebKit,Chrome,87.0.4280.141,Windows,10
