run_id,condition,rt,responses,trial_type,trial_index,time_elapsed,internal_node_id,stimulus,button_pressed,iTrial,Phase,ExperimentPhase,key_press,StimulusDurationSetting,correctResponse,slider_start,response,Rearranged,didSubjectEnterRearranged,rearranged,Face,Name,CharacterResponse,recorded_at,ip,user_agent,device,browser,browser_version,platform,platform_version
87,1,1703.555,"{""Q0"":""12""}",survey-text,0,1709,0.0-0.0,"""","""","""","""","""","""","""","""","""","""","""","""","""","""","""","""",1/25/2021 4:42,67.83.183.0,"Mozilla/5.0 (Windows NT 10.0; Win64; x64) AppleWebKit/537.36 (KHTML, like Gecko) Chrome/87.0.4280.141 Safari/537.36",WebKit,Chrome,87.0.4280.141,Windows,10
87,1,1452.05,"""",image-button-response,1,3207,0.0-1.0,directionsMemoryAssociation1.JPG,0,1,IntroDirections1,break,"""","""","""","""","""","""","""","""","""","""","""",1/25/2021 4:42,67.83.183.0,"Mozilla/5.0 (Windows NT 10.0; Win64; x64) AppleWebKit/537.36 (KHTML, like Gecko) Chrome/87.0.4280.141 Safari/537.36",WebKit,Chrome,87.0.4280.141,Windows,10
87,1,547.615,"""",image-button-response,2,3757,0.0-2.0,directionsMemoryAssociation2.JPG,0,1,IntroDirections2,break,"""","""","""","""","""","""","""","""","""","""","""",1/25/2021 4:42,67.83.183.0,"Mozilla/5.0 (Windows NT 10.0; Win64; x64) AppleWebKit/537.36 (KHTML, like Gecko) Chrome/87.0.4280.141 Safari/537.36",WebKit,Chrome,87.0.4280.141,Windows,10
87,1,1502.535,"""",html-keyboard-response,3,8768,0.0-3.0,"<p><b> Practice Set </b></p><img src='jspsych/CFDfaces/CFD-WF-218-087-N.jpg' height=""250px"">,</br><b>Shannon</b>","""",1,IntactFace,Practice,70,5000,"""","""","""","""","""","""","""","""","""",1/25/2021 4:42,67.83.183.0,"Mozilla/5.0 (Windows NT 10.0; Win64; x64) AppleWebKit/537.36 (KHTML, like Gecko) Chrome/87.0.4280.141 Safari/537.36",WebKit,Chrome,87.0.4280.141,Windows,10
87,1,null,"""",html-keyboard-response,4,9284,0.0-4.0,"<div style=""font-size:60px;"">+</div>","""",1,ITI,Practice,null,1000,"""","""","""","""","""","""","""","""","""",1/25/2021 4:42,67.83.183.0,"Mozilla/5.0 (Windows NT 10.0; Win64; x64) AppleWebKit/537.36 (KHTML, like Gecko) Chrome/87.0.4280.141 Safari/537.36",WebKit,Chrome,87.0.4280.141,Windows,10
87,1,null,"""",html-keyboard-response,5,14293,0.0-5.0,"<p><b> Practice Set </b></p><img src='jspsych/CFDfaces/CFD-WF-220-101-N.jpg' height=""250px"">,</br><b>Lisa</b>","""",2,IntactFace,Practice,null,5000,"""","""","""","""","""","""","""","""","""",1/25/2021 4:42,67.83.183.0,"Mozilla/5.0 (Windows NT 10.0; Win64; x64) AppleWebKit/537.36 (KHTML, like Gecko) Chrome/87.0.4280.141 Safari/537.36",WebKit,Chrome,87.0.4280.141,Windows,10
87,1,null,"""",html-keyboard-response,6,14810,0.0-6.0,"<div style=""font-size:60px;"">+</div>","""",2,ITI,Practice,null,1000,"""","""","""","""","""","""","""","""","""",1/25/2021 4:42,67.83.183.0,"Mozilla/5.0 (Windows NT 10.0; Win64; x64) AppleWebKit/537.36 (KHTML, like Gecko) Chrome/87.0.4280.141 Safari/537.36",WebKit,Chrome,87.0.4280.141,Windows,10
87,1,null,"""",html-keyboard-response,7,19823,0.0-7.0,"<p><b> Practice Set </b></p><img src='jspsych/CFDfaces/CFD-WM-232-070-N.jpg' height=""250px"">,</br><b>Patrick</b>","""",3,IntactFace,Practice,null,5000,"""","""","""","""","""","""","""","""","""",1/25/2021 4:42,67.83.183.0,"Mozilla/5.0 (Windows NT 10.0; Win64; x64) AppleWebKit/537.36 (KHTML, like Gecko) Chrome/87.0.4280.141 Safari/537.36",WebKit,Chrome,87.0.4280.141,Windows,10
87,1,null,"""",html-keyboard-response,8,20340,0.0-8.0,"<div style=""font-size:60px;"">+</div>","""",3,ITI,Practice,null,1000,"""","""","""","""","""","""","""","""","""",1/25/2021 4:42,67.83.183.0,"Mozilla/5.0 (Windows NT 10.0; Win64; x64) AppleWebKit/537.36 (KHTML, like Gecko) Chrome/87.0.4280.141 Safari/537.36",WebKit,Chrome,87.0.4280.141,Windows,10
87,1,null,"""",html-keyboard-response,9,25342,0.0-9.0,"<p><b> Practice Set </b></p><img src='jspsych/CFDfaces/CFD-WM-222-057-N.jpg' height=""250px"">,</br><b>Marcus</b>","""",4,IntactFace,Practice,null,5000,"""","""","""","""","""","""","""","""","""",1/25/2021 4:42,67.83.183.0,"Mozilla/5.0 (Windows NT 10.0; Win64; x64) AppleWebKit/537.36 (KHTML, like Gecko) Chrome/87.0.4280.141 Safari/537.36",WebKit,Chrome,87.0.4280.141,Windows,10
87,1,null,"""",html-keyboard-response,10,25847,0.0-10.0,"<div style=""font-size:60px;"">+</div>","""",4,ITI,Practice,null,1000,"""","""","""","""","""","""","""","""","""",1/25/2021 4:42,67.83.183.0,"Mozilla/5.0 (Windows NT 10.0; Win64; x64) AppleWebKit/537.36 (KHTML, like Gecko) Chrome/87.0.4280.141 Safari/537.36",WebKit,Chrome,87.0.4280.141,Windows,10
87,1,3361.65,"""",image-button-response,11,29211,0.0-11.0,directionsForTest.JPG,0,1,directions,break,"""","""","""","""","""","""","""","""","""","""","""",1/25/2021 4:42,67.83.183.0,"Mozilla/5.0 (Windows NT 10.0; Win64; x64) AppleWebKit/537.36 (KHTML, like Gecko) Chrome/87.0.4280.141 Safari/537.36",WebKit,Chrome,87.0.4280.141,Windows,10
87,1,null,"""",html-keyboard-response,12,30223,0.0-12.0,"<div style=""font-size:60px;"">+</div>","""",1,ITI,Practice,null,1000,"""","""","""","""","""","""","""","""","""",1/25/2021 4:42,67.83.183.0,"Mozilla/5.0 (Windows NT 10.0; Win64; x64) AppleWebKit/537.36 (KHTML, like Gecko) Chrome/87.0.4280.141 Safari/537.36",WebKit,Chrome,87.0.4280.141,Windows,10
87,1,null,"""",image-keyboard-response,13,30491,0.0-13.0,jspsych/scrambledNeutralFaces/scrambledAM13NES.JPG,"""",1,forwardMask,Practice,null,250,n,"""","""","""","""","""","""","""","""",1/25/2021 4:42,67.83.183.0,"Mozilla/5.0 (Windows NT 10.0; Win64; x64) AppleWebKit/537.36 (KHTML, like Gecko) Chrome/87.0.4280.141 Safari/537.36",WebKit,Chrome,87.0.4280.141,Windows,10
87,1,null,"""",image-keyboard-response,14,30514,0.0-14.0,jspsych/neutralFaces/AM13NES.JPG,"""",1,Cue,Practice,null,"function(){
        return jsPsych.randomization.sampleWithoutReplacement(cueDuration, 1)[0]}","""","""","""","""","""","""","""","""","""",1/25/2021 4:42,67.83.183.0,"Mozilla/5.0 (Windows NT 10.0; Win64; x64) AppleWebKit/537.36 (KHTML, like Gecko) Chrome/87.0.4280.141 Safari/537.36",WebKit,Chrome,87.0.4280.141,Windows,10
87,1,null,"""",image-keyboard-response,15,30629,0.0-15.0,jspsych/neutralFaces/AF26NES.JPG,"""",1,backwardMask,Practice,null,100,"""","""","""","""","""","""","""","""","""",1/25/2021 4:42,67.83.183.0,"Mozilla/5.0 (Windows NT 10.0; Win64; x64) AppleWebKit/537.36 (KHTML, like Gecko) Chrome/87.0.4280.141 Safari/537.36",WebKit,Chrome,87.0.4280.141,Windows,10
87,1,null,"""",html-keyboard-response,16,31639,0.0-16.0,"<div style=""font-size:60px;"">+</div>","""",1,fixationBtwnNeutralMaskAndPrompt,Practice,null,1000,"""","""","""","""","""","""","""","""","""",1/25/2021 4:42,67.83.183.0,"Mozilla/5.0 (Windows NT 10.0; Win64; x64) AppleWebKit/537.36 (KHTML, like Gecko) Chrome/87.0.4280.141 Safari/537.36",WebKit,Chrome,87.0.4280.141,Windows,10
87,1,1593.1,"""",html-slider-response,17,33244,0.0-17.0,"<p><b> Practice Set </b></p><img src='jspsych/CFDfaces/CFD-WM-222-057-N.jpg'height=""250px""></br><b>Marcus</b>","""",1,ConfidenceQuery,Practice,"""","""","""",50,50,1,2,"""","""","""","""",1/25/2021 4:42,67.83.183.0,"Mozilla/5.0 (Windows NT 10.0; Win64; x64) AppleWebKit/537.36 (KHTML, like Gecko) Chrome/87.0.4280.141 Safari/537.36",WebKit,Chrome,87.0.4280.141,Windows,10
87,1,1385.76,"""",html-button-response,18,34637,0.0-18.0,<p>You responded that you were not sure.</p> <p>The pair was rearranged.</p>,0,1,feedback,Practice,"""","""","""","""","""","""","""","""","""","""","""",1/25/2021 4:42,67.83.183.0,"Mozilla/5.0 (Windows NT 10.0; Win64; x64) AppleWebKit/537.36 (KHTML, like Gecko) Chrome/87.0.4280.141 Safari/537.36",WebKit,Chrome,87.0.4280.141,Windows,10
87,1,null,"""",html-keyboard-response,19,35645,0.0-19.0,"<div style=""font-size:60px;"">+</div>","""",2,ITI,Practice,null,1000,"""","""","""","""","""","""","""","""","""",1/25/2021 4:42,67.83.183.0,"Mozilla/5.0 (Windows NT 10.0; Win64; x64) AppleWebKit/537.36 (KHTML, like Gecko) Chrome/87.0.4280.141 Safari/537.36",WebKit,Chrome,87.0.4280.141,Windows,10
87,1,null,"""",image-keyboard-response,20,35900,0.0-20.0,jspsych/scrambledDisgustFaces/scrambledBM10DIS.JPG,"""",2,forwardMask,Practice,null,250,d,"""","""","""","""","""","""","""","""",1/25/2021 4:42,67.83.183.0,"Mozilla/5.0 (Windows NT 10.0; Win64; x64) AppleWebKit/537.36 (KHTML, like Gecko) Chrome/87.0.4280.141 Safari/537.36",WebKit,Chrome,87.0.4280.141,Windows,10
87,1,null,"""",image-keyboard-response,21,35918,0.0-21.0,jspsych/disgustFaces/BM10DIS.JPG,"""",2,Cue,Practice,null,"function(){
        return jsPsych.randomization.sampleWithoutReplacement(cueDuration, 1)[0]}","""","""","""","""","""","""","""","""","""",1/25/2021 4:42,67.83.183.0,"Mozilla/5.0 (Windows NT 10.0; Win64; x64) AppleWebKit/537.36 (KHTML, like Gecko) Chrome/87.0.4280.141 Safari/537.36",WebKit,Chrome,87.0.4280.141,Windows,10
87,1,null,"""",image-keyboard-response,22,36027,0.0-22.0,jspsych/neutralFaces/BM34NES.JPG,"""",2,backwardMask,Practice,null,100,"""","""","""","""","""","""","""","""","""",1/25/2021 4:42,67.83.183.0,"Mozilla/5.0 (Windows NT 10.0; Win64; x64) AppleWebKit/537.36 (KHTML, like Gecko) Chrome/87.0.4280.141 Safari/537.36",WebKit,Chrome,87.0.4280.141,Windows,10
87,1,null,"""",html-keyboard-response,23,37034,0.0-23.0,"<div style=""font-size:60px;"">+</div>","""",2,fixationBtwnNeutralMaskAndPrompt,Practice,null,1000,"""","""","""","""","""","""","""","""","""",1/25/2021 4:42,67.83.183.0,"Mozilla/5.0 (Windows NT 10.0; Win64; x64) AppleWebKit/537.36 (KHTML, like Gecko) Chrome/87.0.4280.141 Safari/537.36",WebKit,Chrome,87.0.4280.141,Windows,10
87,1,2179.835,"""",html-slider-response,24,39217,0.0-24.0,"<p><b> Practice Set </b></p><img src='jspsych/CFDfaces/CFD-WF-220-101-N.jpg'height=""250px""></br><b>Lisa</b>","""",2,ConfidenceQuery,Practice,"""","""","""",50,50,0,2,"""","""","""","""",1/25/2021 4:42,67.83.183.0,"Mozilla/5.0 (Windows NT 10.0; Win64; x64) AppleWebKit/537.36 (KHTML, like Gecko) Chrome/87.0.4280.141 Safari/537.36",WebKit,Chrome,87.0.4280.141,Windows,10
87,1,1996.755,"""",html-button-response,25,41219,0.0-25.0,<p>You responded that you were not sure.</p> <p>The pair was intact.</p>,0,2,feedback,Practice,"""","""","""","""","""","""","""","""","""","""","""",1/25/2021 4:42,67.83.183.0,"Mozilla/5.0 (Windows NT 10.0; Win64; x64) AppleWebKit/537.36 (KHTML, like Gecko) Chrome/87.0.4280.141 Safari/537.36",WebKit,Chrome,87.0.4280.141,Windows,10
87,1,null,"""",html-keyboard-response,26,42230,0.0-26.0,"<div style=""font-size:60px;"">+</div>","""",3,ITI,Practice,null,1000,"""","""","""","""","""","""","""","""","""",1/25/2021 4:42,67.83.183.0,"Mozilla/5.0 (Windows NT 10.0; Win64; x64) AppleWebKit/537.36 (KHTML, like Gecko) Chrome/87.0.4280.141 Safari/537.36",WebKit,Chrome,87.0.4280.141,Windows,10
87,1,null,"""",image-keyboard-response,27,42485,0.0-27.0,jspsych/scrambledDisgustFaces/scrambledAF34DIS.JPG,"""",3,forwardMask,Practice,null,250,d,"""","""","""","""","""","""","""","""",1/25/2021 4:42,67.83.183.0,"Mozilla/5.0 (Windows NT 10.0; Win64; x64) AppleWebKit/537.36 (KHTML, like Gecko) Chrome/87.0.4280.141 Safari/537.36",WebKit,Chrome,87.0.4280.141,Windows,10
87,1,null,"""",image-keyboard-response,28,42503,0.0-28.0,jspsych/disgustFaces/AF34DIS.JPG,"""",3,Cue,Practice,null,"function(){
        return jsPsych.randomization.sampleWithoutReplacement(cueDuration, 1)[0]}","""","""","""","""","""","""","""","""","""",1/25/2021 4:42,67.83.183.0,"Mozilla/5.0 (Windows NT 10.0; Win64; x64) AppleWebKit/537.36 (KHTML, like Gecko) Chrome/87.0.4280.141 Safari/537.36",WebKit,Chrome,87.0.4280.141,Windows,10
87,1,null,"""",image-keyboard-response,29,42612,0.0-29.0,jspsych/neutralFaces/BF07NES.JPG,"""",3,backwardMask,Practice,null,100,"""","""","""","""","""","""","""","""","""",1/25/2021 4:42,67.83.183.0,"Mozilla/5.0 (Windows NT 10.0; Win64; x64) AppleWebKit/537.36 (KHTML, like Gecko) Chrome/87.0.4280.141 Safari/537.36",WebKit,Chrome,87.0.4280.141,Windows,10
87,1,null,"""",html-keyboard-response,30,43614,0.0-30.0,"<div style=""font-size:60px;"">+</div>","""",3,fixationBtwnNeutralMaskAndPrompt,Practice,null,1000,"""","""","""","""","""","""","""","""","""",1/25/2021 4:42,67.83.183.0,"Mozilla/5.0 (Windows NT 10.0; Win64; x64) AppleWebKit/537.36 (KHTML, like Gecko) Chrome/87.0.4280.141 Safari/537.36",WebKit,Chrome,87.0.4280.141,Windows,10
87,1,2732.21,"""",html-slider-response,31,46352,0.0-31.0,"<p><b> Practice Set </b></p><img src='jspsych/CFDfaces/CFD-WF-218-087-N.jpg'height=""250px""></br><b>Shannon</b>","""",3,ConfidenceQuery,Practice,"""","""","""",50,50,1,2,"""","""","""","""",1/25/2021 4:42,67.83.183.0,"Mozilla/5.0 (Windows NT 10.0; Win64; x64) AppleWebKit/537.36 (KHTML, like Gecko) Chrome/87.0.4280.141 Safari/537.36",WebKit,Chrome,87.0.4280.141,Windows,10
87,1,2484.76,"""",html-button-response,32,48842,0.0-32.0,<p>You responded that you were not sure.</p> <p>The pair was rearranged.</p>,0,3,feedback,Practice,"""","""","""","""","""","""","""","""","""","""","""",1/25/2021 4:42,67.83.183.0,"Mozilla/5.0 (Windows NT 10.0; Win64; x64) AppleWebKit/537.36 (KHTML, like Gecko) Chrome/87.0.4280.141 Safari/537.36",WebKit,Chrome,87.0.4280.141,Windows,10
87,1,null,"""",html-keyboard-response,33,49854,0.0-33.0,"<div style=""font-size:60px;"">+</div>","""",4,ITI,Practice,null,1000,"""","""","""","""","""","""","""","""","""",1/25/2021 4:42,67.83.183.0,"Mozilla/5.0 (Windows NT 10.0; Win64; x64) AppleWebKit/537.36 (KHTML, like Gecko) Chrome/87.0.4280.141 Safari/537.36",WebKit,Chrome,87.0.4280.141,Windows,10
87,1,null,"""",image-keyboard-response,34,50115,0.0-34.0,jspsych/scrambledDisgustFaces/scrambledAM25DIS.JPG,"""",4,forwardMask,Practice,null,250,d,"""","""","""","""","""","""","""","""",1/25/2021 4:42,67.83.183.0,"Mozilla/5.0 (Windows NT 10.0; Win64; x64) AppleWebKit/537.36 (KHTML, like Gecko) Chrome/87.0.4280.141 Safari/537.36",WebKit,Chrome,87.0.4280.141,Windows,10
87,1,null,"""",image-keyboard-response,35,50137,0.0-35.0,jspsych/disgustFaces/AM25DIS.JPG,"""",4,Cue,Practice,null,"function(){
        return jsPsych.randomization.sampleWithoutReplacement(cueDuration, 1)[0]}","""","""","""","""","""","""","""","""","""",1/25/2021 4:42,67.83.183.0,"Mozilla/5.0 (Windows NT 10.0; Win64; x64) AppleWebKit/537.36 (KHTML, like Gecko) Chrome/87.0.4280.141 Safari/537.36",WebKit,Chrome,87.0.4280.141,Windows,10
87,1,null,"""",image-keyboard-response,36,50245,0.0-36.0,jspsych/neutralFaces/AF15NES.JPG,"""",4,backwardMask,Practice,null,100,"""","""","""","""","""","""","""","""","""",1/25/2021 4:42,67.83.183.0,"Mozilla/5.0 (Windows NT 10.0; Win64; x64) AppleWebKit/537.36 (KHTML, like Gecko) Chrome/87.0.4280.141 Safari/537.36",WebKit,Chrome,87.0.4280.141,Windows,10
87,1,null,"""",html-keyboard-response,37,51253,0.0-37.0,"<div style=""font-size:60px;"">+</div>","""",4,fixationBtwnNeutralMaskAndPrompt,Practice,null,1000,"""","""","""","""","""","""","""","""","""",1/25/2021 4:42,67.83.183.0,"Mozilla/5.0 (Windows NT 10.0; Win64; x64) AppleWebKit/537.36 (KHTML, like Gecko) Chrome/87.0.4280.141 Safari/537.36",WebKit,Chrome,87.0.4280.141,Windows,10
87,1,1863.635,"""",html-slider-response,38,53119,0.0-38.0,"<p><b> Practice Set </b></p><img src='jspsych/CFDfaces/CFD-WM-232-070-N.jpg'height=""250px""></br><b>Patrick</b>","""",4,ConfidenceQuery,Practice,"""","""","""",50,50,0,2,"""","""","""","""",1/25/2021 4:42,67.83.183.0,"Mozilla/5.0 (Windows NT 10.0; Win64; x64) AppleWebKit/537.36 (KHTML, like Gecko) Chrome/87.0.4280.141 Safari/537.36",WebKit,Chrome,87.0.4280.141,Windows,10
87,1,1423.975,"""",html-button-response,39,54553,0.0-39.0,<p>You responded that you were not sure.</p> <p>The pair was intact.</p>,0,4,feedback,Practice,"""","""","""","""","""","""","""","""","""","""","""",1/25/2021 4:42,67.83.183.0,"Mozilla/5.0 (Windows NT 10.0; Win64; x64) AppleWebKit/537.36 (KHTML, like Gecko) Chrome/87.0.4280.141 Safari/537.36",WebKit,Chrome,87.0.4280.141,Windows,10
87,1,1826.95,"""",image-button-response,40,56382,0.0-40.0,directionsMemoryAssociation3.JPG,0,1,DirectionsBeforeActualTEst,Break,"""","""","""","""","""","""","""","""","""","""","""",1/25/2021 4:42,67.83.183.0,"Mozilla/5.0 (Windows NT 10.0; Win64; x64) AppleWebKit/537.36 (KHTML, like Gecko) Chrome/87.0.4280.141 Safari/537.36",WebKit,Chrome,87.0.4280.141,Windows,10
87,1,null,"""",html-keyboard-response,41,61393,0.0-41.0,"<img src='jspsych/CFDfaces/CFD-AF-201-060-N.jpg' height=""250px""></br><b>Kristina</b>","""",1,IntactFace,Memorization,null,5000,"""","""","""","""","""","""","""","""","""",1/25/2021 4:42,67.83.183.0,"Mozilla/5.0 (Windows NT 10.0; Win64; x64) AppleWebKit/537.36 (KHTML, like Gecko) Chrome/87.0.4280.141 Safari/537.36",WebKit,Chrome,87.0.4280.141,Windows,10
87,1,null,"""",html-keyboard-response,42,61901,0.0-42.0,"<div style=""font-size:60px;"">+</div>","""",1,fixation,Memorization,null,Memorization,"""","""","""","""","""","""","""","""","""",1/25/2021 4:42,67.83.183.0,"Mozilla/5.0 (Windows NT 10.0; Win64; x64) AppleWebKit/537.36 (KHTML, like Gecko) Chrome/87.0.4280.141 Safari/537.36",WebKit,Chrome,87.0.4280.141,Windows,10
87,1,null,"""",html-keyboard-response,43,66922,0.0-43.0,"<img src='jspsych/CFDfaces/CFD-AM-207-108-N.jpg' height=""250px""></br><b>Christian</b>","""",2,IntactFace,Memorization,null,5000,"""","""","""","""","""","""","""","""","""",1/25/2021 4:42,67.83.183.0,"Mozilla/5.0 (Windows NT 10.0; Win64; x64) AppleWebKit/537.36 (KHTML, like Gecko) Chrome/87.0.4280.141 Safari/537.36",WebKit,Chrome,87.0.4280.141,Windows,10
87,1,null,"""",html-keyboard-response,44,67428,0.0-44.0,"<div style=""font-size:60px;"">+</div>","""",2,fixation,Memorization,null,Memorization,"""","""","""","""","""","""","""","""","""",1/25/2021 4:42,67.83.183.0,"Mozilla/5.0 (Windows NT 10.0; Win64; x64) AppleWebKit/537.36 (KHTML, like Gecko) Chrome/87.0.4280.141 Safari/537.36",WebKit,Chrome,87.0.4280.141,Windows,10
87,1,null,"""",html-keyboard-response,45,72434,0.0-45.0,"<img src='jspsych/CFDfaces/CFD-AM-205-153-N.jpg' height=""250px""></br><b>Brian</b>","""",3,IntactFace,Memorization,null,5000,"""","""","""","""","""","""","""","""","""",1/25/2021 4:42,67.83.183.0,"Mozilla/5.0 (Windows NT 10.0; Win64; x64) AppleWebKit/537.36 (KHTML, like Gecko) Chrome/87.0.4280.141 Safari/537.36",WebKit,Chrome,87.0.4280.141,Windows,10
87,1,null,"""",html-keyboard-response,46,72948,0.0-46.0,"<div style=""font-size:60px;"">+</div>","""",3,fixation,Memorization,null,Memorization,"""","""","""","""","""","""","""","""","""",1/25/2021 4:42,67.83.183.0,"Mozilla/5.0 (Windows NT 10.0; Win64; x64) AppleWebKit/537.36 (KHTML, like Gecko) Chrome/87.0.4280.141 Safari/537.36",WebKit,Chrome,87.0.4280.141,Windows,10
87,1,null,"""",html-keyboard-response,47,77960,0.0-47.0,"<img src='jspsych/CFDfaces/CFD-AF-203-077-N.jpg' height=""250px""></br><b>Michelle</b>","""",4,IntactFace,Memorization,null,5000,"""","""","""","""","""","""","""","""","""",1/25/2021 4:42,67.83.183.0,"Mozilla/5.0 (Windows NT 10.0; Win64; x64) AppleWebKit/537.36 (KHTML, like Gecko) Chrome/87.0.4280.141 Safari/537.36",WebKit,Chrome,87.0.4280.141,Windows,10
87,1,null,"""",html-keyboard-response,48,78467,0.0-48.0,"<div style=""font-size:60px;"">+</div>","""",4,fixation,Memorization,null,Memorization,"""","""","""","""","""","""","""","""","""",1/25/2021 4:42,67.83.183.0,"Mozilla/5.0 (Windows NT 10.0; Win64; x64) AppleWebKit/537.36 (KHTML, like Gecko) Chrome/87.0.4280.141 Safari/537.36",WebKit,Chrome,87.0.4280.141,Windows,10
87,1,1368.075,"""",html-keyboard-response,49,79838,0.0-49.0,Press Key to Begin Memory Test,"""",1,welcomeScreen,Break,74,"""","""","""","""","""","""","""","""","""","""",1/25/2021 4:42,67.83.183.0,"Mozilla/5.0 (Windows NT 10.0; Win64; x64) AppleWebKit/537.36 (KHTML, like Gecko) Chrome/87.0.4280.141 Safari/537.36",WebKit,Chrome,87.0.4280.141,Windows,10
87,1,null,"""",html-keyboard-response,50,80842,0.0-50.0,"<div style=""font-size:60px;"">+</div>","""",1,ITI,Test,null,1000,"""","""","""","""","""","""","""","""","""",1/25/2021 4:42,67.83.183.0,"Mozilla/5.0 (Windows NT 10.0; Win64; x64) AppleWebKit/537.36 (KHTML, like Gecko) Chrome/87.0.4280.141 Safari/537.36",WebKit,Chrome,87.0.4280.141,Windows,10
87,1,null,"""",image-keyboard-response,51,81098,0.0-51.0,jspsych/scrambledNeutralFaces/scrambledAF34NES.JPG,"""",1,forwardMask,Test,null,250,n,"""","""","""","""","""","""","""","""",1/25/2021 4:42,67.83.183.0,"Mozilla/5.0 (Windows NT 10.0; Win64; x64) AppleWebKit/537.36 (KHTML, like Gecko) Chrome/87.0.4280.141 Safari/537.36",WebKit,Chrome,87.0.4280.141,Windows,10
87,1,null,"""",image-keyboard-response,52,81117,0.0-52.0,jspsych/neutralFaces/AF34NES.JPG,"""",1,Cue,Test,null,"function(){
        return jsPsych.randomization.sampleWithoutReplacement(cueDuration, 1)[0]}","""","""","""","""","""","""","""","""","""",1/25/2021 4:42,67.83.183.0,"Mozilla/5.0 (Windows NT 10.0; Win64; x64) AppleWebKit/537.36 (KHTML, like Gecko) Chrome/87.0.4280.141 Safari/537.36",WebKit,Chrome,87.0.4280.141,Windows,10
87,1,null,"""",image-keyboard-response,53,81229,0.0-53.0,jspsych/neutralFaces/AF05NES.JPG,"""",1,backwardMask,Test,null,100,"""","""","""","""","""","""","""","""","""",1/25/2021 4:42,67.83.183.0,"Mozilla/5.0 (Windows NT 10.0; Win64; x64) AppleWebKit/537.36 (KHTML, like Gecko) Chrome/87.0.4280.141 Safari/537.36",WebKit,Chrome,87.0.4280.141,Windows,10
87,1,null,"""",html-keyboard-response,54,82239,0.0-54.0,"<div style=""font-size:60px;"">+</div>","""",1,fixationBtwnNeutralMaskAndPrompt,Test,null,1000,"""","""","""","""","""","""","""","""","""",1/25/2021 4:42,67.83.183.0,"Mozilla/5.0 (Windows NT 10.0; Win64; x64) AppleWebKit/537.36 (KHTML, like Gecko) Chrome/87.0.4280.141 Safari/537.36",WebKit,Chrome,87.0.4280.141,Windows,10
87,1,1628.52,"""",html-slider-response,55,83875,0.0-55.0,"<img src='jspsych/CFDfaces/CFD-AM-207-108-N.jpg' height=""250px"">,</br><b>Christian</b>","""",1,ConfidenceQuery,Test,"""","""","""",50,50,"""",2,1,CFD-AF-203-077-N.jpg,Michelle,"""",1/25/2021 4:42,67.83.183.0,"Mozilla/5.0 (Windows NT 10.0; Win64; x64) AppleWebKit/537.36 (KHTML, like Gecko) Chrome/87.0.4280.141 Safari/537.36",WebKit,Chrome,87.0.4280.141,Windows,10
87,1,null,"""",html-keyboard-response,56,84887,0.0-56.0,"<div style=""font-size:60px;"">+</div>","""",2,ITI,Test,null,1000,"""","""","""","""","""","""","""","""","""",1/25/2021 4:42,67.83.183.0,"Mozilla/5.0 (Windows NT 10.0; Win64; x64) AppleWebKit/537.36 (KHTML, like Gecko) Chrome/87.0.4280.141 Safari/537.36",WebKit,Chrome,87.0.4280.141,Windows,10
87,1,null,"""",image-keyboard-response,57,85153,0.0-57.0,jspsych/scrambledDisgustFaces/scrambledAM35DIS.JPG,"""",2,forwardMask,Test,null,250,d,"""","""","""","""","""","""","""","""",1/25/2021 4:42,67.83.183.0,"Mozilla/5.0 (Windows NT 10.0; Win64; x64) AppleWebKit/537.36 (KHTML, like Gecko) Chrome/87.0.4280.141 Safari/537.36",WebKit,Chrome,87.0.4280.141,Windows,10
87,1,null,"""",image-keyboard-response,58,85177,0.0-58.0,jspsych/disgustFaces/AM35DIS.JPG,"""",2,Cue,Test,null,"function(){
        return jsPsych.randomization.sampleWithoutReplacement(cueDuration, 1)[0]}","""","""","""","""","""","""","""","""","""",1/25/2021 4:42,67.83.183.0,"Mozilla/5.0 (Windows NT 10.0; Win64; x64) AppleWebKit/537.36 (KHTML, like Gecko) Chrome/87.0.4280.141 Safari/537.36",WebKit,Chrome,87.0.4280.141,Windows,10
87,1,null,"""",image-keyboard-response,59,85287,0.0-59.0,jspsych/neutralFaces/BM30NES.JPG,"""",2,backwardMask,Test,null,100,"""","""","""","""","""","""","""","""","""",1/25/2021 4:42,67.83.183.0,"Mozilla/5.0 (Windows NT 10.0; Win64; x64) AppleWebKit/537.36 (KHTML, like Gecko) Chrome/87.0.4280.141 Safari/537.36",WebKit,Chrome,87.0.4280.141,Windows,10
87,1,null,"""",html-keyboard-response,60,86293,0.0-60.0,"<div style=""font-size:60px;"">+</div>","""",2,fixationBtwnNeutralMaskAndPrompt,Test,null,1000,"""","""","""","""","""","""","""","""","""",1/25/2021 4:42,67.83.183.0,"Mozilla/5.0 (Windows NT 10.0; Win64; x64) AppleWebKit/537.36 (KHTML, like Gecko) Chrome/87.0.4280.141 Safari/537.36",WebKit,Chrome,87.0.4280.141,Windows,10
87,1,1126.77,"""",html-slider-response,61,87422,0.0-61.0,"<img src='jspsych/CFDfaces/CFD-AF-201-060-N.jpg' height=""250px"">,</br><b>Kristina</b>","""",2,ConfidenceQuery,Test,"""","""","""",50,50,"""",2,0,CFD-AF-203-077-N.jpg,Michelle,"""",1/25/2021 4:42,67.83.183.0,"Mozilla/5.0 (Windows NT 10.0; Win64; x64) AppleWebKit/537.36 (KHTML, like Gecko) Chrome/87.0.4280.141 Safari/537.36",WebKit,Chrome,87.0.4280.141,Windows,10
87,1,null,"""",html-keyboard-response,62,88426,0.0-62.0,"<div style=""font-size:60px;"">+</div>","""",3,ITI,Test,null,1000,"""","""","""","""","""","""","""","""","""",1/25/2021 4:42,67.83.183.0,"Mozilla/5.0 (Windows NT 10.0; Win64; x64) AppleWebKit/537.36 (KHTML, like Gecko) Chrome/87.0.4280.141 Safari/537.36",WebKit,Chrome,87.0.4280.141,Windows,10
87,1,null,"""",image-keyboard-response,63,88683,0.0-63.0,jspsych/scrambledNeutralFaces/scrambledAF34NES.JPG,"""",3,forwardMask,Test,null,250,n,"""","""","""","""","""","""","""","""",1/25/2021 4:42,67.83.183.0,"Mozilla/5.0 (Windows NT 10.0; Win64; x64) AppleWebKit/537.36 (KHTML, like Gecko) Chrome/87.0.4280.141 Safari/537.36",WebKit,Chrome,87.0.4280.141,Windows,10
87,1,null,"""",image-keyboard-response,64,88703,0.0-64.0,jspsych/neutralFaces/AF34NES.JPG,"""",3,Cue,Test,null,"function(){
        return jsPsych.randomization.sampleWithoutReplacement(cueDuration, 1)[0]}","""","""","""","""","""","""","""","""","""",1/25/2021 4:42,67.83.183.0,"Mozilla/5.0 (Windows NT 10.0; Win64; x64) AppleWebKit/537.36 (KHTML, like Gecko) Chrome/87.0.4280.141 Safari/537.36",WebKit,Chrome,87.0.4280.141,Windows,10
87,1,null,"""",image-keyboard-response,65,88816,0.0-65.0,jspsych/neutralFaces/AF23NES.JPG,"""",3,backwardMask,Test,null,100,"""","""","""","""","""","""","""","""","""",1/25/2021 4:42,67.83.183.0,"Mozilla/5.0 (Windows NT 10.0; Win64; x64) AppleWebKit/537.36 (KHTML, like Gecko) Chrome/87.0.4280.141 Safari/537.36",WebKit,Chrome,87.0.4280.141,Windows,10
87,1,null,"""",html-keyboard-response,66,89831,0.0-66.0,"<div style=""font-size:60px;"">+</div>","""",3,fixationBtwnNeutralMaskAndPrompt,Test,null,1000,"""","""","""","""","""","""","""","""","""",1/25/2021 4:42,67.83.183.0,"Mozilla/5.0 (Windows NT 10.0; Win64; x64) AppleWebKit/537.36 (KHTML, like Gecko) Chrome/87.0.4280.141 Safari/537.36",WebKit,Chrome,87.0.4280.141,Windows,10
87,1,929.32,"""",html-slider-response,67,90782,0.0-67.0,"<img src='jspsych/CFDfaces/CFD-AM-205-153-N.jpg' height=""250px"">,</br><b>Brian</b>","""",3,ConfidenceQuery,Test,"""","""","""",50,50,"""",2,0,CFD-AF-203-077-N.jpg,Michelle,"""",1/25/2021 4:42,67.83.183.0,"Mozilla/5.0 (Windows NT 10.0; Win64; x64) AppleWebKit/537.36 (KHTML, like Gecko) Chrome/87.0.4280.141 Safari/537.36",WebKit,Chrome,87.0.4280.141,Windows,10
87,1,null,"""",html-keyboard-response,68,91788,0.0-68.0,"<div style=""font-size:60px;"">+</div>","""",4,ITI,Test,null,1000,"""","""","""","""","""","""","""","""","""",1/25/2021 4:42,67.83.183.0,"Mozilla/5.0 (Windows NT 10.0; Win64; x64) AppleWebKit/537.36 (KHTML, like Gecko) Chrome/87.0.4280.141 Safari/537.36",WebKit,Chrome,87.0.4280.141,Windows,10
87,1,null,"""",image-keyboard-response,69,92045,0.0-69.0,jspsych/scrambledNeutralFaces/scrambledBF17NES.JPG,"""",4,forwardMask,Test,null,250,n,"""","""","""","""","""","""","""","""",1/25/2021 4:42,67.83.183.0,"Mozilla/5.0 (Windows NT 10.0; Win64; x64) AppleWebKit/537.36 (KHTML, like Gecko) Chrome/87.0.4280.141 Safari/537.36",WebKit,Chrome,87.0.4280.141,Windows,10
87,1,null,"""",image-keyboard-response,70,92069,0.0-70.0,jspsych/neutralFaces/BF17NES.JPG,"""",4,Cue,Test,null,"function(){
        return jsPsych.randomization.sampleWithoutReplacement(cueDuration, 1)[0]}","""","""","""","""","""","""","""","""","""",1/25/2021 4:42,67.83.183.0,"Mozilla/5.0 (Windows NT 10.0; Win64; x64) AppleWebKit/537.36 (KHTML, like Gecko) Chrome/87.0.4280.141 Safari/537.36",WebKit,Chrome,87.0.4280.141,Windows,10
87,1,null,"""",image-keyboard-response,71,92177,0.0-71.0,jspsych/neutralFaces/BF01NES.JPG,"""",4,backwardMask,Test,null,100,"""","""","""","""","""","""","""","""","""",1/25/2021 4:42,67.83.183.0,"Mozilla/5.0 (Windows NT 10.0; Win64; x64) AppleWebKit/537.36 (KHTML, like Gecko) Chrome/87.0.4280.141 Safari/537.36",WebKit,Chrome,87.0.4280.141,Windows,10
87,1,null,"""",html-keyboard-response,72,93185,0.0-72.0,"<div style=""font-size:60px;"">+</div>","""",4,fixationBtwnNeutralMaskAndPrompt,Test,null,1000,"""","""","""","""","""","""","""","""","""",1/25/2021 4:42,67.83.183.0,"Mozilla/5.0 (Windows NT 10.0; Win64; x64) AppleWebKit/537.36 (KHTML, like Gecko) Chrome/87.0.4280.141 Safari/537.36",WebKit,Chrome,87.0.4280.141,Windows,10
87,1,1009.195,"""",html-slider-response,73,94196,0.0-73.0,"<img src='jspsych/CFDfaces/CFD-AF-203-077-N.jpg' height=""250px"">,</br><b>Michelle</b>","""",4,ConfidenceQuery,Test,"""","""","""",50,50,"""",2,1,CFD-AF-203-077-N.jpg,Michelle,"""",1/25/2021 4:42,67.83.183.0,"Mozilla/5.0 (Windows NT 10.0; Win64; x64) AppleWebKit/537.36 (KHTML, like Gecko) Chrome/87.0.4280.141 Safari/537.36",WebKit,Chrome,87.0.4280.141,Windows,10
87,1,1420.045,"""",html-button-response,74,95618,0.0-74.0,"Thank you for completing the main memorization task. The remaining task will be brief and non-strenous. If you want to, feel free to take a short break.",0,4,BreakBeforeDisgustDetectionTrials,break,"""","""","""","""","""","""","""","""","""","""","""",1/25/2021 4:42,67.83.183.0,"Mozilla/5.0 (Windows NT 10.0; Win64; x64) AppleWebKit/537.36 (KHTML, like Gecko) Chrome/87.0.4280.141 Safari/537.36",WebKit,Chrome,87.0.4280.141,Windows,10
87,1,1138.71,"""",image-button-response,75,96762,0.0-75.0,directionsOnlyDisgust.JPG,0,1,directions,"""","""","""","""","""","""","""","""","""","""","""","""",1/25/2021 4:42,67.83.183.0,"Mozilla/5.0 (Windows NT 10.0; Win64; x64) AppleWebKit/537.36 (KHTML, like Gecko) Chrome/87.0.4280.141 Safari/537.36",WebKit,Chrome,87.0.4280.141,Windows,10
87,1,null,"""",html-keyboard-response,76,97765,0.0-76.0,"<div style=""font-size:60px;"">+</div>","""",1,ITI,Calibration,null,1000,"""","""","""","""","""","""","""","""","""",1/25/2021 4:42,67.83.183.0,"Mozilla/5.0 (Windows NT 10.0; Win64; x64) AppleWebKit/537.36 (KHTML, like Gecko) Chrome/87.0.4280.141 Safari/537.36",WebKit,Chrome,87.0.4280.141,Windows,10
87,1,null,"""",image-keyboard-response,77,98024,0.0-77.0,jspsych/scrambledNeutralFaces/scrambledAF11NES.JPG,"""",1,forwardMask,Calibration,null,250,n,"""","""","""","""","""","""","""","""",1/25/2021 4:42,67.83.183.0,"Mozilla/5.0 (Windows NT 10.0; Win64; x64) AppleWebKit/537.36 (KHTML, like Gecko) Chrome/87.0.4280.141 Safari/537.36",WebKit,Chrome,87.0.4280.141,Windows,10
87,1,null,"""",image-keyboard-response,78,98046,0.0-78.0,jspsych/neutralFaces/AF11NES.JPG,"""",1,Cue,Calibration,null,"function(){
        return jsPsych.randomization.sampleWithoutReplacement(cueDuration, 1)[0]}","""","""","""","""","""","""","""","""","""",1/25/2021 4:42,67.83.183.0,"Mozilla/5.0 (Windows NT 10.0; Win64; x64) AppleWebKit/537.36 (KHTML, like Gecko) Chrome/87.0.4280.141 Safari/537.36",WebKit,Chrome,87.0.4280.141,Windows,10
87,1,null,"""",image-keyboard-response,79,98156,0.0-79.0,jspsych/neutralFaces/BM16NES.JPG,"""",1,backwardMask,Calibration,null,100,"""","""","""","""","""","""","""","""","""",1/25/2021 4:42,67.83.183.0,"Mozilla/5.0 (Windows NT 10.0; Win64; x64) AppleWebKit/537.36 (KHTML, like Gecko) Chrome/87.0.4280.141 Safari/537.36",WebKit,Chrome,87.0.4280.141,Windows,10
87,1,null,"""",html-keyboard-response,80,99164,0.0-80.0,"<div style=""font-size:60px;"">+</div>","""",1,fixationBtwnNeutralMaskAndPrompt,Calibration,null,1000,"""","""","""","""","""","""","""","""","""",1/25/2021 4:42,67.83.183.0,"Mozilla/5.0 (Windows NT 10.0; Win64; x64) AppleWebKit/537.36 (KHTML, like Gecko) Chrome/87.0.4280.141 Safari/537.36",WebKit,Chrome,87.0.4280.141,Windows,10
87,1,895.1549999,"""",html-keyboard-response,81,100063,0.0-81.0,Did you see a disgust face? (Y/N),"""",1,Query,Calibration,78,"""","""","""","""","""","""","""","""","""",n,1/25/2021 4:42,67.83.183.0,"Mozilla/5.0 (Windows NT 10.0; Win64; x64) AppleWebKit/537.36 (KHTML, like Gecko) Chrome/87.0.4280.141 Safari/537.36",WebKit,Chrome,87.0.4280.141,Windows,10
87,1,1585.595,"""",image-button-response,82,101655,0.0-82.0,debriefing.JPG,0,1,debriefing,break,"""","""","""","""","""","""","""","""","""","""","""",1/25/2021 4:42,67.83.183.0,"Mozilla/5.0 (Windows NT 10.0; Win64; x64) AppleWebKit/537.36 (KHTML, like Gecko) Chrome/87.0.4280.141 Safari/537.36",WebKit,Chrome,87.0.4280.141,Windows,10
