run_id,condition,rt,responses,trial_type,trial_index,time_elapsed,internal_node_id,stimulus,button_pressed,iTrial,Phase,ExperimentPhase,key_press,StimulusDurationSetting,correctResponse,Face,Name,rearranged,slider_start,response,didSubjectEnterRearranged,CharacterResponse,recorded_at,ip,user_agent,device,browser,browser_version,platform,platform_version
159,1,2334,"{""Q0"":""h""}",survey-text,0,2429,0.0-0.0,"""","""","""","""","""","""","""","""","""","""","""","""","""","""","""",2/28/2021 22:51,67.83.183.0,Mozilla/5.0 (Windows NT 10.0; Win64; x64; rv:86.0) Gecko/20100101 Firefox/86.0,,Firefox,86,Windows,10
159,1,958,"""",image-button-response,1,3978,0.0-1.0,directionsMemoryAssociation1.JPG,0,1,IntroDirections1,break,"""","""","""","""","""","""","""","""","""","""",2/28/2021 22:51,67.83.183.0,Mozilla/5.0 (Windows NT 10.0; Win64; x64; rv:86.0) Gecko/20100101 Firefox/86.0,,Firefox,86,Windows,10
159,1,849,"""",image-button-response,2,4833,0.0-2.0,directionsMemoryAssociation2.JPG,0,1,IntroDirections2,break,"""","""","""","""","""","""","""","""","""","""",2/28/2021 22:51,67.83.183.0,Mozilla/5.0 (Windows NT 10.0; Win64; x64; rv:86.0) Gecko/20100101 Firefox/86.0,,Firefox,86,Windows,10
159,1,null,"""",html-keyboard-response,3,9837,0.0-3.0,"<img src='jspsych/CFDfaces/CFD-WM-232-070-N.jpg' height=""250px"">,</br><b>Patrick</b>","""",1,IntactFace,Practice,null,5000,"""","""","""","""","""","""","""","""",2/28/2021 22:51,67.83.183.0,Mozilla/5.0 (Windows NT 10.0; Win64; x64; rv:86.0) Gecko/20100101 Firefox/86.0,,Firefox,86,Windows,10
159,1,null,"""",html-keyboard-response,4,10340,0.0-4.0,"<div style=""font-size:60px;"">+</div>","""",1,ITI,Practice,null,1000,"""","""","""","""","""","""","""","""",2/28/2021 22:51,67.83.183.0,Mozilla/5.0 (Windows NT 10.0; Win64; x64; rv:86.0) Gecko/20100101 Firefox/86.0,,Firefox,86,Windows,10
159,1,null,"""",html-keyboard-response,5,15342,0.0-5.0,"<img src='jspsych/CFDfaces/CFD-WF-218-087-N.jpg' height=""250px"">,</br><b>Cassandra</b>","""",2,IntactFace,Practice,null,5000,"""","""","""","""","""","""","""","""",2/28/2021 22:51,67.83.183.0,Mozilla/5.0 (Windows NT 10.0; Win64; x64; rv:86.0) Gecko/20100101 Firefox/86.0,,Firefox,86,Windows,10
159,1,null,"""",html-keyboard-response,6,15844,0.0-6.0,"<div style=""font-size:60px;"">+</div>","""",2,ITI,Practice,null,1000,"""","""","""","""","""","""","""","""",2/28/2021 22:51,67.83.183.0,Mozilla/5.0 (Windows NT 10.0; Win64; x64; rv:86.0) Gecko/20100101 Firefox/86.0,,Firefox,86,Windows,10
159,1,null,"""",html-keyboard-response,7,20848,0.0-7.0,"<img src='jspsych/CFDfaces/CFD-WF-220-101-N.jpg' height=""250px"">,</br><b>Shannon</b>","""",3,IntactFace,Practice,null,5000,"""","""","""","""","""","""","""","""",2/28/2021 22:51,67.83.183.0,Mozilla/5.0 (Windows NT 10.0; Win64; x64; rv:86.0) Gecko/20100101 Firefox/86.0,,Firefox,86,Windows,10
159,1,null,"""",html-keyboard-response,8,21351,0.0-8.0,"<div style=""font-size:60px;"">+</div>","""",3,ITI,Practice,null,1000,"""","""","""","""","""","""","""","""",2/28/2021 22:51,67.83.183.0,Mozilla/5.0 (Windows NT 10.0; Win64; x64; rv:86.0) Gecko/20100101 Firefox/86.0,,Firefox,86,Windows,10
159,1,null,"""",html-keyboard-response,9,26353,0.0-9.0,"<img src='jspsych/CFDfaces/CFD-WF-215-145-N.jpg' height=""250px"">,</br><b>Katelyn</b>","""",4,IntactFace,Practice,null,5000,"""","""","""","""","""","""","""","""",2/28/2021 22:51,67.83.183.0,Mozilla/5.0 (Windows NT 10.0; Win64; x64; rv:86.0) Gecko/20100101 Firefox/86.0,,Firefox,86,Windows,10
159,1,null,"""",html-keyboard-response,10,26855,0.0-10.0,"<div style=""font-size:60px;"">+</div>","""",4,ITI,Practice,null,1000,"""","""","""","""","""","""","""","""",2/28/2021 22:51,67.83.183.0,Mozilla/5.0 (Windows NT 10.0; Win64; x64; rv:86.0) Gecko/20100101 Firefox/86.0,,Firefox,86,Windows,10
159,1,null,"""",html-keyboard-response,11,31857,0.0-11.0,"<img src='jspsych/CFDfaces/CFD-WM-216-061-N.jpg' height=""250px"">,</br><b>Samuel</b>","""",5,IntactFace,Practice,null,5000,"""","""","""","""","""","""","""","""",2/28/2021 22:51,67.83.183.0,Mozilla/5.0 (Windows NT 10.0; Win64; x64; rv:86.0) Gecko/20100101 Firefox/86.0,,Firefox,86,Windows,10
159,1,null,"""",html-keyboard-response,12,32360,0.0-12.0,"<div style=""font-size:60px;"">+</div>","""",5,ITI,Practice,null,1000,"""","""","""","""","""","""","""","""",2/28/2021 22:51,67.83.183.0,Mozilla/5.0 (Windows NT 10.0; Win64; x64; rv:86.0) Gecko/20100101 Firefox/86.0,,Firefox,86,Windows,10
159,1,null,"""",html-keyboard-response,13,37363,0.0-13.0,"<img src='jspsych/CFDfaces/CFD-WM-222-057-N.jpg' height=""250px"">,</br><b>Marcus</b>","""",6,IntactFace,Practice,null,5000,"""","""","""","""","""","""","""","""",2/28/2021 22:51,67.83.183.0,Mozilla/5.0 (Windows NT 10.0; Win64; x64; rv:86.0) Gecko/20100101 Firefox/86.0,,Firefox,86,Windows,10
159,1,null,"""",html-keyboard-response,14,37865,0.0-14.0,"<div style=""font-size:60px;"">+</div>","""",6,ITI,Practice,null,1000,"""","""","""","""","""","""","""","""",2/28/2021 22:51,67.83.183.0,Mozilla/5.0 (Windows NT 10.0; Win64; x64; rv:86.0) Gecko/20100101 Firefox/86.0,,Firefox,86,Windows,10
159,1,null,"""",html-keyboard-response,15,42867,0.0-15.0,"<img src='jspsych/CFDfaces/CFD-WF-217-085-N.jpg' height=""250px"">,</br><b>Tara</b>","""",7,IntactFace,Practice,null,5000,"""","""","""","""","""","""","""","""",2/28/2021 22:51,67.83.183.0,Mozilla/5.0 (Windows NT 10.0; Win64; x64; rv:86.0) Gecko/20100101 Firefox/86.0,,Firefox,86,Windows,10
159,1,null,"""",html-keyboard-response,16,43371,0.0-16.0,"<div style=""font-size:60px;"">+</div>","""",7,ITI,Practice,null,1000,"""","""","""","""","""","""","""","""",2/28/2021 22:51,67.83.183.0,Mozilla/5.0 (Windows NT 10.0; Win64; x64; rv:86.0) Gecko/20100101 Firefox/86.0,,Firefox,86,Windows,10
159,1,null,"""",html-keyboard-response,17,48373,0.0-17.0,"<img src='jspsych/CFDfaces/CFD-WM-215-041-N.jpg' height=""250px"">,</br><b>Carlos</b>","""",8,IntactFace,Practice,null,5000,"""","""","""","""","""","""","""","""",2/28/2021 22:51,67.83.183.0,Mozilla/5.0 (Windows NT 10.0; Win64; x64; rv:86.0) Gecko/20100101 Firefox/86.0,,Firefox,86,Windows,10
159,1,null,"""",html-keyboard-response,18,48878,0.0-18.0,"<div style=""font-size:60px;"">+</div>","""",8,ITI,Practice,null,1000,"""","""","""","""","""","""","""","""",2/28/2021 22:51,67.83.183.0,Mozilla/5.0 (Windows NT 10.0; Win64; x64; rv:86.0) Gecko/20100101 Firefox/86.0,,Firefox,86,Windows,10
159,1,15432,"""",image-button-response,19,64315,0.0-19.0,directionsForTest.JPG,0,1,directionsForTest,break,"""","""","""","""","""","""","""","""","""","""",2/28/2021 22:51,67.83.183.0,Mozilla/5.0 (Windows NT 10.0; Win64; x64; rv:86.0) Gecko/20100101 Firefox/86.0,,Firefox,86,Windows,10
159,1,1100,"""",image-button-response,20,65425,0.0-20.0,directionsForTest2.JPG,0,1,directionsForTest2,break,"""","""","""","""","""","""","""","""","""","""",2/28/2021 22:51,67.83.183.0,Mozilla/5.0 (Windows NT 10.0; Win64; x64; rv:86.0) Gecko/20100101 Firefox/86.0,,Firefox,86,Windows,10
159,1,null,"""",html-keyboard-response,21,66428,0.0-21.0,"<div style=""font-size:60px;"">+</div>","""",1,ITI,Practice,null,1000,"""","""","""","""","""","""","""","""",2/28/2021 22:51,67.83.183.0,Mozilla/5.0 (Windows NT 10.0; Win64; x64; rv:86.0) Gecko/20100101 Firefox/86.0,,Firefox,86,Windows,10
159,1,null,"""",image-keyboard-response,22,66684,0.0-22.0,jspsych/scrambledNeutralFaces/scrambledBM01NES.JPG,"""",1,forwardMask,Practice,null,250,n,"""","""","""","""","""","""","""",2/28/2021 22:51,67.83.183.0,Mozilla/5.0 (Windows NT 10.0; Win64; x64; rv:86.0) Gecko/20100101 Firefox/86.0,,Firefox,86,Windows,10
159,1,null,"""",image-keyboard-response,23,66702,0.0-23.0,jspsych/neutralFaces/BM01NES.JPG,"""",1,Cue,Practice,null,16,"""","""","""","""","""","""","""","""",2/28/2021 22:51,67.83.183.0,Mozilla/5.0 (Windows NT 10.0; Win64; x64; rv:86.0) Gecko/20100101 Firefox/86.0,,Firefox,86,Windows,10
159,1,null,"""",image-keyboard-response,24,66806,0.0-24.0,jspsych/neutralFaces/AM30NES.JPG,"""",1,backwardMask,Practice,null,100,"""","""","""","""","""","""","""","""",2/28/2021 22:51,67.83.183.0,Mozilla/5.0 (Windows NT 10.0; Win64; x64; rv:86.0) Gecko/20100101 Firefox/86.0,,Firefox,86,Windows,10
159,1,null,"""",html-keyboard-response,25,67806,0.0-25.0,"<div style=""font-size:60px;"">+</div>","""",1,fixationBtwnNeutralMaskAndPrompt,Practice,null,1000,"""","""","""","""","""","""","""","""",2/28/2021 22:51,67.83.183.0,Mozilla/5.0 (Windows NT 10.0; Win64; x64; rv:86.0) Gecko/20100101 Firefox/86.0,,Firefox,86,Windows,10
159,1,null,"""",html-button-response,26,72811,0.0-26.0,"<img src='jspsych/CFDfaces/CFD-WM-232-070-N.jpg'height=""250px""></br><b>Patrick</b>",null,1,IntactOrRearranged,Practice,"""","""","""",CFD-LM-201-057-N.jpg,Zachary,0,"""","""","""","""",2/28/2021 22:51,67.83.183.0,Mozilla/5.0 (Windows NT 10.0; Win64; x64; rv:86.0) Gecko/20100101 Firefox/86.0,,Firefox,86,Windows,10
159,1,null,"""",html-slider-response,27,77846,0.0-27.0,"<img src='jspsych/CFDfaces/CFD-WM-232-070-N.jpg'height=""250px""></br><b>Patrick</b>","""",1,ConfidenceQuery,Practice,"""","""","""",CFD-LM-201-057-N.jpg,Zachary,0,0,null,"""","""",2/28/2021 22:51,67.83.183.0,Mozilla/5.0 (Windows NT 10.0; Win64; x64; rv:86.0) Gecko/20100101 Firefox/86.0,,Firefox,86,Windows,10
159,1,53414,"""",html-button-response,28,131264,0.0-28.0,Please remember to click either button REARRANGED or INTACT!,0,1,feedback,Practice,"""","""","""","""","""","""","""","""","""","""",2/28/2021 22:51,67.83.183.0,Mozilla/5.0 (Windows NT 10.0; Win64; x64; rv:86.0) Gecko/20100101 Firefox/86.0,,Firefox,86,Windows,10
159,1,null,"""",html-keyboard-response,29,132267,0.0-29.0,"<div style=""font-size:60px;"">+</div>","""",2,ITI,Practice,null,1000,"""","""","""","""","""","""","""","""",2/28/2021 22:51,67.83.183.0,Mozilla/5.0 (Windows NT 10.0; Win64; x64; rv:86.0) Gecko/20100101 Firefox/86.0,,Firefox,86,Windows,10
159,1,null,"""",image-keyboard-response,30,132522,0.0-30.0,jspsych/scrambledDisgustFaces/scrambledBM30DIS.JPG,"""",2,forwardMask,Practice,null,250,d,"""","""","""","""","""","""","""",2/28/2021 22:51,67.83.183.0,Mozilla/5.0 (Windows NT 10.0; Win64; x64; rv:86.0) Gecko/20100101 Firefox/86.0,,Firefox,86,Windows,10
159,1,null,"""",image-keyboard-response,31,132543,0.0-31.0,jspsych/disgustFaces/BM31DIS.JPG,"""",2,Cue,Practice,null,16,"""","""","""","""","""","""","""","""",2/28/2021 22:51,67.83.183.0,Mozilla/5.0 (Windows NT 10.0; Win64; x64; rv:86.0) Gecko/20100101 Firefox/86.0,,Firefox,86,Windows,10
159,1,null,"""",image-keyboard-response,32,132648,0.0-32.0,jspsych/neutralFaces/AM26NES.JPG,"""",2,backwardMask,Practice,null,100,"""","""","""","""","""","""","""","""",2/28/2021 22:51,67.83.183.0,Mozilla/5.0 (Windows NT 10.0; Win64; x64; rv:86.0) Gecko/20100101 Firefox/86.0,,Firefox,86,Windows,10
159,1,null,"""",html-keyboard-response,33,133649,0.0-33.0,"<div style=""font-size:60px;"">+</div>","""",2,fixationBtwnNeutralMaskAndPrompt,Practice,null,1000,"""","""","""","""","""","""","""","""",2/28/2021 22:51,67.83.183.0,Mozilla/5.0 (Windows NT 10.0; Win64; x64; rv:86.0) Gecko/20100101 Firefox/86.0,,Firefox,86,Windows,10
159,1,3713,"""",html-button-response,34,137362,0.0-34.0,"<img src='jspsych/CFDfaces/CFD-WF-215-145-N.jpg'height=""250px""></br><b>Cassandra</b>",1,2,IntactOrRearranged,Practice,"""","""","""",CFD-WF-017-003-N.jpg,Melissa,1,"""","""",1,"""",2/28/2021 22:51,67.83.183.0,Mozilla/5.0 (Windows NT 10.0; Win64; x64; rv:86.0) Gecko/20100101 Firefox/86.0,,Firefox,86,Windows,10
159,1,3826,"""",html-slider-response,35,141191,0.0-35.0,"<img src='jspsych/CFDfaces/CFD-WF-215-145-N.jpg'height=""250px""></br><b>Cassandra</b>","""",2,ConfidenceQuery,Practice,"""","""","""",CFD-WF-017-003-N.jpg,Melissa,1,0,15,"""","""",2/28/2021 22:51,67.83.183.0,Mozilla/5.0 (Windows NT 10.0; Win64; x64; rv:86.0) Gecko/20100101 Firefox/86.0,,Firefox,86,Windows,10
159,1,1094,"""",html-button-response,36,142288,0.0-36.0,You are Correct. You Called A Rearranged Pair Rearranged,0,2,feedback,Practice,"""","""","""","""","""","""","""","""","""","""",2/28/2021 22:51,67.83.183.0,Mozilla/5.0 (Windows NT 10.0; Win64; x64; rv:86.0) Gecko/20100101 Firefox/86.0,,Firefox,86,Windows,10
159,1,null,"""",html-keyboard-response,37,143292,0.0-37.0,"<div style=""font-size:60px;"">+</div>","""",3,ITI,Practice,null,1000,"""","""","""","""","""","""","""","""",2/28/2021 22:51,67.83.183.0,Mozilla/5.0 (Windows NT 10.0; Win64; x64; rv:86.0) Gecko/20100101 Firefox/86.0,,Firefox,86,Windows,10
159,1,null,"""",image-keyboard-response,38,143544,0.0-38.0,jspsych/scrambledNeutralFaces/scrambledAM02NES.JPG,"""",3,forwardMask,Practice,null,250,n,"""","""","""","""","""","""","""",2/28/2021 22:51,67.83.183.0,Mozilla/5.0 (Windows NT 10.0; Win64; x64; rv:86.0) Gecko/20100101 Firefox/86.0,,Firefox,86,Windows,10
159,1,null,"""",image-keyboard-response,39,143562,0.0-39.0,jspsych/neutralFaces/AM02NES.JPG,"""",3,Cue,Practice,null,16,"""","""","""","""","""","""","""","""",2/28/2021 22:51,67.83.183.0,Mozilla/5.0 (Windows NT 10.0; Win64; x64; rv:86.0) Gecko/20100101 Firefox/86.0,,Firefox,86,Windows,10
159,1,null,"""",image-keyboard-response,40,143665,0.0-40.0,jspsych/neutralFaces/AM23NES.JPG,"""",3,backwardMask,Practice,null,100,"""","""","""","""","""","""","""","""",2/28/2021 22:51,67.83.183.0,Mozilla/5.0 (Windows NT 10.0; Win64; x64; rv:86.0) Gecko/20100101 Firefox/86.0,,Firefox,86,Windows,10
159,1,null,"""",html-keyboard-response,41,144666,0.0-41.0,"<div style=""font-size:60px;"">+</div>","""",3,fixationBtwnNeutralMaskAndPrompt,Practice,null,1000,"""","""","""","""","""","""","""","""",2/28/2021 22:51,67.83.183.0,Mozilla/5.0 (Windows NT 10.0; Win64; x64; rv:86.0) Gecko/20100101 Firefox/86.0,,Firefox,86,Windows,10
159,1,1610,"""",html-button-response,42,146280,0.0-42.0,"<img src='jspsych/CFDfaces/CFD-WF-218-087-N.jpg'height=""250px""></br><b>Katelyn</b>",0,3,IntactOrRearranged,Practice,"""","""","""",CFD-BF-019-001-N.jpg,Erika,1,"""","""",0,"""",2/28/2021 22:51,67.83.183.0,Mozilla/5.0 (Windows NT 10.0; Win64; x64; rv:86.0) Gecko/20100101 Firefox/86.0,,Firefox,86,Windows,10
159,1,1894,"""",html-slider-response,43,148177,0.0-43.0,"<img src='jspsych/CFDfaces/CFD-WF-218-087-N.jpg'height=""250px""></br><b>Katelyn</b>","""",3,ConfidenceQuery,Practice,"""","""","""",CFD-BF-019-001-N.jpg,Erika,1,0,36,"""","""",2/28/2021 22:51,67.83.183.0,Mozilla/5.0 (Windows NT 10.0; Win64; x64; rv:86.0) Gecko/20100101 Firefox/86.0,,Firefox,86,Windows,10
159,1,1291,"""",html-button-response,44,149469,0.0-44.0,You are Incorrect. You called a Rearranged Pair Intact,0,3,feedback,Practice,"""","""","""","""","""","""","""","""","""","""",2/28/2021 22:51,67.83.183.0,Mozilla/5.0 (Windows NT 10.0; Win64; x64; rv:86.0) Gecko/20100101 Firefox/86.0,,Firefox,86,Windows,10
159,1,null,"""",html-keyboard-response,45,150472,0.0-45.0,"<div style=""font-size:60px;"">+</div>","""",4,ITI,Practice,null,1000,"""","""","""","""","""","""","""","""",2/28/2021 22:51,67.83.183.0,Mozilla/5.0 (Windows NT 10.0; Win64; x64; rv:86.0) Gecko/20100101 Firefox/86.0,,Firefox,86,Windows,10
159,1,null,"""",image-keyboard-response,46,150723,0.0-46.0,jspsych/scrambledDisgustFaces/scrambledBM16DIS.JPG,"""",4,forwardMask,Practice,null,250,d,"""","""","""","""","""","""","""",2/28/2021 22:51,67.83.183.0,Mozilla/5.0 (Windows NT 10.0; Win64; x64; rv:86.0) Gecko/20100101 Firefox/86.0,,Firefox,86,Windows,10
159,1,null,"""",image-keyboard-response,47,150744,0.0-47.0,jspsych/disgustFaces/BM17DIS.JPG,"""",4,Cue,Practice,null,16,"""","""","""","""","""","""","""","""",2/28/2021 22:51,67.83.183.0,Mozilla/5.0 (Windows NT 10.0; Win64; x64; rv:86.0) Gecko/20100101 Firefox/86.0,,Firefox,86,Windows,10
159,1,null,"""",image-keyboard-response,48,150848,0.0-48.0,jspsych/neutralFaces/BM06NES.JPG,"""",4,backwardMask,Practice,null,100,"""","""","""","""","""","""","""","""",2/28/2021 22:51,67.83.183.0,Mozilla/5.0 (Windows NT 10.0; Win64; x64; rv:86.0) Gecko/20100101 Firefox/86.0,,Firefox,86,Windows,10
159,1,null,"""",html-keyboard-response,49,151851,0.0-49.0,"<div style=""font-size:60px;"">+</div>","""",4,fixationBtwnNeutralMaskAndPrompt,Practice,null,1000,"""","""","""","""","""","""","""","""",2/28/2021 22:51,67.83.183.0,Mozilla/5.0 (Windows NT 10.0; Win64; x64; rv:86.0) Gecko/20100101 Firefox/86.0,,Firefox,86,Windows,10
159,1,1721,"""",html-button-response,50,153573,0.0-50.0,"<img src='jspsych/CFDfaces/CFD-WF-217-085-N.jpg'height=""250px""></br><b>Tara</b>",1,4,IntactOrRearranged,Practice,"""","""","""",CFD-BM-010-003-N.jpg,Kyle,0,"""","""",1,"""",2/28/2021 22:51,67.83.183.0,Mozilla/5.0 (Windows NT 10.0; Win64; x64; rv:86.0) Gecko/20100101 Firefox/86.0,,Firefox,86,Windows,10
159,1,3441,"""",html-slider-response,51,157017,0.0-51.0,"<img src='jspsych/CFDfaces/CFD-WF-217-085-N.jpg'height=""250px""></br><b>Tara</b>","""",4,ConfidenceQuery,Practice,"""","""","""",CFD-BM-010-003-N.jpg,Kyle,0,0,44,"""","""",2/28/2021 22:51,67.83.183.0,Mozilla/5.0 (Windows NT 10.0; Win64; x64; rv:86.0) Gecko/20100101 Firefox/86.0,,Firefox,86,Windows,10
159,1,1222,"""",html-button-response,52,158239,0.0-52.0,You are Incorrect. You Called an Intact Pair Rearranged,0,4,feedback,Practice,"""","""","""","""","""","""","""","""","""","""",2/28/2021 22:51,67.83.183.0,Mozilla/5.0 (Windows NT 10.0; Win64; x64; rv:86.0) Gecko/20100101 Firefox/86.0,,Firefox,86,Windows,10
159,1,null,"""",html-keyboard-response,53,159242,0.0-53.0,"<div style=""font-size:60px;"">+</div>","""",5,ITI,Practice,null,1000,"""","""","""","""","""","""","""","""",2/28/2021 22:51,67.83.183.0,Mozilla/5.0 (Windows NT 10.0; Win64; x64; rv:86.0) Gecko/20100101 Firefox/86.0,,Firefox,86,Windows,10
159,1,null,"""",image-keyboard-response,54,159496,0.0-54.0,jspsych/scrambledDisgustFaces/scrambledBM09DIS.JPG,"""",5,forwardMask,Practice,null,250,d,"""","""","""","""","""","""","""",2/28/2021 22:51,67.83.183.0,Mozilla/5.0 (Windows NT 10.0; Win64; x64; rv:86.0) Gecko/20100101 Firefox/86.0,,Firefox,86,Windows,10
159,1,null,"""",image-keyboard-response,55,159514,0.0-55.0,jspsych/disgustFaces/BM10DIS.JPG,"""",5,Cue,Practice,null,16,"""","""","""","""","""","""","""","""",2/28/2021 22:51,67.83.183.0,Mozilla/5.0 (Windows NT 10.0; Win64; x64; rv:86.0) Gecko/20100101 Firefox/86.0,,Firefox,86,Windows,10
159,1,null,"""",image-keyboard-response,56,159616,0.0-56.0,jspsych/neutralFaces/AM05NES.JPG,"""",5,backwardMask,Practice,null,100,"""","""","""","""","""","""","""","""",2/28/2021 22:51,67.83.183.0,Mozilla/5.0 (Windows NT 10.0; Win64; x64; rv:86.0) Gecko/20100101 Firefox/86.0,,Firefox,86,Windows,10
159,1,null,"""",html-keyboard-response,57,160618,0.0-57.0,"<div style=""font-size:60px;"">+</div>","""",5,fixationBtwnNeutralMaskAndPrompt,Practice,null,1000,"""","""","""","""","""","""","""","""",2/28/2021 22:51,67.83.183.0,Mozilla/5.0 (Windows NT 10.0; Win64; x64; rv:86.0) Gecko/20100101 Firefox/86.0,,Firefox,86,Windows,10
159,1,1099,"""",html-button-response,58,161717,0.0-58.0,"<img src='jspsych/CFDfaces/CFD-WF-220-101-N.jpg'height=""250px""></br><b>Shannon</b>",1,5,IntactOrRearranged,Practice,"""","""","""",CFD-LM-225-130-N.jpg,Shawn,0,"""","""",1,"""",2/28/2021 22:51,67.83.183.0,Mozilla/5.0 (Windows NT 10.0; Win64; x64; rv:86.0) Gecko/20100101 Firefox/86.0,,Firefox,86,Windows,10
159,1,2641,"""",html-slider-response,59,164360,0.0-59.0,"<img src='jspsych/CFDfaces/CFD-WF-220-101-N.jpg'height=""250px""></br><b>Shannon</b>","""",5,ConfidenceQuery,Practice,"""","""","""",CFD-LM-225-130-N.jpg,Shawn,0,0,39,"""","""",2/28/2021 22:51,67.83.183.0,Mozilla/5.0 (Windows NT 10.0; Win64; x64; rv:86.0) Gecko/20100101 Firefox/86.0,,Firefox,86,Windows,10
159,1,1453,"""",html-button-response,60,165815,0.0-60.0,You are Incorrect. You Called an Intact Pair Rearranged,0,5,feedback,Practice,"""","""","""","""","""","""","""","""","""","""",2/28/2021 22:51,67.83.183.0,Mozilla/5.0 (Windows NT 10.0; Win64; x64; rv:86.0) Gecko/20100101 Firefox/86.0,,Firefox,86,Windows,10
159,1,null,"""",html-keyboard-response,61,166817,0.0-61.0,"<div style=""font-size:60px;"">+</div>","""",6,ITI,Practice,null,1000,"""","""","""","""","""","""","""","""",2/28/2021 22:51,67.83.183.0,Mozilla/5.0 (Windows NT 10.0; Win64; x64; rv:86.0) Gecko/20100101 Firefox/86.0,,Firefox,86,Windows,10
159,1,null,"""",image-keyboard-response,62,167069,0.0-62.0,jspsych/scrambledDisgustFaces/scrambledBF24DIS.JPG,"""",6,forwardMask,Practice,null,250,d,"""","""","""","""","""","""","""",2/28/2021 22:51,67.83.183.0,Mozilla/5.0 (Windows NT 10.0; Win64; x64; rv:86.0) Gecko/20100101 Firefox/86.0,,Firefox,86,Windows,10
159,1,null,"""",image-keyboard-response,63,167088,0.0-63.0,jspsych/disgustFaces/BF24DIS.JPG,"""",6,Cue,Practice,null,16,"""","""","""","""","""","""","""","""",2/28/2021 22:51,67.83.183.0,Mozilla/5.0 (Windows NT 10.0; Win64; x64; rv:86.0) Gecko/20100101 Firefox/86.0,,Firefox,86,Windows,10
159,1,null,"""",image-keyboard-response,64,167192,0.0-64.0,jspsych/neutralFaces/BF07NES.JPG,"""",6,backwardMask,Practice,null,100,"""","""","""","""","""","""","""","""",2/28/2021 22:51,67.83.183.0,Mozilla/5.0 (Windows NT 10.0; Win64; x64; rv:86.0) Gecko/20100101 Firefox/86.0,,Firefox,86,Windows,10
159,1,null,"""",html-keyboard-response,65,168192,0.0-65.0,"<div style=""font-size:60px;"">+</div>","""",6,fixationBtwnNeutralMaskAndPrompt,Practice,null,1000,"""","""","""","""","""","""","""","""",2/28/2021 22:51,67.83.183.0,Mozilla/5.0 (Windows NT 10.0; Win64; x64; rv:86.0) Gecko/20100101 Firefox/86.0,,Firefox,86,Windows,10
159,1,1244,"""",html-button-response,66,169439,0.0-66.0,"<img src='jspsych/CFDfaces/CFD-WM-222-057-N.jpg'height=""250px""></br><b>Carlos</b>",1,6,IntactOrRearranged,Practice,"""","""","""",CFD-LM-221-216-N.jpg,Paul,1,"""","""",1,"""",2/28/2021 22:51,67.83.183.0,Mozilla/5.0 (Windows NT 10.0; Win64; x64; rv:86.0) Gecko/20100101 Firefox/86.0,,Firefox,86,Windows,10
159,1,1198,"""",html-slider-response,67,170642,0.0-67.0,"<img src='jspsych/CFDfaces/CFD-WM-222-057-N.jpg'height=""250px""></br><b>Carlos</b>","""",6,ConfidenceQuery,Practice,"""","""","""",CFD-LM-221-216-N.jpg,Paul,1,0,0,"""","""",2/28/2021 22:51,67.83.183.0,Mozilla/5.0 (Windows NT 10.0; Win64; x64; rv:86.0) Gecko/20100101 Firefox/86.0,,Firefox,86,Windows,10
159,1,1171,"""",html-button-response,68,171815,0.0-68.0,You are Correct. You Called A Rearranged Pair Rearranged,0,6,feedback,Practice,"""","""","""","""","""","""","""","""","""","""",2/28/2021 22:51,67.83.183.0,Mozilla/5.0 (Windows NT 10.0; Win64; x64; rv:86.0) Gecko/20100101 Firefox/86.0,,Firefox,86,Windows,10
159,1,null,"""",html-keyboard-response,69,172816,0.0-69.0,"<div style=""font-size:60px;"">+</div>","""",7,ITI,Practice,null,1000,"""","""","""","""","""","""","""","""",2/28/2021 22:51,67.83.183.0,Mozilla/5.0 (Windows NT 10.0; Win64; x64; rv:86.0) Gecko/20100101 Firefox/86.0,,Firefox,86,Windows,10
159,1,null,"""",image-keyboard-response,70,173070,0.0-70.0,jspsych/scrambledDisgustFaces/scrambledBM04DIS.JPG,"""",7,forwardMask,Practice,null,250,d,"""","""","""","""","""","""","""",2/28/2021 22:51,67.83.183.0,Mozilla/5.0 (Windows NT 10.0; Win64; x64; rv:86.0) Gecko/20100101 Firefox/86.0,,Firefox,86,Windows,10
159,1,null,"""",image-keyboard-response,71,173091,0.0-71.0,jspsych/disgustFaces/BM05DIS.JPG,"""",7,Cue,Practice,null,16,"""","""","""","""","""","""","""","""",2/28/2021 22:51,67.83.183.0,Mozilla/5.0 (Windows NT 10.0; Win64; x64; rv:86.0) Gecko/20100101 Firefox/86.0,,Firefox,86,Windows,10
159,1,null,"""",image-keyboard-response,72,173193,0.0-72.0,jspsych/neutralFaces/AM07NES.JPG,"""",7,backwardMask,Practice,null,100,"""","""","""","""","""","""","""","""",2/28/2021 22:51,67.83.183.0,Mozilla/5.0 (Windows NT 10.0; Win64; x64; rv:86.0) Gecko/20100101 Firefox/86.0,,Firefox,86,Windows,10
159,1,null,"""",html-keyboard-response,73,174193,0.0-73.0,"<div style=""font-size:60px;"">+</div>","""",7,fixationBtwnNeutralMaskAndPrompt,Practice,null,1000,"""","""","""","""","""","""","""","""",2/28/2021 22:51,67.83.183.0,Mozilla/5.0 (Windows NT 10.0; Win64; x64; rv:86.0) Gecko/20100101 Firefox/86.0,,Firefox,86,Windows,10
159,1,1141,"""",html-button-response,74,175336,0.0-74.0,"<img src='jspsych/CFDfaces/CFD-WM-215-041-N.jpg'height=""250px""></br><b>Marcus</b>",1,7,IntactOrRearranged,Practice,"""","""","""",CFD-LF-213-079-N.jpg,Rebecca,1,"""","""",1,"""",2/28/2021 22:51,67.83.183.0,Mozilla/5.0 (Windows NT 10.0; Win64; x64; rv:86.0) Gecko/20100101 Firefox/86.0,,Firefox,86,Windows,10
159,1,1116,"""",html-slider-response,75,176453,0.0-75.0,"<img src='jspsych/CFDfaces/CFD-WM-215-041-N.jpg'height=""250px""></br><b>Marcus</b>","""",7,ConfidenceQuery,Practice,"""","""","""",CFD-LF-213-079-N.jpg,Rebecca,1,0,0,"""","""",2/28/2021 22:51,67.83.183.0,Mozilla/5.0 (Windows NT 10.0; Win64; x64; rv:86.0) Gecko/20100101 Firefox/86.0,,Firefox,86,Windows,10
159,1,1670,"""",html-button-response,76,178125,0.0-76.0,You are Correct. You Called A Rearranged Pair Rearranged,0,7,feedback,Practice,"""","""","""","""","""","""","""","""","""","""",2/28/2021 22:51,67.83.183.0,Mozilla/5.0 (Windows NT 10.0; Win64; x64; rv:86.0) Gecko/20100101 Firefox/86.0,,Firefox,86,Windows,10
159,1,null,"""",html-keyboard-response,77,179127,0.0-77.0,"<div style=""font-size:60px;"">+</div>","""",8,ITI,Practice,null,1000,"""","""","""","""","""","""","""","""",2/28/2021 22:51,67.83.183.0,Mozilla/5.0 (Windows NT 10.0; Win64; x64; rv:86.0) Gecko/20100101 Firefox/86.0,,Firefox,86,Windows,10
159,1,null,"""",image-keyboard-response,78,179379,0.0-78.0,jspsych/scrambledNeutralFaces/scrambledBM26NES.JPG,"""",8,forwardMask,Practice,null,250,n,"""","""","""","""","""","""","""",2/28/2021 22:51,67.83.183.0,Mozilla/5.0 (Windows NT 10.0; Win64; x64; rv:86.0) Gecko/20100101 Firefox/86.0,,Firefox,86,Windows,10
159,1,null,"""",image-keyboard-response,79,179399,0.0-79.0,jspsych/neutralFaces/BM26NES.JPG,"""",8,Cue,Practice,null,16,"""","""","""","""","""","""","""","""",2/28/2021 22:51,67.83.183.0,Mozilla/5.0 (Windows NT 10.0; Win64; x64; rv:86.0) Gecko/20100101 Firefox/86.0,,Firefox,86,Windows,10
159,1,null,"""",image-keyboard-response,80,179500,0.0-80.0,jspsych/neutralFaces/AM07NES.JPG,"""",8,backwardMask,Practice,null,100,"""","""","""","""","""","""","""","""",2/28/2021 22:51,67.83.183.0,Mozilla/5.0 (Windows NT 10.0; Win64; x64; rv:86.0) Gecko/20100101 Firefox/86.0,,Firefox,86,Windows,10
159,1,null,"""",html-keyboard-response,81,180501,0.0-81.0,"<div style=""font-size:60px;"">+</div>","""",8,fixationBtwnNeutralMaskAndPrompt,Practice,null,1000,"""","""","""","""","""","""","""","""",2/28/2021 22:51,67.83.183.0,Mozilla/5.0 (Windows NT 10.0; Win64; x64; rv:86.0) Gecko/20100101 Firefox/86.0,,Firefox,86,Windows,10
159,1,1073,"""",html-button-response,82,181576,0.0-82.0,"<img src='jspsych/CFDfaces/CFD-WM-216-061-N.jpg'height=""250px""></br><b>Samuel</b>",0,8,IntactOrRearranged,Practice,"""","""","""",CFD-LM-248-089-N.jpg,Timothy,0,"""","""",0,"""",2/28/2021 22:51,67.83.183.0,Mozilla/5.0 (Windows NT 10.0; Win64; x64; rv:86.0) Gecko/20100101 Firefox/86.0,,Firefox,86,Windows,10
159,1,1221,"""",html-slider-response,83,182798,0.0-83.0,"<img src='jspsych/CFDfaces/CFD-WM-216-061-N.jpg'height=""250px""></br><b>Samuel</b>","""",8,ConfidenceQuery,Practice,"""","""","""",CFD-LM-248-089-N.jpg,Timothy,0,0,0,"""","""",2/28/2021 22:51,67.83.183.0,Mozilla/5.0 (Windows NT 10.0; Win64; x64; rv:86.0) Gecko/20100101 Firefox/86.0,,Firefox,86,Windows,10
159,1,3285,"""",html-button-response,84,186086,0.0-84.0,You are Correct. You called an Intact Pair Intact,0,8,feedback,Practice,"""","""","""","""","""","""","""","""","""","""",2/28/2021 22:51,67.83.183.0,Mozilla/5.0 (Windows NT 10.0; Win64; x64; rv:86.0) Gecko/20100101 Firefox/86.0,,Firefox,86,Windows,10
159,1,3318,"""",image-button-response,85,189411,0.0-85.0,directionsMemoryAssociation3.JPG,0,1,DirectionsBeforeActualTEst,Break,"""","""","""","""","""","""","""","""","""","""",2/28/2021 22:51,67.83.183.0,Mozilla/5.0 (Windows NT 10.0; Win64; x64; rv:86.0) Gecko/20100101 Firefox/86.0,,Firefox,86,Windows,10
159,1,788,"""",image-button-response,86,190205,0.0-86.0,directionsForTest2.JPG,0,1,directionsForTest2,break,"""","""","""","""","""","""","""","""","""","""",2/28/2021 22:51,67.83.183.0,Mozilla/5.0 (Windows NT 10.0; Win64; x64; rv:86.0) Gecko/20100101 Firefox/86.0,,Firefox,86,Windows,10
159,1,null,"""",html-keyboard-response,87,195208,0.0-87.0,"<img src='jspsych/CFDfaces/CFD-AF-226-251-N.jpg' height=""250px""></br><b>Vanessa</b>","""",1,IntactFace,Memorization,null,5000,"""",CFD-AF-226-251-N.jpg,Vanessa,0,"""","""","""","""",2/28/2021 22:51,67.83.183.0,Mozilla/5.0 (Windows NT 10.0; Win64; x64; rv:86.0) Gecko/20100101 Firefox/86.0,,Firefox,86,Windows,10
159,1,null,"""",html-keyboard-response,88,195710,0.0-88.0,"<div style=""font-size:60px;"">+</div>","""",1,fixation,Memorization,null,500,"""","""","""","""","""","""","""","""",2/28/2021 22:51,67.83.183.0,Mozilla/5.0 (Windows NT 10.0; Win64; x64; rv:86.0) Gecko/20100101 Firefox/86.0,,Firefox,86,Windows,10
159,1,null,"""",html-keyboard-response,89,200713,0.0-89.0,"<img src='jspsych/CFDfaces/CFD-LM-234-176-N.jpg' height=""250px""></br><b>Justin</b>","""",2,IntactFace,Memorization,null,5000,"""",CFD-LM-234-176-N.jpg,Justin,0,"""","""","""","""",2/28/2021 22:51,67.83.183.0,Mozilla/5.0 (Windows NT 10.0; Win64; x64; rv:86.0) Gecko/20100101 Firefox/86.0,,Firefox,86,Windows,10
159,1,null,"""",html-keyboard-response,90,201214,0.0-90.0,"<div style=""font-size:60px;"">+</div>","""",2,fixation,Memorization,null,500,"""","""","""","""","""","""","""","""",2/28/2021 22:51,67.83.183.0,Mozilla/5.0 (Windows NT 10.0; Win64; x64; rv:86.0) Gecko/20100101 Firefox/86.0,,Firefox,86,Windows,10
159,1,null,"""",html-keyboard-response,91,206217,0.0-91.0,"<img src='jspsych/CFDfaces/CFD-BM-211-174-N.jpg' height=""250px""></br><b>Shane</b>","""",3,IntactFace,Memorization,null,5000,"""",CFD-BM-211-174-N.jpg,Shane,0,"""","""","""","""",2/28/2021 22:51,67.83.183.0,Mozilla/5.0 (Windows NT 10.0; Win64; x64; rv:86.0) Gecko/20100101 Firefox/86.0,,Firefox,86,Windows,10
159,1,null,"""",html-keyboard-response,92,206718,0.0-92.0,"<div style=""font-size:60px;"">+</div>","""",3,fixation,Memorization,null,500,"""","""","""","""","""","""","""","""",2/28/2021 22:51,67.83.183.0,Mozilla/5.0 (Windows NT 10.0; Win64; x64; rv:86.0) Gecko/20100101 Firefox/86.0,,Firefox,86,Windows,10
159,1,null,"""",html-keyboard-response,93,211722,0.0-93.0,"<img src='jspsych/CFDfaces/CFD-LM-220-329-N.jpg' height=""250px""></br><b>David</b>","""",4,IntactFace,Memorization,null,5000,"""",CFD-LM-220-329-N.jpg,David,0,"""","""","""","""",2/28/2021 22:51,67.83.183.0,Mozilla/5.0 (Windows NT 10.0; Win64; x64; rv:86.0) Gecko/20100101 Firefox/86.0,,Firefox,86,Windows,10
159,1,null,"""",html-keyboard-response,94,212223,0.0-94.0,"<div style=""font-size:60px;"">+</div>","""",4,fixation,Memorization,null,500,"""","""","""","""","""","""","""","""",2/28/2021 22:51,67.83.183.0,Mozilla/5.0 (Windows NT 10.0; Win64; x64; rv:86.0) Gecko/20100101 Firefox/86.0,,Firefox,86,Windows,10
159,1,null,"""",html-keyboard-response,95,217226,0.0-95.0,"<img src='jspsych/CFDfaces/CFD-AF-240-206-N.jpg' height=""250px""></br><b>Andrea</b>","""",5,IntactFace,Memorization,null,5000,"""",CFD-AF-240-206-N.jpg,Andrea,0,"""","""","""","""",2/28/2021 22:51,67.83.183.0,Mozilla/5.0 (Windows NT 10.0; Win64; x64; rv:86.0) Gecko/20100101 Firefox/86.0,,Firefox,86,Windows,10
159,1,null,"""",html-keyboard-response,96,217728,0.0-96.0,"<div style=""font-size:60px;"">+</div>","""",5,fixation,Memorization,null,500,"""","""","""","""","""","""","""","""",2/28/2021 22:51,67.83.183.0,Mozilla/5.0 (Windows NT 10.0; Win64; x64; rv:86.0) Gecko/20100101 Firefox/86.0,,Firefox,86,Windows,10
159,1,null,"""",html-keyboard-response,97,222730,0.0-97.0,"<img src='jspsych/CFDfaces/CFD-AM-230-150-N.jpg' height=""250px""></br><b>Juan</b>","""",6,IntactFace,Memorization,null,5000,"""",CFD-AM-230-150-N.jpg,Juan,0,"""","""","""","""",2/28/2021 22:51,67.83.183.0,Mozilla/5.0 (Windows NT 10.0; Win64; x64; rv:86.0) Gecko/20100101 Firefox/86.0,,Firefox,86,Windows,10
159,1,null,"""",html-keyboard-response,98,223233,0.0-98.0,"<div style=""font-size:60px;"">+</div>","""",6,fixation,Memorization,null,500,"""","""","""","""","""","""","""","""",2/28/2021 22:51,67.83.183.0,Mozilla/5.0 (Windows NT 10.0; Win64; x64; rv:86.0) Gecko/20100101 Firefox/86.0,,Firefox,86,Windows,10
159,1,null,"""",html-keyboard-response,99,228235,0.0-99.0,"<img src='jspsych/CFDfaces/CFD-AM-207-108-N.jpg' height=""250px""></br><b>Christian</b>","""",7,IntactFace,Memorization,null,5000,"""",CFD-AM-207-108-N.jpg,Christian,0,"""","""","""","""",2/28/2021 22:51,67.83.183.0,Mozilla/5.0 (Windows NT 10.0; Win64; x64; rv:86.0) Gecko/20100101 Firefox/86.0,,Firefox,86,Windows,10
159,1,null,"""",html-keyboard-response,100,228738,0.0-100.0,"<div style=""font-size:60px;"">+</div>","""",7,fixation,Memorization,null,500,"""","""","""","""","""","""","""","""",2/28/2021 22:51,67.83.183.0,Mozilla/5.0 (Windows NT 10.0; Win64; x64; rv:86.0) Gecko/20100101 Firefox/86.0,,Firefox,86,Windows,10
159,1,null,"""",html-keyboard-response,101,233740,0.0-101.0,"<img src='jspsych/CFDfaces/CFD-BM-203-001-N.jpg' height=""250px""></br><b>Chad</b>","""",8,IntactFace,Memorization,null,5000,"""",CFD-BM-203-001-N.jpg,Chad,0,"""","""","""","""",2/28/2021 22:51,67.83.183.0,Mozilla/5.0 (Windows NT 10.0; Win64; x64; rv:86.0) Gecko/20100101 Firefox/86.0,,Firefox,86,Windows,10
159,1,null,"""",html-keyboard-response,102,234255,0.0-102.0,"<div style=""font-size:60px;"">+</div>","""",8,fixation,Memorization,null,500,"""","""","""","""","""","""","""","""",2/28/2021 22:51,67.83.183.0,Mozilla/5.0 (Windows NT 10.0; Win64; x64; rv:86.0) Gecko/20100101 Firefox/86.0,,Firefox,86,Windows,10
159,1,null,"""",html-keyboard-response,103,239260,0.0-103.0,"<img src='jspsych/CFDfaces/CFD-WF-003-003-N.jpg' height=""250px""></br><b>Jordan</b>","""",9,IntactFace,Memorization,null,5000,"""",CFD-WF-003-003-N.jpg,Jordan,0,"""","""","""","""",2/28/2021 22:51,67.83.183.0,Mozilla/5.0 (Windows NT 10.0; Win64; x64; rv:86.0) Gecko/20100101 Firefox/86.0,,Firefox,86,Windows,10
159,1,null,"""",html-keyboard-response,104,239762,0.0-104.0,"<div style=""font-size:60px;"">+</div>","""",9,fixation,Memorization,null,500,"""","""","""","""","""","""","""","""",2/28/2021 22:51,67.83.183.0,Mozilla/5.0 (Windows NT 10.0; Win64; x64; rv:86.0) Gecko/20100101 Firefox/86.0,,Firefox,86,Windows,10
159,1,null,"""",html-keyboard-response,105,244776,0.0-105.0,"<img src='jspsych/CFDfaces/CFD-BF-019-001-N.jpg' height=""250px""></br><b>Erika</b>","""",10,IntactFace,Memorization,null,5000,"""",CFD-BF-019-001-N.jpg,Erika,0,"""","""","""","""",2/28/2021 22:51,67.83.183.0,Mozilla/5.0 (Windows NT 10.0; Win64; x64; rv:86.0) Gecko/20100101 Firefox/86.0,,Firefox,86,Windows,10
159,1,null,"""",html-keyboard-response,106,245280,0.0-106.0,"<div style=""font-size:60px;"">+</div>","""",10,fixation,Memorization,null,500,"""","""","""","""","""","""","""","""",2/28/2021 22:51,67.83.183.0,Mozilla/5.0 (Windows NT 10.0; Win64; x64; rv:86.0) Gecko/20100101 Firefox/86.0,,Firefox,86,Windows,10
159,1,null,"""",html-keyboard-response,107,250288,0.0-107.0,"<img src='jspsych/CFDfaces/CFD-BF-008-001-N.jpg' height=""250px""></br><b>Amber</b>","""",11,IntactFace,Memorization,null,5000,"""",CFD-BF-008-001-N.jpg,Amber,0,"""","""","""","""",2/28/2021 22:51,67.83.183.0,Mozilla/5.0 (Windows NT 10.0; Win64; x64; rv:86.0) Gecko/20100101 Firefox/86.0,,Firefox,86,Windows,10
159,1,null,"""",html-keyboard-response,108,250789,0.0-108.0,"<div style=""font-size:60px;"">+</div>","""",11,fixation,Memorization,null,500,"""","""","""","""","""","""","""","""",2/28/2021 22:51,67.83.183.0,Mozilla/5.0 (Windows NT 10.0; Win64; x64; rv:86.0) Gecko/20100101 Firefox/86.0,,Firefox,86,Windows,10
159,1,null,"""",html-keyboard-response,109,255798,0.0-109.0,"<img src='jspsych/CFDfaces/CFD-AF-237-223-N.jpg' height=""250px""></br><b>Amanda</b>","""",12,IntactFace,Memorization,null,5000,"""",CFD-AF-237-223-N.jpg,Amanda,0,"""","""","""","""",2/28/2021 22:51,67.83.183.0,Mozilla/5.0 (Windows NT 10.0; Win64; x64; rv:86.0) Gecko/20100101 Firefox/86.0,,Firefox,86,Windows,10
159,1,null,"""",html-keyboard-response,110,256300,0.0-110.0,"<div style=""font-size:60px;"">+</div>","""",12,fixation,Memorization,null,500,"""","""","""","""","""","""","""","""",2/28/2021 22:51,67.83.183.0,Mozilla/5.0 (Windows NT 10.0; Win64; x64; rv:86.0) Gecko/20100101 Firefox/86.0,,Firefox,86,Windows,10
159,1,null,"""",html-keyboard-response,111,261309,0.0-111.0,"<img src='jspsych/CFDfaces/CFD-AF-235-170-N.jpg' height=""250px""></br><b>Julie</b>","""",13,IntactFace,Memorization,null,5000,"""",CFD-AF-235-170-N.jpg,Julie,0,"""","""","""","""",2/28/2021 22:51,67.83.183.0,Mozilla/5.0 (Windows NT 10.0; Win64; x64; rv:86.0) Gecko/20100101 Firefox/86.0,,Firefox,86,Windows,10
159,1,null,"""",html-keyboard-response,112,261811,0.0-112.0,"<div style=""font-size:60px;"">+</div>","""",13,fixation,Memorization,null,500,"""","""","""","""","""","""","""","""",2/28/2021 22:51,67.83.183.0,Mozilla/5.0 (Windows NT 10.0; Win64; x64; rv:86.0) Gecko/20100101 Firefox/86.0,,Firefox,86,Windows,10
159,1,null,"""",html-keyboard-response,113,266820,0.0-113.0,"<img src='jspsych/CFDfaces/CFD-LF-231-260-N.jpg' height=""250px""></br><b>Angela</b>","""",14,IntactFace,Memorization,null,5000,"""",CFD-LF-231-260-N.jpg,Angela,0,"""","""","""","""",2/28/2021 22:51,67.83.183.0,Mozilla/5.0 (Windows NT 10.0; Win64; x64; rv:86.0) Gecko/20100101 Firefox/86.0,,Firefox,86,Windows,10
159,1,null,"""",html-keyboard-response,114,267322,0.0-114.0,"<div style=""font-size:60px;"">+</div>","""",14,fixation,Memorization,null,500,"""","""","""","""","""","""","""","""",2/28/2021 22:51,67.83.183.0,Mozilla/5.0 (Windows NT 10.0; Win64; x64; rv:86.0) Gecko/20100101 Firefox/86.0,,Firefox,86,Windows,10
159,1,null,"""",html-keyboard-response,115,272331,0.0-115.0,"<img src='jspsych/CFDfaces/CFD-BF-005-001-N.jpg' height=""250px""></br><b>Sarah</b>","""",15,IntactFace,Memorization,null,5000,"""",CFD-BF-005-001-N.jpg,Sarah,0,"""","""","""","""",2/28/2021 22:51,67.83.183.0,Mozilla/5.0 (Windows NT 10.0; Win64; x64; rv:86.0) Gecko/20100101 Firefox/86.0,,Firefox,86,Windows,10
159,1,null,"""",html-keyboard-response,116,272833,0.0-116.0,"<div style=""font-size:60px;"">+</div>","""",15,fixation,Memorization,null,500,"""","""","""","""","""","""","""","""",2/28/2021 22:51,67.83.183.0,Mozilla/5.0 (Windows NT 10.0; Win64; x64; rv:86.0) Gecko/20100101 Firefox/86.0,,Firefox,86,Windows,10
159,1,null,"""",html-keyboard-response,117,277847,0.0-117.0,"<img src='jspsych/CFDfaces/CFD-BM-001-014-N.jpg' height=""250px""></br><b>Kyle</b>","""",16,IntactFace,Memorization,null,5000,"""",CFD-BM-001-014-N.jpg,Kyle,0,"""","""","""","""",2/28/2021 22:51,67.83.183.0,Mozilla/5.0 (Windows NT 10.0; Win64; x64; rv:86.0) Gecko/20100101 Firefox/86.0,,Firefox,86,Windows,10
159,1,null,"""",html-keyboard-response,118,278349,0.0-118.0,"<div style=""font-size:60px;"">+</div>","""",16,fixation,Memorization,null,500,"""","""","""","""","""","""","""","""",2/28/2021 22:51,67.83.183.0,Mozilla/5.0 (Windows NT 10.0; Win64; x64; rv:86.0) Gecko/20100101 Firefox/86.0,,Firefox,86,Windows,10
159,1,null,"""",html-keyboard-response,119,283359,0.0-119.0,"<img src='jspsych/CFDfaces/CFD-BM-032-024-N.jpg' height=""250px""></br><b>Jose</b>","""",17,IntactFace,Memorization,null,5000,"""",CFD-BM-032-024-N.jpg,Jose,0,"""","""","""","""",2/28/2021 22:51,67.83.183.0,Mozilla/5.0 (Windows NT 10.0; Win64; x64; rv:86.0) Gecko/20100101 Firefox/86.0,,Firefox,86,Windows,10
159,1,null,"""",html-keyboard-response,120,283862,0.0-120.0,"<div style=""font-size:60px;"">+</div>","""",17,fixation,Memorization,null,500,"""","""","""","""","""","""","""","""",2/28/2021 22:51,67.83.183.0,Mozilla/5.0 (Windows NT 10.0; Win64; x64; rv:86.0) Gecko/20100101 Firefox/86.0,,Firefox,86,Windows,10
159,1,null,"""",html-keyboard-response,121,288870,0.0-121.0,"<img src='jspsych/CFDfaces/CFD-LM-209-111-N.jpg' height=""250px""></br><b>Cory</b>","""",18,IntactFace,Memorization,null,5000,"""",CFD-LM-209-111-N.jpg,Cory,0,"""","""","""","""",2/28/2021 22:51,67.83.183.0,Mozilla/5.0 (Windows NT 10.0; Win64; x64; rv:86.0) Gecko/20100101 Firefox/86.0,,Firefox,86,Windows,10
159,1,null,"""",html-keyboard-response,122,289372,0.0-122.0,"<div style=""font-size:60px;"">+</div>","""",18,fixation,Memorization,null,500,"""","""","""","""","""","""","""","""",2/28/2021 22:51,67.83.183.0,Mozilla/5.0 (Windows NT 10.0; Win64; x64; rv:86.0) Gecko/20100101 Firefox/86.0,,Firefox,86,Windows,10
159,1,null,"""",html-keyboard-response,123,294377,0.0-123.0,"<img src='jspsych/CFDfaces/CFD-LM-200-045-N.jpg' height=""250px""></br><b>Thomas</b>","""",19,IntactFace,Memorization,null,5000,"""",CFD-LM-200-045-N.jpg,Thomas,0,"""","""","""","""",2/28/2021 22:51,67.83.183.0,Mozilla/5.0 (Windows NT 10.0; Win64; x64; rv:86.0) Gecko/20100101 Firefox/86.0,,Firefox,86,Windows,10
159,1,null,"""",html-keyboard-response,124,294883,0.0-124.0,"<div style=""font-size:60px;"">+</div>","""",19,fixation,Memorization,null,500,"""","""","""","""","""","""","""","""",2/28/2021 22:51,67.83.183.0,Mozilla/5.0 (Windows NT 10.0; Win64; x64; rv:86.0) Gecko/20100101 Firefox/86.0,,Firefox,86,Windows,10
159,1,null,"""",html-keyboard-response,125,299886,0.0-125.0,"<img src='jspsych/CFDfaces/CFD-AM-231-136-N.jpg' height=""250px""></br><b>Gregory</b>","""",20,IntactFace,Memorization,null,5000,"""",CFD-AM-231-136-N.jpg,Gregory,0,"""","""","""","""",2/28/2021 22:51,67.83.183.0,Mozilla/5.0 (Windows NT 10.0; Win64; x64; rv:86.0) Gecko/20100101 Firefox/86.0,,Firefox,86,Windows,10
159,1,null,"""",html-keyboard-response,126,300395,0.0-126.0,"<div style=""font-size:60px;"">+</div>","""",20,fixation,Memorization,null,500,"""","""","""","""","""","""","""","""",2/28/2021 22:51,67.83.183.0,Mozilla/5.0 (Windows NT 10.0; Win64; x64; rv:86.0) Gecko/20100101 Firefox/86.0,,Firefox,86,Windows,10
159,1,null,"""",html-keyboard-response,127,305398,0.0-127.0,"<img src='jspsych/CFDfaces/CFD-LF-205-100-N.jpg' height=""250px""></br><b>Holly</b>","""",21,IntactFace,Memorization,null,5000,"""",CFD-LF-205-100-N.jpg,Holly,0,"""","""","""","""",2/28/2021 22:51,67.83.183.0,Mozilla/5.0 (Windows NT 10.0; Win64; x64; rv:86.0) Gecko/20100101 Firefox/86.0,,Firefox,86,Windows,10
159,1,null,"""",html-keyboard-response,128,305903,0.0-128.0,"<div style=""font-size:60px;"">+</div>","""",21,fixation,Memorization,null,500,"""","""","""","""","""","""","""","""",2/28/2021 22:51,67.83.183.0,Mozilla/5.0 (Windows NT 10.0; Win64; x64; rv:86.0) Gecko/20100101 Firefox/86.0,,Firefox,86,Windows,10
159,1,null,"""",html-keyboard-response,129,310906,0.0-129.0,"<img src='jspsych/CFDfaces/CFD-AM-214-168-N.jpg' height=""250px""></br><b>Jeffrey</b>","""",22,IntactFace,Memorization,null,5000,"""",CFD-AM-214-168-N.jpg,Jeffrey,0,"""","""","""","""",2/28/2021 22:51,67.83.183.0,Mozilla/5.0 (Windows NT 10.0; Win64; x64; rv:86.0) Gecko/20100101 Firefox/86.0,,Firefox,86,Windows,10
159,1,null,"""",html-keyboard-response,130,311407,0.0-130.0,"<div style=""font-size:60px;"">+</div>","""",22,fixation,Memorization,null,500,"""","""","""","""","""","""","""","""",2/28/2021 22:51,67.83.183.0,Mozilla/5.0 (Windows NT 10.0; Win64; x64; rv:86.0) Gecko/20100101 Firefox/86.0,,Firefox,86,Windows,10
159,1,null,"""",html-keyboard-response,131,316410,0.0-131.0,"<img src='jspsych/CFDfaces/CFD-LF-202-065-N.jpg' height=""250px""></br><b>Brooke</b>","""",23,IntactFace,Memorization,null,5000,"""",CFD-LF-202-065-N.jpg,Brooke,0,"""","""","""","""",2/28/2021 22:51,67.83.183.0,Mozilla/5.0 (Windows NT 10.0; Win64; x64; rv:86.0) Gecko/20100101 Firefox/86.0,,Firefox,86,Windows,10
159,1,null,"""",html-keyboard-response,132,316915,0.0-132.0,"<div style=""font-size:60px;"">+</div>","""",23,fixation,Memorization,null,500,"""","""","""","""","""","""","""","""",2/28/2021 22:51,67.83.183.0,Mozilla/5.0 (Windows NT 10.0; Win64; x64; rv:86.0) Gecko/20100101 Firefox/86.0,,Firefox,86,Windows,10
159,1,null,"""",html-keyboard-response,133,321920,0.0-133.0,"<img src='jspsych/CFDfaces/CFD-AF-201-060-N.jpg' height=""250px""></br><b>Michelle</b>","""",24,IntactFace,Memorization,null,5000,"""",CFD-AF-201-060-N.jpg,Michelle,0,"""","""","""","""",2/28/2021 22:51,67.83.183.0,Mozilla/5.0 (Windows NT 10.0; Win64; x64; rv:86.0) Gecko/20100101 Firefox/86.0,,Firefox,86,Windows,10
159,1,null,"""",html-keyboard-response,134,322425,0.0-134.0,"<div style=""font-size:60px;"">+</div>","""",24,fixation,Memorization,null,500,"""","""","""","""","""","""","""","""",2/28/2021 22:51,67.83.183.0,Mozilla/5.0 (Windows NT 10.0; Win64; x64; rv:86.0) Gecko/20100101 Firefox/86.0,,Firefox,86,Windows,10
159,1,null,"""",html-keyboard-response,135,327428,0.0-135.0,"<img src='jspsych/CFDfaces/CFD-LM-213-061-N.jpg' height=""250px""></br><b>Michael</b>","""",25,IntactFace,Memorization,null,5000,"""",CFD-LM-213-061-N.jpg,Michael,0,"""","""","""","""",2/28/2021 22:51,67.83.183.0,Mozilla/5.0 (Windows NT 10.0; Win64; x64; rv:86.0) Gecko/20100101 Firefox/86.0,,Firefox,86,Windows,10
159,1,null,"""",html-keyboard-response,136,327934,0.0-136.0,"<div style=""font-size:60px;"">+</div>","""",25,fixation,Memorization,null,500,"""","""","""","""","""","""","""","""",2/28/2021 22:51,67.83.183.0,Mozilla/5.0 (Windows NT 10.0; Win64; x64; rv:86.0) Gecko/20100101 Firefox/86.0,,Firefox,86,Windows,10
159,1,null,"""",html-keyboard-response,137,332936,0.0-137.0,"<img src='jspsych/CFDfaces/CFD-LF-232-199-N.jpg' height=""250px""></br><b>Tiffany</b>","""",26,IntactFace,Memorization,null,5000,"""",CFD-LF-232-199-N.jpg,Tiffany,0,"""","""","""","""",2/28/2021 22:51,67.83.183.0,Mozilla/5.0 (Windows NT 10.0; Win64; x64; rv:86.0) Gecko/20100101 Firefox/86.0,,Firefox,86,Windows,10
159,1,null,"""",html-keyboard-response,138,333443,0.0-138.0,"<div style=""font-size:60px;"">+</div>","""",26,fixation,Memorization,null,500,"""","""","""","""","""","""","""","""",2/28/2021 22:51,67.83.183.0,Mozilla/5.0 (Windows NT 10.0; Win64; x64; rv:86.0) Gecko/20100101 Firefox/86.0,,Firefox,86,Windows,10
159,1,null,"""",html-keyboard-response,139,338444,0.0-139.0,"<img src='jspsych/CFDfaces/CFD-AM-213-056-N.jpg' height=""250px""></br><b>Peter</b>","""",27,IntactFace,Memorization,null,5000,"""",CFD-AM-213-056-N.jpg,Peter,0,"""","""","""","""",2/28/2021 22:51,67.83.183.0,Mozilla/5.0 (Windows NT 10.0; Win64; x64; rv:86.0) Gecko/20100101 Firefox/86.0,,Firefox,86,Windows,10
159,1,null,"""",html-keyboard-response,140,338949,0.0-140.0,"<div style=""font-size:60px;"">+</div>","""",27,fixation,Memorization,null,500,"""","""","""","""","""","""","""","""",2/28/2021 22:51,67.83.183.0,Mozilla/5.0 (Windows NT 10.0; Win64; x64; rv:86.0) Gecko/20100101 Firefox/86.0,,Firefox,86,Windows,10
159,1,null,"""",html-keyboard-response,141,343954,0.0-141.0,"<img src='jspsych/CFDfaces/CFD-AF-208-003-N.jpg' height=""250px""></br><b>Kayla</b>","""",28,IntactFace,Memorization,null,5000,"""",CFD-AF-208-003-N.jpg,Kayla,0,"""","""","""","""",2/28/2021 22:51,67.83.183.0,Mozilla/5.0 (Windows NT 10.0; Win64; x64; rv:86.0) Gecko/20100101 Firefox/86.0,,Firefox,86,Windows,10
159,1,null,"""",html-keyboard-response,142,344459,0.0-142.0,"<div style=""font-size:60px;"">+</div>","""",28,fixation,Memorization,null,500,"""","""","""","""","""","""","""","""",2/28/2021 22:51,67.83.183.0,Mozilla/5.0 (Windows NT 10.0; Win64; x64; rv:86.0) Gecko/20100101 Firefox/86.0,,Firefox,86,Windows,10
159,1,null,"""",html-keyboard-response,143,349464,0.0-143.0,"<img src='jspsych/CFDfaces/CFD-BF-023-010-N.jpg' height=""250px""></br><b>Jessica</b>","""",29,IntactFace,Memorization,null,5000,"""",CFD-BF-023-010-N.jpg,Jessica,0,"""","""","""","""",2/28/2021 22:51,67.83.183.0,Mozilla/5.0 (Windows NT 10.0; Win64; x64; rv:86.0) Gecko/20100101 Firefox/86.0,,Firefox,86,Windows,10
159,1,null,"""",html-keyboard-response,144,349968,0.0-144.0,"<div style=""font-size:60px;"">+</div>","""",29,fixation,Memorization,null,500,"""","""","""","""","""","""","""","""",2/28/2021 22:51,67.83.183.0,Mozilla/5.0 (Windows NT 10.0; Win64; x64; rv:86.0) Gecko/20100101 Firefox/86.0,,Firefox,86,Windows,10
159,1,null,"""",html-keyboard-response,145,354971,0.0-145.0,"<img src='jspsych/CFDfaces/CFD-BF-039-031-N.jpg' height=""250px""></br><b>April</b>","""",30,IntactFace,Memorization,null,5000,"""",CFD-BF-039-031-N.jpg,April,0,"""","""","""","""",2/28/2021 22:51,67.83.183.0,Mozilla/5.0 (Windows NT 10.0; Win64; x64; rv:86.0) Gecko/20100101 Firefox/86.0,,Firefox,86,Windows,10
159,1,null,"""",html-keyboard-response,146,355476,0.0-146.0,"<div style=""font-size:60px;"">+</div>","""",30,fixation,Memorization,null,500,"""","""","""","""","""","""","""","""",2/28/2021 22:51,67.83.183.0,Mozilla/5.0 (Windows NT 10.0; Win64; x64; rv:86.0) Gecko/20100101 Firefox/86.0,,Firefox,86,Windows,10
159,1,null,"""",html-keyboard-response,147,360479,0.0-147.0,"<img src='jspsych/CFDfaces/CFD-AF-239-171-N.jpg' height=""250px""></br><b>Brittany</b>","""",31,IntactFace,Memorization,null,5000,"""",CFD-AF-239-171-N.jpg,Brittany,0,"""","""","""","""",2/28/2021 22:51,67.83.183.0,Mozilla/5.0 (Windows NT 10.0; Win64; x64; rv:86.0) Gecko/20100101 Firefox/86.0,,Firefox,86,Windows,10
159,1,null,"""",html-keyboard-response,148,360987,0.0-148.0,"<div style=""font-size:60px;"">+</div>","""",31,fixation,Memorization,null,500,"""","""","""","""","""","""","""","""",2/28/2021 22:51,67.83.183.0,Mozilla/5.0 (Windows NT 10.0; Win64; x64; rv:86.0) Gecko/20100101 Firefox/86.0,,Firefox,86,Windows,10
159,1,null,"""",html-keyboard-response,149,365994,0.0-149.0,"<img src='jspsych/CFDfaces/CFD-BM-039-029-N.jpg' height=""250px""></br><b>George</b>","""",32,IntactFace,Memorization,null,5000,"""",CFD-BM-039-029-N.jpg,George,0,"""","""","""","""",2/28/2021 22:51,67.83.183.0,Mozilla/5.0 (Windows NT 10.0; Win64; x64; rv:86.0) Gecko/20100101 Firefox/86.0,,Firefox,86,Windows,10
159,1,null,"""",html-keyboard-response,150,366504,0.0-150.0,"<div style=""font-size:60px;"">+</div>","""",32,fixation,Memorization,null,500,"""","""","""","""","""","""","""","""",2/28/2021 22:51,67.83.183.0,Mozilla/5.0 (Windows NT 10.0; Win64; x64; rv:86.0) Gecko/20100101 Firefox/86.0,,Firefox,86,Windows,10
159,1,null,"""",html-keyboard-response,151,371531,0.0-151.0,"<img src='jspsych/CFDfaces/CFD-BM-207-024-N.jpg' height=""250px""></br><b>John</b>","""",33,IntactFace,Memorization,null,5000,"""",CFD-BM-207-024-N.jpg,John,0,"""","""","""","""",2/28/2021 22:51,67.83.183.0,Mozilla/5.0 (Windows NT 10.0; Win64; x64; rv:86.0) Gecko/20100101 Firefox/86.0,,Firefox,86,Windows,10
159,1,null,"""",html-keyboard-response,152,372039,0.0-152.0,"<div style=""font-size:60px;"">+</div>","""",33,fixation,Memorization,null,500,"""","""","""","""","""","""","""","""",2/28/2021 22:51,67.83.183.0,Mozilla/5.0 (Windows NT 10.0; Win64; x64; rv:86.0) Gecko/20100101 Firefox/86.0,,Firefox,86,Windows,10
159,1,null,"""",html-keyboard-response,153,377043,0.0-153.0,"<img src='jspsych/CFDfaces/CFD-BM-026-002-N.jpg' height=""250px""></br><b>Taylor</b>","""",34,IntactFace,Memorization,null,5000,"""",CFD-BM-026-002-N.jpg,Taylor,0,"""","""","""","""",2/28/2021 22:51,67.83.183.0,Mozilla/5.0 (Windows NT 10.0; Win64; x64; rv:86.0) Gecko/20100101 Firefox/86.0,,Firefox,86,Windows,10
159,1,null,"""",html-keyboard-response,154,377547,0.0-154.0,"<div style=""font-size:60px;"">+</div>","""",34,fixation,Memorization,null,500,"""","""","""","""","""","""","""","""",2/28/2021 22:51,67.83.183.0,Mozilla/5.0 (Windows NT 10.0; Win64; x64; rv:86.0) Gecko/20100101 Firefox/86.0,,Firefox,86,Windows,10
159,1,null,"""",html-keyboard-response,155,382561,0.0-155.0,"<img src='jspsych/CFDfaces/CFD-AM-246-184-N.jpg' height=""250px""></br><b>Alex</b>","""",35,IntactFace,Memorization,null,5000,"""",CFD-AM-246-184-N.jpg,Alex,0,"""","""","""","""",2/28/2021 22:51,67.83.183.0,Mozilla/5.0 (Windows NT 10.0; Win64; x64; rv:86.0) Gecko/20100101 Firefox/86.0,,Firefox,86,Windows,10
159,1,null,"""",html-keyboard-response,156,383070,0.0-156.0,"<div style=""font-size:60px;"">+</div>","""",35,fixation,Memorization,null,500,"""","""","""","""","""","""","""","""",2/28/2021 22:51,67.83.183.0,Mozilla/5.0 (Windows NT 10.0; Win64; x64; rv:86.0) Gecko/20100101 Firefox/86.0,,Firefox,86,Windows,10
159,1,null,"""",html-keyboard-response,157,388074,0.0-157.0,"<img src='jspsych/CFDfaces/CFD-LM-233-171-N.jpg' height=""250px""></br><b>Kevin</b>","""",36,IntactFace,Memorization,null,5000,"""",CFD-LM-233-171-N.jpg,Kevin,0,"""","""","""","""",2/28/2021 22:51,67.83.183.0,Mozilla/5.0 (Windows NT 10.0; Win64; x64; rv:86.0) Gecko/20100101 Firefox/86.0,,Firefox,86,Windows,10
159,1,null,"""",html-keyboard-response,158,388580,0.0-158.0,"<div style=""font-size:60px;"">+</div>","""",36,fixation,Memorization,null,500,"""","""","""","""","""","""","""","""",2/28/2021 22:51,67.83.183.0,Mozilla/5.0 (Windows NT 10.0; Win64; x64; rv:86.0) Gecko/20100101 Firefox/86.0,,Firefox,86,Windows,10
159,1,null,"""",html-keyboard-response,159,393582,0.0-159.0,"<img src='jspsych/CFDfaces/CFD-BF-226-119-N.jpg' height=""250px""></br><b>Mary</b>","""",37,IntactFace,Memorization,null,5000,"""",CFD-BF-226-119-N.jpg,Mary,0,"""","""","""","""",2/28/2021 22:51,67.83.183.0,Mozilla/5.0 (Windows NT 10.0; Win64; x64; rv:86.0) Gecko/20100101 Firefox/86.0,,Firefox,86,Windows,10
159,1,null,"""",html-keyboard-response,160,394087,0.0-160.0,"<div style=""font-size:60px;"">+</div>","""",37,fixation,Memorization,null,500,"""","""","""","""","""","""","""","""",2/28/2021 22:51,67.83.183.0,Mozilla/5.0 (Windows NT 10.0; Win64; x64; rv:86.0) Gecko/20100101 Firefox/86.0,,Firefox,86,Windows,10
159,1,null,"""",html-keyboard-response,161,399089,0.0-161.0,"<img src='jspsych/CFDfaces/CFD-LM-252-076-N.jpg' height=""250px""></br><b>Sean</b>","""",38,IntactFace,Memorization,null,5000,"""",CFD-LM-252-076-N.jpg,Sean,0,"""","""","""","""",2/28/2021 22:51,67.83.183.0,Mozilla/5.0 (Windows NT 10.0; Win64; x64; rv:86.0) Gecko/20100101 Firefox/86.0,,Firefox,86,Windows,10
159,1,null,"""",html-keyboard-response,162,399596,0.0-162.0,"<div style=""font-size:60px;"">+</div>","""",38,fixation,Memorization,null,500,"""","""","""","""","""","""","""","""",2/28/2021 22:51,67.83.183.0,Mozilla/5.0 (Windows NT 10.0; Win64; x64; rv:86.0) Gecko/20100101 Firefox/86.0,,Firefox,86,Windows,10
159,1,null,"""",html-keyboard-response,163,404598,0.0-163.0,"<img src='jspsych/CFDfaces/CFD-AF-209-006-N.jpg' height=""250px""></br><b>Kimberly</b>","""",39,IntactFace,Memorization,null,5000,"""",CFD-AF-209-006-N.jpg,Kimberly,0,"""","""","""","""",2/28/2021 22:51,67.83.183.0,Mozilla/5.0 (Windows NT 10.0; Win64; x64; rv:86.0) Gecko/20100101 Firefox/86.0,,Firefox,86,Windows,10
159,1,null,"""",html-keyboard-response,164,405105,0.0-164.0,"<div style=""font-size:60px;"">+</div>","""",39,fixation,Memorization,null,500,"""","""","""","""","""","""","""","""",2/28/2021 22:51,67.83.183.0,Mozilla/5.0 (Windows NT 10.0; Win64; x64; rv:86.0) Gecko/20100101 Firefox/86.0,,Firefox,86,Windows,10
159,1,null,"""",html-keyboard-response,165,410108,0.0-165.0,"<img src='jspsych/CFDfaces/CFD-BM-018-001-N.jpg' height=""250px""></br><b>Joseph</b>","""",40,IntactFace,Memorization,null,5000,"""",CFD-BM-018-001-N.jpg,Joseph,0,"""","""","""","""",2/28/2021 22:51,67.83.183.0,Mozilla/5.0 (Windows NT 10.0; Win64; x64; rv:86.0) Gecko/20100101 Firefox/86.0,,Firefox,86,Windows,10
159,1,null,"""",html-keyboard-response,166,410613,0.0-166.0,"<div style=""font-size:60px;"">+</div>","""",40,fixation,Memorization,null,500,"""","""","""","""","""","""","""","""",2/28/2021 22:51,67.83.183.0,Mozilla/5.0 (Windows NT 10.0; Win64; x64; rv:86.0) Gecko/20100101 Firefox/86.0,,Firefox,86,Windows,10
159,1,null,"""",html-keyboard-response,167,415616,0.0-167.0,"<img src='jspsych/CFDfaces/CFD-LM-217-162-N.jpg' height=""250px""></br><b>Aaron</b>","""",41,IntactFace,Memorization,null,5000,"""",CFD-LM-217-162-N.jpg,Aaron,0,"""","""","""","""",2/28/2021 22:51,67.83.183.0,Mozilla/5.0 (Windows NT 10.0; Win64; x64; rv:86.0) Gecko/20100101 Firefox/86.0,,Firefox,86,Windows,10
159,1,null,"""",html-keyboard-response,168,416117,0.0-168.0,"<div style=""font-size:60px;"">+</div>","""",41,fixation,Memorization,null,500,"""","""","""","""","""","""","""","""",2/28/2021 22:51,67.83.183.0,Mozilla/5.0 (Windows NT 10.0; Win64; x64; rv:86.0) Gecko/20100101 Firefox/86.0,,Firefox,86,Windows,10
159,1,null,"""",html-keyboard-response,169,421126,0.0-169.0,"<img src='jspsych/CFDfaces/CFD-BM-010-003-N.jpg' height=""250px""></br><b>Derek</b>","""",42,IntactFace,Memorization,null,5000,"""",CFD-BM-010-003-N.jpg,Derek,0,"""","""","""","""",2/28/2021 22:51,67.83.183.0,Mozilla/5.0 (Windows NT 10.0; Win64; x64; rv:86.0) Gecko/20100101 Firefox/86.0,,Firefox,86,Windows,10
159,1,null,"""",html-keyboard-response,170,421629,0.0-170.0,"<div style=""font-size:60px;"">+</div>","""",42,fixation,Memorization,null,500,"""","""","""","""","""","""","""","""",2/28/2021 22:51,67.83.183.0,Mozilla/5.0 (Windows NT 10.0; Win64; x64; rv:86.0) Gecko/20100101 Firefox/86.0,,Firefox,86,Windows,10
159,1,null,"""",html-keyboard-response,171,426637,0.0-171.0,"<img src='jspsych/CFDfaces/CFD-AF-215-70-N.jpg' height=""250px""></br><b>Elizabeth</b>","""",43,IntactFace,Memorization,null,5000,"""",CFD-AF-215-70-N.jpg,Elizabeth,0,"""","""","""","""",2/28/2021 22:51,67.83.183.0,Mozilla/5.0 (Windows NT 10.0; Win64; x64; rv:86.0) Gecko/20100101 Firefox/86.0,,Firefox,86,Windows,10
159,1,null,"""",html-keyboard-response,172,427139,0.0-172.0,"<div style=""font-size:60px;"">+</div>","""",43,fixation,Memorization,null,500,"""","""","""","""","""","""","""","""",2/28/2021 22:51,67.83.183.0,Mozilla/5.0 (Windows NT 10.0; Win64; x64; rv:86.0) Gecko/20100101 Firefox/86.0,,Firefox,86,Windows,10
159,1,null,"""",html-keyboard-response,173,432145,0.0-173.0,"<img src='jspsych/CFDfaces/CFD-LM-225-130-N.jpg' height=""250px""></br><b>Tyler</b>","""",44,IntactFace,Memorization,null,5000,"""",CFD-LM-225-130-N.jpg,Tyler,0,"""","""","""","""",2/28/2021 22:51,67.83.183.0,Mozilla/5.0 (Windows NT 10.0; Win64; x64; rv:86.0) Gecko/20100101 Firefox/86.0,,Firefox,86,Windows,10
159,1,null,"""",html-keyboard-response,174,432648,0.0-174.0,"<div style=""font-size:60px;"">+</div>","""",44,fixation,Memorization,null,500,"""","""","""","""","""","""","""","""",2/28/2021 22:51,67.83.183.0,Mozilla/5.0 (Windows NT 10.0; Win64; x64; rv:86.0) Gecko/20100101 Firefox/86.0,,Firefox,86,Windows,10
159,1,null,"""",html-keyboard-response,175,437654,0.0-175.0,"<img src='jspsych/CFDfaces/CFD-LF-200-058-N.jpg' height=""250px""></br><b>Jacqueline</b>","""",45,IntactFace,Memorization,null,5000,"""",CFD-LF-200-058-N.jpg,Jacqueline,0,"""","""","""","""",2/28/2021 22:51,67.83.183.0,Mozilla/5.0 (Windows NT 10.0; Win64; x64; rv:86.0) Gecko/20100101 Firefox/86.0,,Firefox,86,Windows,10
159,1,null,"""",html-keyboard-response,176,438156,0.0-176.0,"<div style=""font-size:60px;"">+</div>","""",45,fixation,Memorization,null,500,"""","""","""","""","""","""","""","""",2/28/2021 22:51,67.83.183.0,Mozilla/5.0 (Windows NT 10.0; Win64; x64; rv:86.0) Gecko/20100101 Firefox/86.0,,Firefox,86,Windows,10
159,1,null,"""",html-keyboard-response,177,443166,0.0-177.0,"<img src='jspsych/CFDfaces/CFD-LF-206-078-N.jpg' height=""250px""></br><b>Brianna</b>","""",46,IntactFace,Memorization,null,5000,"""",CFD-LF-206-078-N.jpg,Brianna,0,"""","""","""","""",2/28/2021 22:51,67.83.183.0,Mozilla/5.0 (Windows NT 10.0; Win64; x64; rv:86.0) Gecko/20100101 Firefox/86.0,,Firefox,86,Windows,10
159,1,null,"""",html-keyboard-response,178,443667,0.0-178.0,"<div style=""font-size:60px;"">+</div>","""",46,fixation,Memorization,null,500,"""","""","""","""","""","""","""","""",2/28/2021 22:51,67.83.183.0,Mozilla/5.0 (Windows NT 10.0; Win64; x64; rv:86.0) Gecko/20100101 Firefox/86.0,,Firefox,86,Windows,10
159,1,null,"""",html-keyboard-response,179,448678,0.0-179.0,"<img src='jspsych/CFDfaces/CFD-LM-223-175-N.jpg' height=""250px""></br><b>Shawn</b>","""",47,IntactFace,Memorization,null,5000,"""",CFD-LM-223-175-N.jpg,Shawn,0,"""","""","""","""",2/28/2021 22:51,67.83.183.0,Mozilla/5.0 (Windows NT 10.0; Win64; x64; rv:86.0) Gecko/20100101 Firefox/86.0,,Firefox,86,Windows,10
159,1,null,"""",html-keyboard-response,180,449179,0.0-180.0,"<div style=""font-size:60px;"">+</div>","""",47,fixation,Memorization,null,500,"""","""","""","""","""","""","""","""",2/28/2021 22:51,67.83.183.0,Mozilla/5.0 (Windows NT 10.0; Win64; x64; rv:86.0) Gecko/20100101 Firefox/86.0,,Firefox,86,Windows,10
159,1,null,"""",html-keyboard-response,181,454189,0.0-181.0,"<img src='jspsych/CFDfaces/CFD-BF-001-025-N.jpg' height=""250px""></br><b>Courtney</b>","""",48,IntactFace,Memorization,null,5000,"""",CFD-BF-001-025-N.jpg,Courtney,0,"""","""","""","""",2/28/2021 22:51,67.83.183.0,Mozilla/5.0 (Windows NT 10.0; Win64; x64; rv:86.0) Gecko/20100101 Firefox/86.0,,Firefox,86,Windows,10
159,1,null,"""",html-keyboard-response,182,454690,0.0-182.0,"<div style=""font-size:60px;"">+</div>","""",48,fixation,Memorization,null,500,"""","""","""","""","""","""","""","""",2/28/2021 22:51,67.83.183.0,Mozilla/5.0 (Windows NT 10.0; Win64; x64; rv:86.0) Gecko/20100101 Firefox/86.0,,Firefox,86,Windows,10
159,1,null,"""",html-keyboard-response,183,459703,0.0-183.0,"<img src='jspsych/CFDfaces/CFD-WF-016-015-N.jpg' height=""250px""></br><b>Lauren</b>","""",49,IntactFace,Memorization,null,5000,"""",CFD-WF-016-015-N.jpg,Lauren,0,"""","""","""","""",2/28/2021 22:51,67.83.183.0,Mozilla/5.0 (Windows NT 10.0; Win64; x64; rv:86.0) Gecko/20100101 Firefox/86.0,,Firefox,86,Windows,10
159,1,null,"""",html-keyboard-response,184,460207,0.0-184.0,"<div style=""font-size:60px;"">+</div>","""",49,fixation,Memorization,null,500,"""","""","""","""","""","""","""","""",2/28/2021 22:51,67.83.183.0,Mozilla/5.0 (Windows NT 10.0; Win64; x64; rv:86.0) Gecko/20100101 Firefox/86.0,,Firefox,86,Windows,10
159,1,null,"""",html-keyboard-response,185,465213,0.0-185.0,"<img src='jspsych/CFDfaces/CFD-WF-006-002-N.jpg' height=""250px""></br><b>Taylor</b>","""",50,IntactFace,Memorization,null,5000,"""",CFD-WF-006-002-N.jpg,Taylor,0,"""","""","""","""",2/28/2021 22:51,67.83.183.0,Mozilla/5.0 (Windows NT 10.0; Win64; x64; rv:86.0) Gecko/20100101 Firefox/86.0,,Firefox,86,Windows,10
159,1,null,"""",html-keyboard-response,186,465738,0.0-186.0,"<div style=""font-size:60px;"">+</div>","""",50,fixation,Memorization,null,500,"""","""","""","""","""","""","""","""",2/28/2021 22:51,67.83.183.0,Mozilla/5.0 (Windows NT 10.0; Win64; x64; rv:86.0) Gecko/20100101 Firefox/86.0,,Firefox,86,Windows,10
159,1,null,"""",html-keyboard-response,187,470740,0.0-187.0,"<img src='jspsych/CFDfaces/CFD-WM-019-003-N.jpg' height=""250px""></br><b>Kenneth</b>","""",51,IntactFace,Memorization,null,5000,"""",CFD-WM-019-003-N.jpg,Kenneth,0,"""","""","""","""",2/28/2021 22:51,67.83.183.0,Mozilla/5.0 (Windows NT 10.0; Win64; x64; rv:86.0) Gecko/20100101 Firefox/86.0,,Firefox,86,Windows,10
159,1,null,"""",html-keyboard-response,188,471252,0.0-188.0,"<div style=""font-size:60px;"">+</div>","""",51,fixation,Memorization,null,500,"""","""","""","""","""","""","""","""",2/28/2021 22:51,67.83.183.0,Mozilla/5.0 (Windows NT 10.0; Win64; x64; rv:86.0) Gecko/20100101 Firefox/86.0,,Firefox,86,Windows,10
159,1,null,"""",html-keyboard-response,189,476254,0.0-189.0,"<img src='jspsych/CFDfaces/CFD-BF-004-014-N.jpg' height=""250px""></br><b>Alexandra</b>","""",52,IntactFace,Memorization,null,5000,"""",CFD-BF-004-014-N.jpg,Alexandra,0,"""","""","""","""",2/28/2021 22:51,67.83.183.0,Mozilla/5.0 (Windows NT 10.0; Win64; x64; rv:86.0) Gecko/20100101 Firefox/86.0,,Firefox,86,Windows,10
159,1,null,"""",html-keyboard-response,190,476756,0.0-190.0,"<div style=""font-size:60px;"">+</div>","""",52,fixation,Memorization,null,500,"""","""","""","""","""","""","""","""",2/28/2021 22:51,67.83.183.0,Mozilla/5.0 (Windows NT 10.0; Win64; x64; rv:86.0) Gecko/20100101 Firefox/86.0,,Firefox,86,Windows,10
159,1,null,"""",html-keyboard-response,191,481761,0.0-191.0,"<img src='jspsych/CFDfaces/CFD-BF-009-002-N.jpg' height=""250px""></br><b>Jennifer</b>","""",53,IntactFace,Memorization,null,5000,"""",CFD-BF-009-002-N.jpg,Jennifer,0,"""","""","""","""",2/28/2021 22:51,67.83.183.0,Mozilla/5.0 (Windows NT 10.0; Win64; x64; rv:86.0) Gecko/20100101 Firefox/86.0,,Firefox,86,Windows,10
159,1,null,"""",html-keyboard-response,192,482270,0.0-192.0,"<div style=""font-size:60px;"">+</div>","""",53,fixation,Memorization,null,500,"""","""","""","""","""","""","""","""",2/28/2021 22:51,67.83.183.0,Mozilla/5.0 (Windows NT 10.0; Win64; x64; rv:86.0) Gecko/20100101 Firefox/86.0,,Firefox,86,Windows,10
159,1,null,"""",html-keyboard-response,193,487272,0.0-193.0,"<img src='jspsych/CFDfaces/CFD-BF-209-172-N.jpg' height=""250px""></br><b>Monica</b>","""",54,IntactFace,Memorization,null,5000,"""",CFD-BF-209-172-N.jpg,Monica,0,"""","""","""","""",2/28/2021 22:51,67.83.183.0,Mozilla/5.0 (Windows NT 10.0; Win64; x64; rv:86.0) Gecko/20100101 Firefox/86.0,,Firefox,86,Windows,10
159,1,null,"""",html-keyboard-response,194,487778,0.0-194.0,"<div style=""font-size:60px;"">+</div>","""",54,fixation,Memorization,null,500,"""","""","""","""","""","""","""","""",2/28/2021 22:51,67.83.183.0,Mozilla/5.0 (Windows NT 10.0; Win64; x64; rv:86.0) Gecko/20100101 Firefox/86.0,,Firefox,86,Windows,10
159,1,null,"""",html-keyboard-response,195,492781,0.0-195.0,"<img src='jspsych/CFDfaces/CFD-AF-230-193-N.jpg' height=""250px""></br><b>Samantha</b>","""",55,IntactFace,Memorization,null,5000,"""",CFD-AF-230-193-N.jpg,Samantha,0,"""","""","""","""",2/28/2021 22:51,67.83.183.0,Mozilla/5.0 (Windows NT 10.0; Win64; x64; rv:86.0) Gecko/20100101 Firefox/86.0,,Firefox,86,Windows,10
159,1,null,"""",html-keyboard-response,196,493290,0.0-196.0,"<div style=""font-size:60px;"">+</div>","""",55,fixation,Memorization,null,500,"""","""","""","""","""","""","""","""",2/28/2021 22:51,67.83.183.0,Mozilla/5.0 (Windows NT 10.0; Win64; x64; rv:86.0) Gecko/20100101 Firefox/86.0,,Firefox,86,Windows,10
159,1,null,"""",html-keyboard-response,197,498296,0.0-197.0,"<img src='jspsych/CFDfaces/CFD-AF-220-107-N.jpg' height=""250px""></br><b>Stephanie</b>","""",56,IntactFace,Memorization,null,5000,"""",CFD-AF-220-107-N.jpg,Stephanie,0,"""","""","""","""",2/28/2021 22:51,67.83.183.0,Mozilla/5.0 (Windows NT 10.0; Win64; x64; rv:86.0) Gecko/20100101 Firefox/86.0,,Firefox,86,Windows,10
159,1,null,"""",html-keyboard-response,198,498802,0.0-198.0,"<div style=""font-size:60px;"">+</div>","""",56,fixation,Memorization,null,500,"""","""","""","""","""","""","""","""",2/28/2021 22:51,67.83.183.0,Mozilla/5.0 (Windows NT 10.0; Win64; x64; rv:86.0) Gecko/20100101 Firefox/86.0,,Firefox,86,Windows,10
159,1,null,"""",html-keyboard-response,199,503806,0.0-199.0,"<img src='jspsych/CFDfaces/CFD-AM-237-154-N.jpg' height=""250px""></br><b>Eric</b>","""",57,IntactFace,Memorization,null,5000,"""",CFD-AM-237-154-N.jpg,Eric,0,"""","""","""","""",2/28/2021 22:51,67.83.183.0,Mozilla/5.0 (Windows NT 10.0; Win64; x64; rv:86.0) Gecko/20100101 Firefox/86.0,,Firefox,86,Windows,10
159,1,null,"""",html-keyboard-response,200,504312,0.0-200.0,"<div style=""font-size:60px;"">+</div>","""",57,fixation,Memorization,null,500,"""","""","""","""","""","""","""","""",2/28/2021 22:51,67.83.183.0,Mozilla/5.0 (Windows NT 10.0; Win64; x64; rv:86.0) Gecko/20100101 Firefox/86.0,,Firefox,86,Windows,10
159,1,null,"""",html-keyboard-response,201,509321,0.0-201.0,"<img src='jspsych/CFDfaces/CFD-AF-242-158-N.jpg' height=""250px""></br><b>Maria</b>","""",58,IntactFace,Memorization,null,5000,"""",CFD-AF-242-158-N.jpg,Maria,0,"""","""","""","""",2/28/2021 22:51,67.83.183.0,Mozilla/5.0 (Windows NT 10.0; Win64; x64; rv:86.0) Gecko/20100101 Firefox/86.0,,Firefox,86,Windows,10
159,1,null,"""",html-keyboard-response,202,509827,0.0-202.0,"<div style=""font-size:60px;"">+</div>","""",58,fixation,Memorization,null,500,"""","""","""","""","""","""","""","""",2/28/2021 22:51,67.83.183.0,Mozilla/5.0 (Windows NT 10.0; Win64; x64; rv:86.0) Gecko/20100101 Firefox/86.0,,Firefox,86,Windows,10
159,1,null,"""",html-keyboard-response,203,514833,0.0-203.0,"<img src='jspsych/CFDfaces/CFD-BF-016-017-N.jpg' height=""250px""></br><b>Morgan</b>","""",59,IntactFace,Memorization,null,5000,"""",CFD-BF-016-017-N.jpg,Morgan,0,"""","""","""","""",2/28/2021 22:51,67.83.183.0,Mozilla/5.0 (Windows NT 10.0; Win64; x64; rv:86.0) Gecko/20100101 Firefox/86.0,,Firefox,86,Windows,10
159,1,null,"""",html-keyboard-response,204,515341,0.0-204.0,"<div style=""font-size:60px;"">+</div>","""",59,fixation,Memorization,null,500,"""","""","""","""","""","""","""","""",2/28/2021 22:51,67.83.183.0,Mozilla/5.0 (Windows NT 10.0; Win64; x64; rv:86.0) Gecko/20100101 Firefox/86.0,,Firefox,86,Windows,10
159,1,null,"""",html-keyboard-response,205,520344,0.0-205.0,"<img src='jspsych/CFDfaces/CFD-BF-212-315-N.jpg' height=""250px""></br><b>Crystal</b>","""",60,IntactFace,Memorization,null,5000,"""",CFD-BF-212-315-N.jpg,Crystal,0,"""","""","""","""",2/28/2021 22:51,67.83.183.0,Mozilla/5.0 (Windows NT 10.0; Win64; x64; rv:86.0) Gecko/20100101 Firefox/86.0,,Firefox,86,Windows,10
159,1,null,"""",html-keyboard-response,206,520851,0.0-206.0,"<div style=""font-size:60px;"">+</div>","""",60,fixation,Memorization,null,500,"""","""","""","""","""","""","""","""",2/28/2021 22:51,67.83.183.0,Mozilla/5.0 (Windows NT 10.0; Win64; x64; rv:86.0) Gecko/20100101 Firefox/86.0,,Firefox,86,Windows,10
159,1,null,"""",html-keyboard-response,207,525856,0.0-207.0,"<img src='jspsych/CFDfaces/CFD-AF-228-173-N.jpg' height=""250px""></br><b>Victoria</b>","""",61,IntactFace,Memorization,null,5000,"""",CFD-AF-228-173-N.jpg,Victoria,0,"""","""","""","""",2/28/2021 22:51,67.83.183.0,Mozilla/5.0 (Windows NT 10.0; Win64; x64; rv:86.0) Gecko/20100101 Firefox/86.0,,Firefox,86,Windows,10
159,1,null,"""",html-keyboard-response,208,526358,0.0-208.0,"<div style=""font-size:60px;"">+</div>","""",61,fixation,Memorization,null,500,"""","""","""","""","""","""","""","""",2/28/2021 22:51,67.83.183.0,Mozilla/5.0 (Windows NT 10.0; Win64; x64; rv:86.0) Gecko/20100101 Firefox/86.0,,Firefox,86,Windows,10
159,1,null,"""",html-keyboard-response,209,531363,0.0-209.0,"<img src='jspsych/CFDfaces/CFD-LM-224-162-N.jpg' height=""250px""></br><b>Christopher</b>","""",62,IntactFace,Memorization,null,5000,"""",CFD-LM-224-162-N.jpg,Christopher,0,"""","""","""","""",2/28/2021 22:51,67.83.183.0,Mozilla/5.0 (Windows NT 10.0; Win64; x64; rv:86.0) Gecko/20100101 Firefox/86.0,,Firefox,86,Windows,10
159,1,null,"""",html-keyboard-response,210,531869,0.0-210.0,"<div style=""font-size:60px;"">+</div>","""",62,fixation,Memorization,null,500,"""","""","""","""","""","""","""","""",2/28/2021 22:51,67.83.183.0,Mozilla/5.0 (Windows NT 10.0; Win64; x64; rv:86.0) Gecko/20100101 Firefox/86.0,,Firefox,86,Windows,10
159,1,null,"""",html-keyboard-response,211,536873,0.0-211.0,"<img src='jspsych/CFDfaces/CFD-BM-029-024-N.jpg' height=""250px""></br><b>Stephen</b>","""",63,IntactFace,Memorization,null,5000,"""",CFD-BM-029-024-N.jpg,Stephen,0,"""","""","""","""",2/28/2021 22:51,67.83.183.0,Mozilla/5.0 (Windows NT 10.0; Win64; x64; rv:86.0) Gecko/20100101 Firefox/86.0,,Firefox,86,Windows,10
159,1,null,"""",html-keyboard-response,212,537374,0.0-212.0,"<div style=""font-size:60px;"">+</div>","""",63,fixation,Memorization,null,500,"""","""","""","""","""","""","""","""",2/28/2021 22:51,67.83.183.0,Mozilla/5.0 (Windows NT 10.0; Win64; x64; rv:86.0) Gecko/20100101 Firefox/86.0,,Firefox,86,Windows,10
159,1,null,"""",html-keyboard-response,213,542382,0.0-213.0,"<img src='jspsych/CFDfaces/CFD-AM-228-214-N.jpg' height=""250px""></br><b>Robert</b>","""",64,IntactFace,Memorization,null,5000,"""",CFD-AM-228-214-N.jpg,Robert,0,"""","""","""","""",2/28/2021 22:51,67.83.183.0,Mozilla/5.0 (Windows NT 10.0; Win64; x64; rv:86.0) Gecko/20100101 Firefox/86.0,,Firefox,86,Windows,10
159,1,null,"""",html-keyboard-response,214,542884,0.0-214.0,"<div style=""font-size:60px;"">+</div>","""",64,fixation,Memorization,null,500,"""","""","""","""","""","""","""","""",2/28/2021 22:51,67.83.183.0,Mozilla/5.0 (Windows NT 10.0; Win64; x64; rv:86.0) Gecko/20100101 Firefox/86.0,,Firefox,86,Windows,10
159,1,null,"""",html-keyboard-response,215,547890,0.0-215.0,"<img src='jspsych/CFDfaces/CFD-BM-208-065-N.jpg' height=""250px""></br><b>Cody</b>","""",65,IntactFace,Memorization,null,5000,"""",CFD-BM-208-065-N.jpg,Cody,0,"""","""","""","""",2/28/2021 22:51,67.83.183.0,Mozilla/5.0 (Windows NT 10.0; Win64; x64; rv:86.0) Gecko/20100101 Firefox/86.0,,Firefox,86,Windows,10
159,1,null,"""",html-keyboard-response,216,548392,0.0-216.0,"<div style=""font-size:60px;"">+</div>","""",65,fixation,Memorization,null,500,"""","""","""","""","""","""","""","""",2/28/2021 22:51,67.83.183.0,Mozilla/5.0 (Windows NT 10.0; Win64; x64; rv:86.0) Gecko/20100101 Firefox/86.0,,Firefox,86,Windows,10
159,1,null,"""",html-keyboard-response,217,553403,0.0-217.0,"<img src='jspsych/CFDfaces/CFD-BF-010-001-N.jpg' height=""250px""></br><b>Allison</b>","""",66,IntactFace,Memorization,null,5000,"""",CFD-BF-010-001-N.jpg,Allison,0,"""","""","""","""",2/28/2021 22:51,67.83.183.0,Mozilla/5.0 (Windows NT 10.0; Win64; x64; rv:86.0) Gecko/20100101 Firefox/86.0,,Firefox,86,Windows,10
159,1,null,"""",html-keyboard-response,218,553903,0.0-218.0,"<div style=""font-size:60px;"">+</div>","""",66,fixation,Memorization,null,500,"""","""","""","""","""","""","""","""",2/28/2021 22:51,67.83.183.0,Mozilla/5.0 (Windows NT 10.0; Win64; x64; rv:86.0) Gecko/20100101 Firefox/86.0,,Firefox,86,Windows,10
159,1,null,"""",html-keyboard-response,219,558911,0.0-219.0,"<img src='jspsych/CFDfaces/CFD-AM-248-104-N.jpg' height=""250px""></br><b>Benjamin</b>","""",67,IntactFace,Memorization,null,5000,"""",CFD-AM-248-104-N.jpg,Benjamin,0,"""","""","""","""",2/28/2021 22:51,67.83.183.0,Mozilla/5.0 (Windows NT 10.0; Win64; x64; rv:86.0) Gecko/20100101 Firefox/86.0,,Firefox,86,Windows,10
159,1,null,"""",html-keyboard-response,220,559412,0.0-220.0,"<div style=""font-size:60px;"">+</div>","""",67,fixation,Memorization,null,500,"""","""","""","""","""","""","""","""",2/28/2021 22:51,67.83.183.0,Mozilla/5.0 (Windows NT 10.0; Win64; x64; rv:86.0) Gecko/20100101 Firefox/86.0,,Firefox,86,Windows,10
159,1,null,"""",html-keyboard-response,221,564419,0.0-221.0,"<img src='jspsych/CFDfaces/CFD-LF-220-120-N.jpg' height=""250px""></br><b>Erin</b>","""",68,IntactFace,Memorization,null,5000,"""",CFD-LF-220-120-N.jpg,Erin,0,"""","""","""","""",2/28/2021 22:51,67.83.183.0,Mozilla/5.0 (Windows NT 10.0; Win64; x64; rv:86.0) Gecko/20100101 Firefox/86.0,,Firefox,86,Windows,10
159,1,null,"""",html-keyboard-response,222,564922,0.0-222.0,"<div style=""font-size:60px;"">+</div>","""",68,fixation,Memorization,null,500,"""","""","""","""","""","""","""","""",2/28/2021 22:51,67.83.183.0,Mozilla/5.0 (Windows NT 10.0; Win64; x64; rv:86.0) Gecko/20100101 Firefox/86.0,,Firefox,86,Windows,10
159,1,null,"""",html-keyboard-response,223,569932,0.0-223.0,"<img src='jspsych/CFDfaces/CFD-BM-043-071-N.jpg' height=""250px""></br><b>Jordan</b>","""",69,IntactFace,Memorization,null,5000,"""",CFD-BM-043-071-N.jpg,Jordan,0,"""","""","""","""",2/28/2021 22:51,67.83.183.0,Mozilla/5.0 (Windows NT 10.0; Win64; x64; rv:86.0) Gecko/20100101 Firefox/86.0,,Firefox,86,Windows,10
159,1,null,"""",html-keyboard-response,224,570487,0.0-224.0,"<div style=""font-size:60px;"">+</div>","""",69,fixation,Memorization,null,500,"""","""","""","""","""","""","""","""",2/28/2021 22:51,67.83.183.0,Mozilla/5.0 (Windows NT 10.0; Win64; x64; rv:86.0) Gecko/20100101 Firefox/86.0,,Firefox,86,Windows,10
159,1,null,"""",html-keyboard-response,225,575916,0.0-225.0,"<img src='jspsych/CFDfaces/CFD-LF-204-133-N.jpg' height=""250px""></br><b>Hannah</b>","""",70,IntactFace,Memorization,null,5000,"""",CFD-LF-204-133-N.jpg,Hannah,0,"""","""","""","""",2/28/2021 22:51,67.83.183.0,Mozilla/5.0 (Windows NT 10.0; Win64; x64; rv:86.0) Gecko/20100101 Firefox/86.0,,Firefox,86,Windows,10
159,1,null,"""",html-keyboard-response,226,576418,0.0-226.0,"<div style=""font-size:60px;"">+</div>","""",70,fixation,Memorization,null,500,"""","""","""","""","""","""","""","""",2/28/2021 22:51,67.83.183.0,Mozilla/5.0 (Windows NT 10.0; Win64; x64; rv:86.0) Gecko/20100101 Firefox/86.0,,Firefox,86,Windows,10
159,1,null,"""",html-keyboard-response,227,581451,0.0-227.0,"<img src='jspsych/CFDfaces/CFD-AF-214-139-N.jpg' height=""250px""></br><b>Meghan</b>","""",71,IntactFace,Memorization,null,5000,"""",CFD-AF-214-139-N.jpg,Meghan,0,"""","""","""","""",2/28/2021 22:51,67.83.183.0,Mozilla/5.0 (Windows NT 10.0; Win64; x64; rv:86.0) Gecko/20100101 Firefox/86.0,,Firefox,86,Windows,10
159,1,null,"""",html-keyboard-response,228,581959,0.0-228.0,"<div style=""font-size:60px;"">+</div>","""",71,fixation,Memorization,null,500,"""","""","""","""","""","""","""","""",2/28/2021 22:51,67.83.183.0,Mozilla/5.0 (Windows NT 10.0; Win64; x64; rv:86.0) Gecko/20100101 Firefox/86.0,,Firefox,86,Windows,10
159,1,null,"""",html-keyboard-response,229,587063,0.0-229.0,"<img src='jspsych/CFDfaces/CFD-BF-021-013-N.jpg' height=""250px""></br><b>Nicole</b>","""",72,IntactFace,Memorization,null,5000,"""",CFD-BF-021-013-N.jpg,Nicole,0,"""","""","""","""",2/28/2021 22:51,67.83.183.0,Mozilla/5.0 (Windows NT 10.0; Win64; x64; rv:86.0) Gecko/20100101 Firefox/86.0,,Firefox,86,Windows,10
159,1,null,"""",html-keyboard-response,230,587588,0.0-230.0,"<div style=""font-size:60px;"">+</div>","""",72,fixation,Memorization,null,500,"""","""","""","""","""","""","""","""",2/28/2021 22:51,67.83.183.0,Mozilla/5.0 (Windows NT 10.0; Win64; x64; rv:86.0) Gecko/20100101 Firefox/86.0,,Firefox,86,Windows,10
159,1,null,"""",html-keyboard-response,231,592595,0.0-231.0,"<img src='jspsych/CFDfaces/CFD-BF-222-240-N.jpg' height=""250px""></br><b>Jamie</b>","""",73,IntactFace,Memorization,null,5000,"""",CFD-BF-222-240-N.jpg,Jamie,0,"""","""","""","""",2/28/2021 22:51,67.83.183.0,Mozilla/5.0 (Windows NT 10.0; Win64; x64; rv:86.0) Gecko/20100101 Firefox/86.0,,Firefox,86,Windows,10
159,1,null,"""",html-keyboard-response,232,593113,0.0-232.0,"<div style=""font-size:60px;"">+</div>","""",73,fixation,Memorization,null,500,"""","""","""","""","""","""","""","""",2/28/2021 22:51,67.83.183.0,Mozilla/5.0 (Windows NT 10.0; Win64; x64; rv:86.0) Gecko/20100101 Firefox/86.0,,Firefox,86,Windows,10
159,1,null,"""",html-keyboard-response,233,598122,0.0-233.0,"<img src='jspsych/CFDfaces/CFD-LM-219-295-N.jpg' height=""250px""></br><b>Edward</b>","""",74,IntactFace,Memorization,null,5000,"""",CFD-LM-219-295-N.jpg,Edward,0,"""","""","""","""",2/28/2021 22:51,67.83.183.0,Mozilla/5.0 (Windows NT 10.0; Win64; x64; rv:86.0) Gecko/20100101 Firefox/86.0,,Firefox,86,Windows,10
159,1,null,"""",html-keyboard-response,234,598637,0.0-234.0,"<div style=""font-size:60px;"">+</div>","""",74,fixation,Memorization,null,500,"""","""","""","""","""","""","""","""",2/28/2021 22:51,67.83.183.0,Mozilla/5.0 (Windows NT 10.0; Win64; x64; rv:86.0) Gecko/20100101 Firefox/86.0,,Firefox,86,Windows,10
159,1,null,"""",html-keyboard-response,235,603648,0.0-235.0,"<img src='jspsych/CFDfaces/CFD-BF-047-003-N.jpg' height=""250px""></br><b>Kelly</b>","""",75,IntactFace,Memorization,null,5000,"""",CFD-BF-047-003-N.jpg,Kelly,0,"""","""","""","""",2/28/2021 22:51,67.83.183.0,Mozilla/5.0 (Windows NT 10.0; Win64; x64; rv:86.0) Gecko/20100101 Firefox/86.0,,Firefox,86,Windows,10
159,1,null,"""",html-keyboard-response,236,604151,0.0-236.0,"<div style=""font-size:60px;"">+</div>","""",75,fixation,Memorization,null,500,"""","""","""","""","""","""","""","""",2/28/2021 22:51,67.83.183.0,Mozilla/5.0 (Windows NT 10.0; Win64; x64; rv:86.0) Gecko/20100101 Firefox/86.0,,Firefox,86,Windows,10
159,1,null,"""",html-keyboard-response,237,609158,0.0-237.0,"<img src='jspsych/CFDfaces/CFD-LM-201-057-N.jpg' height=""250px""></br><b>Zachary</b>","""",76,IntactFace,Memorization,null,5000,"""",CFD-LM-201-057-N.jpg,Zachary,0,"""","""","""","""",2/28/2021 22:51,67.83.183.0,Mozilla/5.0 (Windows NT 10.0; Win64; x64; rv:86.0) Gecko/20100101 Firefox/86.0,,Firefox,86,Windows,10
159,1,null,"""",html-keyboard-response,238,609661,0.0-238.0,"<div style=""font-size:60px;"">+</div>","""",76,fixation,Memorization,null,500,"""","""","""","""","""","""","""","""",2/28/2021 22:51,67.83.183.0,Mozilla/5.0 (Windows NT 10.0; Win64; x64; rv:86.0) Gecko/20100101 Firefox/86.0,,Firefox,86,Windows,10
159,1,null,"""",html-keyboard-response,239,614667,0.0-239.0,"<img src='jspsych/CFDfaces/CFD-LF-215-157-N.jpg' height=""250px""></br><b>Laura</b>","""",77,IntactFace,Memorization,null,5000,"""",CFD-LF-215-157-N.jpg,Laura,0,"""","""","""","""",2/28/2021 22:51,67.83.183.0,Mozilla/5.0 (Windows NT 10.0; Win64; x64; rv:86.0) Gecko/20100101 Firefox/86.0,,Firefox,86,Windows,10
159,1,null,"""",html-keyboard-response,240,615181,0.0-240.0,"<div style=""font-size:60px;"">+</div>","""",77,fixation,Memorization,null,500,"""","""","""","""","""","""","""","""",2/28/2021 22:51,67.83.183.0,Mozilla/5.0 (Windows NT 10.0; Win64; x64; rv:86.0) Gecko/20100101 Firefox/86.0,,Firefox,86,Windows,10
159,1,null,"""",html-keyboard-response,241,620187,0.0-241.0,"<img src='jspsych/CFDfaces/CFD-BF-221-223-N.jpg' height=""250px""></br><b>Natalie</b>","""",78,IntactFace,Memorization,null,5000,"""",CFD-BF-221-223-N.jpg,Natalie,0,"""","""","""","""",2/28/2021 22:51,67.83.183.0,Mozilla/5.0 (Windows NT 10.0; Win64; x64; rv:86.0) Gecko/20100101 Firefox/86.0,,Firefox,86,Windows,10
159,1,null,"""",html-keyboard-response,242,620690,0.0-242.0,"<div style=""font-size:60px;"">+</div>","""",78,fixation,Memorization,null,500,"""","""","""","""","""","""","""","""",2/28/2021 22:51,67.83.183.0,Mozilla/5.0 (Windows NT 10.0; Win64; x64; rv:86.0) Gecko/20100101 Firefox/86.0,,Firefox,86,Windows,10
159,1,null,"""",html-keyboard-response,243,625723,0.0-243.0,"<img src='jspsych/CFDfaces/CFD-AM-221-184-N.jpg' height=""250px""></br><b>James</b>","""",79,IntactFace,Memorization,null,5000,"""",CFD-AM-221-184-N.jpg,James,0,"""","""","""","""",2/28/2021 22:51,67.83.183.0,Mozilla/5.0 (Windows NT 10.0; Win64; x64; rv:86.0) Gecko/20100101 Firefox/86.0,,Firefox,86,Windows,10
159,1,null,"""",html-keyboard-response,244,626236,0.0-244.0,"<div style=""font-size:60px;"">+</div>","""",79,fixation,Memorization,null,500,"""","""","""","""","""","""","""","""",2/28/2021 22:51,67.83.183.0,Mozilla/5.0 (Windows NT 10.0; Win64; x64; rv:86.0) Gecko/20100101 Firefox/86.0,,Firefox,86,Windows,10
159,1,null,"""",html-keyboard-response,245,631262,0.0-245.0,"<img src='jspsych/CFDfaces/CFD-LF-230-203-N.jpg' height=""250px""></br><b>Lindsey</b>","""",80,IntactFace,Memorization,null,5000,"""",CFD-LF-230-203-N.jpg,Lindsey,0,"""","""","""","""",2/28/2021 22:51,67.83.183.0,Mozilla/5.0 (Windows NT 10.0; Win64; x64; rv:86.0) Gecko/20100101 Firefox/86.0,,Firefox,86,Windows,10
159,1,null,"""",html-keyboard-response,246,631769,0.0-246.0,"<div style=""font-size:60px;"">+</div>","""",80,fixation,Memorization,null,500,"""","""","""","""","""","""","""","""",2/28/2021 22:51,67.83.183.0,Mozilla/5.0 (Windows NT 10.0; Win64; x64; rv:86.0) Gecko/20100101 Firefox/86.0,,Firefox,86,Windows,10
159,1,null,"""",html-keyboard-response,247,636792,0.0-247.0,"<img src='jspsych/CFDfaces/CFD-BM-022-022-N.jpg' height=""250px""></br><b>Nathan</b>","""",81,IntactFace,Memorization,null,5000,"""",CFD-BM-022-022-N.jpg,Nathan,0,"""","""","""","""",2/28/2021 22:51,67.83.183.0,Mozilla/5.0 (Windows NT 10.0; Win64; x64; rv:86.0) Gecko/20100101 Firefox/86.0,,Firefox,86,Windows,10
159,1,null,"""",html-keyboard-response,248,637303,0.0-248.0,"<div style=""font-size:60px;"">+</div>","""",81,fixation,Memorization,null,500,"""","""","""","""","""","""","""","""",2/28/2021 22:51,67.83.183.0,Mozilla/5.0 (Windows NT 10.0; Win64; x64; rv:86.0) Gecko/20100101 Firefox/86.0,,Firefox,86,Windows,10
159,1,null,"""",html-keyboard-response,249,642325,0.0-249.0,"<img src='jspsych/CFDfaces/CFD-BM-205-001-N.jpg' height=""250px""></br><b>Adam</b>","""",82,IntactFace,Memorization,null,5000,"""",CFD-BM-205-001-N.jpg,Adam,0,"""","""","""","""",2/28/2021 22:51,67.83.183.0,Mozilla/5.0 (Windows NT 10.0; Win64; x64; rv:86.0) Gecko/20100101 Firefox/86.0,,Firefox,86,Windows,10
159,1,null,"""",html-keyboard-response,250,642828,0.0-250.0,"<div style=""font-size:60px;"">+</div>","""",82,fixation,Memorization,null,500,"""","""","""","""","""","""","""","""",2/28/2021 22:51,67.83.183.0,Mozilla/5.0 (Windows NT 10.0; Win64; x64; rv:86.0) Gecko/20100101 Firefox/86.0,,Firefox,86,Windows,10
159,1,null,"""",html-keyboard-response,251,647843,0.0-251.0,"<img src='jspsych/CFDfaces/CFD-AF-233-190-N.jpg' height=""250px""></br><b>Christina</b>","""",83,IntactFace,Memorization,null,5000,"""",CFD-AF-233-190-N.jpg,Christina,0,"""","""","""","""",2/28/2021 22:51,67.83.183.0,Mozilla/5.0 (Windows NT 10.0; Win64; x64; rv:86.0) Gecko/20100101 Firefox/86.0,,Firefox,86,Windows,10
159,1,null,"""",html-keyboard-response,252,648349,0.0-252.0,"<div style=""font-size:60px;"">+</div>","""",83,fixation,Memorization,null,500,"""","""","""","""","""","""","""","""",2/28/2021 22:51,67.83.183.0,Mozilla/5.0 (Windows NT 10.0; Win64; x64; rv:86.0) Gecko/20100101 Firefox/86.0,,Firefox,86,Windows,10
159,1,null,"""",html-keyboard-response,253,653366,0.0-253.0,"<img src='jspsych/CFDfaces/CFD-LF-236-221-N.jpg' height=""250px""></br><b>Jasmine</b>","""",84,IntactFace,Memorization,null,5000,"""",CFD-LF-236-221-N.jpg,Jasmine,0,"""","""","""","""",2/28/2021 22:51,67.83.183.0,Mozilla/5.0 (Windows NT 10.0; Win64; x64; rv:86.0) Gecko/20100101 Firefox/86.0,,Firefox,86,Windows,10
159,1,null,"""",html-keyboard-response,254,653871,0.0-254.0,"<div style=""font-size:60px;"">+</div>","""",84,fixation,Memorization,null,500,"""","""","""","""","""","""","""","""",2/28/2021 22:51,67.83.183.0,Mozilla/5.0 (Windows NT 10.0; Win64; x64; rv:86.0) Gecko/20100101 Firefox/86.0,,Firefox,86,Windows,10
159,1,null,"""",html-keyboard-response,255,658897,0.0-255.0,"<img src='jspsych/CFDfaces/CFD-BM-017-021-N.jpg' height=""250px""></br><b>Scott</b>","""",85,IntactFace,Memorization,null,5000,"""",CFD-BM-017-021-N.jpg,Scott,0,"""","""","""","""",2/28/2021 22:51,67.83.183.0,Mozilla/5.0 (Windows NT 10.0; Win64; x64; rv:86.0) Gecko/20100101 Firefox/86.0,,Firefox,86,Windows,10
159,1,null,"""",html-keyboard-response,256,659402,0.0-256.0,"<div style=""font-size:60px;"">+</div>","""",85,fixation,Memorization,null,500,"""","""","""","""","""","""","""","""",2/28/2021 22:51,67.83.183.0,Mozilla/5.0 (Windows NT 10.0; Win64; x64; rv:86.0) Gecko/20100101 Firefox/86.0,,Firefox,86,Windows,10
159,1,null,"""",html-keyboard-response,257,664427,0.0-257.0,"<img src='jspsych/CFDfaces/CFD-BM-210-148-N.jpg' height=""250px""></br><b>Bradley</b>","""",86,IntactFace,Memorization,null,5000,"""",CFD-BM-210-148-N.jpg,Bradley,0,"""","""","""","""",2/28/2021 22:51,67.83.183.0,Mozilla/5.0 (Windows NT 10.0; Win64; x64; rv:86.0) Gecko/20100101 Firefox/86.0,,Firefox,86,Windows,10
159,1,null,"""",html-keyboard-response,258,664930,0.0-258.0,"<div style=""font-size:60px;"">+</div>","""",86,fixation,Memorization,null,500,"""","""","""","""","""","""","""","""",2/28/2021 22:51,67.83.183.0,Mozilla/5.0 (Windows NT 10.0; Win64; x64; rv:86.0) Gecko/20100101 Firefox/86.0,,Firefox,86,Windows,10
159,1,null,"""",html-keyboard-response,259,669951,0.0-259.0,"<img src='jspsych/CFDfaces/CFD-BM-027-001-N.jpg' height=""250px""></br><b>Keith</b>","""",87,IntactFace,Memorization,null,5000,"""",CFD-BM-027-001-N.jpg,Keith,0,"""","""","""","""",2/28/2021 22:51,67.83.183.0,Mozilla/5.0 (Windows NT 10.0; Win64; x64; rv:86.0) Gecko/20100101 Firefox/86.0,,Firefox,86,Windows,10
159,1,null,"""",html-keyboard-response,260,670459,0.0-260.0,"<div style=""font-size:60px;"">+</div>","""",87,fixation,Memorization,null,500,"""","""","""","""","""","""","""","""",2/28/2021 22:51,67.83.183.0,Mozilla/5.0 (Windows NT 10.0; Win64; x64; rv:86.0) Gecko/20100101 Firefox/86.0,,Firefox,86,Windows,10
159,1,null,"""",html-keyboard-response,261,675481,0.0-261.0,"<img src='jspsych/CFDfaces/CFD-AF-243-170-N.jpg' height=""250px""></br><b>Alicia</b>","""",88,IntactFace,Memorization,null,5000,"""",CFD-AF-243-170-N.jpg,Alicia,0,"""","""","""","""",2/28/2021 22:51,67.83.183.0,Mozilla/5.0 (Windows NT 10.0; Win64; x64; rv:86.0) Gecko/20100101 Firefox/86.0,,Firefox,86,Windows,10
159,1,null,"""",html-keyboard-response,262,675987,0.0-262.0,"<div style=""font-size:60px;"">+</div>","""",88,fixation,Memorization,null,500,"""","""","""","""","""","""","""","""",2/28/2021 22:51,67.83.183.0,Mozilla/5.0 (Windows NT 10.0; Win64; x64; rv:86.0) Gecko/20100101 Firefox/86.0,,Firefox,86,Windows,10
159,1,null,"""",html-keyboard-response,263,681015,0.0-263.0,"<img src='jspsych/CFDfaces/CFD-AM-234-355-N.jpg' height=""250px""></br><b>Jason</b>","""",89,IntactFace,Memorization,null,5000,"""",CFD-AM-234-355-N.jpg,Jason,0,"""","""","""","""",2/28/2021 22:51,67.83.183.0,Mozilla/5.0 (Windows NT 10.0; Win64; x64; rv:86.0) Gecko/20100101 Firefox/86.0,,Firefox,86,Windows,10
159,1,null,"""",html-keyboard-response,264,681517,0.0-264.0,"<div style=""font-size:60px;"">+</div>","""",89,fixation,Memorization,null,500,"""","""","""","""","""","""","""","""",2/28/2021 22:51,67.83.183.0,Mozilla/5.0 (Windows NT 10.0; Win64; x64; rv:86.0) Gecko/20100101 Firefox/86.0,,Firefox,86,Windows,10
159,1,null,"""",html-keyboard-response,265,686558,0.0-265.0,"<img src='jspsych/CFDfaces/CFD-AM-229-224-N.jpg' height=""250px""></br><b>Daniel</b>","""",90,IntactFace,Memorization,null,5000,"""",CFD-AM-229-224-N.jpg,Daniel,0,"""","""","""","""",2/28/2021 22:51,67.83.183.0,Mozilla/5.0 (Windows NT 10.0; Win64; x64; rv:86.0) Gecko/20100101 Firefox/86.0,,Firefox,86,Windows,10
159,1,null,"""",html-keyboard-response,266,687060,0.0-266.0,"<div style=""font-size:60px;"">+</div>","""",90,fixation,Memorization,null,500,"""","""","""","""","""","""","""","""",2/28/2021 22:51,67.83.183.0,Mozilla/5.0 (Windows NT 10.0; Win64; x64; rv:86.0) Gecko/20100101 Firefox/86.0,,Firefox,86,Windows,10
159,1,null,"""",html-keyboard-response,267,692087,0.0-267.0,"<img src='jspsych/CFDfaces/CFD-AM-220-134-N.jpg' height=""250px""></br><b>Nicholas</b>","""",91,IntactFace,Memorization,null,5000,"""",CFD-AM-220-134-N.jpg,Nicholas,0,"""","""","""","""",2/28/2021 22:51,67.83.183.0,Mozilla/5.0 (Windows NT 10.0; Win64; x64; rv:86.0) Gecko/20100101 Firefox/86.0,,Firefox,86,Windows,10
159,1,null,"""",html-keyboard-response,268,692591,0.0-268.0,"<div style=""font-size:60px;"">+</div>","""",91,fixation,Memorization,null,500,"""","""","""","""","""","""","""","""",2/28/2021 22:51,67.83.183.0,Mozilla/5.0 (Windows NT 10.0; Win64; x64; rv:86.0) Gecko/20100101 Firefox/86.0,,Firefox,86,Windows,10
159,1,null,"""",html-keyboard-response,269,697598,0.0-269.0,"<img src='jspsych/CFDfaces/CFD-WM-006-002-N.jpg' height=""250px""></br><b>Dustin</b>","""",92,IntactFace,Memorization,null,5000,"""",CFD-WM-006-002-N.jpg,Dustin,0,"""","""","""","""",2/28/2021 22:51,67.83.183.0,Mozilla/5.0 (Windows NT 10.0; Win64; x64; rv:86.0) Gecko/20100101 Firefox/86.0,,Firefox,86,Windows,10
159,1,null,"""",html-keyboard-response,270,698118,0.0-270.0,"<div style=""font-size:60px;"">+</div>","""",92,fixation,Memorization,null,500,"""","""","""","""","""","""","""","""",2/28/2021 22:51,67.83.183.0,Mozilla/5.0 (Windows NT 10.0; Win64; x64; rv:86.0) Gecko/20100101 Firefox/86.0,,Firefox,86,Windows,10
159,1,null,"""",html-keyboard-response,271,703129,0.0-271.0,"<img src='jspsych/CFDfaces/CFD-LM-248-089-N.jpg' height=""250px""></br><b>Timothy</b>","""",93,IntactFace,Memorization,null,5000,"""",CFD-LM-248-089-N.jpg,Timothy,0,"""","""","""","""",2/28/2021 22:51,67.83.183.0,Mozilla/5.0 (Windows NT 10.0; Win64; x64; rv:86.0) Gecko/20100101 Firefox/86.0,,Firefox,86,Windows,10
159,1,null,"""",html-keyboard-response,272,703652,0.0-272.0,"<div style=""font-size:60px;"">+</div>","""",93,fixation,Memorization,null,500,"""","""","""","""","""","""","""","""",2/28/2021 22:51,67.83.183.0,Mozilla/5.0 (Windows NT 10.0; Win64; x64; rv:86.0) Gecko/20100101 Firefox/86.0,,Firefox,86,Windows,10
159,1,null,"""",html-keyboard-response,273,708661,0.0-273.0,"<img src='jspsych/CFDfaces/CFD-AM-238-269-N.jpg' height=""250px""></br><b>Brandon</b>","""",94,IntactFace,Memorization,null,5000,"""",CFD-AM-238-269-N.jpg,Brandon,0,"""","""","""","""",2/28/2021 22:51,67.83.183.0,Mozilla/5.0 (Windows NT 10.0; Win64; x64; rv:86.0) Gecko/20100101 Firefox/86.0,,Firefox,86,Windows,10
159,1,null,"""",html-keyboard-response,274,709187,0.0-274.0,"<div style=""font-size:60px;"">+</div>","""",94,fixation,Memorization,null,500,"""","""","""","""","""","""","""","""",2/28/2021 22:51,67.83.183.0,Mozilla/5.0 (Windows NT 10.0; Win64; x64; rv:86.0) Gecko/20100101 Firefox/86.0,,Firefox,86,Windows,10
159,1,null,"""",html-keyboard-response,275,714196,0.0-275.0,"<img src='jspsych/CFDfaces/CFD-WF-017-003-N.jpg' height=""250px""></br><b>Melissa</b>","""",95,IntactFace,Memorization,null,5000,"""",CFD-WF-017-003-N.jpg,Melissa,0,"""","""","""","""",2/28/2021 22:51,67.83.183.0,Mozilla/5.0 (Windows NT 10.0; Win64; x64; rv:86.0) Gecko/20100101 Firefox/86.0,,Firefox,86,Windows,10
159,1,null,"""",html-keyboard-response,276,714717,0.0-276.0,"<div style=""font-size:60px;"">+</div>","""",95,fixation,Memorization,null,500,"""","""","""","""","""","""","""","""",2/28/2021 22:51,67.83.183.0,Mozilla/5.0 (Windows NT 10.0; Win64; x64; rv:86.0) Gecko/20100101 Firefox/86.0,,Firefox,86,Windows,10
159,1,null,"""",html-keyboard-response,277,719724,0.0-277.0,"<img src='jspsych/CFDfaces/CFD-AM-211-052-N.jpg' height=""250px""></br><b>Ian</b>","""",96,IntactFace,Memorization,null,5000,"""",CFD-AM-211-052-N.jpg,Ian,0,"""","""","""","""",2/28/2021 22:51,67.83.183.0,Mozilla/5.0 (Windows NT 10.0; Win64; x64; rv:86.0) Gecko/20100101 Firefox/86.0,,Firefox,86,Windows,10
159,1,null,"""",html-keyboard-response,278,720247,0.0-278.0,"<div style=""font-size:60px;"">+</div>","""",96,fixation,Memorization,null,500,"""","""","""","""","""","""","""","""",2/28/2021 22:51,67.83.183.0,Mozilla/5.0 (Windows NT 10.0; Win64; x64; rv:86.0) Gecko/20100101 Firefox/86.0,,Firefox,86,Windows,10
159,1,null,"""",html-keyboard-response,279,725256,0.0-279.0,"<img src='jspsych/CFDfaces/CFD-LM-246-087-N.jpg' height=""250px""></br><b>Luis</b>","""",97,IntactFace,Memorization,null,5000,"""",CFD-LM-246-087-N.jpg,Luis,0,"""","""","""","""",2/28/2021 22:51,67.83.183.0,Mozilla/5.0 (Windows NT 10.0; Win64; x64; rv:86.0) Gecko/20100101 Firefox/86.0,,Firefox,86,Windows,10
159,1,null,"""",html-keyboard-response,280,725777,0.0-280.0,"<div style=""font-size:60px;"">+</div>","""",97,fixation,Memorization,null,500,"""","""","""","""","""","""","""","""",2/28/2021 22:51,67.83.183.0,Mozilla/5.0 (Windows NT 10.0; Win64; x64; rv:86.0) Gecko/20100101 Firefox/86.0,,Firefox,86,Windows,10
159,1,null,"""",html-keyboard-response,281,730786,0.0-281.0,"<img src='jspsych/CFDfaces/CFD-LF-203-066-N.jpg' height=""250px""></br><b>Catherine</b>","""",98,IntactFace,Memorization,null,5000,"""",CFD-LF-203-066-N.jpg,Catherine,0,"""","""","""","""",2/28/2021 22:51,67.83.183.0,Mozilla/5.0 (Windows NT 10.0; Win64; x64; rv:86.0) Gecko/20100101 Firefox/86.0,,Firefox,86,Windows,10
159,1,null,"""",html-keyboard-response,282,731312,0.0-282.0,"<div style=""font-size:60px;"">+</div>","""",98,fixation,Memorization,null,500,"""","""","""","""","""","""","""","""",2/28/2021 22:51,67.83.183.0,Mozilla/5.0 (Windows NT 10.0; Win64; x64; rv:86.0) Gecko/20100101 Firefox/86.0,,Firefox,86,Windows,10
159,1,null,"""",html-keyboard-response,283,736317,0.0-283.0,"<img src='jspsych/CFDfaces/CFD-BF-201-080-N.jpg' height=""250px""></br><b>Katie</b>","""",99,IntactFace,Memorization,null,5000,"""",CFD-BF-201-080-N.jpg,Katie,0,"""","""","""","""",2/28/2021 22:51,67.83.183.0,Mozilla/5.0 (Windows NT 10.0; Win64; x64; rv:86.0) Gecko/20100101 Firefox/86.0,,Firefox,86,Windows,10
159,1,null,"""",html-keyboard-response,284,736837,0.0-284.0,"<div style=""font-size:60px;"">+</div>","""",99,fixation,Memorization,null,500,"""","""","""","""","""","""","""","""",2/28/2021 22:51,67.83.183.0,Mozilla/5.0 (Windows NT 10.0; Win64; x64; rv:86.0) Gecko/20100101 Firefox/86.0,,Firefox,86,Windows,10
159,1,null,"""",html-keyboard-response,285,741844,0.0-285.0,"<img src='jspsych/CFDfaces/CFD-AF-203-077-N.jpg' height=""250px""></br><b>Emily</b>","""",100,IntactFace,Memorization,null,5000,"""",CFD-AF-203-077-N.jpg,Emily,0,"""","""","""","""",2/28/2021 22:51,67.83.183.0,Mozilla/5.0 (Windows NT 10.0; Win64; x64; rv:86.0) Gecko/20100101 Firefox/86.0,,Firefox,86,Windows,10
159,1,null,"""",html-keyboard-response,286,742361,0.0-286.0,"<div style=""font-size:60px;"">+</div>","""",100,fixation,Memorization,null,500,"""","""","""","""","""","""","""","""",2/28/2021 22:51,67.83.183.0,Mozilla/5.0 (Windows NT 10.0; Win64; x64; rv:86.0) Gecko/20100101 Firefox/86.0,,Firefox,86,Windows,10
159,1,null,"""",html-keyboard-response,287,747373,0.0-287.0,"<img src='jspsych/CFDfaces/CFD-WM-003-002-N.jpg' height=""250px""></br><b>Cameron</b>","""",101,IntactFace,Memorization,null,5000,"""",CFD-WM-003-002-N.jpg,Cameron,0,"""","""","""","""",2/28/2021 22:51,67.83.183.0,Mozilla/5.0 (Windows NT 10.0; Win64; x64; rv:86.0) Gecko/20100101 Firefox/86.0,,Firefox,86,Windows,10
159,1,null,"""",html-keyboard-response,288,747893,0.0-288.0,"<div style=""font-size:60px;"">+</div>","""",101,fixation,Memorization,null,500,"""","""","""","""","""","""","""","""",2/28/2021 22:51,67.83.183.0,Mozilla/5.0 (Windows NT 10.0; Win64; x64; rv:86.0) Gecko/20100101 Firefox/86.0,,Firefox,86,Windows,10
159,1,null,"""",html-keyboard-response,289,752910,0.0-289.0,"<img src='jspsych/CFDfaces/CFD-LM-221-216-N.jpg' height=""250px""></br><b>Paul</b>","""",102,IntactFace,Memorization,null,5000,"""",CFD-LM-221-216-N.jpg,Paul,0,"""","""","""","""",2/28/2021 22:51,67.83.183.0,Mozilla/5.0 (Windows NT 10.0; Win64; x64; rv:86.0) Gecko/20100101 Firefox/86.0,,Firefox,86,Windows,10
159,1,null,"""",html-keyboard-response,290,753429,0.0-290.0,"<div style=""font-size:60px;"">+</div>","""",102,fixation,Memorization,null,500,"""","""","""","""","""","""","""","""",2/28/2021 22:51,67.83.183.0,Mozilla/5.0 (Windows NT 10.0; Win64; x64; rv:86.0) Gecko/20100101 Firefox/86.0,,Firefox,86,Windows,10
159,1,null,"""",html-keyboard-response,291,758436,0.0-291.0,"<img src='jspsych/CFDfaces/CFD-BM-002-013-N.jpg' height=""250px""></br><b>Charles</b>","""",103,IntactFace,Memorization,null,5000,"""",CFD-BM-002-013-N.jpg,Charles,0,"""","""","""","""",2/28/2021 22:51,67.83.183.0,Mozilla/5.0 (Windows NT 10.0; Win64; x64; rv:86.0) Gecko/20100101 Firefox/86.0,,Firefox,86,Windows,10
159,1,null,"""",html-keyboard-response,292,758960,0.0-292.0,"<div style=""font-size:60px;"">+</div>","""",103,fixation,Memorization,null,500,"""","""","""","""","""","""","""","""",2/28/2021 22:51,67.83.183.0,Mozilla/5.0 (Windows NT 10.0; Win64; x64; rv:86.0) Gecko/20100101 Firefox/86.0,,Firefox,86,Windows,10
159,1,null,"""",html-keyboard-response,293,763966,0.0-293.0,"<img src='jspsych/CFDfaces/CFD-AM-243-212-N.jpg' height=""250px""></br><b>Phillip</b>","""",104,IntactFace,Memorization,null,5000,"""",CFD-AM-243-212-N.jpg,Phillip,0,"""","""","""","""",2/28/2021 22:51,67.83.183.0,Mozilla/5.0 (Windows NT 10.0; Win64; x64; rv:86.0) Gecko/20100101 Firefox/86.0,,Firefox,86,Windows,10
159,1,null,"""",html-keyboard-response,294,764531,0.0-294.0,"<div style=""font-size:60px;"">+</div>","""",104,fixation,Memorization,null,500,"""","""","""","""","""","""","""","""",2/28/2021 22:51,67.83.183.0,Mozilla/5.0 (Windows NT 10.0; Win64; x64; rv:86.0) Gecko/20100101 Firefox/86.0,,Firefox,86,Windows,10
159,1,null,"""",html-keyboard-response,295,769536,0.0-295.0,"<img src='jspsych/CFDfaces/CFD-WM-009-002-N.jpg' height=""250px""></br><b>Ryan</b>","""",105,IntactFace,Memorization,null,5000,"""",CFD-WM-009-002-N.jpg,Ryan,0,"""","""","""","""",2/28/2021 22:51,67.83.183.0,Mozilla/5.0 (Windows NT 10.0; Win64; x64; rv:86.0) Gecko/20100101 Firefox/86.0,,Firefox,86,Windows,10
159,1,null,"""",html-keyboard-response,296,770054,0.0-296.0,"<div style=""font-size:60px;"">+</div>","""",105,fixation,Memorization,null,500,"""","""","""","""","""","""","""","""",2/28/2021 22:51,67.83.183.0,Mozilla/5.0 (Windows NT 10.0; Win64; x64; rv:86.0) Gecko/20100101 Firefox/86.0,,Firefox,86,Windows,10
