run_id,condition,rt,responses,trial_type,trial_index,time_elapsed,internal_node_id,stimulus,button_pressed,iTrial,Phase,ExperimentPhase,key_press,StimulusDurationSetting,CharacterResponse,correctResponse,Face,Name,rearranged,didSubjectEnterRearranged,slider_start,response,Block,question_order,recorded_at,ip,user_agent,device,browser,browser_version,platform,platform_version
5,1,9680,"{""Q0"":""ACJNWSBIVI46H""}",survey-text,0,9695,0.0-0.0,"""","""","""","""","""","""","""","""","""","""","""","""","""","""","""","""","""",3/22/2021 19:57,71.86.185.24,Mozilla/5.0 (Windows NT 10.0; Win64; x64; rv:86.0) Gecko/20100101 Firefox/86.0,,Firefox,86,Windows,10
5,1,20442,"""",image-button-response,1,30288,0.0-1.0,directionsMemoryAssociation1.JPG,0,1,IntroDirections1,break,"""","""","""","""","""","""","""","""","""","""","""","""",3/22/2021 19:57,71.86.185.24,Mozilla/5.0 (Windows NT 10.0; Win64; x64; rv:86.0) Gecko/20100101 Firefox/86.0,,Firefox,86,Windows,10
5,1,39493,"""",image-button-response,2,69814,0.0-2.0,directionsMemoryAssociation2.JPG,0,1,IntroDirections2,break,"""","""","""","""","""","""","""","""","""","""","""","""",3/22/2021 19:57,71.86.185.24,Mozilla/5.0 (Windows NT 10.0; Win64; x64; rv:86.0) Gecko/20100101 Firefox/86.0,,Firefox,86,Windows,10
5,1,4814,"""",html-keyboard-response,3,74835,0.0-3.0,"<img src='jspsych/CFDfaces/CFD-LF-243-175-N.jpg' height=""250px"">,</br><b>Cassandra</b>","""",1,IntactFace,Practice,70,5000,f,"""","""","""","""","""","""","""","""","""",3/22/2021 19:57,71.86.185.24,Mozilla/5.0 (Windows NT 10.0; Win64; x64; rv:86.0) Gecko/20100101 Firefox/86.0,,Firefox,86,Windows,10
5,1,null,"""",html-keyboard-response,4,75350,0.0-4.0,"<div style=""font-size:60px;"">+</div>","""",1,ITI,Practice,null,1000,"""","""","""","""","""","""","""","""","""","""",3/22/2021 19:57,71.86.185.24,Mozilla/5.0 (Windows NT 10.0; Win64; x64; rv:86.0) Gecko/20100101 Firefox/86.0,,Firefox,86,Windows,10
5,1,1632,"""",html-keyboard-response,5,80377,0.0-5.0,"<img src='jspsych/CFDfaces/CFD-BM-039-029-N.jpg' height=""250px"">,</br><b>Carlos</b>","""",2,IntactFace,Practice,78,5000,n,"""","""","""","""","""","""","""","""","""",3/22/2021 19:57,71.86.185.24,Mozilla/5.0 (Windows NT 10.0; Win64; x64; rv:86.0) Gecko/20100101 Firefox/86.0,,Firefox,86,Windows,10
5,1,null,"""",html-keyboard-response,6,80898,0.0-6.0,"<div style=""font-size:60px;"">+</div>","""",2,ITI,Practice,null,1000,"""","""","""","""","""","""","""","""","""","""",3/22/2021 19:57,71.86.185.24,Mozilla/5.0 (Windows NT 10.0; Win64; x64; rv:86.0) Gecko/20100101 Firefox/86.0,,Firefox,86,Windows,10
5,1,2883,"""",html-keyboard-response,7,85918,0.0-7.0,"<img src='jspsych/CFDfaces/CFD-LM-221-216-N.jpg' height=""250px"">,</br><b>Samuel</b>","""",3,IntactFace,Practice,70,5000,f,"""","""","""","""","""","""","""","""","""",3/22/2021 19:57,71.86.185.24,Mozilla/5.0 (Windows NT 10.0; Win64; x64; rv:86.0) Gecko/20100101 Firefox/86.0,,Firefox,86,Windows,10
5,1,null,"""",html-keyboard-response,8,86439,0.0-8.0,"<div style=""font-size:60px;"">+</div>","""",3,ITI,Practice,null,1000,"""","""","""","""","""","""","""","""","""","""",3/22/2021 19:57,71.86.185.24,Mozilla/5.0 (Windows NT 10.0; Win64; x64; rv:86.0) Gecko/20100101 Firefox/86.0,,Firefox,86,Windows,10
5,1,2191,"""",html-keyboard-response,9,91459,0.0-9.0,"<img src='jspsych/CFDfaces/CFD-WM-017-002-N.jpg' height=""250px"">,</br><b>Marcus</b>","""",4,IntactFace,Practice,78,5000,n,"""","""","""","""","""","""","""","""","""",3/22/2021 19:57,71.86.185.24,Mozilla/5.0 (Windows NT 10.0; Win64; x64; rv:86.0) Gecko/20100101 Firefox/86.0,,Firefox,86,Windows,10
5,1,null,"""",html-keyboard-response,10,91969,0.0-10.0,"<div style=""font-size:60px;"">+</div>","""",4,ITI,Practice,null,1000,"""","""","""","""","""","""","""","""","""","""",3/22/2021 19:57,71.86.185.24,Mozilla/5.0 (Windows NT 10.0; Win64; x64; rv:86.0) Gecko/20100101 Firefox/86.0,,Firefox,86,Windows,10
5,1,1987,"""",html-keyboard-response,11,96978,0.0-11.0,"<img src='jspsych/CFDfaces/CFD-BM-002-013-N.jpg' height=""250px"">,</br><b>Patrick</b>","""",5,IntactFace,Practice,70,5000,f,"""","""","""","""","""","""","""","""","""",3/22/2021 19:57,71.86.185.24,Mozilla/5.0 (Windows NT 10.0; Win64; x64; rv:86.0) Gecko/20100101 Firefox/86.0,,Firefox,86,Windows,10
5,1,null,"""",html-keyboard-response,12,97498,0.0-12.0,"<div style=""font-size:60px;"">+</div>","""",5,ITI,Practice,null,1000,"""","""","""","""","""","""","""","""","""","""",3/22/2021 19:57,71.86.185.24,Mozilla/5.0 (Windows NT 10.0; Win64; x64; rv:86.0) Gecko/20100101 Firefox/86.0,,Firefox,86,Windows,10
5,1,1667,"""",html-keyboard-response,13,102519,0.0-13.0,"<img src='jspsych/CFDfaces/CFD-WF-202-056-N.jpg' height=""250px"">,</br><b>Tara</b>","""",6,IntactFace,Practice,70,5000,f,"""","""","""","""","""","""","""","""","""",3/22/2021 19:57,71.86.185.24,Mozilla/5.0 (Windows NT 10.0; Win64; x64; rv:86.0) Gecko/20100101 Firefox/86.0,,Firefox,86,Windows,10
5,1,null,"""",html-keyboard-response,14,103028,0.0-14.0,"<div style=""font-size:60px;"">+</div>","""",6,ITI,Practice,null,1000,"""","""","""","""","""","""","""","""","""","""",3/22/2021 19:57,71.86.185.24,Mozilla/5.0 (Windows NT 10.0; Win64; x64; rv:86.0) Gecko/20100101 Firefox/86.0,,Firefox,86,Windows,10
5,1,1845,"""",html-keyboard-response,15,108038,0.0-15.0,"<img src='jspsych/CFDfaces/CFD-LF-206-078-N.jpg' height=""250px"">,</br><b>Katelyn</b>","""",7,IntactFace,Practice,70,5000,f,"""","""","""","""","""","""","""","""","""",3/22/2021 19:57,71.86.185.24,Mozilla/5.0 (Windows NT 10.0; Win64; x64; rv:86.0) Gecko/20100101 Firefox/86.0,,Firefox,86,Windows,10
5,1,null,"""",html-keyboard-response,16,108558,0.0-16.0,"<div style=""font-size:60px;"">+</div>","""",7,ITI,Practice,null,1000,"""","""","""","""","""","""","""","""","""","""",3/22/2021 19:57,71.86.185.24,Mozilla/5.0 (Windows NT 10.0; Win64; x64; rv:86.0) Gecko/20100101 Firefox/86.0,,Firefox,86,Windows,10
5,1,3074,"""",html-keyboard-response,17,113568,0.0-17.0,"<img src='jspsych/CFDfaces/CFD-LF-201-035-N.jpg' height=""250px"">,</br><b>Shannon</b>","""",8,IntactFace,Practice,78,5000,n,"""","""","""","""","""","""","""","""","""",3/22/2021 19:57,71.86.185.24,Mozilla/5.0 (Windows NT 10.0; Win64; x64; rv:86.0) Gecko/20100101 Firefox/86.0,,Firefox,86,Windows,10
5,1,null,"""",html-keyboard-response,18,114088,0.0-18.0,"<div style=""font-size:60px;"">+</div>","""",8,ITI,Practice,null,1000,"""","""","""","""","""","""","""","""","""","""",3/22/2021 19:57,71.86.185.24,Mozilla/5.0 (Windows NT 10.0; Win64; x64; rv:86.0) Gecko/20100101 Firefox/86.0,,Firefox,86,Windows,10
5,1,25888,"""",image-button-response,19,140000,0.0-19.0,directionsForTest.JPG,0,1,directionsForTest,break,"""","""","""","""","""","""","""","""","""","""","""","""",3/22/2021 19:57,71.86.185.24,Mozilla/5.0 (Windows NT 10.0; Win64; x64; rv:86.0) Gecko/20100101 Firefox/86.0,,Firefox,86,Windows,10
5,1,3982,"""",image-button-response,20,144004,0.0-20.0,directionsForTest2.JPG,0,1,directionsForTest2,break,"""","""","""","""","""","""","""","""","""","""","""","""",3/22/2021 19:57,71.86.185.24,Mozilla/5.0 (Windows NT 10.0; Win64; x64; rv:86.0) Gecko/20100101 Firefox/86.0,,Firefox,86,Windows,10
5,1,null,"""",html-keyboard-response,21,145027,0.0-21.0,"<div style=""font-size:60px;"">+</div>","""",1,ITI,Practice,null,1000,"""","""","""","""","""","""","""","""","""","""",3/22/2021 19:57,71.86.185.24,Mozilla/5.0 (Windows NT 10.0; Win64; x64; rv:86.0) Gecko/20100101 Firefox/86.0,,Firefox,86,Windows,10
5,1,null,"""",image-keyboard-response,22,145287,0.0-22.0,jspsych/scrambledDisgustFaces/scrambledAM21DIS.JPG,"""",1,forwardMask,Practice,null,250,"""",d,"""","""","""","""","""","""","""","""",3/22/2021 19:57,71.86.185.24,Mozilla/5.0 (Windows NT 10.0; Win64; x64; rv:86.0) Gecko/20100101 Firefox/86.0,,Firefox,86,Windows,10
5,1,null,"""",image-keyboard-response,23,145317,0.0-23.0,jspsych/disgustFaces/AM21DIS.JPG,"""",1,Cue,Practice,null,16,"""","""","""","""","""","""","""","""","""","""",3/22/2021 19:57,71.86.185.24,Mozilla/5.0 (Windows NT 10.0; Win64; x64; rv:86.0) Gecko/20100101 Firefox/86.0,,Firefox,86,Windows,10
5,1,null,"""",image-keyboard-response,24,145437,0.0-24.0,jspsych/neutralFaces/BM26NES.JPG,"""",1,backwardMask,Practice,null,100,"""","""","""","""","""","""","""","""","""","""",3/22/2021 19:57,71.86.185.24,Mozilla/5.0 (Windows NT 10.0; Win64; x64; rv:86.0) Gecko/20100101 Firefox/86.0,,Firefox,86,Windows,10
5,1,null,"""",html-keyboard-response,25,146440,0.0-25.0,"<div style=""font-size:60px;"">+</div>","""",1,fixationBtwnNeutralMaskAndPrompt,Practice,null,1000,"""","""","""","""","""","""","""","""","""","""",3/22/2021 19:57,71.86.185.24,Mozilla/5.0 (Windows NT 10.0; Win64; x64; rv:86.0) Gecko/20100101 Firefox/86.0,,Firefox,86,Windows,10
5,1,4327,"""",html-button-response,26,150772,0.0-26.0,"<img src='jspsych/CFDfaces/CFD-LF-206-078-N.jpg'height=""250px""></br><b>Cassandra</b>",1,1,IntactOrRearranged,Practice,"""","""","""","""",CFD-LF-206-078-N.jpg,Cassandra,1,1,"""","""","""","""",3/22/2021 19:57,71.86.185.24,Mozilla/5.0 (Windows NT 10.0; Win64; x64; rv:86.0) Gecko/20100101 Firefox/86.0,,Firefox,86,Windows,10
5,1,2534,"""",html-slider-response,27,153323,0.0-27.0,"<img src='jspsych/CFDfaces/CFD-LF-206-078-N.jpg'height=""250px""></br><b>Cassandra</b>","""",1,ConfidenceQuery,Practice,"""","""","""","""",CFD-WM-216-061-N.jpg,Dustin,1,"""",0,63,"""","""",3/22/2021 19:57,71.86.185.24,Mozilla/5.0 (Windows NT 10.0; Win64; x64; rv:86.0) Gecko/20100101 Firefox/86.0,,Firefox,86,Windows,10
5,1,1914,"""",html-button-response,28,155243,0.0-28.0,You are Correct. You Called A Rearranged Pair Rearranged,0,1,feedback,Practice,"""","""","""","""","""","""","""","""","""","""","""","""",3/22/2021 19:57,71.86.185.24,Mozilla/5.0 (Windows NT 10.0; Win64; x64; rv:86.0) Gecko/20100101 Firefox/86.0,,Firefox,86,Windows,10
5,1,null,"""",html-keyboard-response,29,156257,0.0-29.0,"<div style=""font-size:60px;"">+</div>","""",2,ITI,Practice,null,1000,"""","""","""","""","""","""","""","""","""","""",3/22/2021 19:57,71.86.185.24,Mozilla/5.0 (Windows NT 10.0; Win64; x64; rv:86.0) Gecko/20100101 Firefox/86.0,,Firefox,86,Windows,10
5,1,null,"""",image-keyboard-response,30,156514,0.0-30.0,jspsych/scrambledNeutralFaces/scrambledAF10NES.JPG,"""",2,forwardMask,Practice,null,250,"""",n,"""","""","""","""","""","""","""","""",3/22/2021 19:57,71.86.185.24,Mozilla/5.0 (Windows NT 10.0; Win64; x64; rv:86.0) Gecko/20100101 Firefox/86.0,,Firefox,86,Windows,10
5,1,null,"""",image-keyboard-response,31,156538,0.0-31.0,jspsych/neutralFaces/AF10NES.JPG,"""",2,Cue,Practice,null,16,"""","""","""","""","""","""","""","""","""","""",3/22/2021 19:57,71.86.185.24,Mozilla/5.0 (Windows NT 10.0; Win64; x64; rv:86.0) Gecko/20100101 Firefox/86.0,,Firefox,86,Windows,10
5,1,null,"""",image-keyboard-response,32,156657,0.0-32.0,jspsych/neutralFaces/BF30NES.JPG,"""",2,backwardMask,Practice,null,100,"""","""","""","""","""","""","""","""","""","""",3/22/2021 19:57,71.86.185.24,Mozilla/5.0 (Windows NT 10.0; Win64; x64; rv:86.0) Gecko/20100101 Firefox/86.0,,Firefox,86,Windows,10
5,1,null,"""",html-keyboard-response,33,157678,0.0-33.0,"<div style=""font-size:60px;"">+</div>","""",2,fixationBtwnNeutralMaskAndPrompt,Practice,null,1000,"""","""","""","""","""","""","""","""","""","""",3/22/2021 19:57,71.86.185.24,Mozilla/5.0 (Windows NT 10.0; Win64; x64; rv:86.0) Gecko/20100101 Firefox/86.0,,Firefox,86,Windows,10
5,1,2886,"""",html-button-response,34,160568,0.0-34.0,"<img src='jspsych/CFDfaces/CFD-WF-202-056-N.jpg'height=""250px""></br><b>Tara</b>",1,2,IntactOrRearranged,Practice,"""","""","""","""",CFD-WF-202-056-N.jpg,Tara,0,1,"""","""","""","""",3/22/2021 19:57,71.86.185.24,Mozilla/5.0 (Windows NT 10.0; Win64; x64; rv:86.0) Gecko/20100101 Firefox/86.0,,Firefox,86,Windows,10
5,1,1925,"""",html-slider-response,35,162508,0.0-35.0,"<img src='jspsych/CFDfaces/CFD-WF-202-056-N.jpg'height=""250px""></br><b>Tara</b>","""",2,ConfidenceQuery,Practice,"""","""","""","""",CFD-WM-216-061-N.jpg,Dustin,0,"""",0,78,"""","""",3/22/2021 19:57,71.86.185.24,Mozilla/5.0 (Windows NT 10.0; Win64; x64; rv:86.0) Gecko/20100101 Firefox/86.0,,Firefox,86,Windows,10
5,1,1333,"""",html-button-response,36,163843,0.0-36.0,You are Incorrect. You Called an Intact Pair Rearranged,0,2,feedback,Practice,"""","""","""","""","""","""","""","""","""","""","""","""",3/22/2021 19:57,71.86.185.24,Mozilla/5.0 (Windows NT 10.0; Win64; x64; rv:86.0) Gecko/20100101 Firefox/86.0,,Firefox,86,Windows,10
5,1,null,"""",html-keyboard-response,37,164864,0.0-37.0,"<div style=""font-size:60px;"">+</div>","""",3,ITI,Practice,null,1000,"""","""","""","""","""","""","""","""","""","""",3/22/2021 19:57,71.86.185.24,Mozilla/5.0 (Windows NT 10.0; Win64; x64; rv:86.0) Gecko/20100101 Firefox/86.0,,Firefox,86,Windows,10
5,1,null,"""",image-keyboard-response,38,165122,0.0-38.0,jspsych/scrambledDisgustFaces/scrambledAM07DIS.JPG,"""",3,forwardMask,Practice,null,250,"""",d,"""","""","""","""","""","""","""","""",3/22/2021 19:57,71.86.185.24,Mozilla/5.0 (Windows NT 10.0; Win64; x64; rv:86.0) Gecko/20100101 Firefox/86.0,,Firefox,86,Windows,10
5,1,null,"""",image-keyboard-response,39,165157,0.0-39.0,jspsych/disgustFaces/AM07DIS.JPG,"""",3,Cue,Practice,null,16,"""","""","""","""","""","""","""","""","""","""",3/22/2021 19:57,71.86.185.24,Mozilla/5.0 (Windows NT 10.0; Win64; x64; rv:86.0) Gecko/20100101 Firefox/86.0,,Firefox,86,Windows,10
5,1,null,"""",image-keyboard-response,40,165277,0.0-40.0,jspsych/neutralFaces/BM27NES.JPG,"""",3,backwardMask,Practice,null,100,"""","""","""","""","""","""","""","""","""","""",3/22/2021 19:57,71.86.185.24,Mozilla/5.0 (Windows NT 10.0; Win64; x64; rv:86.0) Gecko/20100101 Firefox/86.0,,Firefox,86,Windows,10
5,1,null,"""",html-keyboard-response,41,166279,0.0-41.0,"<div style=""font-size:60px;"">+</div>","""",3,fixationBtwnNeutralMaskAndPrompt,Practice,null,1000,"""","""","""","""","""","""","""","""","""","""",3/22/2021 19:57,71.86.185.24,Mozilla/5.0 (Windows NT 10.0; Win64; x64; rv:86.0) Gecko/20100101 Firefox/86.0,,Firefox,86,Windows,10
5,1,1341,"""",html-button-response,42,167623,0.0-42.0,"<img src='jspsych/CFDfaces/CFD-LF-243-175-N.jpg'height=""250px""></br><b>Katelyn</b>",0,3,IntactOrRearranged,Practice,"""","""","""","""",CFD-LF-243-175-N.jpg,Katelyn,1,0,"""","""","""","""",3/22/2021 19:57,71.86.185.24,Mozilla/5.0 (Windows NT 10.0; Win64; x64; rv:86.0) Gecko/20100101 Firefox/86.0,,Firefox,86,Windows,10
5,1,1629,"""",html-slider-response,43,169263,0.0-43.0,"<img src='jspsych/CFDfaces/CFD-LF-243-175-N.jpg'height=""250px""></br><b>Katelyn</b>","""",3,ConfidenceQuery,Practice,"""","""","""","""",CFD-WM-216-061-N.jpg,Dustin,1,"""",0,41,"""","""",3/22/2021 19:57,71.86.185.24,Mozilla/5.0 (Windows NT 10.0; Win64; x64; rv:86.0) Gecko/20100101 Firefox/86.0,,Firefox,86,Windows,10
5,1,1216,"""",html-button-response,44,170481,0.0-44.0,You are Incorrect. You called a Rearranged Pair Intact,0,3,feedback,Practice,"""","""","""","""","""","""","""","""","""","""","""","""",3/22/2021 19:57,71.86.185.24,Mozilla/5.0 (Windows NT 10.0; Win64; x64; rv:86.0) Gecko/20100101 Firefox/86.0,,Firefox,86,Windows,10
5,1,null,"""",html-keyboard-response,45,171497,0.0-45.0,"<div style=""font-size:60px;"">+</div>","""",4,ITI,Practice,null,1000,"""","""","""","""","""","""","""","""","""","""",3/22/2021 19:57,71.86.185.24,Mozilla/5.0 (Windows NT 10.0; Win64; x64; rv:86.0) Gecko/20100101 Firefox/86.0,,Firefox,86,Windows,10
5,1,null,"""",image-keyboard-response,46,171758,0.0-46.0,jspsych/scrambledNeutralFaces/scrambledBF19NES.JPG,"""",4,forwardMask,Practice,null,250,"""",n,"""","""","""","""","""","""","""","""",3/22/2021 19:57,71.86.185.24,Mozilla/5.0 (Windows NT 10.0; Win64; x64; rv:86.0) Gecko/20100101 Firefox/86.0,,Firefox,86,Windows,10
5,1,null,"""",image-keyboard-response,47,171798,0.0-47.0,jspsych/neutralFaces/BF19NES.JPG,"""",4,Cue,Practice,null,16,"""","""","""","""","""","""","""","""","""","""",3/22/2021 19:57,71.86.185.24,Mozilla/5.0 (Windows NT 10.0; Win64; x64; rv:86.0) Gecko/20100101 Firefox/86.0,,Firefox,86,Windows,10
5,1,null,"""",image-keyboard-response,48,171917,0.0-48.0,jspsych/neutralFaces/BF18NES.JPG,"""",4,backwardMask,Practice,null,100,"""","""","""","""","""","""","""","""","""","""",3/22/2021 19:57,71.86.185.24,Mozilla/5.0 (Windows NT 10.0; Win64; x64; rv:86.0) Gecko/20100101 Firefox/86.0,,Firefox,86,Windows,10
5,1,null,"""",html-keyboard-response,49,172937,0.0-49.0,"<div style=""font-size:60px;"">+</div>","""",4,fixationBtwnNeutralMaskAndPrompt,Practice,null,1000,"""","""","""","""","""","""","""","""","""","""",3/22/2021 19:57,71.86.185.24,Mozilla/5.0 (Windows NT 10.0; Win64; x64; rv:86.0) Gecko/20100101 Firefox/86.0,,Firefox,86,Windows,10
5,1,1590,"""",html-button-response,50,174531,0.0-50.0,"<img src='jspsych/CFDfaces/CFD-BM-002-013-N.jpg'height=""250px""></br><b>Patrick</b>",0,4,IntactOrRearranged,Practice,"""","""","""","""",CFD-BM-002-013-N.jpg,Patrick,0,0,"""","""","""","""",3/22/2021 19:57,71.86.185.24,Mozilla/5.0 (Windows NT 10.0; Win64; x64; rv:86.0) Gecko/20100101 Firefox/86.0,,Firefox,86,Windows,10
5,1,1929,"""",html-slider-response,51,176472,0.0-51.0,"<img src='jspsych/CFDfaces/CFD-BM-002-013-N.jpg'height=""250px""></br><b>Patrick</b>","""",4,ConfidenceQuery,Practice,"""","""","""","""",CFD-WM-216-061-N.jpg,Dustin,0,"""",0,100,"""","""",3/22/2021 19:57,71.86.185.24,Mozilla/5.0 (Windows NT 10.0; Win64; x64; rv:86.0) Gecko/20100101 Firefox/86.0,,Firefox,86,Windows,10
5,1,1127,"""",html-button-response,52,177602,0.0-52.0,You are Correct. You called an Intact Pair Intact,0,4,feedback,Practice,"""","""","""","""","""","""","""","""","""","""","""","""",3/22/2021 19:57,71.86.185.24,Mozilla/5.0 (Windows NT 10.0; Win64; x64; rv:86.0) Gecko/20100101 Firefox/86.0,,Firefox,86,Windows,10
5,1,null,"""",html-keyboard-response,53,178627,0.0-53.0,"<div style=""font-size:60px;"">+</div>","""",5,ITI,Practice,null,1000,"""","""","""","""","""","""","""","""","""","""",3/22/2021 19:57,71.86.185.24,Mozilla/5.0 (Windows NT 10.0; Win64; x64; rv:86.0) Gecko/20100101 Firefox/86.0,,Firefox,86,Windows,10
5,1,null,"""",image-keyboard-response,54,178887,0.0-54.0,jspsych/scrambledDisgustFaces/scrambledAM16DIS.JPG,"""",5,forwardMask,Practice,null,250,"""",d,"""","""","""","""","""","""","""","""",3/22/2021 19:57,71.86.185.24,Mozilla/5.0 (Windows NT 10.0; Win64; x64; rv:86.0) Gecko/20100101 Firefox/86.0,,Firefox,86,Windows,10
5,1,null,"""",image-keyboard-response,55,178928,0.0-55.0,jspsych/disgustFaces/AM16DIS.JPG,"""",5,Cue,Practice,null,16,"""","""","""","""","""","""","""","""","""","""",3/22/2021 19:57,71.86.185.24,Mozilla/5.0 (Windows NT 10.0; Win64; x64; rv:86.0) Gecko/20100101 Firefox/86.0,,Firefox,86,Windows,10
5,1,null,"""",image-keyboard-response,56,179047,0.0-56.0,jspsych/neutralFaces/BM16NES.JPG,"""",5,backwardMask,Practice,null,100,"""","""","""","""","""","""","""","""","""","""",3/22/2021 19:57,71.86.185.24,Mozilla/5.0 (Windows NT 10.0; Win64; x64; rv:86.0) Gecko/20100101 Firefox/86.0,,Firefox,86,Windows,10
5,1,null,"""",html-keyboard-response,57,180067,0.0-57.0,"<div style=""font-size:60px;"">+</div>","""",5,fixationBtwnNeutralMaskAndPrompt,Practice,null,1000,"""","""","""","""","""","""","""","""","""","""",3/22/2021 19:57,71.86.185.24,Mozilla/5.0 (Windows NT 10.0; Win64; x64; rv:86.0) Gecko/20100101 Firefox/86.0,,Firefox,86,Windows,10
5,1,2182,"""",html-button-response,58,182252,0.0-58.0,"<img src='jspsych/CFDfaces/CFD-LF-201-035-N.jpg'height=""250px""></br><b>Shannon</b>",0,5,IntactOrRearranged,Practice,"""","""","""","""",CFD-LF-201-035-N.jpg,Shannon,0,0,"""","""","""","""",3/22/2021 19:57,71.86.185.24,Mozilla/5.0 (Windows NT 10.0; Win64; x64; rv:86.0) Gecko/20100101 Firefox/86.0,,Firefox,86,Windows,10
5,1,1608,"""",html-slider-response,59,183873,0.0-59.0,"<img src='jspsych/CFDfaces/CFD-LF-201-035-N.jpg'height=""250px""></br><b>Shannon</b>","""",5,ConfidenceQuery,Practice,"""","""","""","""",CFD-WM-216-061-N.jpg,Dustin,0,"""",0,63,"""","""",3/22/2021 19:57,71.86.185.24,Mozilla/5.0 (Windows NT 10.0; Win64; x64; rv:86.0) Gecko/20100101 Firefox/86.0,,Firefox,86,Windows,10
5,1,1068,"""",html-button-response,60,184945,0.0-60.0,You are Correct. You called an Intact Pair Intact,0,5,feedback,Practice,"""","""","""","""","""","""","""","""","""","""","""","""",3/22/2021 19:57,71.86.185.24,Mozilla/5.0 (Windows NT 10.0; Win64; x64; rv:86.0) Gecko/20100101 Firefox/86.0,,Firefox,86,Windows,10
5,1,null,"""",html-keyboard-response,61,185967,0.0-61.0,"<div style=""font-size:60px;"">+</div>","""",6,ITI,Practice,null,1000,"""","""","""","""","""","""","""","""","""","""",3/22/2021 19:57,71.86.185.24,Mozilla/5.0 (Windows NT 10.0; Win64; x64; rv:86.0) Gecko/20100101 Firefox/86.0,,Firefox,86,Windows,10
5,1,null,"""",image-keyboard-response,62,186228,0.0-62.0,jspsych/scrambledDisgustFaces/scrambledAM30DIS.JPG,"""",6,forwardMask,Practice,null,250,"""",d,"""","""","""","""","""","""","""","""",3/22/2021 19:57,71.86.185.24,Mozilla/5.0 (Windows NT 10.0; Win64; x64; rv:86.0) Gecko/20100101 Firefox/86.0,,Firefox,86,Windows,10
5,1,null,"""",image-keyboard-response,63,186252,0.0-63.0,jspsych/disgustFaces/AM30DIS.JPG,"""",6,Cue,Practice,null,16,"""","""","""","""","""","""","""","""","""","""",3/22/2021 19:57,71.86.185.24,Mozilla/5.0 (Windows NT 10.0; Win64; x64; rv:86.0) Gecko/20100101 Firefox/86.0,,Firefox,86,Windows,10
5,1,null,"""",image-keyboard-response,64,186359,0.0-64.0,jspsych/neutralFaces/AM25NES.JPG,"""",6,backwardMask,Practice,null,100,"""","""","""","""","""","""","""","""","""","""",3/22/2021 19:57,71.86.185.24,Mozilla/5.0 (Windows NT 10.0; Win64; x64; rv:86.0) Gecko/20100101 Firefox/86.0,,Firefox,86,Windows,10
5,1,null,"""",html-keyboard-response,65,187367,0.0-65.0,"<div style=""font-size:60px;"">+</div>","""",6,fixationBtwnNeutralMaskAndPrompt,Practice,null,1000,"""","""","""","""","""","""","""","""","""","""",3/22/2021 19:57,71.86.185.24,Mozilla/5.0 (Windows NT 10.0; Win64; x64; rv:86.0) Gecko/20100101 Firefox/86.0,,Firefox,86,Windows,10
5,1,null,"""",html-button-response,66,192372,0.0-66.0,"<img src='jspsych/CFDfaces/CFD-LM-221-216-N.jpg'height=""250px""></br><b>Samuel</b>",null,6,IntactOrRearranged,Practice,"""","""","""","""",CFD-LM-221-216-N.jpg,Samuel,0,"""","""","""","""","""",3/22/2021 19:57,71.86.185.24,Mozilla/5.0 (Windows NT 10.0; Win64; x64; rv:86.0) Gecko/20100101 Firefox/86.0,,Firefox,86,Windows,10
5,1,2118,"""",html-slider-response,67,194506,0.0-67.0,"<img src='jspsych/CFDfaces/CFD-LM-221-216-N.jpg'height=""250px""></br><b>Samuel</b>","""",6,ConfidenceQuery,Practice,"""","""","""","""",CFD-WM-216-061-N.jpg,Dustin,0,"""",0,33,"""","""",3/22/2021 19:57,71.86.185.24,Mozilla/5.0 (Windows NT 10.0; Win64; x64; rv:86.0) Gecko/20100101 Firefox/86.0,,Firefox,86,Windows,10
5,1,3670,"""",html-button-response,68,198181,0.0-68.0,<p>Please click either button: REARRANGED or INTACT before the 5-second time limit.</p>,0,6,feedback,Practice,"""","""","""","""","""","""","""","""","""","""","""","""",3/22/2021 19:57,71.86.185.24,Mozilla/5.0 (Windows NT 10.0; Win64; x64; rv:86.0) Gecko/20100101 Firefox/86.0,,Firefox,86,Windows,10
5,1,null,"""",html-keyboard-response,69,199207,0.0-69.0,"<div style=""font-size:60px;"">+</div>","""",7,ITI,Practice,null,1000,"""","""","""","""","""","""","""","""","""","""",3/22/2021 19:57,71.86.185.24,Mozilla/5.0 (Windows NT 10.0; Win64; x64; rv:86.0) Gecko/20100101 Firefox/86.0,,Firefox,86,Windows,10
5,1,null,"""",image-keyboard-response,70,199463,0.0-70.0,jspsych/scrambledNeutralFaces/scrambledBM27NES.JPG,"""",7,forwardMask,Practice,null,250,"""",n,"""","""","""","""","""","""","""","""",3/22/2021 19:57,71.86.185.24,Mozilla/5.0 (Windows NT 10.0; Win64; x64; rv:86.0) Gecko/20100101 Firefox/86.0,,Firefox,86,Windows,10
5,1,null,"""",image-keyboard-response,71,199487,0.0-71.0,jspsych/neutralFaces/BM27NES.JPG,"""",7,Cue,Practice,null,16,"""","""","""","""","""","""","""","""","""","""",3/22/2021 19:57,71.86.185.24,Mozilla/5.0 (Windows NT 10.0; Win64; x64; rv:86.0) Gecko/20100101 Firefox/86.0,,Firefox,86,Windows,10
5,1,null,"""",image-keyboard-response,72,199607,0.0-72.0,jspsych/neutralFaces/AM07NES.JPG,"""",7,backwardMask,Practice,null,100,"""","""","""","""","""","""","""","""","""","""",3/22/2021 19:57,71.86.185.24,Mozilla/5.0 (Windows NT 10.0; Win64; x64; rv:86.0) Gecko/20100101 Firefox/86.0,,Firefox,86,Windows,10
5,1,null,"""",html-keyboard-response,73,200627,0.0-73.0,"<div style=""font-size:60px;"">+</div>","""",7,fixationBtwnNeutralMaskAndPrompt,Practice,null,1000,"""","""","""","""","""","""","""","""","""","""",3/22/2021 19:57,71.86.185.24,Mozilla/5.0 (Windows NT 10.0; Win64; x64; rv:86.0) Gecko/20100101 Firefox/86.0,,Firefox,86,Windows,10
5,1,1861,"""",html-button-response,74,202492,0.0-74.0,"<img src='jspsych/CFDfaces/CFD-BM-039-029-N.jpg'height=""250px""></br><b>Marcus</b>",1,7,IntactOrRearranged,Practice,"""","""","""","""",CFD-BM-039-029-N.jpg,Marcus,1,1,"""","""","""","""",3/22/2021 19:57,71.86.185.24,Mozilla/5.0 (Windows NT 10.0; Win64; x64; rv:86.0) Gecko/20100101 Firefox/86.0,,Firefox,86,Windows,10
5,1,1784,"""",html-slider-response,75,204287,0.0-75.0,"<img src='jspsych/CFDfaces/CFD-BM-039-029-N.jpg'height=""250px""></br><b>Marcus</b>","""",7,ConfidenceQuery,Practice,"""","""","""","""",CFD-WM-216-061-N.jpg,Dustin,1,"""",0,100,"""","""",3/22/2021 19:57,71.86.185.24,Mozilla/5.0 (Windows NT 10.0; Win64; x64; rv:86.0) Gecko/20100101 Firefox/86.0,,Firefox,86,Windows,10
5,1,990,"""",html-button-response,76,205281,0.0-76.0,You are Correct. You Called A Rearranged Pair Rearranged,0,7,feedback,Practice,"""","""","""","""","""","""","""","""","""","""","""","""",3/22/2021 19:57,71.86.185.24,Mozilla/5.0 (Windows NT 10.0; Win64; x64; rv:86.0) Gecko/20100101 Firefox/86.0,,Firefox,86,Windows,10
5,1,null,"""",html-keyboard-response,77,206307,0.0-77.0,"<div style=""font-size:60px;"">+</div>","""",8,ITI,Practice,null,1000,"""","""","""","""","""","""","""","""","""","""",3/22/2021 19:57,71.86.185.24,Mozilla/5.0 (Windows NT 10.0; Win64; x64; rv:86.0) Gecko/20100101 Firefox/86.0,,Firefox,86,Windows,10
5,1,null,"""",image-keyboard-response,78,206565,0.0-78.0,jspsych/scrambledNeutralFaces/scrambledAM31NES.JPG,"""",8,forwardMask,Practice,null,250,"""",n,"""","""","""","""","""","""","""","""",3/22/2021 19:57,71.86.185.24,Mozilla/5.0 (Windows NT 10.0; Win64; x64; rv:86.0) Gecko/20100101 Firefox/86.0,,Firefox,86,Windows,10
5,1,null,"""",image-keyboard-response,79,206607,0.0-79.0,jspsych/neutralFaces/AM31NES.JPG,"""",8,Cue,Practice,null,16,"""","""","""","""","""","""","""","""","""","""",3/22/2021 19:57,71.86.185.24,Mozilla/5.0 (Windows NT 10.0; Win64; x64; rv:86.0) Gecko/20100101 Firefox/86.0,,Firefox,86,Windows,10
5,1,null,"""",image-keyboard-response,80,206727,0.0-80.0,jspsych/neutralFaces/AM17NES.JPG,"""",8,backwardMask,Practice,null,100,"""","""","""","""","""","""","""","""","""","""",3/22/2021 19:57,71.86.185.24,Mozilla/5.0 (Windows NT 10.0; Win64; x64; rv:86.0) Gecko/20100101 Firefox/86.0,,Firefox,86,Windows,10
5,1,null,"""",html-keyboard-response,81,207729,0.0-81.0,"<div style=""font-size:60px;"">+</div>","""",8,fixationBtwnNeutralMaskAndPrompt,Practice,null,1000,"""","""","""","""","""","""","""","""","""","""",3/22/2021 19:57,71.86.185.24,Mozilla/5.0 (Windows NT 10.0; Win64; x64; rv:86.0) Gecko/20100101 Firefox/86.0,,Firefox,86,Windows,10
5,1,2081,"""",html-button-response,82,209812,0.0-82.0,"<img src='jspsych/CFDfaces/CFD-WM-017-002-N.jpg'height=""250px""></br><b>Carlos</b>",1,8,IntactOrRearranged,Practice,"""","""","""","""",CFD-WM-017-002-N.jpg,Carlos,1,1,"""","""","""","""",3/22/2021 19:57,71.86.185.24,Mozilla/5.0 (Windows NT 10.0; Win64; x64; rv:86.0) Gecko/20100101 Firefox/86.0,,Firefox,86,Windows,10
5,1,2525,"""",html-slider-response,83,212355,0.0-83.0,"<img src='jspsych/CFDfaces/CFD-WM-017-002-N.jpg'height=""250px""></br><b>Carlos</b>","""",8,ConfidenceQuery,Practice,"""","""","""","""",CFD-WM-216-061-N.jpg,Dustin,1,"""",0,77,"""","""",3/22/2021 19:57,71.86.185.24,Mozilla/5.0 (Windows NT 10.0; Win64; x64; rv:86.0) Gecko/20100101 Firefox/86.0,,Firefox,86,Windows,10
5,1,959,"""",html-button-response,84,213346,0.0-84.0,You are Correct. You Called A Rearranged Pair Rearranged,0,8,feedback,Practice,"""","""","""","""","""","""","""","""","""","""","""","""",3/22/2021 19:57,71.86.185.24,Mozilla/5.0 (Windows NT 10.0; Win64; x64; rv:86.0) Gecko/20100101 Firefox/86.0,,Firefox,86,Windows,10
5,1,28172,"""",image-button-response,85,241572,0.0-85.0,directionsMemoryAssociation3.JPG,0,128,DirectionsBeforeActualTEst,Break,"""","""","""","""","""","""","""","""","""","""","""","""",3/22/2021 19:57,71.86.185.24,Mozilla/5.0 (Windows NT 10.0; Win64; x64; rv:86.0) Gecko/20100101 Firefox/86.0,,Firefox,86,Windows,10
5,1,33014,"""",image-button-response,86,274599,0.0-86.0,directionsForTest2.JPG,0,1,directionsForTest2,break,"""","""","""","""","""","""","""","""","""","""","""","""",3/22/2021 19:57,71.86.185.24,Mozilla/5.0 (Windows NT 10.0; Win64; x64; rv:86.0) Gecko/20100101 Firefox/86.0,,Firefox,86,Windows,10
5,1,5104,"""",html-button-response,87,279735,0.0-87.0,"<p>You will be asked to memorize and then recall four sets of face-name pairs. </p> <p> Each set will have 32 pairs. </p> <p>After the fourth set, there will be a brief follow-up experiment (<40 min alltogether)</p>",0,"""","""","""","""","""","""","""","""","""","""","""","""","""","""","""",3/22/2021 19:57,71.86.185.24,Mozilla/5.0 (Windows NT 10.0; Win64; x64; rv:86.0) Gecko/20100101 Firefox/86.0,,Firefox,86,Windows,10
5,1,2537,"""",html-keyboard-response,88,284757,0.0-88.0,"<img src='jspsych/CFDfaces/CFD-BM-203-001-N.jpg' height=""250px""></br><b>Christian</b>","""",256,IntactFace,Memorization,70,5000,f,"""",CFD-WF-223-133-N.jpg,Whitney,0,"""","""","""",1,"""",3/22/2021 19:57,71.86.185.24,Mozilla/5.0 (Windows NT 10.0; Win64; x64; rv:86.0) Gecko/20100101 Firefox/86.0,,Firefox,86,Windows,10
5,1,null,"""",html-keyboard-response,89,285277,0.0-89.0,"<div style=""font-size:60px;"">+</div>","""",256,fixation,Memorization,null,500,"""","""","""","""","""","""","""","""",1,"""",3/22/2021 19:57,71.86.185.24,Mozilla/5.0 (Windows NT 10.0; Win64; x64; rv:86.0) Gecko/20100101 Firefox/86.0,,Firefox,86,Windows,10
5,1,null,"""",html-keyboard-response,90,290282,0.0-90.0,"<img src='jspsych/CFDfaces/CFD-WF-018-017-N.jpg' height=""250px""></br><b>Meghan</b>","""",256,IntactFace,Memorization,null,5000,"""","""",CFD-BM-022-022-N.jpg,Jesse,0,"""","""","""",1,"""",3/22/2021 19:57,71.86.185.24,Mozilla/5.0 (Windows NT 10.0; Win64; x64; rv:86.0) Gecko/20100101 Firefox/86.0,,Firefox,86,Windows,10
5,1,null,"""",html-keyboard-response,91,290797,0.0-91.0,"<div style=""font-size:60px;"">+</div>","""",256,fixation,Memorization,null,500,"""","""","""","""","""","""","""","""",1,"""",3/22/2021 19:57,71.86.185.24,Mozilla/5.0 (Windows NT 10.0; Win64; x64; rv:86.0) Gecko/20100101 Firefox/86.0,,Firefox,86,Windows,10
5,1,1651,"""",html-keyboard-response,92,295817,0.0-92.0,"<img src='jspsych/CFDfaces/CFD-BM-029-024-N.jpg' height=""250px""></br><b>Gregory</b>","""",256,IntactFace,Memorization,70,5000,f,"""",CFD-BF-047-003-N.jpg,Tiffany,0,"""","""","""",1,"""",3/22/2021 19:57,71.86.185.24,Mozilla/5.0 (Windows NT 10.0; Win64; x64; rv:86.0) Gecko/20100101 Firefox/86.0,,Firefox,86,Windows,10
5,1,null,"""",html-keyboard-response,93,296333,0.0-93.0,"<div style=""font-size:60px;"">+</div>","""",256,fixation,Memorization,null,500,"""","""","""","""","""","""","""","""",1,"""",3/22/2021 19:57,71.86.185.24,Mozilla/5.0 (Windows NT 10.0; Win64; x64; rv:86.0) Gecko/20100101 Firefox/86.0,,Firefox,86,Windows,10
5,1,1642,"""",html-keyboard-response,94,301357,0.0-94.0,"<img src='jspsych/CFDfaces/CFD-AM-205-153-N.jpg' height=""250px""></br><b>Nicholas</b>","""",256,IntactFace,Memorization,78,5000,n,"""",CFD-WM-015-002-N.jpg,Jeremy,0,"""","""","""",1,"""",3/22/2021 19:57,71.86.185.24,Mozilla/5.0 (Windows NT 10.0; Win64; x64; rv:86.0) Gecko/20100101 Firefox/86.0,,Firefox,86,Windows,10
5,1,null,"""",html-keyboard-response,95,301876,0.0-95.0,"<div style=""font-size:60px;"">+</div>","""",256,fixation,Memorization,null,500,"""","""","""","""","""","""","""","""",1,"""",3/22/2021 19:57,71.86.185.24,Mozilla/5.0 (Windows NT 10.0; Win64; x64; rv:86.0) Gecko/20100101 Firefox/86.0,,Firefox,86,Windows,10
5,1,1405,"""",html-keyboard-response,96,306896,0.0-96.0,"<img src='jspsych/CFDfaces/CFD-WM-232-070-N.jpg' height=""250px""></br><b>Brian</b>","""",256,IntactFace,Memorization,70,5000,f,"""",CFD-WM-212-097-N.jpg,Mark,0,"""","""","""",1,"""",3/22/2021 19:57,71.86.185.24,Mozilla/5.0 (Windows NT 10.0; Win64; x64; rv:86.0) Gecko/20100101 Firefox/86.0,,Firefox,86,Windows,10
5,1,null,"""",html-keyboard-response,97,307416,0.0-97.0,"<div style=""font-size:60px;"">+</div>","""",256,fixation,Memorization,null,500,"""","""","""","""","""","""","""","""",1,"""",3/22/2021 19:57,71.86.185.24,Mozilla/5.0 (Windows NT 10.0; Win64; x64; rv:86.0) Gecko/20100101 Firefox/86.0,,Firefox,86,Windows,10
5,1,2014,"""",html-keyboard-response,98,312421,0.0-98.0,"<img src='jspsych/CFDfaces/CFD-LM-224-162-N.jpg' height=""250px""></br><b>Juan</b>","""",256,IntactFace,Memorization,70,5000,f,"""",CFD-LM-219-295-N.jpg,Austin,0,"""","""","""",1,"""",3/22/2021 19:57,71.86.185.24,Mozilla/5.0 (Windows NT 10.0; Win64; x64; rv:86.0) Gecko/20100101 Firefox/86.0,,Firefox,86,Windows,10
5,1,null,"""",html-keyboard-response,99,312936,0.0-99.0,"<div style=""font-size:60px;"">+</div>","""",256,fixation,Memorization,null,500,"""","""","""","""","""","""","""","""",1,"""",3/22/2021 19:57,71.86.185.24,Mozilla/5.0 (Windows NT 10.0; Win64; x64; rv:86.0) Gecko/20100101 Firefox/86.0,,Firefox,86,Windows,10
5,1,1243,"""",html-keyboard-response,100,317956,0.0-100.0,"<img src='jspsych/CFDfaces/CFD-BM-017-021-N.jpg' height=""250px""></br><b>Jeffrey</b>","""",256,IntactFace,Memorization,70,5000,f,"""",CFD-BF-010-001-N.jpg,Jordan,0,"""","""","""",1,"""",3/22/2021 19:57,71.86.185.24,Mozilla/5.0 (Windows NT 10.0; Win64; x64; rv:86.0) Gecko/20100101 Firefox/86.0,,Firefox,86,Windows,10
5,1,null,"""",html-keyboard-response,101,318469,0.0-101.0,"<div style=""font-size:60px;"">+</div>","""",256,fixation,Memorization,null,500,"""","""","""","""","""","""","""","""",1,"""",3/22/2021 19:57,71.86.185.24,Mozilla/5.0 (Windows NT 10.0; Win64; x64; rv:86.0) Gecko/20100101 Firefox/86.0,,Firefox,86,Windows,10
5,1,1634,"""",html-keyboard-response,102,323476,0.0-102.0,"<img src='jspsych/CFDfaces/CFD-AF-209-006-N.jpg' height=""250px""></br><b>Michelle</b>","""",256,IntactFace,Memorization,78,5000,n,"""",CFD-AF-220-107-N.jpg,Angela,0,"""","""","""",1,"""",3/22/2021 19:57,71.86.185.24,Mozilla/5.0 (Windows NT 10.0; Win64; x64; rv:86.0) Gecko/20100101 Firefox/86.0,,Firefox,86,Windows,10
5,1,null,"""",html-keyboard-response,103,323996,0.0-103.0,"<div style=""font-size:60px;"">+</div>","""",256,fixation,Memorization,null,500,"""","""","""","""","""","""","""","""",1,"""",3/22/2021 19:57,71.86.185.24,Mozilla/5.0 (Windows NT 10.0; Win64; x64; rv:86.0) Gecko/20100101 Firefox/86.0,,Firefox,86,Windows,10
5,1,1951,"""",html-keyboard-response,104,329016,0.0-104.0,"<img src='jspsych/CFDfaces/CFD-AM-221-184-N.jpg' height=""250px""></br><b>Peter</b>","""",256,IntactFace,Memorization,78,5000,n,"""",CFD-WF-218-087-N.jpg,Taylor,0,"""","""","""",1,"""",3/22/2021 19:57,71.86.185.24,Mozilla/5.0 (Windows NT 10.0; Win64; x64; rv:86.0) Gecko/20100101 Firefox/86.0,,Firefox,86,Windows,10
5,1,null,"""",html-keyboard-response,105,329536,0.0-105.0,"<div style=""font-size:60px;"">+</div>","""",256,fixation,Memorization,null,500,"""","""","""","""","""","""","""","""",1,"""",3/22/2021 19:57,71.86.185.24,Mozilla/5.0 (Windows NT 10.0; Win64; x64; rv:86.0) Gecko/20100101 Firefox/86.0,,Firefox,86,Windows,10
5,1,1600,"""",html-keyboard-response,106,334556,0.0-106.0,"<img src='jspsych/CFDfaces/CFD-WM-034-030-N.jpg' height=""250px""></br><b>Joshua</b>","""",256,IntactFace,Memorization,70,5000,f,"""",CFD-BM-041-035-N.jpg,Justin,0,"""","""","""",1,"""",3/22/2021 19:57,71.86.185.24,Mozilla/5.0 (Windows NT 10.0; Win64; x64; rv:86.0) Gecko/20100101 Firefox/86.0,,Firefox,86,Windows,10
5,1,null,"""",html-keyboard-response,107,335085,0.0-107.0,"<div style=""font-size:60px;"">+</div>","""",256,fixation,Memorization,null,500,"""","""","""","""","""","""","""","""",1,"""",3/22/2021 19:57,71.86.185.24,Mozilla/5.0 (Windows NT 10.0; Win64; x64; rv:86.0) Gecko/20100101 Firefox/86.0,,Firefox,86,Windows,10
5,1,1993,"""",html-keyboard-response,108,340096,0.0-108.0,"<img src='jspsych/CFDfaces/CFD-BF-005-001-N.jpg' height=""250px""></br><b>Brittany</b>","""",256,IntactFace,Memorization,78,5000,n,"""",CFD-BM-211-174-N.jpg,Kenneth,0,"""","""","""",1,"""",3/22/2021 19:57,71.86.185.24,Mozilla/5.0 (Windows NT 10.0; Win64; x64; rv:86.0) Gecko/20100101 Firefox/86.0,,Firefox,86,Windows,10
5,1,null,"""",html-keyboard-response,109,340616,0.0-109.0,"<div style=""font-size:60px;"">+</div>","""",256,fixation,Memorization,null,500,"""","""","""","""","""","""","""","""",1,"""",3/22/2021 19:57,71.86.185.24,Mozilla/5.0 (Windows NT 10.0; Win64; x64; rv:86.0) Gecko/20100101 Firefox/86.0,,Firefox,86,Windows,10
5,1,2234,"""",html-keyboard-response,110,345626,0.0-110.0,"<img src='jspsych/CFDfaces/CFD-AF-242-158-N.jpg' height=""250px""></br><b>Emily</b>","""",256,IntactFace,Memorization,78,5000,n,"""",CFD-BM-026-002-N.jpg,Vincent,0,"""","""","""",1,"""",3/22/2021 19:57,71.86.185.24,Mozilla/5.0 (Windows NT 10.0; Win64; x64; rv:86.0) Gecko/20100101 Firefox/86.0,,Firefox,86,Windows,10
5,1,null,"""",html-keyboard-response,111,346145,0.0-111.0,"<div style=""font-size:60px;"">+</div>","""",256,fixation,Memorization,null,500,"""","""","""","""","""","""","""","""",1,"""",3/22/2021 19:57,71.86.185.24,Mozilla/5.0 (Windows NT 10.0; Win64; x64; rv:86.0) Gecko/20100101 Firefox/86.0,,Firefox,86,Windows,10
5,1,1976,"""",html-keyboard-response,112,351166,0.0-112.0,"<img src='jspsych/CFDfaces/CFD-BF-016-017-N.jpg' height=""250px""></br><b>Kimberly</b>","""",256,IntactFace,Memorization,78,5000,n,"""",CFD-BM-043-071-N.jpg,Ryan,0,"""","""","""",1,"""",3/22/2021 19:57,71.86.185.24,Mozilla/5.0 (Windows NT 10.0; Win64; x64; rv:86.0) Gecko/20100101 Firefox/86.0,,Firefox,86,Windows,10
5,1,null,"""",html-keyboard-response,113,351686,0.0-113.0,"<div style=""font-size:60px;"">+</div>","""",256,fixation,Memorization,null,500,"""","""","""","""","""","""","""","""",1,"""",3/22/2021 19:57,71.86.185.24,Mozilla/5.0 (Windows NT 10.0; Win64; x64; rv:86.0) Gecko/20100101 Firefox/86.0,,Firefox,86,Windows,10
5,1,2255,"""",html-keyboard-response,114,356689,0.0-114.0,"<img src='jspsych/CFDfaces/CFD-LM-234-176-N.jpg' height=""250px""></br><b>James</b>","""",256,IntactFace,Memorization,70,5000,f,"""",CFD-AF-233-190-N.jpg,Sara,0,"""","""","""",1,"""",3/22/2021 19:57,71.86.185.24,Mozilla/5.0 (Windows NT 10.0; Win64; x64; rv:86.0) Gecko/20100101 Firefox/86.0,,Firefox,86,Windows,10
5,1,null,"""",html-keyboard-response,115,357216,0.0-115.0,"<div style=""font-size:60px;"">+</div>","""",256,fixation,Memorization,null,500,"""","""","""","""","""","""","""","""",1,"""",3/22/2021 19:57,71.86.185.24,Mozilla/5.0 (Windows NT 10.0; Win64; x64; rv:86.0) Gecko/20100101 Firefox/86.0,,Firefox,86,Windows,10
5,1,1668,"""",html-keyboard-response,116,362219,0.0-116.0,"<img src='jspsych/CFDfaces/CFD-AM-234-355-N.jpg' height=""250px""></br><b>Eric</b>","""",256,IntactFace,Memorization,78,5000,n,"""",CFD-WM-006-002-N.jpg,Steven,0,"""","""","""",1,"""",3/22/2021 19:57,71.86.185.24,Mozilla/5.0 (Windows NT 10.0; Win64; x64; rv:86.0) Gecko/20100101 Firefox/86.0,,Firefox,86,Windows,10
5,1,null,"""",html-keyboard-response,117,362737,0.0-117.0,"<div style=""font-size:60px;"">+</div>","""",256,fixation,Memorization,null,500,"""","""","""","""","""","""","""","""",1,"""",3/22/2021 19:57,71.86.185.24,Mozilla/5.0 (Windows NT 10.0; Win64; x64; rv:86.0) Gecko/20100101 Firefox/86.0,,Firefox,86,Windows,10
5,1,2577,"""",html-keyboard-response,118,367756,0.0-118.0,"<img src='jspsych/CFDfaces/CFD-BM-001-014-N.jpg' height=""250px""></br><b>Ian</b>","""",256,IntactFace,Memorization,78,5000,n,"""",CFD-AM-213-056-N.jpg,Cameron,0,"""","""","""",1,"""",3/22/2021 19:57,71.86.185.24,Mozilla/5.0 (Windows NT 10.0; Win64; x64; rv:86.0) Gecko/20100101 Firefox/86.0,,Firefox,86,Windows,10
5,1,null,"""",html-keyboard-response,119,368275,0.0-119.0,"<div style=""font-size:60px;"">+</div>","""",256,fixation,Memorization,null,500,"""","""","""","""","""","""","""","""",1,"""",3/22/2021 19:57,71.86.185.24,Mozilla/5.0 (Windows NT 10.0; Win64; x64; rv:86.0) Gecko/20100101 Firefox/86.0,,Firefox,86,Windows,10
5,1,2649,"""",html-keyboard-response,120,373286,0.0-120.0,"<img src='jspsych/CFDfaces/CFD-AF-241-141-N.jpg' height=""250px""></br><b>Kayla</b>","""",256,IntactFace,Memorization,70,5000,f,"""",CFD-BF-222-240-N.jpg,Lauren,0,"""","""","""",1,"""",3/22/2021 19:57,71.86.185.24,Mozilla/5.0 (Windows NT 10.0; Win64; x64; rv:86.0) Gecko/20100101 Firefox/86.0,,Firefox,86,Windows,10
5,1,null,"""",html-keyboard-response,121,373806,0.0-121.0,"<div style=""font-size:60px;"">+</div>","""",256,fixation,Memorization,null,500,"""","""","""","""","""","""","""","""",1,"""",3/22/2021 19:57,71.86.185.24,Mozilla/5.0 (Windows NT 10.0; Win64; x64; rv:86.0) Gecko/20100101 Firefox/86.0,,Firefox,86,Windows,10
5,1,1174,"""",html-keyboard-response,122,378816,0.0-122.0,"<img src='jspsych/CFDfaces/CFD-LF-202-065-N.jpg' height=""250px""></br><b>Samantha</b>","""",256,IntactFace,Memorization,70,5000,f,"""",CFD-BM-208-065-N.jpg,Luis,0,"""","""","""",1,"""",3/22/2021 19:57,71.86.185.24,Mozilla/5.0 (Windows NT 10.0; Win64; x64; rv:86.0) Gecko/20100101 Firefox/86.0,,Firefox,86,Windows,10
5,1,null,"""",html-keyboard-response,123,379335,0.0-123.0,"<div style=""font-size:60px;"">+</div>","""",256,fixation,Memorization,null,500,"""","""","""","""","""","""","""","""",1,"""",3/22/2021 19:57,71.86.185.24,Mozilla/5.0 (Windows NT 10.0; Win64; x64; rv:86.0) Gecko/20100101 Firefox/86.0,,Firefox,86,Windows,10
5,1,1391,"""",html-keyboard-response,124,384340,0.0-124.0,"<img src='jspsych/CFDfaces/CFD-LM-248-089-N.jpg' height=""250px""></br><b>Jason</b>","""",256,IntactFace,Memorization,70,5000,f,"""",CFD-WM-216-061-N.jpg,Dustin,0,"""","""","""",1,"""",3/22/2021 19:57,71.86.185.24,Mozilla/5.0 (Windows NT 10.0; Win64; x64; rv:86.0) Gecko/20100101 Firefox/86.0,,Firefox,86,Windows,10
5,1,null,"""",html-keyboard-response,125,384866,0.0-125.0,"<div style=""font-size:60px;"">+</div>","""",256,fixation,Memorization,null,500,"""","""","""","""","""","""","""","""",1,"""",3/22/2021 19:57,71.86.185.24,Mozilla/5.0 (Windows NT 10.0; Win64; x64; rv:86.0) Gecko/20100101 Firefox/86.0,,Firefox,86,Windows,10
5,1,1345,"""",html-keyboard-response,126,389876,0.0-126.0,"<img src='jspsych/CFDfaces/CFD-BF-008-001-N.jpg' height=""250px""></br><b>Julie</b>","""",256,IntactFace,Memorization,78,5000,n,"""",CFD-AF-222-134-N.jpg,Laura,0,"""","""","""",1,"""",3/22/2021 19:57,71.86.185.24,Mozilla/5.0 (Windows NT 10.0; Win64; x64; rv:86.0) Gecko/20100101 Firefox/86.0,,Firefox,86,Windows,10
5,1,null,"""",html-keyboard-response,127,390396,0.0-127.0,"<div style=""font-size:60px;"">+</div>","""",256,fixation,Memorization,null,500,"""","""","""","""","""","""","""","""",1,"""",3/22/2021 19:57,71.86.185.24,Mozilla/5.0 (Windows NT 10.0; Win64; x64; rv:86.0) Gecko/20100101 Firefox/86.0,,Firefox,86,Windows,10
5,1,3229,"""",html-keyboard-response,128,395405,0.0-128.0,"<img src='jspsych/CFDfaces/CFD-AM-237-154-N.jpg' height=""250px""></br><b>Daniel</b>","""",256,IntactFace,Memorization,70,5000,f,"""",CFD-WM-237-052-N.jpg,Sean,0,"""","""","""",1,"""",3/22/2021 19:57,71.86.185.24,Mozilla/5.0 (Windows NT 10.0; Win64; x64; rv:86.0) Gecko/20100101 Firefox/86.0,,Firefox,86,Windows,10
5,1,null,"""",html-keyboard-response,129,395926,0.0-129.0,"<div style=""font-size:60px;"">+</div>","""",256,fixation,Memorization,null,500,"""","""","""","""","""","""","""","""",1,"""",3/22/2021 19:57,71.86.185.24,Mozilla/5.0 (Windows NT 10.0; Win64; x64; rv:86.0) Gecko/20100101 Firefox/86.0,,Firefox,86,Windows,10
5,1,1640,"""",html-keyboard-response,130,400936,0.0-130.0,"<img src='jspsych/CFDfaces/CFD-WF-024-003-N.jpg' height=""250px""></br><b>Andrea</b>","""",256,IntactFace,Memorization,70,5000,f,"""",CFD-WF-023-003-N.jpg,Rebecca,0,"""","""","""",1,"""",3/22/2021 19:57,71.86.185.24,Mozilla/5.0 (Windows NT 10.0; Win64; x64; rv:86.0) Gecko/20100101 Firefox/86.0,,Firefox,86,Windows,10
5,1,null,"""",html-keyboard-response,131,401455,0.0-131.0,"<div style=""font-size:60px;"">+</div>","""",256,fixation,Memorization,null,500,"""","""","""","""","""","""","""","""",1,"""",3/22/2021 19:57,71.86.185.24,Mozilla/5.0 (Windows NT 10.0; Win64; x64; rv:86.0) Gecko/20100101 Firefox/86.0,,Firefox,86,Windows,10
5,1,2405,"""",html-keyboard-response,132,406476,0.0-132.0,"<img src='jspsych/CFDfaces/CFD-AM-238-269-N.jpg' height=""250px""></br><b>Richard</b>","""",256,IntactFace,Memorization,78,5000,n,"""",CFD-LM-225-130-N.jpg,Timothy,0,"""","""","""",1,"""",3/22/2021 19:57,71.86.185.24,Mozilla/5.0 (Windows NT 10.0; Win64; x64; rv:86.0) Gecko/20100101 Firefox/86.0,,Firefox,86,Windows,10
5,1,null,"""",html-keyboard-response,133,406995,0.0-133.0,"<div style=""font-size:60px;"">+</div>","""",256,fixation,Memorization,null,500,"""","""","""","""","""","""","""","""",1,"""",3/22/2021 19:57,71.86.185.24,Mozilla/5.0 (Windows NT 10.0; Win64; x64; rv:86.0) Gecko/20100101 Firefox/86.0,,Firefox,86,Windows,10
5,1,1614,"""",html-keyboard-response,134,412005,0.0-134.0,"<img src='jspsych/CFDfaces/CFD-WM-011-002-N.jpg' height=""250px""></br><b>Robert</b>","""",256,IntactFace,Memorization,70,5000,f,"""",CFD-WF-017-003-N.jpg,Melissa,0,"""","""","""",1,"""",3/22/2021 19:57,71.86.185.24,Mozilla/5.0 (Windows NT 10.0; Win64; x64; rv:86.0) Gecko/20100101 Firefox/86.0,,Firefox,86,Windows,10
5,1,null,"""",html-keyboard-response,135,412525,0.0-135.0,"<div style=""font-size:60px;"">+</div>","""",256,fixation,Memorization,null,500,"""","""","""","""","""","""","""","""",1,"""",3/22/2021 19:57,71.86.185.24,Mozilla/5.0 (Windows NT 10.0; Win64; x64; rv:86.0) Gecko/20100101 Firefox/86.0,,Firefox,86,Windows,10
5,1,2389,"""",html-keyboard-response,136,417547,0.0-136.0,"<img src='jspsych/CFDfaces/CFD-LF-200-058-N.jpg' height=""250px""></br><b>Elizabeth</b>","""",256,IntactFace,Memorization,70,5000,f,"""",CFD-BF-004-014-N.jpg,Jenna,0,"""","""","""",1,"""",3/22/2021 19:57,71.86.185.24,Mozilla/5.0 (Windows NT 10.0; Win64; x64; rv:86.0) Gecko/20100101 Firefox/86.0,,Firefox,86,Windows,10
5,1,null,"""",html-keyboard-response,137,418065,0.0-137.0,"<div style=""font-size:60px;"">+</div>","""",256,fixation,Memorization,null,500,"""","""","""","""","""","""","""","""",1,"""",3/22/2021 19:57,71.86.185.24,Mozilla/5.0 (Windows NT 10.0; Win64; x64; rv:86.0) Gecko/20100101 Firefox/86.0,,Firefox,86,Windows,10
5,1,1248,"""",html-keyboard-response,138,423075,0.0-138.0,"<img src='jspsych/CFDfaces/CFD-WF-016-015-N.jpg' height=""250px""></br><b>Amanda</b>","""",256,IntactFace,Memorization,70,5000,f,"""",CFD-LF-215-157-N.jpg,Jasmine,0,"""","""","""",1,"""",3/22/2021 19:57,71.86.185.24,Mozilla/5.0 (Windows NT 10.0; Win64; x64; rv:86.0) Gecko/20100101 Firefox/86.0,,Firefox,86,Windows,10
5,1,null,"""",html-keyboard-response,139,423595,0.0-139.0,"<div style=""font-size:60px;"">+</div>","""",256,fixation,Memorization,null,500,"""","""","""","""","""","""","""","""",1,"""",3/22/2021 19:57,71.86.185.24,Mozilla/5.0 (Windows NT 10.0; Win64; x64; rv:86.0) Gecko/20100101 Firefox/86.0,,Firefox,86,Windows,10
5,1,1605,"""",html-keyboard-response,140,428605,0.0-140.0,"<img src='jspsych/CFDfaces/CFD-WF-038-021-N.jpg' height=""250px""></br><b>Stephanie</b>","""",256,IntactFace,Memorization,70,5000,f,"""",CFD-AM-246-184-N.jpg,Jacob,0,"""","""","""",1,"""",3/22/2021 19:57,71.86.185.24,Mozilla/5.0 (Windows NT 10.0; Win64; x64; rv:86.0) Gecko/20100101 Firefox/86.0,,Firefox,86,Windows,10
5,1,null,"""",html-keyboard-response,141,429125,0.0-141.0,"<div style=""font-size:60px;"">+</div>","""",256,fixation,Memorization,null,500,"""","""","""","""","""","""","""","""",1,"""",3/22/2021 19:57,71.86.185.24,Mozilla/5.0 (Windows NT 10.0; Win64; x64; rv:86.0) Gecko/20100101 Firefox/86.0,,Firefox,86,Windows,10
5,1,2506,"""",html-keyboard-response,142,434135,0.0-142.0,"<img src='jspsych/CFDfaces/CFD-AF-226-251-N.jpg' height=""250px""></br><b>Christina</b>","""",256,IntactFace,Memorization,78,5000,n,"""",CFD-LF-204-133-N.jpg,Lindsey,0,"""","""","""",1,"""",3/22/2021 19:57,71.86.185.24,Mozilla/5.0 (Windows NT 10.0; Win64; x64; rv:86.0) Gecko/20100101 Firefox/86.0,,Firefox,86,Windows,10
5,1,null,"""",html-keyboard-response,143,434665,0.0-143.0,"<div style=""font-size:60px;"">+</div>","""",256,fixation,Memorization,null,500,"""","""","""","""","""","""","""","""",1,"""",3/22/2021 19:57,71.86.185.24,Mozilla/5.0 (Windows NT 10.0; Win64; x64; rv:86.0) Gecko/20100101 Firefox/86.0,,Firefox,86,Windows,10
5,1,1213,"""",html-keyboard-response,144,439676,0.0-144.0,"<img src='jspsych/CFDfaces/CFD-WF-220-101-N.jpg' height=""250px""></br><b>Victoria</b>","""",256,IntactFace,Memorization,70,5000,f,"""",CFD-LF-232-199-N.jpg,Erin,0,"""","""","""",1,"""",3/22/2021 19:57,71.86.185.24,Mozilla/5.0 (Windows NT 10.0; Win64; x64; rv:86.0) Gecko/20100101 Firefox/86.0,,Firefox,86,Windows,10
5,1,null,"""",html-keyboard-response,145,440195,0.0-145.0,"<div style=""font-size:60px;"">+</div>","""",256,fixation,Memorization,null,500,"""","""","""","""","""","""","""","""",1,"""",3/22/2021 19:57,71.86.185.24,Mozilla/5.0 (Windows NT 10.0; Win64; x64; rv:86.0) Gecko/20100101 Firefox/86.0,,Firefox,86,Windows,10
5,1,2805,"""",html-keyboard-response,146,445215,0.0-146.0,"<img src='jspsych/CFDfaces/CFD-AM-207-108-N.jpg' height=""250px""></br><b>Brandon</b>","""",256,IntactFace,Memorization,70,5000,f,"""",CFD-AM-230-150-N.jpg,Travis,0,"""","""","""",1,"""",3/22/2021 19:57,71.86.185.24,Mozilla/5.0 (Windows NT 10.0; Win64; x64; rv:86.0) Gecko/20100101 Firefox/86.0,,Firefox,86,Windows,10
5,1,null,"""",html-keyboard-response,147,445735,0.0-147.0,"<div style=""font-size:60px;"">+</div>","""",256,fixation,Memorization,null,500,"""","""","""","""","""","""","""","""",1,"""",3/22/2021 19:57,71.86.185.24,Mozilla/5.0 (Windows NT 10.0; Win64; x64; rv:86.0) Gecko/20100101 Firefox/86.0,,Firefox,86,Windows,10
5,1,1370,"""",html-keyboard-response,148,450746,0.0-148.0,"<img src='jspsych/CFDfaces/CFD-BF-039-031-N.jpg' height=""250px""></br><b>Ashley</b>","""",256,IntactFace,Memorization,78,5000,n,"""",CFD-BF-212-315-N.jpg,Heather,0,"""","""","""",1,"""",3/22/2021 19:57,71.86.185.24,Mozilla/5.0 (Windows NT 10.0; Win64; x64; rv:86.0) Gecko/20100101 Firefox/86.0,,Firefox,86,Windows,10
5,1,null,"""",html-keyboard-response,149,451265,0.0-149.0,"<div style=""font-size:60px;"">+</div>","""",256,fixation,Memorization,null,500,"""","""","""","""","""","""","""","""",1,"""",3/22/2021 19:57,71.86.185.24,Mozilla/5.0 (Windows NT 10.0; Win64; x64; rv:86.0) Gecko/20100101 Firefox/86.0,,Firefox,86,Windows,10
5,1,1309,"""",html-keyboard-response,150,456269,0.0-150.0,"<img src='jspsych/CFDfaces/CFD-WF-006-002-N.jpg' height=""250px""></br><b>Vanessa</b>","""",256,IntactFace,Memorization,70,5000,f,"""",CFD-BF-001-025-N.jpg,Amy,0,"""","""","""",1,"""",3/22/2021 19:57,71.86.185.24,Mozilla/5.0 (Windows NT 10.0; Win64; x64; rv:86.0) Gecko/20100101 Firefox/86.0,,Firefox,86,Windows,10
5,1,null,"""",html-keyboard-response,151,456795,0.0-151.0,"<div style=""font-size:60px;"">+</div>","""",256,fixation,Memorization,null,500,"""","""","""","""","""","""","""","""",1,"""",3/22/2021 19:57,71.86.185.24,Mozilla/5.0 (Windows NT 10.0; Win64; x64; rv:86.0) Gecko/20100101 Firefox/86.0,,Firefox,86,Windows,10
5,1,2517,"""",html-keyboard-response,152,459314,0.0-152.0,Press Any Key to Begin Memory Test,"""",1,welcomeScreen,Break,32,"""","""","""","""","""","""","""","""","""",1,"""",3/22/2021 19:57,71.86.185.24,Mozilla/5.0 (Windows NT 10.0; Win64; x64; rv:86.0) Gecko/20100101 Firefox/86.0,,Firefox,86,Windows,10
5,1,null,"""",html-keyboard-response,153,460316,0.0-153.0,"<div style=""font-size:60px;"">+</div>","""",256,ITI,Test,null,1000,"""","""","""","""","""","""","""","""",1,"""",3/22/2021 19:57,71.86.185.24,Mozilla/5.0 (Windows NT 10.0; Win64; x64; rv:86.0) Gecko/20100101 Firefox/86.0,,Firefox,86,Windows,10
5,1,null,"""",image-keyboard-response,154,460596,0.0-154.0,jspsych/scrambledDisgustFaces/scrambledAM21DIS.JPG,"""",256,forwardMask,Test,null,250,"""",d,"""","""","""","""","""","""",1,"""",3/22/2021 19:57,71.86.185.24,Mozilla/5.0 (Windows NT 10.0; Win64; x64; rv:86.0) Gecko/20100101 Firefox/86.0,,Firefox,86,Windows,10
5,1,null,"""",image-keyboard-response,155,460635,0.0-155.0,jspsych/disgustFaces/AM21DIS.JPG,"""",256,Cue,Test,null,16,"""","""","""","""","""","""","""","""",1,"""",3/22/2021 19:57,71.86.185.24,Mozilla/5.0 (Windows NT 10.0; Win64; x64; rv:86.0) Gecko/20100101 Firefox/86.0,,Firefox,86,Windows,10
5,1,null,"""",image-keyboard-response,156,460745,0.0-156.0,jspsych/neutralFaces/BM26NES.JPG,"""",256,backwardMask,Test,null,100,"""","""","""","""","""","""","""","""",1,"""",3/22/2021 19:57,71.86.185.24,Mozilla/5.0 (Windows NT 10.0; Win64; x64; rv:86.0) Gecko/20100101 Firefox/86.0,,Firefox,86,Windows,10
5,1,null,"""",html-keyboard-response,157,461765,0.0-157.0,"<div style=""font-size:60px;"">+</div>","""",256,fixationBtwnNeutralMaskAndPrompt,Test,null,1000,"""","""","""","""","""","""","""","""",1,"""",3/22/2021 19:57,71.86.185.24,Mozilla/5.0 (Windows NT 10.0; Win64; x64; rv:86.0) Gecko/20100101 Firefox/86.0,,Firefox,86,Windows,10
5,1,2252,"""",html-button-response,158,464021,0.0-158.0,"<img src='jspsych/CFDfaces/CFD-AM-238-269-N.jpg' height=""250px"">,</br><b>Christian</b>",1,256,IntactOrRearranged,Test,"""","""","""","""",CFD-BF-222-240-N.jpg,Jordan,1,1,"""","""",1,"""",3/22/2021 19:57,71.86.185.24,Mozilla/5.0 (Windows NT 10.0; Win64; x64; rv:86.0) Gecko/20100101 Firefox/86.0,,Firefox,86,Windows,10
5,1,2615,"""",html-slider-response,159,466655,0.0-159.0,"<img src='jspsych/CFDfaces/CFD-AM-238-269-N.jpg' height=""250px"">,</br><b>Christian</b>","""",256,ConfidenceQuery,Test,"""","""","""","""",CFD-BF-222-240-N.jpg,Jordan,1,"""",0,77,1,"""",3/22/2021 19:57,71.86.185.24,Mozilla/5.0 (Windows NT 10.0; Win64; x64; rv:86.0) Gecko/20100101 Firefox/86.0,,Firefox,86,Windows,10
5,1,null,"""",html-keyboard-response,160,467676,0.0-160.0,"<div style=""font-size:60px;"">+</div>","""",256,ITI,Test,null,1000,"""","""","""","""","""","""","""","""",1,"""",3/22/2021 19:57,71.86.185.24,Mozilla/5.0 (Windows NT 10.0; Win64; x64; rv:86.0) Gecko/20100101 Firefox/86.0,,Firefox,86,Windows,10
5,1,null,"""",image-keyboard-response,161,467955,0.0-161.0,jspsych/scrambledNeutralFaces/scrambledAF10NES.JPG,"""",256,forwardMask,Test,null,250,"""",n,"""","""","""","""","""","""",1,"""",3/22/2021 19:57,71.86.185.24,Mozilla/5.0 (Windows NT 10.0; Win64; x64; rv:86.0) Gecko/20100101 Firefox/86.0,,Firefox,86,Windows,10
5,1,null,"""",image-keyboard-response,162,467984,0.0-162.0,jspsych/neutralFaces/AF10NES.JPG,"""",256,Cue,Test,null,16,"""","""","""","""","""","""","""","""",1,"""",3/22/2021 19:57,71.86.185.24,Mozilla/5.0 (Windows NT 10.0; Win64; x64; rv:86.0) Gecko/20100101 Firefox/86.0,,Firefox,86,Windows,10
5,1,null,"""",image-keyboard-response,163,468095,0.0-163.0,jspsych/neutralFaces/BF30NES.JPG,"""",256,backwardMask,Test,null,100,"""","""","""","""","""","""","""","""",1,"""",3/22/2021 19:57,71.86.185.24,Mozilla/5.0 (Windows NT 10.0; Win64; x64; rv:86.0) Gecko/20100101 Firefox/86.0,,Firefox,86,Windows,10
5,1,null,"""",html-keyboard-response,164,469105,0.0-164.0,"<div style=""font-size:60px;"">+</div>","""",256,fixationBtwnNeutralMaskAndPrompt,Test,null,1000,"""","""","""","""","""","""","""","""",1,"""",3/22/2021 19:57,71.86.185.24,Mozilla/5.0 (Windows NT 10.0; Win64; x64; rv:86.0) Gecko/20100101 Firefox/86.0,,Firefox,86,Windows,10
5,1,1872,"""",html-button-response,165,470982,0.0-165.0,"<img src='jspsych/CFDfaces/CFD-LM-224-162-N.jpg' height=""250px"">,</br><b>Juan</b>",0,256,IntactOrRearranged,Test,"""","""","""","""",CFD-AF-233-190-N.jpg,Lauren,0,0,"""","""",1,"""",3/22/2021 19:57,71.86.185.24,Mozilla/5.0 (Windows NT 10.0; Win64; x64; rv:86.0) Gecko/20100101 Firefox/86.0,,Firefox,86,Windows,10
5,1,2384,"""",html-slider-response,166,473373,0.0-166.0,"<img src='jspsych/CFDfaces/CFD-LM-224-162-N.jpg' height=""250px"">,</br><b>Juan</b>","""",256,ConfidenceQuery,Test,"""","""","""","""",CFD-AF-233-190-N.jpg,Lauren,0,"""",0,100,1,"""",3/22/2021 19:57,71.86.185.24,Mozilla/5.0 (Windows NT 10.0; Win64; x64; rv:86.0) Gecko/20100101 Firefox/86.0,,Firefox,86,Windows,10
5,1,null,"""",html-keyboard-response,167,474403,0.0-167.0,"<div style=""font-size:60px;"">+</div>","""",256,ITI,Test,null,1000,"""","""","""","""","""","""","""","""",1,"""",3/22/2021 19:57,71.86.185.24,Mozilla/5.0 (Windows NT 10.0; Win64; x64; rv:86.0) Gecko/20100101 Firefox/86.0,,Firefox,86,Windows,10
5,1,null,"""",image-keyboard-response,168,474665,0.0-168.0,jspsych/scrambledDisgustFaces/scrambledAM07DIS.JPG,"""",256,forwardMask,Test,null,250,"""",d,"""","""","""","""","""","""",1,"""",3/22/2021 19:57,71.86.185.24,Mozilla/5.0 (Windows NT 10.0; Win64; x64; rv:86.0) Gecko/20100101 Firefox/86.0,,Firefox,86,Windows,10
5,1,null,"""",image-keyboard-response,169,474705,0.0-169.0,jspsych/disgustFaces/AM07DIS.JPG,"""",256,Cue,Test,null,16,"""","""","""","""","""","""","""","""",1,"""",3/22/2021 19:57,71.86.185.24,Mozilla/5.0 (Windows NT 10.0; Win64; x64; rv:86.0) Gecko/20100101 Firefox/86.0,,Firefox,86,Windows,10
5,1,null,"""",image-keyboard-response,170,474824,0.0-170.0,jspsych/neutralFaces/BM27NES.JPG,"""",256,backwardMask,Test,null,100,"""","""","""","""","""","""","""","""",1,"""",3/22/2021 19:57,71.86.185.24,Mozilla/5.0 (Windows NT 10.0; Win64; x64; rv:86.0) Gecko/20100101 Firefox/86.0,,Firefox,86,Windows,10
5,1,null,"""",html-keyboard-response,171,475845,0.0-171.0,"<div style=""font-size:60px;"">+</div>","""",256,fixationBtwnNeutralMaskAndPrompt,Test,null,1000,"""","""","""","""","""","""","""","""",1,"""",3/22/2021 19:57,71.86.185.24,Mozilla/5.0 (Windows NT 10.0; Win64; x64; rv:86.0) Gecko/20100101 Firefox/86.0,,Firefox,86,Windows,10
5,1,1837,"""",html-button-response,172,477684,0.0-172.0,"<img src='jspsych/CFDfaces/CFD-AM-207-108-N.jpg' height=""250px"">,</br><b>Brandon</b>",0,256,IntactOrRearranged,Test,"""","""","""","""",CFD-AF-220-107-N.jpg,Erin,0,0,"""","""",1,"""",3/22/2021 19:57,71.86.185.24,Mozilla/5.0 (Windows NT 10.0; Win64; x64; rv:86.0) Gecko/20100101 Firefox/86.0,,Firefox,86,Windows,10
5,1,2870,"""",html-slider-response,173,480572,0.0-173.0,"<img src='jspsych/CFDfaces/CFD-AM-207-108-N.jpg' height=""250px"">,</br><b>Brandon</b>","""",256,ConfidenceQuery,Test,"""","""","""","""",CFD-AF-220-107-N.jpg,Erin,0,"""",0,100,1,"""",3/22/2021 19:57,71.86.185.24,Mozilla/5.0 (Windows NT 10.0; Win64; x64; rv:86.0) Gecko/20100101 Firefox/86.0,,Firefox,86,Windows,10
5,1,null,"""",html-keyboard-response,174,481595,0.0-174.0,"<div style=""font-size:60px;"">+</div>","""",256,ITI,Test,null,1000,"""","""","""","""","""","""","""","""",1,"""",3/22/2021 19:57,71.86.185.24,Mozilla/5.0 (Windows NT 10.0; Win64; x64; rv:86.0) Gecko/20100101 Firefox/86.0,,Firefox,86,Windows,10
5,1,null,"""",image-keyboard-response,175,481874,0.0-175.0,jspsych/scrambledNeutralFaces/scrambledBF19NES.JPG,"""",256,forwardMask,Test,null,250,"""",n,"""","""","""","""","""","""",1,"""",3/22/2021 19:57,71.86.185.24,Mozilla/5.0 (Windows NT 10.0; Win64; x64; rv:86.0) Gecko/20100101 Firefox/86.0,,Firefox,86,Windows,10
5,1,null,"""",image-keyboard-response,176,481915,0.0-176.0,jspsych/neutralFaces/BF19NES.JPG,"""",256,Cue,Test,null,16,"""","""","""","""","""","""","""","""",1,"""",3/22/2021 19:57,71.86.185.24,Mozilla/5.0 (Windows NT 10.0; Win64; x64; rv:86.0) Gecko/20100101 Firefox/86.0,,Firefox,86,Windows,10
5,1,null,"""",image-keyboard-response,177,482035,0.0-177.0,jspsych/neutralFaces/BF18NES.JPG,"""",256,backwardMask,Test,null,100,"""","""","""","""","""","""","""","""",1,"""",3/22/2021 19:57,71.86.185.24,Mozilla/5.0 (Windows NT 10.0; Win64; x64; rv:86.0) Gecko/20100101 Firefox/86.0,,Firefox,86,Windows,10
5,1,null,"""",html-keyboard-response,178,483055,0.0-178.0,"<div style=""font-size:60px;"">+</div>","""",256,fixationBtwnNeutralMaskAndPrompt,Test,null,1000,"""","""","""","""","""","""","""","""",1,"""",3/22/2021 19:57,71.86.185.24,Mozilla/5.0 (Windows NT 10.0; Win64; x64; rv:86.0) Gecko/20100101 Firefox/86.0,,Firefox,86,Windows,10
5,1,2118,"""",html-button-response,179,485176,0.0-179.0,"<img src='jspsych/CFDfaces/CFD-WF-006-002-N.jpg' height=""250px"">,</br><b>Vanessa</b>",0,256,IntactOrRearranged,Test,"""","""","""","""",CFD-WF-223-133-N.jpg,Whitney,0,0,"""","""",1,"""",3/22/2021 19:57,71.86.185.24,Mozilla/5.0 (Windows NT 10.0; Win64; x64; rv:86.0) Gecko/20100101 Firefox/86.0,,Firefox,86,Windows,10
5,1,2594,"""",html-slider-response,180,487786,0.0-180.0,"<img src='jspsych/CFDfaces/CFD-WF-006-002-N.jpg' height=""250px"">,</br><b>Vanessa</b>","""",256,ConfidenceQuery,Test,"""","""","""","""",CFD-WF-223-133-N.jpg,Whitney,0,"""",0,64,1,"""",3/22/2021 19:57,71.86.185.24,Mozilla/5.0 (Windows NT 10.0; Win64; x64; rv:86.0) Gecko/20100101 Firefox/86.0,,Firefox,86,Windows,10
5,1,null,"""",html-keyboard-response,181,488805,0.0-181.0,"<div style=""font-size:60px;"">+</div>","""",256,ITI,Test,null,1000,"""","""","""","""","""","""","""","""",1,"""",3/22/2021 19:57,71.86.185.24,Mozilla/5.0 (Windows NT 10.0; Win64; x64; rv:86.0) Gecko/20100101 Firefox/86.0,,Firefox,86,Windows,10
5,1,null,"""",image-keyboard-response,182,489085,0.0-182.0,jspsych/scrambledDisgustFaces/scrambledAM16DIS.JPG,"""",256,forwardMask,Test,null,250,"""",d,"""","""","""","""","""","""",1,"""",3/22/2021 19:57,71.86.185.24,Mozilla/5.0 (Windows NT 10.0; Win64; x64; rv:86.0) Gecko/20100101 Firefox/86.0,,Firefox,86,Windows,10
5,1,null,"""",image-keyboard-response,183,489125,0.0-183.0,jspsych/disgustFaces/AM16DIS.JPG,"""",256,Cue,Test,null,16,"""","""","""","""","""","""","""","""",1,"""",3/22/2021 19:57,71.86.185.24,Mozilla/5.0 (Windows NT 10.0; Win64; x64; rv:86.0) Gecko/20100101 Firefox/86.0,,Firefox,86,Windows,10
5,1,null,"""",image-keyboard-response,184,489245,0.0-184.0,jspsych/neutralFaces/BM16NES.JPG,"""",256,backwardMask,Test,null,100,"""","""","""","""","""","""","""","""",1,"""",3/22/2021 19:57,71.86.185.24,Mozilla/5.0 (Windows NT 10.0; Win64; x64; rv:86.0) Gecko/20100101 Firefox/86.0,,Firefox,86,Windows,10
5,1,null,"""",html-keyboard-response,185,490265,0.0-185.0,"<div style=""font-size:60px;"">+</div>","""",256,fixationBtwnNeutralMaskAndPrompt,Test,null,1000,"""","""","""","""","""","""","""","""",1,"""",3/22/2021 19:57,71.86.185.24,Mozilla/5.0 (Windows NT 10.0; Win64; x64; rv:86.0) Gecko/20100101 Firefox/86.0,,Firefox,86,Windows,10
5,1,2743,"""",html-button-response,186,493011,0.0-186.0,"<img src='jspsych/CFDfaces/CFD-LF-200-058-N.jpg' height=""250px"">,</br><b>Kimberly</b>",1,256,IntactOrRearranged,Test,"""","""","""","""",CFD-WF-023-003-N.jpg,Rebecca,1,1,"""","""",1,"""",3/22/2021 19:57,71.86.185.24,Mozilla/5.0 (Windows NT 10.0; Win64; x64; rv:86.0) Gecko/20100101 Firefox/86.0,,Firefox,86,Windows,10
5,1,1582,"""",html-slider-response,187,494611,0.0-187.0,"<img src='jspsych/CFDfaces/CFD-LF-200-058-N.jpg' height=""250px"">,</br><b>Kimberly</b>","""",256,ConfidenceQuery,Test,"""","""","""","""",CFD-WF-023-003-N.jpg,Rebecca,1,"""",0,38,1,"""",3/22/2021 19:57,71.86.185.24,Mozilla/5.0 (Windows NT 10.0; Win64; x64; rv:86.0) Gecko/20100101 Firefox/86.0,,Firefox,86,Windows,10
5,1,null,"""",html-keyboard-response,188,495625,0.0-188.0,"<div style=""font-size:60px;"">+</div>","""",256,ITI,Test,null,1000,"""","""","""","""","""","""","""","""",1,"""",3/22/2021 19:57,71.86.185.24,Mozilla/5.0 (Windows NT 10.0; Win64; x64; rv:86.0) Gecko/20100101 Firefox/86.0,,Firefox,86,Windows,10
5,1,null,"""",image-keyboard-response,189,495884,0.0-189.0,jspsych/scrambledDisgustFaces/scrambledAM30DIS.JPG,"""",256,forwardMask,Test,null,250,"""",d,"""","""","""","""","""","""",1,"""",3/22/2021 19:57,71.86.185.24,Mozilla/5.0 (Windows NT 10.0; Win64; x64; rv:86.0) Gecko/20100101 Firefox/86.0,,Firefox,86,Windows,10
5,1,null,"""",image-keyboard-response,190,495925,0.0-190.0,jspsych/disgustFaces/AM30DIS.JPG,"""",256,Cue,Test,null,16,"""","""","""","""","""","""","""","""",1,"""",3/22/2021 19:57,71.86.185.24,Mozilla/5.0 (Windows NT 10.0; Win64; x64; rv:86.0) Gecko/20100101 Firefox/86.0,,Firefox,86,Windows,10
5,1,null,"""",image-keyboard-response,191,496035,0.0-191.0,jspsych/neutralFaces/AM25NES.JPG,"""",256,backwardMask,Test,null,100,"""","""","""","""","""","""","""","""",1,"""",3/22/2021 19:57,71.86.185.24,Mozilla/5.0 (Windows NT 10.0; Win64; x64; rv:86.0) Gecko/20100101 Firefox/86.0,,Firefox,86,Windows,10
5,1,null,"""",html-keyboard-response,192,497038,0.0-192.0,"<div style=""font-size:60px;"">+</div>","""",256,fixationBtwnNeutralMaskAndPrompt,Test,null,1000,"""","""","""","""","""","""","""","""",1,"""",3/22/2021 19:57,71.86.185.24,Mozilla/5.0 (Windows NT 10.0; Win64; x64; rv:86.0) Gecko/20100101 Firefox/86.0,,Firefox,86,Windows,10
5,1,3750,"""",html-button-response,193,500800,0.0-193.0,"<img src='jspsych/CFDfaces/CFD-BF-005-001-N.jpg' height=""250px"">,</br><b>Brittany</b>",0,256,IntactOrRearranged,Test,"""","""","""","""",CFD-WF-017-003-N.jpg,Melissa,0,0,"""","""",1,"""",3/22/2021 19:57,71.86.185.24,Mozilla/5.0 (Windows NT 10.0; Win64; x64; rv:86.0) Gecko/20100101 Firefox/86.0,,Firefox,86,Windows,10
5,1,2107,"""",html-slider-response,194,502915,0.0-194.0,"<img src='jspsych/CFDfaces/CFD-BF-005-001-N.jpg' height=""250px"">,</br><b>Brittany</b>","""",256,ConfidenceQuery,Test,"""","""","""","""",CFD-WF-017-003-N.jpg,Melissa,0,"""",0,73,1,"""",3/22/2021 19:57,71.86.185.24,Mozilla/5.0 (Windows NT 10.0; Win64; x64; rv:86.0) Gecko/20100101 Firefox/86.0,,Firefox,86,Windows,10
5,1,null,"""",html-keyboard-response,195,503935,0.0-195.0,"<div style=""font-size:60px;"">+</div>","""",256,ITI,Test,null,1000,"""","""","""","""","""","""","""","""",1,"""",3/22/2021 19:57,71.86.185.24,Mozilla/5.0 (Windows NT 10.0; Win64; x64; rv:86.0) Gecko/20100101 Firefox/86.0,,Firefox,86,Windows,10
5,1,null,"""",image-keyboard-response,196,504205,0.0-196.0,jspsych/scrambledNeutralFaces/scrambledBM27NES.JPG,"""",256,forwardMask,Test,null,250,"""",n,"""","""","""","""","""","""",1,"""",3/22/2021 19:57,71.86.185.24,Mozilla/5.0 (Windows NT 10.0; Win64; x64; rv:86.0) Gecko/20100101 Firefox/86.0,,Firefox,86,Windows,10
5,1,null,"""",image-keyboard-response,197,504225,0.0-197.0,jspsych/neutralFaces/BM27NES.JPG,"""",256,Cue,Test,null,16,"""","""","""","""","""","""","""","""",1,"""",3/22/2021 19:57,71.86.185.24,Mozilla/5.0 (Windows NT 10.0; Win64; x64; rv:86.0) Gecko/20100101 Firefox/86.0,,Firefox,86,Windows,10
5,1,null,"""",image-keyboard-response,198,504331,0.0-198.0,jspsych/neutralFaces/AM07NES.JPG,"""",256,backwardMask,Test,null,100,"""","""","""","""","""","""","""","""",1,"""",3/22/2021 19:57,71.86.185.24,Mozilla/5.0 (Windows NT 10.0; Win64; x64; rv:86.0) Gecko/20100101 Firefox/86.0,,Firefox,86,Windows,10
5,1,null,"""",html-keyboard-response,199,505345,0.0-199.0,"<div style=""font-size:60px;"">+</div>","""",256,fixationBtwnNeutralMaskAndPrompt,Test,null,1000,"""","""","""","""","""","""","""","""",1,"""",3/22/2021 19:57,71.86.185.24,Mozilla/5.0 (Windows NT 10.0; Win64; x64; rv:86.0) Gecko/20100101 Firefox/86.0,,Firefox,86,Windows,10
5,1,2878,"""",html-button-response,200,508226,0.0-200.0,"<img src='jspsych/CFDfaces/CFD-AM-234-355-N.jpg' height=""250px"">,</br><b>Gregory</b>",1,256,IntactOrRearranged,Test,"""","""","""","""",CFD-AM-213-056-N.jpg,Timothy,1,1,"""","""",1,"""",3/22/2021 19:57,71.86.185.24,Mozilla/5.0 (Windows NT 10.0; Win64; x64; rv:86.0) Gecko/20100101 Firefox/86.0,,Firefox,86,Windows,10
5,1,3536,"""",html-slider-response,201,511781,0.0-201.0,"<img src='jspsych/CFDfaces/CFD-AM-234-355-N.jpg' height=""250px"">,</br><b>Gregory</b>","""",256,ConfidenceQuery,Test,"""","""","""","""",CFD-AM-213-056-N.jpg,Timothy,1,"""",0,86,1,"""",3/22/2021 19:57,71.86.185.24,Mozilla/5.0 (Windows NT 10.0; Win64; x64; rv:86.0) Gecko/20100101 Firefox/86.0,,Firefox,86,Windows,10
5,1,null,"""",html-keyboard-response,202,512785,0.0-202.0,"<div style=""font-size:60px;"">+</div>","""",256,ITI,Test,null,1000,"""","""","""","""","""","""","""","""",1,"""",3/22/2021 19:57,71.86.185.24,Mozilla/5.0 (Windows NT 10.0; Win64; x64; rv:86.0) Gecko/20100101 Firefox/86.0,,Firefox,86,Windows,10
5,1,null,"""",image-keyboard-response,203,513065,0.0-203.0,jspsych/scrambledNeutralFaces/scrambledAM31NES.JPG,"""",256,forwardMask,Test,null,250,"""",n,"""","""","""","""","""","""",1,"""",3/22/2021 19:57,71.86.185.24,Mozilla/5.0 (Windows NT 10.0; Win64; x64; rv:86.0) Gecko/20100101 Firefox/86.0,,Firefox,86,Windows,10
5,1,null,"""",image-keyboard-response,204,513105,0.0-204.0,jspsych/neutralFaces/AM31NES.JPG,"""",256,Cue,Test,null,16,"""","""","""","""","""","""","""","""",1,"""",3/22/2021 19:57,71.86.185.24,Mozilla/5.0 (Windows NT 10.0; Win64; x64; rv:86.0) Gecko/20100101 Firefox/86.0,,Firefox,86,Windows,10
5,1,null,"""",image-keyboard-response,205,513225,0.0-205.0,jspsych/neutralFaces/AM17NES.JPG,"""",256,backwardMask,Test,null,100,"""","""","""","""","""","""","""","""",1,"""",3/22/2021 19:57,71.86.185.24,Mozilla/5.0 (Windows NT 10.0; Win64; x64; rv:86.0) Gecko/20100101 Firefox/86.0,,Firefox,86,Windows,10
5,1,null,"""",html-keyboard-response,206,514243,0.0-206.0,"<div style=""font-size:60px;"">+</div>","""",256,fixationBtwnNeutralMaskAndPrompt,Test,null,1000,"""","""","""","""","""","""","""","""",1,"""",3/22/2021 19:57,71.86.185.24,Mozilla/5.0 (Windows NT 10.0; Win64; x64; rv:86.0) Gecko/20100101 Firefox/86.0,,Firefox,86,Windows,10
5,1,1873,"""",html-button-response,207,516119,0.0-207.0,"<img src='jspsych/CFDfaces/CFD-WM-232-070-N.jpg' height=""250px"">,</br><b>Brian</b>",0,256,IntactOrRearranged,Test,"""","""","""","""",CFD-BM-022-022-N.jpg,Kenneth,0,0,"""","""",1,"""",3/22/2021 19:57,71.86.185.24,Mozilla/5.0 (Windows NT 10.0; Win64; x64; rv:86.0) Gecko/20100101 Firefox/86.0,,Firefox,86,Windows,10
5,1,2452,"""",html-slider-response,208,518577,0.0-208.0,"<img src='jspsych/CFDfaces/CFD-WM-232-070-N.jpg' height=""250px"">,</br><b>Brian</b>","""",256,ConfidenceQuery,Test,"""","""","""","""",CFD-BM-022-022-N.jpg,Kenneth,0,"""",0,27,1,"""",3/22/2021 19:57,71.86.185.24,Mozilla/5.0 (Windows NT 10.0; Win64; x64; rv:86.0) Gecko/20100101 Firefox/86.0,,Firefox,86,Windows,10
5,1,null,"""",html-keyboard-response,209,519605,0.0-209.0,"<div style=""font-size:60px;"">+</div>","""",256,ITI,Test,null,1000,"""","""","""","""","""","""","""","""",1,"""",3/22/2021 19:57,71.86.185.24,Mozilla/5.0 (Windows NT 10.0; Win64; x64; rv:86.0) Gecko/20100101 Firefox/86.0,,Firefox,86,Windows,10
5,1,null,"""",image-keyboard-response,210,519874,0.0-210.0,jspsych/scrambledNeutralFaces/scrambledBF25NES.JPG,"""",256,forwardMask,Test,null,250,"""",n,"""","""","""","""","""","""",1,"""",3/22/2021 19:57,71.86.185.24,Mozilla/5.0 (Windows NT 10.0; Win64; x64; rv:86.0) Gecko/20100101 Firefox/86.0,,Firefox,86,Windows,10
5,1,null,"""",image-keyboard-response,211,519914,0.0-211.0,jspsych/neutralFaces/BF25NES.JPG,"""",256,Cue,Test,null,16,"""","""","""","""","""","""","""","""",1,"""",3/22/2021 19:57,71.86.185.24,Mozilla/5.0 (Windows NT 10.0; Win64; x64; rv:86.0) Gecko/20100101 Firefox/86.0,,Firefox,86,Windows,10
5,1,null,"""",image-keyboard-response,212,520035,0.0-212.0,jspsych/neutralFaces/AF09NES.JPG,"""",256,backwardMask,Test,null,100,"""","""","""","""","""","""","""","""",1,"""",3/22/2021 19:57,71.86.185.24,Mozilla/5.0 (Windows NT 10.0; Win64; x64; rv:86.0) Gecko/20100101 Firefox/86.0,,Firefox,86,Windows,10
5,1,null,"""",html-keyboard-response,213,521044,0.0-213.0,"<div style=""font-size:60px;"">+</div>","""",256,fixationBtwnNeutralMaskAndPrompt,Test,null,1000,"""","""","""","""","""","""","""","""",1,"""",3/22/2021 19:57,71.86.185.24,Mozilla/5.0 (Windows NT 10.0; Win64; x64; rv:86.0) Gecko/20100101 Firefox/86.0,,Firefox,86,Windows,10
5,1,3520,"""",html-button-response,214,524567,0.0-214.0,"<img src='jspsych/CFDfaces/CFD-WF-220-101-N.jpg' height=""250px"">,</br><b>Ashley</b>",0,256,IntactOrRearranged,Test,"""","""","""","""",CFD-BF-212-315-N.jpg,Heather,1,0,"""","""",1,"""",3/22/2021 19:57,71.86.185.24,Mozilla/5.0 (Windows NT 10.0; Win64; x64; rv:86.0) Gecko/20100101 Firefox/86.0,,Firefox,86,Windows,10
5,1,1718,"""",html-slider-response,215,526306,0.0-215.0,"<img src='jspsych/CFDfaces/CFD-WF-220-101-N.jpg' height=""250px"">,</br><b>Ashley</b>","""",256,ConfidenceQuery,Test,"""","""","""","""",CFD-BF-212-315-N.jpg,Heather,1,"""",0,87,1,"""",3/22/2021 19:57,71.86.185.24,Mozilla/5.0 (Windows NT 10.0; Win64; x64; rv:86.0) Gecko/20100101 Firefox/86.0,,Firefox,86,Windows,10
5,1,null,"""",html-keyboard-response,216,527315,0.0-216.0,"<div style=""font-size:60px;"">+</div>","""",256,ITI,Test,null,1000,"""","""","""","""","""","""","""","""",1,"""",3/22/2021 19:57,71.86.185.24,Mozilla/5.0 (Windows NT 10.0; Win64; x64; rv:86.0) Gecko/20100101 Firefox/86.0,,Firefox,86,Windows,10
5,1,null,"""",image-keyboard-response,217,527571,0.0-217.0,jspsych/scrambledNeutralFaces/scrambledAF20NES.JPG,"""",256,forwardMask,Test,null,250,"""",n,"""","""","""","""","""","""",1,"""",3/22/2021 19:57,71.86.185.24,Mozilla/5.0 (Windows NT 10.0; Win64; x64; rv:86.0) Gecko/20100101 Firefox/86.0,,Firefox,86,Windows,10
5,1,null,"""",image-keyboard-response,218,527595,0.0-218.0,jspsych/neutralFaces/AF20NES.JPG,"""",256,Cue,Test,null,16,"""","""","""","""","""","""","""","""",1,"""",3/22/2021 19:57,71.86.185.24,Mozilla/5.0 (Windows NT 10.0; Win64; x64; rv:86.0) Gecko/20100101 Firefox/86.0,,Firefox,86,Windows,10
5,1,null,"""",image-keyboard-response,219,527714,0.0-219.0,jspsych/neutralFaces/AF05NES.JPG,"""",256,backwardMask,Test,null,100,"""","""","""","""","""","""","""","""",1,"""",3/22/2021 19:57,71.86.185.24,Mozilla/5.0 (Windows NT 10.0; Win64; x64; rv:86.0) Gecko/20100101 Firefox/86.0,,Firefox,86,Windows,10
5,1,null,"""",html-keyboard-response,220,528724,0.0-220.0,"<div style=""font-size:60px;"">+</div>","""",256,fixationBtwnNeutralMaskAndPrompt,Test,null,1000,"""","""","""","""","""","""","""","""",1,"""",3/22/2021 19:57,71.86.185.24,Mozilla/5.0 (Windows NT 10.0; Win64; x64; rv:86.0) Gecko/20100101 Firefox/86.0,,Firefox,86,Windows,10
5,1,1880,"""",html-button-response,221,530620,0.0-221.0,"<img src='jspsych/CFDfaces/CFD-WF-038-021-N.jpg' height=""250px"">,</br><b>Stephanie</b>",0,256,IntactOrRearranged,Test,"""","""","""","""",CFD-WF-218-087-N.jpg,Taylor,0,0,"""","""",1,"""",3/22/2021 19:57,71.86.185.24,Mozilla/5.0 (Windows NT 10.0; Win64; x64; rv:86.0) Gecko/20100101 Firefox/86.0,,Firefox,86,Windows,10
5,1,2235,"""",html-slider-response,222,532862,0.0-222.0,"<img src='jspsych/CFDfaces/CFD-WF-038-021-N.jpg' height=""250px"">,</br><b>Stephanie</b>","""",256,ConfidenceQuery,Test,"""","""","""","""",CFD-WF-218-087-N.jpg,Taylor,0,"""",0,65,1,"""",3/22/2021 19:57,71.86.185.24,Mozilla/5.0 (Windows NT 10.0; Win64; x64; rv:86.0) Gecko/20100101 Firefox/86.0,,Firefox,86,Windows,10
5,1,null,"""",html-keyboard-response,223,533886,0.0-223.0,"<div style=""font-size:60px;"">+</div>","""",256,ITI,Test,null,1000,"""","""","""","""","""","""","""","""",1,"""",3/22/2021 19:57,71.86.185.24,Mozilla/5.0 (Windows NT 10.0; Win64; x64; rv:86.0) Gecko/20100101 Firefox/86.0,,Firefox,86,Windows,10
5,1,null,"""",image-keyboard-response,224,534144,0.0-224.0,jspsych/scrambledNeutralFaces/scrambledAF09NES.JPG,"""",256,forwardMask,Test,null,250,"""",n,"""","""","""","""","""","""",1,"""",3/22/2021 19:57,71.86.185.24,Mozilla/5.0 (Windows NT 10.0; Win64; x64; rv:86.0) Gecko/20100101 Firefox/86.0,,Firefox,86,Windows,10
5,1,null,"""",image-keyboard-response,225,534164,0.0-225.0,jspsych/neutralFaces/AF09NES.JPG,"""",256,Cue,Test,null,16,"""","""","""","""","""","""","""","""",1,"""",3/22/2021 19:57,71.86.185.24,Mozilla/5.0 (Windows NT 10.0; Win64; x64; rv:86.0) Gecko/20100101 Firefox/86.0,,Firefox,86,Windows,10
5,1,null,"""",image-keyboard-response,226,534272,0.0-226.0,jspsych/neutralFaces/AF12NES.JPG,"""",256,backwardMask,Test,null,100,"""","""","""","""","""","""","""","""",1,"""",3/22/2021 19:57,71.86.185.24,Mozilla/5.0 (Windows NT 10.0; Win64; x64; rv:86.0) Gecko/20100101 Firefox/86.0,,Firefox,86,Windows,10
5,1,null,"""",html-keyboard-response,227,535284,0.0-227.0,"<div style=""font-size:60px;"">+</div>","""",256,fixationBtwnNeutralMaskAndPrompt,Test,null,1000,"""","""","""","""","""","""","""","""",1,"""",3/22/2021 19:57,71.86.185.24,Mozilla/5.0 (Windows NT 10.0; Win64; x64; rv:86.0) Gecko/20100101 Firefox/86.0,,Firefox,86,Windows,10
5,1,null,"""",html-button-response,228,540295,0.0-228.0,"<img src='jspsych/CFDfaces/CFD-BM-203-001-N.jpg' height=""250px"">,</br><b>Joshua</b>",null,256,IntactOrRearranged,Test,"""","""","""","""",CFD-AM-230-150-N.jpg,Travis,1,"""","""","""",1,"""",3/22/2021 19:57,71.86.185.24,Mozilla/5.0 (Windows NT 10.0; Win64; x64; rv:86.0) Gecko/20100101 Firefox/86.0,,Firefox,86,Windows,10
5,1,2167,"""",html-slider-response,229,542481,0.0-229.0,"<img src='jspsych/CFDfaces/CFD-BM-203-001-N.jpg' height=""250px"">,</br><b>Joshua</b>","""",256,ConfidenceQuery,Test,"""","""","""","""",CFD-AM-230-150-N.jpg,Travis,1,"""",0,28,1,"""",3/22/2021 19:57,71.86.185.24,Mozilla/5.0 (Windows NT 10.0; Win64; x64; rv:86.0) Gecko/20100101 Firefox/86.0,,Firefox,86,Windows,10
5,1,null,"""",html-keyboard-response,230,543484,0.0-230.0,"<div style=""font-size:60px;"">+</div>","""",256,ITI,Test,null,1000,"""","""","""","""","""","""","""","""",1,"""",3/22/2021 19:57,71.86.185.24,Mozilla/5.0 (Windows NT 10.0; Win64; x64; rv:86.0) Gecko/20100101 Firefox/86.0,,Firefox,86,Windows,10
5,1,null,"""",image-keyboard-response,231,543745,0.0-231.0,jspsych/scrambledNeutralFaces/scrambledAM02NES.JPG,"""",256,forwardMask,Test,null,250,"""",n,"""","""","""","""","""","""",1,"""",3/22/2021 19:57,71.86.185.24,Mozilla/5.0 (Windows NT 10.0; Win64; x64; rv:86.0) Gecko/20100101 Firefox/86.0,,Firefox,86,Windows,10
5,1,null,"""",image-keyboard-response,232,543784,0.0-232.0,jspsych/neutralFaces/AM02NES.JPG,"""",256,Cue,Test,null,16,"""","""","""","""","""","""","""","""",1,"""",3/22/2021 19:57,71.86.185.24,Mozilla/5.0 (Windows NT 10.0; Win64; x64; rv:86.0) Gecko/20100101 Firefox/86.0,,Firefox,86,Windows,10
5,1,null,"""",image-keyboard-response,233,543924,0.0-233.0,jspsych/neutralFaces/BM23NES.JPG,"""",256,backwardMask,Test,null,100,"""","""","""","""","""","""","""","""",1,"""",3/22/2021 19:57,71.86.185.24,Mozilla/5.0 (Windows NT 10.0; Win64; x64; rv:86.0) Gecko/20100101 Firefox/86.0,,Firefox,86,Windows,10
5,1,null,"""",html-keyboard-response,234,544945,0.0-234.0,"<div style=""font-size:60px;"">+</div>","""",256,fixationBtwnNeutralMaskAndPrompt,Test,null,1000,"""","""","""","""","""","""","""","""",1,"""",3/22/2021 19:57,71.86.185.24,Mozilla/5.0 (Windows NT 10.0; Win64; x64; rv:86.0) Gecko/20100101 Firefox/86.0,,Firefox,86,Windows,10
5,1,3195,"""",html-button-response,235,548144,0.0-235.0,"<img src='jspsych/CFDfaces/CFD-BM-029-024-N.jpg' height=""250px"">,</br><b>Daniel</b>",1,256,IntactOrRearranged,Test,"""","""","""","""",CFD-WM-015-002-N.jpg,Ryan,1,1,"""","""",1,"""",3/22/2021 19:57,71.86.185.24,Mozilla/5.0 (Windows NT 10.0; Win64; x64; rv:86.0) Gecko/20100101 Firefox/86.0,,Firefox,86,Windows,10
5,1,2200,"""",html-slider-response,236,550365,0.0-236.0,"<img src='jspsych/CFDfaces/CFD-BM-029-024-N.jpg' height=""250px"">,</br><b>Daniel</b>","""",256,ConfidenceQuery,Test,"""","""","""","""",CFD-WM-015-002-N.jpg,Ryan,1,"""",0,64,1,"""",3/22/2021 19:57,71.86.185.24,Mozilla/5.0 (Windows NT 10.0; Win64; x64; rv:86.0) Gecko/20100101 Firefox/86.0,,Firefox,86,Windows,10
5,1,null,"""",html-keyboard-response,237,551384,0.0-237.0,"<div style=""font-size:60px;"">+</div>","""",256,ITI,Test,null,1000,"""","""","""","""","""","""","""","""",1,"""",3/22/2021 19:57,71.86.185.24,Mozilla/5.0 (Windows NT 10.0; Win64; x64; rv:86.0) Gecko/20100101 Firefox/86.0,,Firefox,86,Windows,10
5,1,null,"""",image-keyboard-response,238,551645,0.0-238.0,jspsych/scrambledDisgustFaces/scrambledBM17DIS.JPG,"""",256,forwardMask,Test,null,250,"""",d,"""","""","""","""","""","""",1,"""",3/22/2021 19:57,71.86.185.24,Mozilla/5.0 (Windows NT 10.0; Win64; x64; rv:86.0) Gecko/20100101 Firefox/86.0,,Firefox,86,Windows,10
5,1,null,"""",image-keyboard-response,239,551685,0.0-239.0,jspsych/disgustFaces/BM18DIS.JPG,"""",256,Cue,Test,null,16,"""","""","""","""","""","""","""","""",1,"""",3/22/2021 19:57,71.86.185.24,Mozilla/5.0 (Windows NT 10.0; Win64; x64; rv:86.0) Gecko/20100101 Firefox/86.0,,Firefox,86,Windows,10
5,1,null,"""",image-keyboard-response,240,551804,0.0-240.0,jspsych/neutralFaces/BM04NES.JPG,"""",256,backwardMask,Test,null,100,"""","""","""","""","""","""","""","""",1,"""",3/22/2021 19:57,71.86.185.24,Mozilla/5.0 (Windows NT 10.0; Win64; x64; rv:86.0) Gecko/20100101 Firefox/86.0,,Firefox,86,Windows,10
5,1,null,"""",html-keyboard-response,241,552824,0.0-241.0,"<div style=""font-size:60px;"">+</div>","""",256,fixationBtwnNeutralMaskAndPrompt,Test,null,1000,"""","""","""","""","""","""","""","""",1,"""",3/22/2021 19:57,71.86.185.24,Mozilla/5.0 (Windows NT 10.0; Win64; x64; rv:86.0) Gecko/20100101 Firefox/86.0,,Firefox,86,Windows,10
5,1,1612,"""",html-button-response,242,554439,0.0-242.0,"<img src='jspsych/CFDfaces/CFD-WF-018-017-N.jpg' height=""250px"">,</br><b>Meghan</b>",0,256,IntactOrRearranged,Test,"""","""","""","""",CFD-BF-010-001-N.jpg,Jenna,0,0,"""","""",1,"""",3/22/2021 19:57,71.86.185.24,Mozilla/5.0 (Windows NT 10.0; Win64; x64; rv:86.0) Gecko/20100101 Firefox/86.0,,Firefox,86,Windows,10
5,1,2061,"""",html-slider-response,243,556508,0.0-243.0,"<img src='jspsych/CFDfaces/CFD-WF-018-017-N.jpg' height=""250px"">,</br><b>Meghan</b>","""",256,ConfidenceQuery,Test,"""","""","""","""",CFD-BF-010-001-N.jpg,Jenna,0,"""",0,83,1,"""",3/22/2021 19:57,71.86.185.24,Mozilla/5.0 (Windows NT 10.0; Win64; x64; rv:86.0) Gecko/20100101 Firefox/86.0,,Firefox,86,Windows,10
5,1,null,"""",html-keyboard-response,244,557545,0.0-244.0,"<div style=""font-size:60px;"">+</div>","""",256,ITI,Test,null,1000,"""","""","""","""","""","""","""","""",1,"""",3/22/2021 19:57,71.86.185.24,Mozilla/5.0 (Windows NT 10.0; Win64; x64; rv:86.0) Gecko/20100101 Firefox/86.0,,Firefox,86,Windows,10
5,1,null,"""",image-keyboard-response,245,557814,0.0-245.0,jspsych/scrambledDisgustFaces/scrambledAM09DIS.JPG,"""",256,forwardMask,Test,null,250,"""",d,"""","""","""","""","""","""",1,"""",3/22/2021 19:57,71.86.185.24,Mozilla/5.0 (Windows NT 10.0; Win64; x64; rv:86.0) Gecko/20100101 Firefox/86.0,,Firefox,86,Windows,10
5,1,null,"""",image-keyboard-response,246,557844,0.0-246.0,jspsych/disgustFaces/AM09DIS.JPG,"""",256,Cue,Test,null,16,"""","""","""","""","""","""","""","""",1,"""",3/22/2021 19:57,71.86.185.24,Mozilla/5.0 (Windows NT 10.0; Win64; x64; rv:86.0) Gecko/20100101 Firefox/86.0,,Firefox,86,Windows,10
5,1,null,"""",image-keyboard-response,247,557965,0.0-247.0,jspsych/neutralFaces/AM08NES.JPG,"""",256,backwardMask,Test,null,100,"""","""","""","""","""","""","""","""",1,"""",3/22/2021 19:57,71.86.185.24,Mozilla/5.0 (Windows NT 10.0; Win64; x64; rv:86.0) Gecko/20100101 Firefox/86.0,,Firefox,86,Windows,10
5,1,null,"""",html-keyboard-response,248,558970,0.0-248.0,"<div style=""font-size:60px;"">+</div>","""",256,fixationBtwnNeutralMaskAndPrompt,Test,null,1000,"""","""","""","""","""","""","""","""",1,"""",3/22/2021 19:57,71.86.185.24,Mozilla/5.0 (Windows NT 10.0; Win64; x64; rv:86.0) Gecko/20100101 Firefox/86.0,,Firefox,86,Windows,10
5,1,1519,"""",html-button-response,249,560493,0.0-249.0,"<img src='jspsych/CFDfaces/CFD-WM-011-002-N.jpg' height=""250px"">,</br><b>Robert</b>",0,256,IntactOrRearranged,Test,"""","""","""","""",CFD-BM-026-002-N.jpg,Vincent,0,0,"""","""",1,"""",3/22/2021 19:57,71.86.185.24,Mozilla/5.0 (Windows NT 10.0; Win64; x64; rv:86.0) Gecko/20100101 Firefox/86.0,,Firefox,86,Windows,10
5,1,2274,"""",html-slider-response,250,562788,0.0-250.0,"<img src='jspsych/CFDfaces/CFD-WM-011-002-N.jpg' height=""250px"">,</br><b>Robert</b>","""",256,ConfidenceQuery,Test,"""","""","""","""",CFD-BM-026-002-N.jpg,Vincent,0,"""",0,100,1,"""",3/22/2021 19:57,71.86.185.24,Mozilla/5.0 (Windows NT 10.0; Win64; x64; rv:86.0) Gecko/20100101 Firefox/86.0,,Firefox,86,Windows,10
5,1,null,"""",html-keyboard-response,251,563794,0.0-251.0,"<div style=""font-size:60px;"">+</div>","""",256,ITI,Test,null,1000,"""","""","""","""","""","""","""","""",1,"""",3/22/2021 19:57,71.86.185.24,Mozilla/5.0 (Windows NT 10.0; Win64; x64; rv:86.0) Gecko/20100101 Firefox/86.0,,Firefox,86,Windows,10
5,1,null,"""",image-keyboard-response,252,564054,0.0-252.0,jspsych/scrambledDisgustFaces/scrambledAF25DIS.JPG,"""",256,forwardMask,Test,null,250,"""",d,"""","""","""","""","""","""",1,"""",3/22/2021 19:57,71.86.185.24,Mozilla/5.0 (Windows NT 10.0; Win64; x64; rv:86.0) Gecko/20100101 Firefox/86.0,,Firefox,86,Windows,10
5,1,null,"""",image-keyboard-response,253,564094,0.0-253.0,jspsych/disgustFaces/AF25DIS.JPG,"""",256,Cue,Test,null,16,"""","""","""","""","""","""","""","""",1,"""",3/22/2021 19:57,71.86.185.24,Mozilla/5.0 (Windows NT 10.0; Win64; x64; rv:86.0) Gecko/20100101 Firefox/86.0,,Firefox,86,Windows,10
5,1,null,"""",image-keyboard-response,254,564214,0.0-254.0,jspsych/neutralFaces/BF05NES.JPG,"""",256,backwardMask,Test,null,100,"""","""","""","""","""","""","""","""",1,"""",3/22/2021 19:57,71.86.185.24,Mozilla/5.0 (Windows NT 10.0; Win64; x64; rv:86.0) Gecko/20100101 Firefox/86.0,,Firefox,86,Windows,10
5,1,null,"""",html-keyboard-response,255,565234,0.0-255.0,"<div style=""font-size:60px;"">+</div>","""",256,fixationBtwnNeutralMaskAndPrompt,Test,null,1000,"""","""","""","""","""","""","""","""",1,"""",3/22/2021 19:57,71.86.185.24,Mozilla/5.0 (Windows NT 10.0; Win64; x64; rv:86.0) Gecko/20100101 Firefox/86.0,,Firefox,86,Windows,10
5,1,2362,"""",html-button-response,256,567599,0.0-256.0,"<img src='jspsych/CFDfaces/CFD-AF-242-158-N.jpg' height=""250px"">,</br><b>Andrea</b>",1,256,IntactOrRearranged,Test,"""","""","""","""",CFD-WM-237-052-N.jpg,Sean,1,1,"""","""",1,"""",3/22/2021 19:57,71.86.185.24,Mozilla/5.0 (Windows NT 10.0; Win64; x64; rv:86.0) Gecko/20100101 Firefox/86.0,,Firefox,86,Windows,10
5,1,1578,"""",html-slider-response,257,569198,0.0-257.0,"<img src='jspsych/CFDfaces/CFD-AF-242-158-N.jpg' height=""250px"">,</br><b>Andrea</b>","""",256,ConfidenceQuery,Test,"""","""","""","""",CFD-WM-237-052-N.jpg,Sean,1,"""",0,18,1,"""",3/22/2021 19:57,71.86.185.24,Mozilla/5.0 (Windows NT 10.0; Win64; x64; rv:86.0) Gecko/20100101 Firefox/86.0,,Firefox,86,Windows,10
5,1,null,"""",html-keyboard-response,258,570204,0.0-258.0,"<div style=""font-size:60px;"">+</div>","""",256,ITI,Test,null,1000,"""","""","""","""","""","""","""","""",1,"""",3/22/2021 19:57,71.86.185.24,Mozilla/5.0 (Windows NT 10.0; Win64; x64; rv:86.0) Gecko/20100101 Firefox/86.0,,Firefox,86,Windows,10
5,1,null,"""",image-keyboard-response,259,570465,0.0-259.0,jspsych/scrambledNeutralFaces/scrambledBM01NES.JPG,"""",256,forwardMask,Test,null,250,"""",n,"""","""","""","""","""","""",1,"""",3/22/2021 19:57,71.86.185.24,Mozilla/5.0 (Windows NT 10.0; Win64; x64; rv:86.0) Gecko/20100101 Firefox/86.0,,Firefox,86,Windows,10
5,1,null,"""",image-keyboard-response,260,570504,0.0-260.0,jspsych/neutralFaces/BM01NES.JPG,"""",256,Cue,Test,null,16,"""","""","""","""","""","""","""","""",1,"""",3/22/2021 19:57,71.86.185.24,Mozilla/5.0 (Windows NT 10.0; Win64; x64; rv:86.0) Gecko/20100101 Firefox/86.0,,Firefox,86,Windows,10
5,1,null,"""",image-keyboard-response,261,570624,0.0-261.0,jspsych/neutralFaces/AM29NES.JPG,"""",256,backwardMask,Test,null,100,"""","""","""","""","""","""","""","""",1,"""",3/22/2021 19:57,71.86.185.24,Mozilla/5.0 (Windows NT 10.0; Win64; x64; rv:86.0) Gecko/20100101 Firefox/86.0,,Firefox,86,Windows,10
5,1,null,"""",html-keyboard-response,262,571626,0.0-262.0,"<div style=""font-size:60px;"">+</div>","""",256,fixationBtwnNeutralMaskAndPrompt,Test,null,1000,"""","""","""","""","""","""","""","""",1,"""",3/22/2021 19:57,71.86.185.24,Mozilla/5.0 (Windows NT 10.0; Win64; x64; rv:86.0) Gecko/20100101 Firefox/86.0,,Firefox,86,Windows,10
5,1,3302,"""",html-button-response,263,574946,0.0-263.0,"<img src='jspsych/CFDfaces/CFD-WF-024-003-N.jpg' height=""250px"">,</br><b>Amanda</b>",1,256,IntactOrRearranged,Test,"""","""","""","""",CFD-LF-204-133-N.jpg,Lindsey,1,1,"""","""",1,"""",3/22/2021 19:57,71.86.185.24,Mozilla/5.0 (Windows NT 10.0; Win64; x64; rv:86.0) Gecko/20100101 Firefox/86.0,,Firefox,86,Windows,10
5,1,2051,"""",html-slider-response,264,577005,0.0-264.0,"<img src='jspsych/CFDfaces/CFD-WF-024-003-N.jpg' height=""250px"">,</br><b>Amanda</b>","""",256,ConfidenceQuery,Test,"""","""","""","""",CFD-LF-204-133-N.jpg,Lindsey,1,"""",0,8,1,"""",3/22/2021 19:57,71.86.185.24,Mozilla/5.0 (Windows NT 10.0; Win64; x64; rv:86.0) Gecko/20100101 Firefox/86.0,,Firefox,86,Windows,10
5,1,null,"""",html-keyboard-response,265,578024,0.0-265.0,"<div style=""font-size:60px;"">+</div>","""",256,ITI,Test,null,1000,"""","""","""","""","""","""","""","""",1,"""",3/22/2021 19:57,71.86.185.24,Mozilla/5.0 (Windows NT 10.0; Win64; x64; rv:86.0) Gecko/20100101 Firefox/86.0,,Firefox,86,Windows,10
5,1,null,"""",image-keyboard-response,266,578284,0.0-266.0,jspsych/scrambledNeutralFaces/scrambledAF29NES.JPG,"""",256,forwardMask,Test,null,250,"""",n,"""","""","""","""","""","""",1,"""",3/22/2021 19:57,71.86.185.24,Mozilla/5.0 (Windows NT 10.0; Win64; x64; rv:86.0) Gecko/20100101 Firefox/86.0,,Firefox,86,Windows,10
5,1,null,"""",image-keyboard-response,267,578325,0.0-267.0,jspsych/neutralFaces/AF29NES.JPG,"""",256,Cue,Test,null,16,"""","""","""","""","""","""","""","""",1,"""",3/22/2021 19:57,71.86.185.24,Mozilla/5.0 (Windows NT 10.0; Win64; x64; rv:86.0) Gecko/20100101 Firefox/86.0,,Firefox,86,Windows,10
5,1,null,"""",image-keyboard-response,268,578444,0.0-268.0,jspsych/neutralFaces/BF05NES.JPG,"""",256,backwardMask,Test,null,100,"""","""","""","""","""","""","""","""",1,"""",3/22/2021 19:57,71.86.185.24,Mozilla/5.0 (Windows NT 10.0; Win64; x64; rv:86.0) Gecko/20100101 Firefox/86.0,,Firefox,86,Windows,10
5,1,null,"""",html-keyboard-response,269,579448,0.0-269.0,"<div style=""font-size:60px;"">+</div>","""",256,fixationBtwnNeutralMaskAndPrompt,Test,null,1000,"""","""","""","""","""","""","""","""",1,"""",3/22/2021 19:57,71.86.185.24,Mozilla/5.0 (Windows NT 10.0; Win64; x64; rv:86.0) Gecko/20100101 Firefox/86.0,,Firefox,86,Windows,10
5,1,1823,"""",html-button-response,270,581275,0.0-270.0,"<img src='jspsych/CFDfaces/CFD-WM-034-030-N.jpg' height=""250px"">,</br><b>Eric</b>",0,256,IntactOrRearranged,Test,"""","""","""","""",CFD-BM-208-065-N.jpg,Luis,1,0,"""","""",1,"""",3/22/2021 19:57,71.86.185.24,Mozilla/5.0 (Windows NT 10.0; Win64; x64; rv:86.0) Gecko/20100101 Firefox/86.0,,Firefox,86,Windows,10
5,1,1750,"""",html-slider-response,271,583046,0.0-271.0,"<img src='jspsych/CFDfaces/CFD-WM-034-030-N.jpg' height=""250px"">,</br><b>Eric</b>","""",256,ConfidenceQuery,Test,"""","""","""","""",CFD-BM-208-065-N.jpg,Luis,1,"""",0,82,1,"""",3/22/2021 19:57,71.86.185.24,Mozilla/5.0 (Windows NT 10.0; Win64; x64; rv:86.0) Gecko/20100101 Firefox/86.0,,Firefox,86,Windows,10
5,1,null,"""",html-keyboard-response,272,584052,0.0-272.0,"<div style=""font-size:60px;"">+</div>","""",256,ITI,Test,null,1000,"""","""","""","""","""","""","""","""",1,"""",3/22/2021 19:57,71.86.185.24,Mozilla/5.0 (Windows NT 10.0; Win64; x64; rv:86.0) Gecko/20100101 Firefox/86.0,,Firefox,86,Windows,10
5,1,null,"""",image-keyboard-response,273,584324,0.0-273.0,jspsych/scrambledNeutralFaces/scrambledAM13NES.JPG,"""",256,forwardMask,Test,null,250,"""",n,"""","""","""","""","""","""",1,"""",3/22/2021 19:57,71.86.185.24,Mozilla/5.0 (Windows NT 10.0; Win64; x64; rv:86.0) Gecko/20100101 Firefox/86.0,,Firefox,86,Windows,10
5,1,null,"""",image-keyboard-response,274,584364,0.0-274.0,jspsych/neutralFaces/AM13NES.JPG,"""",256,Cue,Test,null,16,"""","""","""","""","""","""","""","""",1,"""",3/22/2021 19:57,71.86.185.24,Mozilla/5.0 (Windows NT 10.0; Win64; x64; rv:86.0) Gecko/20100101 Firefox/86.0,,Firefox,86,Windows,10
5,1,null,"""",image-keyboard-response,275,584484,0.0-275.0,jspsych/neutralFaces/AM18NES.JPG,"""",256,backwardMask,Test,null,100,"""","""","""","""","""","""","""","""",1,"""",3/22/2021 19:57,71.86.185.24,Mozilla/5.0 (Windows NT 10.0; Win64; x64; rv:86.0) Gecko/20100101 Firefox/86.0,,Firefox,86,Windows,10
5,1,null,"""",html-keyboard-response,276,585488,0.0-276.0,"<div style=""font-size:60px;"">+</div>","""",256,fixationBtwnNeutralMaskAndPrompt,Test,null,1000,"""","""","""","""","""","""","""","""",1,"""",3/22/2021 19:57,71.86.185.24,Mozilla/5.0 (Windows NT 10.0; Win64; x64; rv:86.0) Gecko/20100101 Firefox/86.0,,Firefox,86,Windows,10
5,1,2368,"""",html-button-response,277,587873,0.0-277.0,"<img src='jspsych/CFDfaces/CFD-BF-039-031-N.jpg' height=""250px"">,</br><b>Elizabeth</b>",0,256,IntactOrRearranged,Test,"""","""","""","""",CFD-BF-004-014-N.jpg,Jasmine,1,0,"""","""",1,"""",3/22/2021 19:57,71.86.185.24,Mozilla/5.0 (Windows NT 10.0; Win64; x64; rv:86.0) Gecko/20100101 Firefox/86.0,,Firefox,86,Windows,10
5,1,1876,"""",html-slider-response,278,589757,0.0-278.0,"<img src='jspsych/CFDfaces/CFD-BF-039-031-N.jpg' height=""250px"">,</br><b>Elizabeth</b>","""",256,ConfidenceQuery,Test,"""","""","""","""",CFD-BF-004-014-N.jpg,Jasmine,1,"""",0,47,1,"""",3/22/2021 19:57,71.86.185.24,Mozilla/5.0 (Windows NT 10.0; Win64; x64; rv:86.0) Gecko/20100101 Firefox/86.0,,Firefox,86,Windows,10
5,1,null,"""",html-keyboard-response,279,590794,0.0-279.0,"<div style=""font-size:60px;"">+</div>","""",256,ITI,Test,null,1000,"""","""","""","""","""","""","""","""",1,"""",3/22/2021 19:57,71.86.185.24,Mozilla/5.0 (Windows NT 10.0; Win64; x64; rv:86.0) Gecko/20100101 Firefox/86.0,,Firefox,86,Windows,10
5,1,null,"""",image-keyboard-response,280,591054,0.0-280.0,jspsych/scrambledDisgustFaces/scrambledAF25DIS.JPG,"""",256,forwardMask,Test,null,250,"""",d,"""","""","""","""","""","""",1,"""",3/22/2021 19:57,71.86.185.24,Mozilla/5.0 (Windows NT 10.0; Win64; x64; rv:86.0) Gecko/20100101 Firefox/86.0,,Firefox,86,Windows,10
5,1,null,"""",image-keyboard-response,281,591074,0.0-281.0,jspsych/disgustFaces/AF25DIS.JPG,"""",256,Cue,Test,null,16,"""","""","""","""","""","""","""","""",1,"""",3/22/2021 19:57,71.86.185.24,Mozilla/5.0 (Windows NT 10.0; Win64; x64; rv:86.0) Gecko/20100101 Firefox/86.0,,Firefox,86,Windows,10
5,1,null,"""",image-keyboard-response,282,591195,0.0-282.0,jspsych/neutralFaces/BF03NES.JPG,"""",256,backwardMask,Test,null,100,"""","""","""","""","""","""","""","""",1,"""",3/22/2021 19:57,71.86.185.24,Mozilla/5.0 (Windows NT 10.0; Win64; x64; rv:86.0) Gecko/20100101 Firefox/86.0,,Firefox,86,Windows,10
5,1,null,"""",html-keyboard-response,283,592204,0.0-283.0,"<div style=""font-size:60px;"">+</div>","""",256,fixationBtwnNeutralMaskAndPrompt,Test,null,1000,"""","""","""","""","""","""","""","""",1,"""",3/22/2021 19:57,71.86.185.24,Mozilla/5.0 (Windows NT 10.0; Win64; x64; rv:86.0) Gecko/20100101 Firefox/86.0,,Firefox,86,Windows,10
5,1,3545,"""",html-button-response,284,595753,0.0-284.0,"<img src='jspsych/CFDfaces/CFD-BF-008-001-N.jpg' height=""250px"">,</br><b>Julie</b>",0,256,IntactOrRearranged,Test,"""","""","""","""",CFD-WM-006-002-N.jpg,Steven,0,0,"""","""",1,"""",3/22/2021 19:57,71.86.185.24,Mozilla/5.0 (Windows NT 10.0; Win64; x64; rv:86.0) Gecko/20100101 Firefox/86.0,,Firefox,86,Windows,10
5,1,1668,"""",html-slider-response,285,597444,0.0-285.0,"<img src='jspsych/CFDfaces/CFD-BF-008-001-N.jpg' height=""250px"">,</br><b>Julie</b>","""",256,ConfidenceQuery,Test,"""","""","""","""",CFD-WM-006-002-N.jpg,Steven,0,"""",0,70,1,"""",3/22/2021 19:57,71.86.185.24,Mozilla/5.0 (Windows NT 10.0; Win64; x64; rv:86.0) Gecko/20100101 Firefox/86.0,,Firefox,86,Windows,10
5,1,null,"""",html-keyboard-response,286,598455,0.0-286.0,"<div style=""font-size:60px;"">+</div>","""",256,ITI,Test,null,1000,"""","""","""","""","""","""","""","""",1,"""",3/22/2021 19:57,71.86.185.24,Mozilla/5.0 (Windows NT 10.0; Win64; x64; rv:86.0) Gecko/20100101 Firefox/86.0,,Firefox,86,Windows,10
5,1,null,"""",image-keyboard-response,287,598714,0.0-287.0,jspsych/scrambledDisgustFaces/scrambledBF15DIS.JPG,"""",256,forwardMask,Test,null,250,"""",d,"""","""","""","""","""","""",1,"""",3/22/2021 19:57,71.86.185.24,Mozilla/5.0 (Windows NT 10.0; Win64; x64; rv:86.0) Gecko/20100101 Firefox/86.0,,Firefox,86,Windows,10
5,1,null,"""",image-keyboard-response,288,598753,0.0-288.0,jspsych/disgustFaces/BF15DIS.JPG,"""",256,Cue,Test,null,16,"""","""","""","""","""","""","""","""",1,"""",3/22/2021 19:57,71.86.185.24,Mozilla/5.0 (Windows NT 10.0; Win64; x64; rv:86.0) Gecko/20100101 Firefox/86.0,,Firefox,86,Windows,10
5,1,null,"""",image-keyboard-response,289,598863,0.0-289.0,jspsych/neutralFaces/AF02NES.JPG,"""",256,backwardMask,Test,null,100,"""","""","""","""","""","""","""","""",1,"""",3/22/2021 19:57,71.86.185.24,Mozilla/5.0 (Windows NT 10.0; Win64; x64; rv:86.0) Gecko/20100101 Firefox/86.0,,Firefox,86,Windows,10
5,1,null,"""",html-keyboard-response,290,599866,0.0-290.0,"<div style=""font-size:60px;"">+</div>","""",256,fixationBtwnNeutralMaskAndPrompt,Test,null,1000,"""","""","""","""","""","""","""","""",1,"""",3/22/2021 19:57,71.86.185.24,Mozilla/5.0 (Windows NT 10.0; Win64; x64; rv:86.0) Gecko/20100101 Firefox/86.0,,Firefox,86,Windows,10
5,1,1542,"""",html-button-response,291,601428,0.0-291.0,"<img src='jspsych/CFDfaces/CFD-BM-001-014-N.jpg' height=""250px"">,</br><b>Ian</b>",0,256,IntactOrRearranged,Test,"""","""","""","""",CFD-BF-001-025-N.jpg,Amy,0,0,"""","""",1,"""",3/22/2021 19:57,71.86.185.24,Mozilla/5.0 (Windows NT 10.0; Win64; x64; rv:86.0) Gecko/20100101 Firefox/86.0,,Firefox,86,Windows,10
5,1,2254,"""",html-slider-response,292,603689,0.0-292.0,"<img src='jspsych/CFDfaces/CFD-BM-001-014-N.jpg' height=""250px"">,</br><b>Ian</b>","""",256,ConfidenceQuery,Test,"""","""","""","""",CFD-BF-001-025-N.jpg,Amy,0,"""",0,100,1,"""",3/22/2021 19:57,71.86.185.24,Mozilla/5.0 (Windows NT 10.0; Win64; x64; rv:86.0) Gecko/20100101 Firefox/86.0,,Firefox,86,Windows,10
5,1,null,"""",html-keyboard-response,293,604714,0.0-293.0,"<div style=""font-size:60px;"">+</div>","""",256,ITI,Test,null,1000,"""","""","""","""","""","""","""","""",1,"""",3/22/2021 19:57,71.86.185.24,Mozilla/5.0 (Windows NT 10.0; Win64; x64; rv:86.0) Gecko/20100101 Firefox/86.0,,Firefox,86,Windows,10
5,1,null,"""",image-keyboard-response,294,604974,0.0-294.0,jspsych/scrambledDisgustFaces/scrambledAF21DIS.JPG,"""",256,forwardMask,Test,null,250,"""",d,"""","""","""","""","""","""",1,"""",3/22/2021 19:57,71.86.185.24,Mozilla/5.0 (Windows NT 10.0; Win64; x64; rv:86.0) Gecko/20100101 Firefox/86.0,,Firefox,86,Windows,10
5,1,null,"""",image-keyboard-response,295,605014,0.0-295.0,jspsych/disgustFaces/AF21DIS.JPG,"""",256,Cue,Test,null,16,"""","""","""","""","""","""","""","""",1,"""",3/22/2021 19:57,71.86.185.24,Mozilla/5.0 (Windows NT 10.0; Win64; x64; rv:86.0) Gecko/20100101 Firefox/86.0,,Firefox,86,Windows,10
5,1,null,"""",image-keyboard-response,296,605135,0.0-296.0,jspsych/neutralFaces/AF31NES.JPG,"""",256,backwardMask,Test,null,100,"""","""","""","""","""","""","""","""",1,"""",3/22/2021 19:57,71.86.185.24,Mozilla/5.0 (Windows NT 10.0; Win64; x64; rv:86.0) Gecko/20100101 Firefox/86.0,,Firefox,86,Windows,10
5,1,null,"""",html-keyboard-response,297,606149,0.0-297.0,"<div style=""font-size:60px;"">+</div>","""",256,fixationBtwnNeutralMaskAndPrompt,Test,null,1000,"""","""","""","""","""","""","""","""",1,"""",3/22/2021 19:57,71.86.185.24,Mozilla/5.0 (Windows NT 10.0; Win64; x64; rv:86.0) Gecko/20100101 Firefox/86.0,,Firefox,86,Windows,10
