run_id,condition,rt,responses,trial_type,trial_index,time_elapsed,internal_node_id,stimulus,button_pressed,iTrial,Phase,ExperimentPhase,key_press,StimulusDurationSetting,CharacterResponse,correctResponse,Face,Name,rearranged,didSubjectEnterRearranged,slider_start,response,Block,question_order,recorded_at,ip,user_agent,device,browser,browser_version,platform,platform_version
6,1,10345,"{""Q0"":""AFRJKS3Z3H4CA""}",survey-text,0,10348,0.0-0.0,"""","""","""","""","""","""","""","""","""","""","""","""","""","""","""","""","""",3/22/2021 19:59,104.185.203.70,Mozilla/5.0 (Windows NT 10.0; Win64; x64; rv:86.0) Gecko/20100101 Firefox/86.0,,Firefox,86,Windows,10
6,1,10826,"""",image-button-response,1,21187,0.0-1.0,directionsMemoryAssociation1.JPG,0,1,IntroDirections1,break,"""","""","""","""","""","""","""","""","""","""","""","""",3/22/2021 19:59,104.185.203.70,Mozilla/5.0 (Windows NT 10.0; Win64; x64; rv:86.0) Gecko/20100101 Firefox/86.0,,Firefox,86,Windows,10
6,1,10901,"""",image-button-response,2,32100,0.0-2.0,directionsMemoryAssociation2.JPG,0,1,IntroDirections2,break,"""","""","""","""","""","""","""","""","""","""","""","""",3/22/2021 19:59,104.185.203.70,Mozilla/5.0 (Windows NT 10.0; Win64; x64; rv:86.0) Gecko/20100101 Firefox/86.0,,Firefox,86,Windows,10
6,1,null,"""",html-keyboard-response,3,37111,0.0-3.0,"<img src='jspsych/CFDfaces/CFD-AM-207-108-N.jpg' height=""250px"">,</br><b>Carlos</b>","""",1,IntactFace,Practice,null,5000,"""","""","""","""","""","""","""","""","""","""",3/22/2021 19:59,104.185.203.70,Mozilla/5.0 (Windows NT 10.0; Win64; x64; rv:86.0) Gecko/20100101 Firefox/86.0,,Firefox,86,Windows,10
6,1,null,"""",html-keyboard-response,4,37633,0.0-4.0,"<div style=""font-size:60px;"">+</div>","""",1,ITI,Practice,null,1000,"""","""","""","""","""","""","""","""","""","""",3/22/2021 19:59,104.185.203.70,Mozilla/5.0 (Windows NT 10.0; Win64; x64; rv:86.0) Gecko/20100101 Firefox/86.0,,Firefox,86,Windows,10
6,1,3380,"""",html-keyboard-response,5,42662,0.0-5.0,"<img src='jspsych/CFDfaces/CFD-BF-019-001-N.jpg' height=""250px"">,</br><b>Cassandra</b>","""",2,IntactFace,Practice,70,5000,f,"""","""","""","""","""","""","""","""","""",3/22/2021 19:59,104.185.203.70,Mozilla/5.0 (Windows NT 10.0; Win64; x64; rv:86.0) Gecko/20100101 Firefox/86.0,,Firefox,86,Windows,10
6,1,null,"""",html-keyboard-response,6,43172,0.0-6.0,"<div style=""font-size:60px;"">+</div>","""",2,ITI,Practice,null,1000,"""","""","""","""","""","""","""","""","""","""",3/22/2021 19:59,104.185.203.70,Mozilla/5.0 (Windows NT 10.0; Win64; x64; rv:86.0) Gecko/20100101 Firefox/86.0,,Firefox,86,Windows,10
6,1,2695,"""",html-keyboard-response,7,48185,0.0-7.0,"<img src='jspsych/CFDfaces/CFD-WF-220-101-N.jpg' height=""250px"">,</br><b>Tara</b>","""",3,IntactFace,Practice,70,5000,f,"""","""","""","""","""","""","""","""","""",3/22/2021 19:59,104.185.203.70,Mozilla/5.0 (Windows NT 10.0; Win64; x64; rv:86.0) Gecko/20100101 Firefox/86.0,,Firefox,86,Windows,10
6,1,null,"""",html-keyboard-response,8,48702,0.0-8.0,"<div style=""font-size:60px;"">+</div>","""",3,ITI,Practice,null,1000,"""","""","""","""","""","""","""","""","""","""",3/22/2021 19:59,104.185.203.70,Mozilla/5.0 (Windows NT 10.0; Win64; x64; rv:86.0) Gecko/20100101 Firefox/86.0,,Firefox,86,Windows,10
6,1,4674,"""",html-keyboard-response,9,53724,0.0-9.0,"<img src='jspsych/CFDfaces/CFD-BF-221-223-N.jpg' height=""250px"">,</br><b>Shannon</b>","""",4,IntactFace,Practice,78,5000,n,"""","""","""","""","""","""","""","""","""",3/22/2021 19:59,104.185.203.70,Mozilla/5.0 (Windows NT 10.0; Win64; x64; rv:86.0) Gecko/20100101 Firefox/86.0,,Firefox,86,Windows,10
6,1,null,"""",html-keyboard-response,10,54234,0.0-10.0,"<div style=""font-size:60px;"">+</div>","""",4,ITI,Practice,null,1000,"""","""","""","""","""","""","""","""","""","""",3/22/2021 19:59,104.185.203.70,Mozilla/5.0 (Windows NT 10.0; Win64; x64; rv:86.0) Gecko/20100101 Firefox/86.0,,Firefox,86,Windows,10
6,1,2282,"""",html-keyboard-response,11,59253,0.0-11.0,"<img src='jspsych/CFDfaces/CFD-BM-002-013-N.jpg' height=""250px"">,</br><b>Samuel</b>","""",5,IntactFace,Practice,70,5000,f,"""","""","""","""","""","""","""","""","""",3/22/2021 19:59,104.185.203.70,Mozilla/5.0 (Windows NT 10.0; Win64; x64; rv:86.0) Gecko/20100101 Firefox/86.0,,Firefox,86,Windows,10
6,1,null,"""",html-keyboard-response,12,59761,0.0-12.0,"<div style=""font-size:60px;"">+</div>","""",5,ITI,Practice,null,1000,"""","""","""","""","""","""","""","""","""","""",3/22/2021 19:59,104.185.203.70,Mozilla/5.0 (Windows NT 10.0; Win64; x64; rv:86.0) Gecko/20100101 Firefox/86.0,,Firefox,86,Windows,10
6,1,1784,"""",html-keyboard-response,13,64771,0.0-13.0,"<img src='jspsych/CFDfaces/CFD-AM-238-269-N.jpg' height=""250px"">,</br><b>Marcus</b>","""",6,IntactFace,Practice,78,5000,n,"""","""","""","""","""","""","""","""","""",3/22/2021 19:59,104.185.203.70,Mozilla/5.0 (Windows NT 10.0; Win64; x64; rv:86.0) Gecko/20100101 Firefox/86.0,,Firefox,86,Windows,10
6,1,null,"""",html-keyboard-response,14,65284,0.0-14.0,"<div style=""font-size:60px;"">+</div>","""",6,ITI,Practice,null,1000,"""","""","""","""","""","""","""","""","""","""",3/22/2021 19:59,104.185.203.70,Mozilla/5.0 (Windows NT 10.0; Win64; x64; rv:86.0) Gecko/20100101 Firefox/86.0,,Firefox,86,Windows,10
6,1,1899,"""",html-keyboard-response,15,70297,0.0-15.0,"<img src='jspsych/CFDfaces/CFD-BF-047-003-N.jpg' height=""250px"">,</br><b>Katelyn</b>","""",7,IntactFace,Practice,78,5000,n,"""","""","""","""","""","""","""","""","""",3/22/2021 19:59,104.185.203.70,Mozilla/5.0 (Windows NT 10.0; Win64; x64; rv:86.0) Gecko/20100101 Firefox/86.0,,Firefox,86,Windows,10
6,1,null,"""",html-keyboard-response,16,70811,0.0-16.0,"<div style=""font-size:60px;"">+</div>","""",7,ITI,Practice,null,1000,"""","""","""","""","""","""","""","""","""","""",3/22/2021 19:59,104.185.203.70,Mozilla/5.0 (Windows NT 10.0; Win64; x64; rv:86.0) Gecko/20100101 Firefox/86.0,,Firefox,86,Windows,10
6,1,1901,"""",html-keyboard-response,17,75832,0.0-17.0,"<img src='jspsych/CFDfaces/CFD-LM-225-130-N.jpg' height=""250px"">,</br><b>Patrick</b>","""",8,IntactFace,Practice,78,5000,n,"""","""","""","""","""","""","""","""","""",3/22/2021 19:59,104.185.203.70,Mozilla/5.0 (Windows NT 10.0; Win64; x64; rv:86.0) Gecko/20100101 Firefox/86.0,,Firefox,86,Windows,10
6,1,null,"""",html-keyboard-response,18,76352,0.0-18.0,"<div style=""font-size:60px;"">+</div>","""",8,ITI,Practice,null,1000,"""","""","""","""","""","""","""","""","""","""",3/22/2021 19:59,104.185.203.70,Mozilla/5.0 (Windows NT 10.0; Win64; x64; rv:86.0) Gecko/20100101 Firefox/86.0,,Firefox,86,Windows,10
6,1,10305,"""",image-button-response,19,86673,0.0-19.0,directionsForTest.JPG,0,1,directionsForTest,break,"""","""","""","""","""","""","""","""","""","""","""","""",3/22/2021 19:59,104.185.203.70,Mozilla/5.0 (Windows NT 10.0; Win64; x64; rv:86.0) Gecko/20100101 Firefox/86.0,,Firefox,86,Windows,10
6,1,7674,"""",image-button-response,20,94353,0.0-20.0,directionsForTest2.JPG,0,1,directionsForTest2,break,"""","""","""","""","""","""","""","""","""","""","""","""",3/22/2021 19:59,104.185.203.70,Mozilla/5.0 (Windows NT 10.0; Win64; x64; rv:86.0) Gecko/20100101 Firefox/86.0,,Firefox,86,Windows,10
6,1,null,"""",html-keyboard-response,21,95370,0.0-21.0,"<div style=""font-size:60px;"">+</div>","""",1,ITI,Practice,null,1000,"""","""","""","""","""","""","""","""","""","""",3/22/2021 19:59,104.185.203.70,Mozilla/5.0 (Windows NT 10.0; Win64; x64; rv:86.0) Gecko/20100101 Firefox/86.0,,Firefox,86,Windows,10
6,1,null,"""",image-keyboard-response,22,95662,0.0-22.0,jspsych/scrambledNeutralFaces/scrambledBM11NES.JPG,"""",1,forwardMask,Practice,null,250,"""",n,"""","""","""","""","""","""","""","""",3/22/2021 19:59,104.185.203.70,Mozilla/5.0 (Windows NT 10.0; Win64; x64; rv:86.0) Gecko/20100101 Firefox/86.0,,Firefox,86,Windows,10
6,1,null,"""",image-keyboard-response,23,95691,0.0-23.0,jspsych/neutralFaces/BM11NES.JPG,"""",1,Cue,Practice,null,16,"""","""","""","""","""","""","""","""","""","""",3/22/2021 19:59,104.185.203.70,Mozilla/5.0 (Windows NT 10.0; Win64; x64; rv:86.0) Gecko/20100101 Firefox/86.0,,Firefox,86,Windows,10
6,1,null,"""",image-keyboard-response,24,95811,0.0-24.0,jspsych/neutralFaces/BM12NES.JPG,"""",1,backwardMask,Practice,null,100,"""","""","""","""","""","""","""","""","""","""",3/22/2021 19:59,104.185.203.70,Mozilla/5.0 (Windows NT 10.0; Win64; x64; rv:86.0) Gecko/20100101 Firefox/86.0,,Firefox,86,Windows,10
6,1,null,"""",html-keyboard-response,25,96820,0.0-25.0,"<div style=""font-size:60px;"">+</div>","""",1,fixationBtwnNeutralMaskAndPrompt,Practice,null,1000,"""","""","""","""","""","""","""","""","""","""",3/22/2021 19:59,104.185.203.70,Mozilla/5.0 (Windows NT 10.0; Win64; x64; rv:86.0) Gecko/20100101 Firefox/86.0,,Firefox,86,Windows,10
6,1,2800,"""",html-button-response,26,99622,0.0-26.0,"<img src='jspsych/CFDfaces/CFD-WF-220-101-N.jpg'height=""250px""></br><b>Tara</b>",0,1,IntactOrRearranged,Practice,"""","""","""","""",CFD-WF-220-101-N.jpg,Tara,0,0,"""","""","""","""",3/22/2021 19:59,104.185.203.70,Mozilla/5.0 (Windows NT 10.0; Win64; x64; rv:86.0) Gecko/20100101 Firefox/86.0,,Firefox,86,Windows,10
6,1,4065,"""",html-slider-response,27,103694,0.0-27.0,"<img src='jspsych/CFDfaces/CFD-WF-220-101-N.jpg'height=""250px""></br><b>Tara</b>","""",1,ConfidenceQuery,Practice,"""","""","""","""",CFD-BF-009-002-N.jpg,Heather,0,"""",0,100,"""","""",3/22/2021 19:59,104.185.203.70,Mozilla/5.0 (Windows NT 10.0; Win64; x64; rv:86.0) Gecko/20100101 Firefox/86.0,,Firefox,86,Windows,10
6,1,1769,"""",html-button-response,28,105466,0.0-28.0,You are Correct. You called an Intact Pair Intact,0,1,feedback,Practice,"""","""","""","""","""","""","""","""","""","""","""","""",3/22/2021 19:59,104.185.203.70,Mozilla/5.0 (Windows NT 10.0; Win64; x64; rv:86.0) Gecko/20100101 Firefox/86.0,,Firefox,86,Windows,10
6,1,null,"""",html-keyboard-response,29,106481,0.0-29.0,"<div style=""font-size:60px;"">+</div>","""",2,ITI,Practice,null,1000,"""","""","""","""","""","""","""","""","""","""",3/22/2021 19:59,104.185.203.70,Mozilla/5.0 (Windows NT 10.0; Win64; x64; rv:86.0) Gecko/20100101 Firefox/86.0,,Firefox,86,Windows,10
6,1,null,"""",image-keyboard-response,30,106742,0.0-30.0,jspsych/scrambledNeutralFaces/scrambledAM04NES.JPG,"""",2,forwardMask,Practice,null,250,"""",n,"""","""","""","""","""","""","""","""",3/22/2021 19:59,104.185.203.70,Mozilla/5.0 (Windows NT 10.0; Win64; x64; rv:86.0) Gecko/20100101 Firefox/86.0,,Firefox,86,Windows,10
6,1,null,"""",image-keyboard-response,31,106781,0.0-31.0,jspsych/neutralFaces/AM04NES.JPG,"""",2,Cue,Practice,null,16,"""","""","""","""","""","""","""","""","""","""",3/22/2021 19:59,104.185.203.70,Mozilla/5.0 (Windows NT 10.0; Win64; x64; rv:86.0) Gecko/20100101 Firefox/86.0,,Firefox,86,Windows,10
6,1,null,"""",image-keyboard-response,32,106891,0.0-32.0,jspsych/neutralFaces/BM04NES.JPG,"""",2,backwardMask,Practice,null,100,"""","""","""","""","""","""","""","""","""","""",3/22/2021 19:59,104.185.203.70,Mozilla/5.0 (Windows NT 10.0; Win64; x64; rv:86.0) Gecko/20100101 Firefox/86.0,,Firefox,86,Windows,10
6,1,null,"""",html-keyboard-response,33,107894,0.0-33.0,"<div style=""font-size:60px;"">+</div>","""",2,fixationBtwnNeutralMaskAndPrompt,Practice,null,1000,"""","""","""","""","""","""","""","""","""","""",3/22/2021 19:59,104.185.203.70,Mozilla/5.0 (Windows NT 10.0; Win64; x64; rv:86.0) Gecko/20100101 Firefox/86.0,,Firefox,86,Windows,10
6,1,3111,"""",html-button-response,34,111006,0.0-34.0,"<img src='jspsych/CFDfaces/CFD-BF-221-223-N.jpg'height=""250px""></br><b>Shannon</b>",0,2,IntactOrRearranged,Practice,"""","""","""","""",CFD-BF-221-223-N.jpg,Shannon,0,0,"""","""","""","""",3/22/2021 19:59,104.185.203.70,Mozilla/5.0 (Windows NT 10.0; Win64; x64; rv:86.0) Gecko/20100101 Firefox/86.0,,Firefox,86,Windows,10
6,1,3486,"""",html-slider-response,35,114499,0.0-35.0,"<img src='jspsych/CFDfaces/CFD-BF-221-223-N.jpg'height=""250px""></br><b>Shannon</b>","""",2,ConfidenceQuery,Practice,"""","""","""","""",CFD-BF-009-002-N.jpg,Heather,0,"""",0,100,"""","""",3/22/2021 19:59,104.185.203.70,Mozilla/5.0 (Windows NT 10.0; Win64; x64; rv:86.0) Gecko/20100101 Firefox/86.0,,Firefox,86,Windows,10
6,1,1189,"""",html-button-response,36,115692,0.0-36.0,You are Correct. You called an Intact Pair Intact,0,2,feedback,Practice,"""","""","""","""","""","""","""","""","""","""","""","""",3/22/2021 19:59,104.185.203.70,Mozilla/5.0 (Windows NT 10.0; Win64; x64; rv:86.0) Gecko/20100101 Firefox/86.0,,Firefox,86,Windows,10
6,1,null,"""",html-keyboard-response,37,116712,0.0-37.0,"<div style=""font-size:60px;"">+</div>","""",3,ITI,Practice,null,1000,"""","""","""","""","""","""","""","""","""","""",3/22/2021 19:59,104.185.203.70,Mozilla/5.0 (Windows NT 10.0; Win64; x64; rv:86.0) Gecko/20100101 Firefox/86.0,,Firefox,86,Windows,10
6,1,null,"""",image-keyboard-response,38,116976,0.0-38.0,jspsych/scrambledDisgustFaces/scrambledAM27DIS.JPG,"""",3,forwardMask,Practice,null,250,"""",d,"""","""","""","""","""","""","""","""",3/22/2021 19:59,104.185.203.70,Mozilla/5.0 (Windows NT 10.0; Win64; x64; rv:86.0) Gecko/20100101 Firefox/86.0,,Firefox,86,Windows,10
6,1,null,"""",image-keyboard-response,39,117007,0.0-39.0,jspsych/disgustFaces/AM27DIS.JPG,"""",3,Cue,Practice,null,16,"""","""","""","""","""","""","""","""","""","""",3/22/2021 19:59,104.185.203.70,Mozilla/5.0 (Windows NT 10.0; Win64; x64; rv:86.0) Gecko/20100101 Firefox/86.0,,Firefox,86,Windows,10
6,1,null,"""",image-keyboard-response,40,117111,0.0-40.0,jspsych/neutralFaces/AM33NES.JPG,"""",3,backwardMask,Practice,null,100,"""","""","""","""","""","""","""","""","""","""",3/22/2021 19:59,104.185.203.70,Mozilla/5.0 (Windows NT 10.0; Win64; x64; rv:86.0) Gecko/20100101 Firefox/86.0,,Firefox,86,Windows,10
6,1,null,"""",html-keyboard-response,41,118122,0.0-41.0,"<div style=""font-size:60px;"">+</div>","""",3,fixationBtwnNeutralMaskAndPrompt,Practice,null,1000,"""","""","""","""","""","""","""","""","""","""",3/22/2021 19:59,104.185.203.70,Mozilla/5.0 (Windows NT 10.0; Win64; x64; rv:86.0) Gecko/20100101 Firefox/86.0,,Firefox,86,Windows,10
6,1,1876,"""",html-button-response,42,119999,0.0-42.0,"<img src='jspsych/CFDfaces/CFD-LM-225-130-N.jpg'height=""250px""></br><b>Patrick</b>",0,3,IntactOrRearranged,Practice,"""","""","""","""",CFD-LM-225-130-N.jpg,Patrick,0,0,"""","""","""","""",3/22/2021 19:59,104.185.203.70,Mozilla/5.0 (Windows NT 10.0; Win64; x64; rv:86.0) Gecko/20100101 Firefox/86.0,,Firefox,86,Windows,10
6,1,3328,"""",html-slider-response,43,123335,0.0-43.0,"<img src='jspsych/CFDfaces/CFD-LM-225-130-N.jpg'height=""250px""></br><b>Patrick</b>","""",3,ConfidenceQuery,Practice,"""","""","""","""",CFD-BF-009-002-N.jpg,Heather,0,"""",0,100,"""","""",3/22/2021 19:59,104.185.203.70,Mozilla/5.0 (Windows NT 10.0; Win64; x64; rv:86.0) Gecko/20100101 Firefox/86.0,,Firefox,86,Windows,10
6,1,1489,"""",html-button-response,44,124827,0.0-44.0,You are Correct. You called an Intact Pair Intact,0,3,feedback,Practice,"""","""","""","""","""","""","""","""","""","""","""","""",3/22/2021 19:59,104.185.203.70,Mozilla/5.0 (Windows NT 10.0; Win64; x64; rv:86.0) Gecko/20100101 Firefox/86.0,,Firefox,86,Windows,10
6,1,null,"""",html-keyboard-response,45,125851,0.0-45.0,"<div style=""font-size:60px;"">+</div>","""",4,ITI,Practice,null,1000,"""","""","""","""","""","""","""","""","""","""",3/22/2021 19:59,104.185.203.70,Mozilla/5.0 (Windows NT 10.0; Win64; x64; rv:86.0) Gecko/20100101 Firefox/86.0,,Firefox,86,Windows,10
6,1,null,"""",image-keyboard-response,46,126118,0.0-46.0,jspsych/scrambledNeutralFaces/scrambledAM31NES.JPG,"""",4,forwardMask,Practice,null,250,"""",n,"""","""","""","""","""","""","""","""",3/22/2021 19:59,104.185.203.70,Mozilla/5.0 (Windows NT 10.0; Win64; x64; rv:86.0) Gecko/20100101 Firefox/86.0,,Firefox,86,Windows,10
6,1,null,"""",image-keyboard-response,47,126149,0.0-47.0,jspsych/neutralFaces/AM31NES.JPG,"""",4,Cue,Practice,null,16,"""","""","""","""","""","""","""","""","""","""",3/22/2021 19:59,104.185.203.70,Mozilla/5.0 (Windows NT 10.0; Win64; x64; rv:86.0) Gecko/20100101 Firefox/86.0,,Firefox,86,Windows,10
6,1,null,"""",image-keyboard-response,48,126262,0.0-48.0,jspsych/neutralFaces/AM29NES.JPG,"""",4,backwardMask,Practice,null,100,"""","""","""","""","""","""","""","""","""","""",3/22/2021 19:59,104.185.203.70,Mozilla/5.0 (Windows NT 10.0; Win64; x64; rv:86.0) Gecko/20100101 Firefox/86.0,,Firefox,86,Windows,10
6,1,null,"""",html-keyboard-response,49,127275,0.0-49.0,"<div style=""font-size:60px;"">+</div>","""",4,fixationBtwnNeutralMaskAndPrompt,Practice,null,1000,"""","""","""","""","""","""","""","""","""","""",3/22/2021 19:59,104.185.203.70,Mozilla/5.0 (Windows NT 10.0; Win64; x64; rv:86.0) Gecko/20100101 Firefox/86.0,,Firefox,86,Windows,10
6,1,null,"""",html-button-response,50,132293,0.0-50.0,"<img src='jspsych/CFDfaces/CFD-AM-207-108-N.jpg'height=""250px""></br><b>Marcus</b>",null,4,IntactOrRearranged,Practice,"""","""","""","""",CFD-AM-207-108-N.jpg,Marcus,1,"""","""","""","""","""",3/22/2021 19:59,104.185.203.70,Mozilla/5.0 (Windows NT 10.0; Win64; x64; rv:86.0) Gecko/20100101 Firefox/86.0,,Firefox,86,Windows,10
6,1,3543,"""",html-slider-response,51,135846,0.0-51.0,"<img src='jspsych/CFDfaces/CFD-AM-207-108-N.jpg'height=""250px""></br><b>Marcus</b>","""",4,ConfidenceQuery,Practice,"""","""","""","""",CFD-BF-009-002-N.jpg,Heather,1,"""",0,51,"""","""",3/22/2021 19:59,104.185.203.70,Mozilla/5.0 (Windows NT 10.0; Win64; x64; rv:86.0) Gecko/20100101 Firefox/86.0,,Firefox,86,Windows,10
6,1,2496,"""",html-button-response,52,138343,0.0-52.0,<p>Please click either button: REARRANGED or INTACT before the 5-second time limit.</p>,0,4,feedback,Practice,"""","""","""","""","""","""","""","""","""","""","""","""",3/22/2021 19:59,104.185.203.70,Mozilla/5.0 (Windows NT 10.0; Win64; x64; rv:86.0) Gecko/20100101 Firefox/86.0,,Firefox,86,Windows,10
6,1,null,"""",html-keyboard-response,53,139351,0.0-53.0,"<div style=""font-size:60px;"">+</div>","""",5,ITI,Practice,null,1000,"""","""","""","""","""","""","""","""","""","""",3/22/2021 19:59,104.185.203.70,Mozilla/5.0 (Windows NT 10.0; Win64; x64; rv:86.0) Gecko/20100101 Firefox/86.0,,Firefox,86,Windows,10
6,1,null,"""",image-keyboard-response,54,139610,0.0-54.0,jspsych/scrambledDisgustFaces/scrambledAM29DIS.JPG,"""",5,forwardMask,Practice,null,250,"""",d,"""","""","""","""","""","""","""","""",3/22/2021 19:59,104.185.203.70,Mozilla/5.0 (Windows NT 10.0; Win64; x64; rv:86.0) Gecko/20100101 Firefox/86.0,,Firefox,86,Windows,10
6,1,null,"""",image-keyboard-response,55,139650,0.0-55.0,jspsych/disgustFaces/AM29DIS.JPG,"""",5,Cue,Practice,null,16,"""","""","""","""","""","""","""","""","""","""",3/22/2021 19:59,104.185.203.70,Mozilla/5.0 (Windows NT 10.0; Win64; x64; rv:86.0) Gecko/20100101 Firefox/86.0,,Firefox,86,Windows,10
6,1,null,"""",image-keyboard-response,56,139771,0.0-56.0,jspsych/neutralFaces/BM14NES.JPG,"""",5,backwardMask,Practice,null,100,"""","""","""","""","""","""","""","""","""","""",3/22/2021 19:59,104.185.203.70,Mozilla/5.0 (Windows NT 10.0; Win64; x64; rv:86.0) Gecko/20100101 Firefox/86.0,,Firefox,86,Windows,10
6,1,null,"""",html-keyboard-response,57,140791,0.0-57.0,"<div style=""font-size:60px;"">+</div>","""",5,fixationBtwnNeutralMaskAndPrompt,Practice,null,1000,"""","""","""","""","""","""","""","""","""","""",3/22/2021 19:59,104.185.203.70,Mozilla/5.0 (Windows NT 10.0; Win64; x64; rv:86.0) Gecko/20100101 Firefox/86.0,,Firefox,86,Windows,10
6,1,1962,"""",html-button-response,58,142757,0.0-58.0,"<img src='jspsych/CFDfaces/CFD-BF-019-001-N.jpg'height=""250px""></br><b>Katelyn</b>",1,5,IntactOrRearranged,Practice,"""","""","""","""",CFD-BF-019-001-N.jpg,Katelyn,1,1,"""","""","""","""",3/22/2021 19:59,104.185.203.70,Mozilla/5.0 (Windows NT 10.0; Win64; x64; rv:86.0) Gecko/20100101 Firefox/86.0,,Firefox,86,Windows,10
6,1,3101,"""",html-slider-response,59,145862,0.0-59.0,"<img src='jspsych/CFDfaces/CFD-BF-019-001-N.jpg'height=""250px""></br><b>Katelyn</b>","""",5,ConfidenceQuery,Practice,"""","""","""","""",CFD-BF-009-002-N.jpg,Heather,1,"""",0,100,"""","""",3/22/2021 19:59,104.185.203.70,Mozilla/5.0 (Windows NT 10.0; Win64; x64; rv:86.0) Gecko/20100101 Firefox/86.0,,Firefox,86,Windows,10
6,1,1030,"""",html-button-response,60,146895,0.0-60.0,You are Correct. You Called A Rearranged Pair Rearranged,0,5,feedback,Practice,"""","""","""","""","""","""","""","""","""","""","""","""",3/22/2021 19:59,104.185.203.70,Mozilla/5.0 (Windows NT 10.0; Win64; x64; rv:86.0) Gecko/20100101 Firefox/86.0,,Firefox,86,Windows,10
6,1,null,"""",html-keyboard-response,61,147923,0.0-61.0,"<div style=""font-size:60px;"">+</div>","""",6,ITI,Practice,null,1000,"""","""","""","""","""","""","""","""","""","""",3/22/2021 19:59,104.185.203.70,Mozilla/5.0 (Windows NT 10.0; Win64; x64; rv:86.0) Gecko/20100101 Firefox/86.0,,Firefox,86,Windows,10
6,1,null,"""",image-keyboard-response,62,148200,0.0-62.0,jspsych/scrambledNeutralFaces/scrambledAM35NES.JPG,"""",6,forwardMask,Practice,null,250,"""",n,"""","""","""","""","""","""","""","""",3/22/2021 19:59,104.185.203.70,Mozilla/5.0 (Windows NT 10.0; Win64; x64; rv:86.0) Gecko/20100101 Firefox/86.0,,Firefox,86,Windows,10
6,1,null,"""",image-keyboard-response,63,148240,0.0-63.0,jspsych/neutralFaces/AM35NES.JPG,"""",6,Cue,Practice,null,16,"""","""","""","""","""","""","""","""","""","""",3/22/2021 19:59,104.185.203.70,Mozilla/5.0 (Windows NT 10.0; Win64; x64; rv:86.0) Gecko/20100101 Firefox/86.0,,Firefox,86,Windows,10
6,1,null,"""",image-keyboard-response,64,148355,0.0-64.0,jspsych/neutralFaces/BM04NES.JPG,"""",6,backwardMask,Practice,null,100,"""","""","""","""","""","""","""","""","""","""",3/22/2021 19:59,104.185.203.70,Mozilla/5.0 (Windows NT 10.0; Win64; x64; rv:86.0) Gecko/20100101 Firefox/86.0,,Firefox,86,Windows,10
6,1,null,"""",html-keyboard-response,65,149370,0.0-65.0,"<div style=""font-size:60px;"">+</div>","""",6,fixationBtwnNeutralMaskAndPrompt,Practice,null,1000,"""","""","""","""","""","""","""","""","""","""",3/22/2021 19:59,104.185.203.70,Mozilla/5.0 (Windows NT 10.0; Win64; x64; rv:86.0) Gecko/20100101 Firefox/86.0,,Firefox,86,Windows,10
6,1,1976,"""",html-button-response,66,151348,0.0-66.0,"<img src='jspsych/CFDfaces/CFD-AM-238-269-N.jpg'height=""250px""></br><b>Carlos</b>",0,6,IntactOrRearranged,Practice,"""","""","""","""",CFD-AM-238-269-N.jpg,Carlos,1,0,"""","""","""","""",3/22/2021 19:59,104.185.203.70,Mozilla/5.0 (Windows NT 10.0; Win64; x64; rv:86.0) Gecko/20100101 Firefox/86.0,,Firefox,86,Windows,10
6,1,null,"""",html-slider-response,67,156360,0.0-67.0,"<img src='jspsych/CFDfaces/CFD-AM-238-269-N.jpg'height=""250px""></br><b>Carlos</b>","""",6,ConfidenceQuery,Practice,"""","""","""","""",CFD-BF-009-002-N.jpg,Heather,1,"""",0,null,"""","""",3/22/2021 19:59,104.185.203.70,Mozilla/5.0 (Windows NT 10.0; Win64; x64; rv:86.0) Gecko/20100101 Firefox/86.0,,Firefox,86,Windows,10
6,1,1434,"""",html-button-response,68,157798,0.0-68.0,You are Incorrect. You called a Rearranged Pair Intact,0,6,feedback,Practice,"""","""","""","""","""","""","""","""","""","""","""","""",3/22/2021 19:59,104.185.203.70,Mozilla/5.0 (Windows NT 10.0; Win64; x64; rv:86.0) Gecko/20100101 Firefox/86.0,,Firefox,86,Windows,10
6,1,null,"""",html-keyboard-response,69,158821,0.0-69.0,"<div style=""font-size:60px;"">+</div>","""",7,ITI,Practice,null,1000,"""","""","""","""","""","""","""","""","""","""",3/22/2021 19:59,104.185.203.70,Mozilla/5.0 (Windows NT 10.0; Win64; x64; rv:86.0) Gecko/20100101 Firefox/86.0,,Firefox,86,Windows,10
6,1,null,"""",image-keyboard-response,70,159081,0.0-70.0,jspsych/scrambledDisgustFaces/scrambledAF11DIS.JPG,"""",7,forwardMask,Practice,null,250,"""",d,"""","""","""","""","""","""","""","""",3/22/2021 19:59,104.185.203.70,Mozilla/5.0 (Windows NT 10.0; Win64; x64; rv:86.0) Gecko/20100101 Firefox/86.0,,Firefox,86,Windows,10
6,1,null,"""",image-keyboard-response,71,159120,0.0-71.0,jspsych/disgustFaces/AF11DIS.JPG,"""",7,Cue,Practice,null,16,"""","""","""","""","""","""","""","""","""","""",3/22/2021 19:59,104.185.203.70,Mozilla/5.0 (Windows NT 10.0; Win64; x64; rv:86.0) Gecko/20100101 Firefox/86.0,,Firefox,86,Windows,10
6,1,null,"""",image-keyboard-response,72,159240,0.0-72.0,jspsych/neutralFaces/AF15NES.JPG,"""",7,backwardMask,Practice,null,100,"""","""","""","""","""","""","""","""","""","""",3/22/2021 19:59,104.185.203.70,Mozilla/5.0 (Windows NT 10.0; Win64; x64; rv:86.0) Gecko/20100101 Firefox/86.0,,Firefox,86,Windows,10
6,1,null,"""",html-keyboard-response,73,160260,0.0-73.0,"<div style=""font-size:60px;"">+</div>","""",7,fixationBtwnNeutralMaskAndPrompt,Practice,null,1000,"""","""","""","""","""","""","""","""","""","""",3/22/2021 19:59,104.185.203.70,Mozilla/5.0 (Windows NT 10.0; Win64; x64; rv:86.0) Gecko/20100101 Firefox/86.0,,Firefox,86,Windows,10
6,1,1372,"""",html-button-response,74,161636,0.0-74.0,"<img src='jspsych/CFDfaces/CFD-BM-002-013-N.jpg'height=""250px""></br><b>Samuel</b>",0,7,IntactOrRearranged,Practice,"""","""","""","""",CFD-BM-002-013-N.jpg,Samuel,0,0,"""","""","""","""",3/22/2021 19:59,104.185.203.70,Mozilla/5.0 (Windows NT 10.0; Win64; x64; rv:86.0) Gecko/20100101 Firefox/86.0,,Firefox,86,Windows,10
6,1,null,"""",html-slider-response,75,166643,0.0-75.0,"<img src='jspsych/CFDfaces/CFD-BM-002-013-N.jpg'height=""250px""></br><b>Samuel</b>","""",7,ConfidenceQuery,Practice,"""","""","""","""",CFD-BF-009-002-N.jpg,Heather,0,"""",0,null,"""","""",3/22/2021 19:59,104.185.203.70,Mozilla/5.0 (Windows NT 10.0; Win64; x64; rv:86.0) Gecko/20100101 Firefox/86.0,,Firefox,86,Windows,10
6,1,1862,"""",html-button-response,76,168507,0.0-76.0,You are Correct. You called an Intact Pair Intact,0,7,feedback,Practice,"""","""","""","""","""","""","""","""","""","""","""","""",3/22/2021 19:59,104.185.203.70,Mozilla/5.0 (Windows NT 10.0; Win64; x64; rv:86.0) Gecko/20100101 Firefox/86.0,,Firefox,86,Windows,10
6,1,null,"""",html-keyboard-response,77,169531,0.0-77.0,"<div style=""font-size:60px;"">+</div>","""",8,ITI,Practice,null,1000,"""","""","""","""","""","""","""","""","""","""",3/22/2021 19:59,104.185.203.70,Mozilla/5.0 (Windows NT 10.0; Win64; x64; rv:86.0) Gecko/20100101 Firefox/86.0,,Firefox,86,Windows,10
6,1,null,"""",image-keyboard-response,78,169793,0.0-78.0,jspsych/scrambledNeutralFaces/scrambledAM13NES.JPG,"""",8,forwardMask,Practice,null,250,"""",n,"""","""","""","""","""","""","""","""",3/22/2021 19:59,104.185.203.70,Mozilla/5.0 (Windows NT 10.0; Win64; x64; rv:86.0) Gecko/20100101 Firefox/86.0,,Firefox,86,Windows,10
6,1,null,"""",image-keyboard-response,79,169824,0.0-79.0,jspsych/neutralFaces/AM13NES.JPG,"""",8,Cue,Practice,null,16,"""","""","""","""","""","""","""","""","""","""",3/22/2021 19:59,104.185.203.70,Mozilla/5.0 (Windows NT 10.0; Win64; x64; rv:86.0) Gecko/20100101 Firefox/86.0,,Firefox,86,Windows,10
6,1,null,"""",image-keyboard-response,80,169939,0.0-80.0,jspsych/neutralFaces/AM33NES.JPG,"""",8,backwardMask,Practice,null,100,"""","""","""","""","""","""","""","""","""","""",3/22/2021 19:59,104.185.203.70,Mozilla/5.0 (Windows NT 10.0; Win64; x64; rv:86.0) Gecko/20100101 Firefox/86.0,,Firefox,86,Windows,10
6,1,null,"""",html-keyboard-response,81,170960,0.0-81.0,"<div style=""font-size:60px;"">+</div>","""",8,fixationBtwnNeutralMaskAndPrompt,Practice,null,1000,"""","""","""","""","""","""","""","""","""","""",3/22/2021 19:59,104.185.203.70,Mozilla/5.0 (Windows NT 10.0; Win64; x64; rv:86.0) Gecko/20100101 Firefox/86.0,,Firefox,86,Windows,10
6,1,3201,"""",html-button-response,82,174163,0.0-82.0,"<img src='jspsych/CFDfaces/CFD-BF-047-003-N.jpg'height=""250px""></br><b>Cassandra</b>",1,8,IntactOrRearranged,Practice,"""","""","""","""",CFD-BF-047-003-N.jpg,Cassandra,1,1,"""","""","""","""",3/22/2021 19:59,104.185.203.70,Mozilla/5.0 (Windows NT 10.0; Win64; x64; rv:86.0) Gecko/20100101 Firefox/86.0,,Firefox,86,Windows,10
6,1,4536,"""",html-slider-response,83,178706,0.0-83.0,"<img src='jspsych/CFDfaces/CFD-BF-047-003-N.jpg'height=""250px""></br><b>Cassandra</b>","""",8,ConfidenceQuery,Practice,"""","""","""","""",CFD-BF-009-002-N.jpg,Heather,1,"""",0,100,"""","""",3/22/2021 19:59,104.185.203.70,Mozilla/5.0 (Windows NT 10.0; Win64; x64; rv:86.0) Gecko/20100101 Firefox/86.0,,Firefox,86,Windows,10
6,1,1096,"""",html-button-response,84,179805,0.0-84.0,You are Correct. You Called A Rearranged Pair Rearranged,0,8,feedback,Practice,"""","""","""","""","""","""","""","""","""","""","""","""",3/22/2021 19:59,104.185.203.70,Mozilla/5.0 (Windows NT 10.0; Win64; x64; rv:86.0) Gecko/20100101 Firefox/86.0,,Firefox,86,Windows,10
6,1,6364,"""",image-button-response,85,186181,0.0-85.0,directionsMemoryAssociation3.JPG,0,128,DirectionsBeforeActualTEst,Break,"""","""","""","""","""","""","""","""","""","""","""","""",3/22/2021 19:59,104.185.203.70,Mozilla/5.0 (Windows NT 10.0; Win64; x64; rv:86.0) Gecko/20100101 Firefox/86.0,,Firefox,86,Windows,10
6,1,2415,"""",image-button-response,86,188599,0.0-86.0,directionsForTest2.JPG,0,1,directionsForTest2,break,"""","""","""","""","""","""","""","""","""","""","""","""",3/22/2021 19:59,104.185.203.70,Mozilla/5.0 (Windows NT 10.0; Win64; x64; rv:86.0) Gecko/20100101 Firefox/86.0,,Firefox,86,Windows,10
6,1,4269,"""",html-button-response,87,192875,0.0-87.0,"<p>You will be asked to memorize and then recall four sets of face-name pairs. </p> <p> Each set will have 32 pairs. </p> <p>After the fourth set, there will be a brief follow-up experiment (<40 min alltogether)</p>",0,"""","""","""","""","""","""","""","""","""","""","""","""","""","""","""",3/22/2021 19:59,104.185.203.70,Mozilla/5.0 (Windows NT 10.0; Win64; x64; rv:86.0) Gecko/20100101 Firefox/86.0,,Firefox,86,Windows,10
6,1,null,"""",html-keyboard-response,88,197892,0.0-88.0,"<img src='jspsych/CFDfaces/CFD-WF-207-014-N.jpg' height=""250px""></br><b>Samantha</b>","""",256,IntactFace,Memorization,null,5000,"""","""",CFD-BF-016-017-N.jpg,Rebecca,0,"""","""","""",1,"""",3/22/2021 19:59,104.185.203.70,Mozilla/5.0 (Windows NT 10.0; Win64; x64; rv:86.0) Gecko/20100101 Firefox/86.0,,Firefox,86,Windows,10
6,1,null,"""",html-keyboard-response,89,198400,0.0-89.0,"<div style=""font-size:60px;"">+</div>","""",256,fixation,Memorization,null,500,"""","""","""","""","""","""","""","""",1,"""",3/22/2021 19:59,104.185.203.70,Mozilla/5.0 (Windows NT 10.0; Win64; x64; rv:86.0) Gecko/20100101 Firefox/86.0,,Firefox,86,Windows,10
6,1,2833,"""",html-keyboard-response,90,203421,0.0-90.0,"<img src='jspsych/CFDfaces/CFD-BM-211-174-N.jpg' height=""250px""></br><b>Richard</b>","""",256,IntactFace,Memorization,78,5000,n,"""",CFD-BM-018-001-N.jpg,Steven,0,"""","""","""",1,"""",3/22/2021 19:59,104.185.203.70,Mozilla/5.0 (Windows NT 10.0; Win64; x64; rv:86.0) Gecko/20100101 Firefox/86.0,,Firefox,86,Windows,10
6,1,null,"""",html-keyboard-response,91,203940,0.0-91.0,"<div style=""font-size:60px;"">+</div>","""",256,fixation,Memorization,null,500,"""","""","""","""","""","""","""","""",1,"""",3/22/2021 19:59,104.185.203.70,Mozilla/5.0 (Windows NT 10.0; Win64; x64; rv:86.0) Gecko/20100101 Firefox/86.0,,Firefox,86,Windows,10
6,1,2275,"""",html-keyboard-response,92,208959,0.0-92.0,"<img src='jspsych/CFDfaces/CFD-LF-200-058-N.jpg' height=""250px""></br><b>Meghan</b>","""",256,IntactFace,Memorization,78,5000,n,"""",CFD-AM-205-153-N.jpg,Jacob,0,"""","""","""",1,"""",3/22/2021 19:59,104.185.203.70,Mozilla/5.0 (Windows NT 10.0; Win64; x64; rv:86.0) Gecko/20100101 Firefox/86.0,,Firefox,86,Windows,10
6,1,null,"""",html-keyboard-response,93,209481,0.0-93.0,"<div style=""font-size:60px;"">+</div>","""",256,fixation,Memorization,null,500,"""","""","""","""","""","""","""","""",1,"""",3/22/2021 19:59,104.185.203.70,Mozilla/5.0 (Windows NT 10.0; Win64; x64; rv:86.0) Gecko/20100101 Firefox/86.0,,Firefox,86,Windows,10
6,1,2595,"""",html-keyboard-response,94,214490,0.0-94.0,"<img src='jspsych/CFDfaces/CFD-LM-219-295-N.jpg' height=""250px""></br><b>Brian</b>","""",256,IntactFace,Memorization,78,5000,n,"""",CFD-BF-009-002-N.jpg,Heather,0,"""","""","""",1,"""",3/22/2021 19:59,104.185.203.70,Mozilla/5.0 (Windows NT 10.0; Win64; x64; rv:86.0) Gecko/20100101 Firefox/86.0,,Firefox,86,Windows,10
6,1,null,"""",html-keyboard-response,95,215005,0.0-95.0,"<div style=""font-size:60px;"">+</div>","""",256,fixation,Memorization,null,500,"""","""","""","""","""","""","""","""",1,"""",3/22/2021 19:59,104.185.203.70,Mozilla/5.0 (Windows NT 10.0; Win64; x64; rv:86.0) Gecko/20100101 Firefox/86.0,,Firefox,86,Windows,10
6,1,null,"""",html-keyboard-response,96,220010,0.0-96.0,"<img src='jspsych/CFDfaces/CFD-WM-015-002-N.jpg' height=""250px""></br><b>Jason</b>","""",256,IntactFace,Memorization,null,5000,"""","""",CFD-AF-228-173-N.jpg,Erin,0,"""","""","""",1,"""",3/22/2021 19:59,104.185.203.70,Mozilla/5.0 (Windows NT 10.0; Win64; x64; rv:86.0) Gecko/20100101 Firefox/86.0,,Firefox,86,Windows,10
6,1,null,"""",html-keyboard-response,97,220520,0.0-97.0,"<div style=""font-size:60px;"">+</div>","""",256,fixation,Memorization,null,500,"""","""","""","""","""","""","""","""",1,"""",3/22/2021 19:59,104.185.203.70,Mozilla/5.0 (Windows NT 10.0; Win64; x64; rv:86.0) Gecko/20100101 Firefox/86.0,,Firefox,86,Windows,10
6,1,null,"""",html-keyboard-response,98,225539,0.0-98.0,"<img src='jspsych/CFDfaces/CFD-WM-216-061-N.jpg' height=""250px""></br><b>Nicholas</b>","""",256,IntactFace,Memorization,null,5000,"""","""",CFD-WF-029-002-N.jpg,Lauren,0,"""","""","""",1,"""",3/22/2021 19:59,104.185.203.70,Mozilla/5.0 (Windows NT 10.0; Win64; x64; rv:86.0) Gecko/20100101 Firefox/86.0,,Firefox,86,Windows,10
6,1,null,"""",html-keyboard-response,99,226051,0.0-99.0,"<div style=""font-size:60px;"">+</div>","""",256,fixation,Memorization,null,500,"""","""","""","""","""","""","""","""",1,"""",3/22/2021 19:59,104.185.203.70,Mozilla/5.0 (Windows NT 10.0; Win64; x64; rv:86.0) Gecko/20100101 Firefox/86.0,,Firefox,86,Windows,10
6,1,4318,"""",html-keyboard-response,100,231061,0.0-100.0,"<img src='jspsych/CFDfaces/CFD-BF-008-001-N.jpg' height=""250px""></br><b>Vanessa</b>","""",256,IntactFace,Memorization,70,5000,f,"""",CFD-WM-237-052-N.jpg,Justin,0,"""","""","""",1,"""",3/22/2021 19:59,104.185.203.70,Mozilla/5.0 (Windows NT 10.0; Win64; x64; rv:86.0) Gecko/20100101 Firefox/86.0,,Firefox,86,Windows,10
6,1,null,"""",html-keyboard-response,101,231574,0.0-101.0,"<div style=""font-size:60px;"">+</div>","""",256,fixation,Memorization,null,500,"""","""","""","""","""","""","""","""",1,"""",3/22/2021 19:59,104.185.203.70,Mozilla/5.0 (Windows NT 10.0; Win64; x64; rv:86.0) Gecko/20100101 Firefox/86.0,,Firefox,86,Windows,10
6,1,3016,"""",html-keyboard-response,102,236577,0.0-102.0,"<img src='jspsych/CFDfaces/CFD-BM-029-024-N.jpg' height=""250px""></br><b>Gregory</b>","""",256,IntactFace,Memorization,78,5000,n,"""",CFD-LF-215-157-N.jpg,Jordan,0,"""","""","""",1,"""",3/22/2021 19:59,104.185.203.70,Mozilla/5.0 (Windows NT 10.0; Win64; x64; rv:86.0) Gecko/20100101 Firefox/86.0,,Firefox,86,Windows,10
6,1,null,"""",html-keyboard-response,103,237090,0.0-103.0,"<div style=""font-size:60px;"">+</div>","""",256,fixation,Memorization,null,500,"""","""","""","""","""","""","""","""",1,"""",3/22/2021 19:59,104.185.203.70,Mozilla/5.0 (Windows NT 10.0; Win64; x64; rv:86.0) Gecko/20100101 Firefox/86.0,,Firefox,86,Windows,10
6,1,1474,"""",html-keyboard-response,104,242109,0.0-104.0,"<img src='jspsych/CFDfaces/CFD-BM-001-014-N.jpg' height=""250px""></br><b>Juan</b>","""",256,IntactFace,Memorization,78,5000,n,"""",CFD-WF-023-003-N.jpg,Lindsey,0,"""","""","""",1,"""",3/22/2021 19:59,104.185.203.70,Mozilla/5.0 (Windows NT 10.0; Win64; x64; rv:86.0) Gecko/20100101 Firefox/86.0,,Firefox,86,Windows,10
6,1,null,"""",html-keyboard-response,105,242619,0.0-105.0,"<div style=""font-size:60px;"">+</div>","""",256,fixation,Memorization,null,500,"""","""","""","""","""","""","""","""",1,"""",3/22/2021 19:59,104.185.203.70,Mozilla/5.0 (Windows NT 10.0; Win64; x64; rv:86.0) Gecko/20100101 Firefox/86.0,,Firefox,86,Windows,10
6,1,1271,"""",html-keyboard-response,106,247634,0.0-106.0,"<img src='jspsych/CFDfaces/CFD-WF-003-003-N.jpg' height=""250px""></br><b>Stephanie</b>","""",256,IntactFace,Memorization,70,5000,f,"""",CFD-LF-231-260-N.jpg,Taylor,0,"""","""","""",1,"""",3/22/2021 19:59,104.185.203.70,Mozilla/5.0 (Windows NT 10.0; Win64; x64; rv:86.0) Gecko/20100101 Firefox/86.0,,Firefox,86,Windows,10
6,1,null,"""",html-keyboard-response,107,248152,0.0-107.0,"<div style=""font-size:60px;"">+</div>","""",256,fixation,Memorization,null,500,"""","""","""","""","""","""","""","""",1,"""",3/22/2021 19:59,104.185.203.70,Mozilla/5.0 (Windows NT 10.0; Win64; x64; rv:86.0) Gecko/20100101 Firefox/86.0,,Firefox,86,Windows,10
6,1,1035,"""",html-keyboard-response,108,253159,0.0-108.0,"<img src='jspsych/CFDfaces/CFD-WF-024-003-N.jpg' height=""250px""></br><b>Emily</b>","""",256,IntactFace,Memorization,70,5000,f,"""",CFD-AM-230-150-N.jpg,Timothy,0,"""","""","""",1,"""",3/22/2021 19:59,104.185.203.70,Mozilla/5.0 (Windows NT 10.0; Win64; x64; rv:86.0) Gecko/20100101 Firefox/86.0,,Firefox,86,Windows,10
6,1,null,"""",html-keyboard-response,109,253680,0.0-109.0,"<div style=""font-size:60px;"">+</div>","""",256,fixation,Memorization,null,500,"""","""","""","""","""","""","""","""",1,"""",3/22/2021 19:59,104.185.203.70,Mozilla/5.0 (Windows NT 10.0; Win64; x64; rv:86.0) Gecko/20100101 Firefox/86.0,,Firefox,86,Windows,10
6,1,1390,"""",html-keyboard-response,110,258689,0.0-110.0,"<img src='jspsych/CFDfaces/CFD-LM-239-075-N.jpg' height=""250px""></br><b>Ian</b>","""",256,IntactFace,Memorization,78,5000,n,"""",CFD-WM-041-021-N.jpg,Ryan,0,"""","""","""",1,"""",3/22/2021 19:59,104.185.203.70,Mozilla/5.0 (Windows NT 10.0; Win64; x64; rv:86.0) Gecko/20100101 Firefox/86.0,,Firefox,86,Windows,10
6,1,null,"""",html-keyboard-response,111,259199,0.0-111.0,"<div style=""font-size:60px;"">+</div>","""",256,fixation,Memorization,null,500,"""","""","""","""","""","""","""","""",1,"""",3/22/2021 19:59,104.185.203.70,Mozilla/5.0 (Windows NT 10.0; Win64; x64; rv:86.0) Gecko/20100101 Firefox/86.0,,Firefox,86,Windows,10
6,1,1530,"""",html-keyboard-response,112,264220,0.0-112.0,"<img src='jspsych/CFDfaces/CFD-AF-208-003-N.jpg' height=""250px""></br><b>Amanda</b>","""",256,IntactFace,Memorization,78,5000,n,"""",CFD-BF-005-001-N.jpg,Sara,0,"""","""","""",1,"""",3/22/2021 19:59,104.185.203.70,Mozilla/5.0 (Windows NT 10.0; Win64; x64; rv:86.0) Gecko/20100101 Firefox/86.0,,Firefox,86,Windows,10
6,1,null,"""",html-keyboard-response,113,264740,0.0-113.0,"<div style=""font-size:60px;"">+</div>","""",256,fixation,Memorization,null,500,"""","""","""","""","""","""","""","""",1,"""",3/22/2021 19:59,104.185.203.70,Mozilla/5.0 (Windows NT 10.0; Win64; x64; rv:86.0) Gecko/20100101 Firefox/86.0,,Firefox,86,Windows,10
6,1,1403,"""",html-keyboard-response,114,269760,0.0-114.0,"<img src='jspsych/CFDfaces/CFD-BF-004-014-N.jpg' height=""250px""></br><b>Christina</b>","""",256,IntactFace,Memorization,78,5000,n,"""",CFD-LF-244-096-N.jpg,Jenna,0,"""","""","""",1,"""",3/22/2021 19:59,104.185.203.70,Mozilla/5.0 (Windows NT 10.0; Win64; x64; rv:86.0) Gecko/20100101 Firefox/86.0,,Firefox,86,Windows,10
6,1,null,"""",html-keyboard-response,115,270270,0.0-115.0,"<div style=""font-size:60px;"">+</div>","""",256,fixation,Memorization,null,500,"""","""","""","""","""","""","""","""",1,"""",3/22/2021 19:59,104.185.203.70,Mozilla/5.0 (Windows NT 10.0; Win64; x64; rv:86.0) Gecko/20100101 Firefox/86.0,,Firefox,86,Windows,10
6,1,2508,"""",html-keyboard-response,116,275290,0.0-116.0,"<img src='jspsych/CFDfaces/CFD-LM-221-216-N.jpg' height=""250px""></br><b>James</b>","""",256,IntactFace,Memorization,70,5000,f,"""",CFD-AF-222-134-N.jpg,Melissa,0,"""","""","""",1,"""",3/22/2021 19:59,104.185.203.70,Mozilla/5.0 (Windows NT 10.0; Win64; x64; rv:86.0) Gecko/20100101 Firefox/86.0,,Firefox,86,Windows,10
6,1,null,"""",html-keyboard-response,117,275808,0.0-117.0,"<div style=""font-size:60px;"">+</div>","""",256,fixation,Memorization,null,500,"""","""","""","""","""","""","""","""",1,"""",3/22/2021 19:59,104.185.203.70,Mozilla/5.0 (Windows NT 10.0; Win64; x64; rv:86.0) Gecko/20100101 Firefox/86.0,,Firefox,86,Windows,10
6,1,2369,"""",html-keyboard-response,118,280820,0.0-118.0,"<img src='jspsych/CFDfaces/CFD-AF-239-171-N.jpg' height=""250px""></br><b>Ashley</b>","""",256,IntactFace,Memorization,70,5000,f,"""",CFD-WM-222-057-N.jpg,Sean,0,"""","""","""",1,"""",3/22/2021 19:59,104.185.203.70,Mozilla/5.0 (Windows NT 10.0; Win64; x64; rv:86.0) Gecko/20100101 Firefox/86.0,,Firefox,86,Windows,10
6,1,null,"""",html-keyboard-response,119,281338,0.0-119.0,"<div style=""font-size:60px;"">+</div>","""",256,fixation,Memorization,null,500,"""","""","""","""","""","""","""","""",1,"""",3/22/2021 19:59,104.185.203.70,Mozilla/5.0 (Windows NT 10.0; Win64; x64; rv:86.0) Gecko/20100101 Firefox/86.0,,Firefox,86,Windows,10
6,1,1643,"""",html-keyboard-response,120,286350,0.0-120.0,"<img src='jspsych/CFDfaces/CFD-AM-237-154-N.jpg' height=""250px""></br><b>Joshua</b>","""",256,IntactFace,Memorization,78,5000,n,"""",CFD-LF-202-065-N.jpg,Angela,0,"""","""","""",1,"""",3/22/2021 19:59,104.185.203.70,Mozilla/5.0 (Windows NT 10.0; Win64; x64; rv:86.0) Gecko/20100101 Firefox/86.0,,Firefox,86,Windows,10
6,1,null,"""",html-keyboard-response,121,286868,0.0-121.0,"<div style=""font-size:60px;"">+</div>","""",256,fixation,Memorization,null,500,"""","""","""","""","""","""","""","""",1,"""",3/22/2021 19:59,104.185.203.70,Mozilla/5.0 (Windows NT 10.0; Win64; x64; rv:86.0) Gecko/20100101 Firefox/86.0,,Firefox,86,Windows,10
6,1,2168,"""",html-keyboard-response,122,291891,0.0-122.0,"<img src='jspsych/CFDfaces/CFD-LM-209-111-N.jpg' height=""250px""></br><b>Eric</b>","""",256,IntactFace,Memorization,78,5000,n,"""",CFD-LM-224-162-N.jpg,Travis,0,"""","""","""",1,"""",3/22/2021 19:59,104.185.203.70,Mozilla/5.0 (Windows NT 10.0; Win64; x64; rv:86.0) Gecko/20100101 Firefox/86.0,,Firefox,86,Windows,10
6,1,null,"""",html-keyboard-response,123,292399,0.0-123.0,"<div style=""font-size:60px;"">+</div>","""",256,fixation,Memorization,null,500,"""","""","""","""","""","""","""","""",1,"""",3/22/2021 19:59,104.185.203.70,Mozilla/5.0 (Windows NT 10.0; Win64; x64; rv:86.0) Gecko/20100101 Firefox/86.0,,Firefox,86,Windows,10
6,1,2080,"""",html-keyboard-response,124,297408,0.0-124.0,"<img src='jspsych/CFDfaces/CFD-BF-201-080-N.jpg' height=""250px""></br><b>Victoria</b>","""",256,IntactFace,Memorization,78,5000,n,"""",CFD-AF-215-70-N.jpg,Amy,0,"""","""","""",1,"""",3/22/2021 19:59,104.185.203.70,Mozilla/5.0 (Windows NT 10.0; Win64; x64; rv:86.0) Gecko/20100101 Firefox/86.0,,Firefox,86,Windows,10
6,1,null,"""",html-keyboard-response,125,297919,0.0-125.0,"<div style=""font-size:60px;"">+</div>","""",256,fixation,Memorization,null,500,"""","""","""","""","""","""","""","""",1,"""",3/22/2021 19:59,104.185.203.70,Mozilla/5.0 (Windows NT 10.0; Win64; x64; rv:86.0) Gecko/20100101 Firefox/86.0,,Firefox,86,Windows,10
6,1,2992,"""",html-keyboard-response,126,302929,0.0-126.0,"<img src='jspsych/CFDfaces/CFD-AF-241-141-N.jpg' height=""250px""></br><b>Michelle</b>","""",256,IntactFace,Memorization,70,5000,f,"""",CFD-WM-003-002-N.jpg,Dustin,0,"""","""","""",1,"""",3/22/2021 19:59,104.185.203.70,Mozilla/5.0 (Windows NT 10.0; Win64; x64; rv:86.0) Gecko/20100101 Firefox/86.0,,Firefox,86,Windows,10
6,1,null,"""",html-keyboard-response,127,303447,0.0-127.0,"<div style=""font-size:60px;"">+</div>","""",256,fixation,Memorization,null,500,"""","""","""","""","""","""","""","""",1,"""",3/22/2021 19:59,104.185.203.70,Mozilla/5.0 (Windows NT 10.0; Win64; x64; rv:86.0) Gecko/20100101 Firefox/86.0,,Firefox,86,Windows,10
6,1,1639,"""",html-keyboard-response,128,308455,0.0-128.0,"<img src='jspsych/CFDfaces/CFD-LM-233-171-N.jpg' height=""250px""></br><b>Brandon</b>","""",256,IntactFace,Memorization,78,5000,n,"""",CFD-BM-208-065-N.jpg,Kenneth,0,"""","""","""",1,"""",3/22/2021 19:59,104.185.203.70,Mozilla/5.0 (Windows NT 10.0; Win64; x64; rv:86.0) Gecko/20100101 Firefox/86.0,,Firefox,86,Windows,10
6,1,null,"""",html-keyboard-response,129,308979,0.0-129.0,"<div style=""font-size:60px;"">+</div>","""",256,fixation,Memorization,null,500,"""","""","""","""","""","""","""","""",1,"""",3/22/2021 19:59,104.185.203.70,Mozilla/5.0 (Windows NT 10.0; Win64; x64; rv:86.0) Gecko/20100101 Firefox/86.0,,Firefox,86,Windows,10
6,1,2297,"""",html-keyboard-response,130,313989,0.0-130.0,"<img src='jspsych/CFDfaces/CFD-WM-034-030-N.jpg' height=""250px""></br><b>Christian</b>","""",256,IntactFace,Memorization,70,5000,f,"""",CFD-LM-248-089-N.jpg,Luis,0,"""","""","""",1,"""",3/22/2021 19:59,104.185.203.70,Mozilla/5.0 (Windows NT 10.0; Win64; x64; rv:86.0) Gecko/20100101 Firefox/86.0,,Firefox,86,Windows,10
6,1,null,"""",html-keyboard-response,131,314504,0.0-131.0,"<div style=""font-size:60px;"">+</div>","""",256,fixation,Memorization,null,500,"""","""","""","""","""","""","""","""",1,"""",3/22/2021 19:59,104.185.203.70,Mozilla/5.0 (Windows NT 10.0; Win64; x64; rv:86.0) Gecko/20100101 Firefox/86.0,,Firefox,86,Windows,10
6,1,2030,"""",html-keyboard-response,132,319509,0.0-132.0,"<img src='jspsych/CFDfaces/CFD-AF-230-193-N.jpg' height=""250px""></br><b>Brittany</b>","""",256,IntactFace,Memorization,78,5000,n,"""",CFD-LF-208-127-N.jpg,Jasmine,0,"""","""","""",1,"""",3/22/2021 19:59,104.185.203.70,Mozilla/5.0 (Windows NT 10.0; Win64; x64; rv:86.0) Gecko/20100101 Firefox/86.0,,Firefox,86,Windows,10
6,1,null,"""",html-keyboard-response,133,320020,0.0-133.0,"<div style=""font-size:60px;"">+</div>","""",256,fixation,Memorization,null,500,"""","""","""","""","""","""","""","""",1,"""",3/22/2021 19:59,104.185.203.70,Mozilla/5.0 (Windows NT 10.0; Win64; x64; rv:86.0) Gecko/20100101 Firefox/86.0,,Firefox,86,Windows,10
6,1,1907,"""",html-keyboard-response,134,325029,0.0-134.0,"<img src='jspsych/CFDfaces/CFD-AM-212-050-N.jpg' height=""250px""></br><b>Daniel</b>","""",256,IntactFace,Memorization,78,5000,n,"""",CFD-AF-235-170-N.jpg,Laura,0,"""","""","""",1,"""",3/22/2021 19:59,104.185.203.70,Mozilla/5.0 (Windows NT 10.0; Win64; x64; rv:86.0) Gecko/20100101 Firefox/86.0,,Firefox,86,Windows,10
6,1,null,"""",html-keyboard-response,135,325548,0.0-135.0,"<div style=""font-size:60px;"">+</div>","""",256,fixation,Memorization,null,500,"""","""","""","""","""","""","""","""",1,"""",3/22/2021 19:59,104.185.203.70,Mozilla/5.0 (Windows NT 10.0; Win64; x64; rv:86.0) Gecko/20100101 Firefox/86.0,,Firefox,86,Windows,10
6,1,2269,"""",html-keyboard-response,136,330559,0.0-136.0,"<img src='jspsych/CFDfaces/CFD-AF-240-206-N.jpg' height=""250px""></br><b>Elizabeth</b>","""",256,IntactFace,Memorization,70,5000,f,"""",CFD-AM-220-134-N.jpg,Jeremy,0,"""","""","""",1,"""",3/22/2021 19:59,104.185.203.70,Mozilla/5.0 (Windows NT 10.0; Win64; x64; rv:86.0) Gecko/20100101 Firefox/86.0,,Firefox,86,Windows,10
6,1,null,"""",html-keyboard-response,137,331068,0.0-137.0,"<div style=""font-size:60px;"">+</div>","""",256,fixation,Memorization,null,500,"""","""","""","""","""","""","""","""",1,"""",3/22/2021 19:59,104.185.203.70,Mozilla/5.0 (Windows NT 10.0; Win64; x64; rv:86.0) Gecko/20100101 Firefox/86.0,,Firefox,86,Windows,10
6,1,2003,"""",html-keyboard-response,138,336079,0.0-138.0,"<img src='jspsych/CFDfaces/CFD-BM-011-016-N.jpg' height=""250px""></br><b>Peter</b>","""",256,IntactFace,Memorization,78,5000,n,"""",CFD-AF-226-251-N.jpg,Tiffany,0,"""","""","""",1,"""",3/22/2021 19:59,104.185.203.70,Mozilla/5.0 (Windows NT 10.0; Win64; x64; rv:86.0) Gecko/20100101 Firefox/86.0,,Firefox,86,Windows,10
6,1,null,"""",html-keyboard-response,139,336599,0.0-139.0,"<div style=""font-size:60px;"">+</div>","""",256,fixation,Memorization,null,500,"""","""","""","""","""","""","""","""",1,"""",3/22/2021 19:59,104.185.203.70,Mozilla/5.0 (Windows NT 10.0; Win64; x64; rv:86.0) Gecko/20100101 Firefox/86.0,,Firefox,86,Windows,10
6,1,1696,"""",html-keyboard-response,140,341619,0.0-140.0,"<img src='jspsych/CFDfaces/CFD-WF-217-085-N.jpg' height=""250px""></br><b>Kayla</b>","""",256,IntactFace,Memorization,70,5000,f,"""",CFD-BM-210-148-N.jpg,Vincent,0,"""","""","""",1,"""",3/22/2021 19:59,104.185.203.70,Mozilla/5.0 (Windows NT 10.0; Win64; x64; rv:86.0) Gecko/20100101 Firefox/86.0,,Firefox,86,Windows,10
6,1,null,"""",html-keyboard-response,141,342135,0.0-141.0,"<div style=""font-size:60px;"">+</div>","""",256,fixation,Memorization,null,500,"""","""","""","""","""","""","""","""",1,"""",3/22/2021 19:59,104.185.203.70,Mozilla/5.0 (Windows NT 10.0; Win64; x64; rv:86.0) Gecko/20100101 Firefox/86.0,,Firefox,86,Windows,10
6,1,2396,"""",html-keyboard-response,142,347138,0.0-142.0,"<img src='jspsych/CFDfaces/CFD-WF-223-133-N.jpg' height=""250px""></br><b>Andrea</b>","""",256,IntactFace,Memorization,70,5000,f,"""",CFD-WM-006-002-N.jpg,Cameron,0,"""","""","""",1,"""",3/22/2021 19:59,104.185.203.70,Mozilla/5.0 (Windows NT 10.0; Win64; x64; rv:86.0) Gecko/20100101 Firefox/86.0,,Firefox,86,Windows,10
6,1,null,"""",html-keyboard-response,143,347658,0.0-143.0,"<div style=""font-size:60px;"">+</div>","""",256,fixation,Memorization,null,500,"""","""","""","""","""","""","""","""",1,"""",3/22/2021 19:59,104.185.203.70,Mozilla/5.0 (Windows NT 10.0; Win64; x64; rv:86.0) Gecko/20100101 Firefox/86.0,,Firefox,86,Windows,10
6,1,2009,"""",html-keyboard-response,144,352668,0.0-144.0,"<img src='jspsych/CFDfaces/CFD-WF-019-005-N.jpg' height=""250px""></br><b>Julie</b>","""",256,IntactFace,Memorization,70,5000,f,"""",CFD-BM-026-002-N.jpg,Mark,0,"""","""","""",1,"""",3/22/2021 19:59,104.185.203.70,Mozilla/5.0 (Windows NT 10.0; Win64; x64; rv:86.0) Gecko/20100101 Firefox/86.0,,Firefox,86,Windows,10
6,1,null,"""",html-keyboard-response,145,353198,0.0-145.0,"<div style=""font-size:60px;"">+</div>","""",256,fixation,Memorization,null,500,"""","""","""","""","""","""","""","""",1,"""",3/22/2021 19:59,104.185.203.70,Mozilla/5.0 (Windows NT 10.0; Win64; x64; rv:86.0) Gecko/20100101 Firefox/86.0,,Firefox,86,Windows,10
6,1,1617,"""",html-keyboard-response,146,358209,0.0-146.0,"<img src='jspsych/CFDfaces/CFD-BM-022-022-N.jpg' height=""250px""></br><b>Jeffrey</b>","""",256,IntactFace,Memorization,78,5000,n,"""",CFD-BM-017-021-N.jpg,Austin,0,"""","""","""",1,"""",3/22/2021 19:59,104.185.203.70,Mozilla/5.0 (Windows NT 10.0; Win64; x64; rv:86.0) Gecko/20100101 Firefox/86.0,,Firefox,86,Windows,10
6,1,null,"""",html-keyboard-response,147,358717,0.0-147.0,"<div style=""font-size:60px;"">+</div>","""",256,fixation,Memorization,null,500,"""","""","""","""","""","""","""","""",1,"""",3/22/2021 19:59,104.185.203.70,Mozilla/5.0 (Windows NT 10.0; Win64; x64; rv:86.0) Gecko/20100101 Firefox/86.0,,Firefox,86,Windows,10
6,1,1985,"""",html-keyboard-response,148,363738,0.0-148.0,"<img src='jspsych/CFDfaces/CFD-BF-212-315-N.jpg' height=""250px""></br><b>Kimberly</b>","""",256,IntactFace,Memorization,70,5000,f,"""",CFD-LM-201-057-N.jpg,Jesse,0,"""","""","""",1,"""",3/22/2021 19:59,104.185.203.70,Mozilla/5.0 (Windows NT 10.0; Win64; x64; rv:86.0) Gecko/20100101 Firefox/86.0,,Firefox,86,Windows,10
6,1,null,"""",html-keyboard-response,149,364252,0.0-149.0,"<div style=""font-size:60px;"">+</div>","""",256,fixation,Memorization,null,500,"""","""","""","""","""","""","""","""",1,"""",3/22/2021 19:59,104.185.203.70,Mozilla/5.0 (Windows NT 10.0; Win64; x64; rv:86.0) Gecko/20100101 Firefox/86.0,,Firefox,86,Windows,10
6,1,2686,"""",html-keyboard-response,150,369258,0.0-150.0,"<img src='jspsych/CFDfaces/CFD-LM-220-329-N.jpg' height=""250px""></br><b>Robert</b>","""",256,IntactFace,Memorization,70,5000,f,"""",CFD-WF-018-017-N.jpg,Whitney,0,"""","""","""",1,"""",3/22/2021 19:59,104.185.203.70,Mozilla/5.0 (Windows NT 10.0; Win64; x64; rv:86.0) Gecko/20100101 Firefox/86.0,,Firefox,86,Windows,10
6,1,null,"""",html-keyboard-response,151,369778,0.0-151.0,"<div style=""font-size:60px;"">+</div>","""",256,fixation,Memorization,null,500,"""","""","""","""","""","""","""","""",1,"""",3/22/2021 19:59,104.185.203.70,Mozilla/5.0 (Windows NT 10.0; Win64; x64; rv:86.0) Gecko/20100101 Firefox/86.0,,Firefox,86,Windows,10
6,1,1118,"""",html-keyboard-response,152,370898,0.0-152.0,Press Any Key to Begin Memory Test,"""",1,welcomeScreen,Break,32,"""","""","""","""","""","""","""","""","""",1,"""",3/22/2021 19:59,104.185.203.70,Mozilla/5.0 (Windows NT 10.0; Win64; x64; rv:86.0) Gecko/20100101 Firefox/86.0,,Firefox,86,Windows,10
6,1,null,"""",html-keyboard-response,153,371917,0.0-153.0,"<div style=""font-size:60px;"">+</div>","""",256,ITI,Test,null,1000,"""","""","""","""","""","""","""","""",1,"""",3/22/2021 19:59,104.185.203.70,Mozilla/5.0 (Windows NT 10.0; Win64; x64; rv:86.0) Gecko/20100101 Firefox/86.0,,Firefox,86,Windows,10
6,1,null,"""",image-keyboard-response,154,372179,0.0-154.0,jspsych/scrambledNeutralFaces/scrambledBM11NES.JPG,"""",256,forwardMask,Test,null,250,"""",n,"""","""","""","""","""","""",1,"""",3/22/2021 19:59,104.185.203.70,Mozilla/5.0 (Windows NT 10.0; Win64; x64; rv:86.0) Gecko/20100101 Firefox/86.0,,Firefox,86,Windows,10
6,1,null,"""",image-keyboard-response,155,372218,0.0-155.0,jspsych/neutralFaces/BM11NES.JPG,"""",256,Cue,Test,null,16,"""","""","""","""","""","""","""","""",1,"""",3/22/2021 19:59,104.185.203.70,Mozilla/5.0 (Windows NT 10.0; Win64; x64; rv:86.0) Gecko/20100101 Firefox/86.0,,Firefox,86,Windows,10
6,1,null,"""",image-keyboard-response,156,372336,0.0-156.0,jspsych/neutralFaces/BM12NES.JPG,"""",256,backwardMask,Test,null,100,"""","""","""","""","""","""","""","""",1,"""",3/22/2021 19:59,104.185.203.70,Mozilla/5.0 (Windows NT 10.0; Win64; x64; rv:86.0) Gecko/20100101 Firefox/86.0,,Firefox,86,Windows,10
6,1,null,"""",html-keyboard-response,157,373347,0.0-157.0,"<div style=""font-size:60px;"">+</div>","""",256,fixationBtwnNeutralMaskAndPrompt,Test,null,1000,"""","""","""","""","""","""","""","""",1,"""",3/22/2021 19:59,104.185.203.70,Mozilla/5.0 (Windows NT 10.0; Win64; x64; rv:86.0) Gecko/20100101 Firefox/86.0,,Firefox,86,Windows,10
6,1,2768,"""",html-button-response,158,376117,0.0-158.0,"<img src='jspsych/CFDfaces/CFD-LM-221-216-N.jpg' height=""250px"">,</br><b>Jeffrey</b>",1,256,IntactOrRearranged,Test,"""","""","""","""",CFD-AF-235-170-N.jpg,Sara,1,1,"""","""",1,"""",3/22/2021 19:59,104.185.203.70,Mozilla/5.0 (Windows NT 10.0; Win64; x64; rv:86.0) Gecko/20100101 Firefox/86.0,,Firefox,86,Windows,10
6,1,null,"""",html-slider-response,159,381128,0.0-159.0,"<img src='jspsych/CFDfaces/CFD-LM-221-216-N.jpg' height=""250px"">,</br><b>Jeffrey</b>","""",256,ConfidenceQuery,Test,"""","""","""","""",CFD-AF-235-170-N.jpg,Sara,1,"""",0,null,1,"""",3/22/2021 19:59,104.185.203.70,Mozilla/5.0 (Windows NT 10.0; Win64; x64; rv:86.0) Gecko/20100101 Firefox/86.0,,Firefox,86,Windows,10
6,1,null,"""",html-keyboard-response,160,382148,0.0-160.0,"<div style=""font-size:60px;"">+</div>","""",256,ITI,Test,null,1000,"""","""","""","""","""","""","""","""",1,"""",3/22/2021 19:59,104.185.203.70,Mozilla/5.0 (Windows NT 10.0; Win64; x64; rv:86.0) Gecko/20100101 Firefox/86.0,,Firefox,86,Windows,10
6,1,null,"""",image-keyboard-response,161,382423,0.0-161.0,jspsych/scrambledNeutralFaces/scrambledAM04NES.JPG,"""",256,forwardMask,Test,null,250,"""",n,"""","""","""","""","""","""",1,"""",3/22/2021 19:59,104.185.203.70,Mozilla/5.0 (Windows NT 10.0; Win64; x64; rv:86.0) Gecko/20100101 Firefox/86.0,,Firefox,86,Windows,10
6,1,null,"""",image-keyboard-response,162,382454,0.0-162.0,jspsych/neutralFaces/AM04NES.JPG,"""",256,Cue,Test,null,16,"""","""","""","""","""","""","""","""",1,"""",3/22/2021 19:59,104.185.203.70,Mozilla/5.0 (Windows NT 10.0; Win64; x64; rv:86.0) Gecko/20100101 Firefox/86.0,,Firefox,86,Windows,10
6,1,null,"""",image-keyboard-response,163,382558,0.0-163.0,jspsych/neutralFaces/BM04NES.JPG,"""",256,backwardMask,Test,null,100,"""","""","""","""","""","""","""","""",1,"""",3/22/2021 19:59,104.185.203.70,Mozilla/5.0 (Windows NT 10.0; Win64; x64; rv:86.0) Gecko/20100101 Firefox/86.0,,Firefox,86,Windows,10
6,1,null,"""",html-keyboard-response,164,383578,0.0-164.0,"<div style=""font-size:60px;"">+</div>","""",256,fixationBtwnNeutralMaskAndPrompt,Test,null,1000,"""","""","""","""","""","""","""","""",1,"""",3/22/2021 19:59,104.185.203.70,Mozilla/5.0 (Windows NT 10.0; Win64; x64; rv:86.0) Gecko/20100101 Firefox/86.0,,Firefox,86,Windows,10
6,1,3153,"""",html-button-response,165,386733,0.0-165.0,"<img src='jspsych/CFDfaces/CFD-LF-200-058-N.jpg' height=""250px"">,</br><b>Meghan</b>",0,256,IntactOrRearranged,Test,"""","""","""","""",CFD-WM-041-021-N.jpg,Cameron,0,0,"""","""",1,"""",3/22/2021 19:59,104.185.203.70,Mozilla/5.0 (Windows NT 10.0; Win64; x64; rv:86.0) Gecko/20100101 Firefox/86.0,,Firefox,86,Windows,10
6,1,3535,"""",html-slider-response,166,390275,0.0-166.0,"<img src='jspsych/CFDfaces/CFD-LF-200-058-N.jpg' height=""250px"">,</br><b>Meghan</b>","""",256,ConfidenceQuery,Test,"""","""","""","""",CFD-WM-041-021-N.jpg,Cameron,0,"""",0,59,1,"""",3/22/2021 19:59,104.185.203.70,Mozilla/5.0 (Windows NT 10.0; Win64; x64; rv:86.0) Gecko/20100101 Firefox/86.0,,Firefox,86,Windows,10
6,1,null,"""",html-keyboard-response,167,391288,0.0-167.0,"<div style=""font-size:60px;"">+</div>","""",256,ITI,Test,null,1000,"""","""","""","""","""","""","""","""",1,"""",3/22/2021 19:59,104.185.203.70,Mozilla/5.0 (Windows NT 10.0; Win64; x64; rv:86.0) Gecko/20100101 Firefox/86.0,,Firefox,86,Windows,10
6,1,null,"""",image-keyboard-response,168,391560,0.0-168.0,jspsych/scrambledDisgustFaces/scrambledAM27DIS.JPG,"""",256,forwardMask,Test,null,250,"""",d,"""","""","""","""","""","""",1,"""",3/22/2021 19:59,104.185.203.70,Mozilla/5.0 (Windows NT 10.0; Win64; x64; rv:86.0) Gecko/20100101 Firefox/86.0,,Firefox,86,Windows,10
6,1,null,"""",image-keyboard-response,169,391591,0.0-169.0,jspsych/disgustFaces/AM27DIS.JPG,"""",256,Cue,Test,null,16,"""","""","""","""","""","""","""","""",1,"""",3/22/2021 19:59,104.185.203.70,Mozilla/5.0 (Windows NT 10.0; Win64; x64; rv:86.0) Gecko/20100101 Firefox/86.0,,Firefox,86,Windows,10
6,1,null,"""",image-keyboard-response,170,391698,0.0-170.0,jspsych/neutralFaces/AM33NES.JPG,"""",256,backwardMask,Test,null,100,"""","""","""","""","""","""","""","""",1,"""",3/22/2021 19:59,104.185.203.70,Mozilla/5.0 (Windows NT 10.0; Win64; x64; rv:86.0) Gecko/20100101 Firefox/86.0,,Firefox,86,Windows,10
6,1,null,"""",html-keyboard-response,171,392718,0.0-171.0,"<div style=""font-size:60px;"">+</div>","""",256,fixationBtwnNeutralMaskAndPrompt,Test,null,1000,"""","""","""","""","""","""","""","""",1,"""",3/22/2021 19:59,104.185.203.70,Mozilla/5.0 (Windows NT 10.0; Win64; x64; rv:86.0) Gecko/20100101 Firefox/86.0,,Firefox,86,Windows,10
6,1,1990,"""",html-button-response,172,394710,0.0-172.0,"<img src='jspsych/CFDfaces/CFD-WF-223-133-N.jpg' height=""250px"">,</br><b>Amanda</b>",1,256,IntactOrRearranged,Test,"""","""","""","""",CFD-LM-248-089-N.jpg,Luis,1,1,"""","""",1,"""",3/22/2021 19:59,104.185.203.70,Mozilla/5.0 (Windows NT 10.0; Win64; x64; rv:86.0) Gecko/20100101 Firefox/86.0,,Firefox,86,Windows,10
6,1,2673,"""",html-slider-response,173,397391,0.0-173.0,"<img src='jspsych/CFDfaces/CFD-WF-223-133-N.jpg' height=""250px"">,</br><b>Amanda</b>","""",256,ConfidenceQuery,Test,"""","""","""","""",CFD-LM-248-089-N.jpg,Luis,1,"""",0,100,1,"""",3/22/2021 19:59,104.185.203.70,Mozilla/5.0 (Windows NT 10.0; Win64; x64; rv:86.0) Gecko/20100101 Firefox/86.0,,Firefox,86,Windows,10
6,1,null,"""",html-keyboard-response,174,398398,0.0-174.0,"<div style=""font-size:60px;"">+</div>","""",256,ITI,Test,null,1000,"""","""","""","""","""","""","""","""",1,"""",3/22/2021 19:59,104.185.203.70,Mozilla/5.0 (Windows NT 10.0; Win64; x64; rv:86.0) Gecko/20100101 Firefox/86.0,,Firefox,86,Windows,10
6,1,null,"""",image-keyboard-response,175,398664,0.0-175.0,jspsych/scrambledNeutralFaces/scrambledAM31NES.JPG,"""",256,forwardMask,Test,null,250,"""",n,"""","""","""","""","""","""",1,"""",3/22/2021 19:59,104.185.203.70,Mozilla/5.0 (Windows NT 10.0; Win64; x64; rv:86.0) Gecko/20100101 Firefox/86.0,,Firefox,86,Windows,10
6,1,null,"""",image-keyboard-response,176,398696,0.0-176.0,jspsych/neutralFaces/AM31NES.JPG,"""",256,Cue,Test,null,16,"""","""","""","""","""","""","""","""",1,"""",3/22/2021 19:59,104.185.203.70,Mozilla/5.0 (Windows NT 10.0; Win64; x64; rv:86.0) Gecko/20100101 Firefox/86.0,,Firefox,86,Windows,10
6,1,null,"""",image-keyboard-response,177,398807,0.0-177.0,jspsych/neutralFaces/AM29NES.JPG,"""",256,backwardMask,Test,null,100,"""","""","""","""","""","""","""","""",1,"""",3/22/2021 19:59,104.185.203.70,Mozilla/5.0 (Windows NT 10.0; Win64; x64; rv:86.0) Gecko/20100101 Firefox/86.0,,Firefox,86,Windows,10
6,1,null,"""",html-keyboard-response,178,399826,0.0-178.0,"<div style=""font-size:60px;"">+</div>","""",256,fixationBtwnNeutralMaskAndPrompt,Test,null,1000,"""","""","""","""","""","""","""","""",1,"""",3/22/2021 19:59,104.185.203.70,Mozilla/5.0 (Windows NT 10.0; Win64; x64; rv:86.0) Gecko/20100101 Firefox/86.0,,Firefox,86,Windows,10
6,1,2794,"""",html-button-response,179,402622,0.0-179.0,"<img src='jspsych/CFDfaces/CFD-AF-208-003-N.jpg' height=""250px"">,</br><b>Christina</b>",1,256,IntactOrRearranged,Test,"""","""","""","""",CFD-LF-244-096-N.jpg,Jasmine,1,1,"""","""",1,"""",3/22/2021 19:59,104.185.203.70,Mozilla/5.0 (Windows NT 10.0; Win64; x64; rv:86.0) Gecko/20100101 Firefox/86.0,,Firefox,86,Windows,10
6,1,3994,"""",html-slider-response,180,406624,0.0-180.0,"<img src='jspsych/CFDfaces/CFD-AF-208-003-N.jpg' height=""250px"">,</br><b>Christina</b>","""",256,ConfidenceQuery,Test,"""","""","""","""",CFD-LF-244-096-N.jpg,Jasmine,1,"""",0,39,1,"""",3/22/2021 19:59,104.185.203.70,Mozilla/5.0 (Windows NT 10.0; Win64; x64; rv:86.0) Gecko/20100101 Firefox/86.0,,Firefox,86,Windows,10
6,1,null,"""",html-keyboard-response,181,407634,0.0-181.0,"<div style=""font-size:60px;"">+</div>","""",256,ITI,Test,null,1000,"""","""","""","""","""","""","""","""",1,"""",3/22/2021 19:59,104.185.203.70,Mozilla/5.0 (Windows NT 10.0; Win64; x64; rv:86.0) Gecko/20100101 Firefox/86.0,,Firefox,86,Windows,10
6,1,null,"""",image-keyboard-response,182,407917,0.0-182.0,jspsych/scrambledDisgustFaces/scrambledAM29DIS.JPG,"""",256,forwardMask,Test,null,250,"""",d,"""","""","""","""","""","""",1,"""",3/22/2021 19:59,104.185.203.70,Mozilla/5.0 (Windows NT 10.0; Win64; x64; rv:86.0) Gecko/20100101 Firefox/86.0,,Firefox,86,Windows,10
6,1,null,"""",image-keyboard-response,183,407957,0.0-183.0,jspsych/disgustFaces/AM29DIS.JPG,"""",256,Cue,Test,null,16,"""","""","""","""","""","""","""","""",1,"""",3/22/2021 19:59,104.185.203.70,Mozilla/5.0 (Windows NT 10.0; Win64; x64; rv:86.0) Gecko/20100101 Firefox/86.0,,Firefox,86,Windows,10
6,1,null,"""",image-keyboard-response,184,408077,0.0-184.0,jspsych/neutralFaces/BM14NES.JPG,"""",256,backwardMask,Test,null,100,"""","""","""","""","""","""","""","""",1,"""",3/22/2021 19:59,104.185.203.70,Mozilla/5.0 (Windows NT 10.0; Win64; x64; rv:86.0) Gecko/20100101 Firefox/86.0,,Firefox,86,Windows,10
6,1,null,"""",html-keyboard-response,185,409097,0.0-185.0,"<div style=""font-size:60px;"">+</div>","""",256,fixationBtwnNeutralMaskAndPrompt,Test,null,1000,"""","""","""","""","""","""","""","""",1,"""",3/22/2021 19:59,104.185.203.70,Mozilla/5.0 (Windows NT 10.0; Win64; x64; rv:86.0) Gecko/20100101 Firefox/86.0,,Firefox,86,Windows,10
6,1,2575,"""",html-button-response,186,411674,0.0-186.0,"<img src='jspsych/CFDfaces/CFD-BF-212-315-N.jpg' height=""250px"">,</br><b>Emily</b>",1,256,IntactOrRearranged,Test,"""","""","""","""",CFD-BM-208-065-N.jpg,Jeremy,1,1,"""","""",1,"""",3/22/2021 19:59,104.185.203.70,Mozilla/5.0 (Windows NT 10.0; Win64; x64; rv:86.0) Gecko/20100101 Firefox/86.0,,Firefox,86,Windows,10
6,1,3796,"""",html-slider-response,187,415479,0.0-187.0,"<img src='jspsych/CFDfaces/CFD-BF-212-315-N.jpg' height=""250px"">,</br><b>Emily</b>","""",256,ConfidenceQuery,Test,"""","""","""","""",CFD-BM-208-065-N.jpg,Jeremy,1,"""",0,79,1,"""",3/22/2021 19:59,104.185.203.70,Mozilla/5.0 (Windows NT 10.0; Win64; x64; rv:86.0) Gecko/20100101 Firefox/86.0,,Firefox,86,Windows,10
6,1,null,"""",html-keyboard-response,188,416498,0.0-188.0,"<div style=""font-size:60px;"">+</div>","""",256,ITI,Test,null,1000,"""","""","""","""","""","""","""","""",1,"""",3/22/2021 19:59,104.185.203.70,Mozilla/5.0 (Windows NT 10.0; Win64; x64; rv:86.0) Gecko/20100101 Firefox/86.0,,Firefox,86,Windows,10
6,1,null,"""",image-keyboard-response,189,416778,0.0-189.0,jspsych/scrambledNeutralFaces/scrambledAM35NES.JPG,"""",256,forwardMask,Test,null,250,"""",n,"""","""","""","""","""","""",1,"""",3/22/2021 19:59,104.185.203.70,Mozilla/5.0 (Windows NT 10.0; Win64; x64; rv:86.0) Gecko/20100101 Firefox/86.0,,Firefox,86,Windows,10
6,1,null,"""",image-keyboard-response,190,416816,0.0-190.0,jspsych/neutralFaces/AM35NES.JPG,"""",256,Cue,Test,null,16,"""","""","""","""","""","""","""","""",1,"""",3/22/2021 19:59,104.185.203.70,Mozilla/5.0 (Windows NT 10.0; Win64; x64; rv:86.0) Gecko/20100101 Firefox/86.0,,Firefox,86,Windows,10
6,1,null,"""",image-keyboard-response,191,416926,0.0-191.0,jspsych/neutralFaces/BM04NES.JPG,"""",256,backwardMask,Test,null,100,"""","""","""","""","""","""","""","""",1,"""",3/22/2021 19:59,104.185.203.70,Mozilla/5.0 (Windows NT 10.0; Win64; x64; rv:86.0) Gecko/20100101 Firefox/86.0,,Firefox,86,Windows,10
6,1,null,"""",html-keyboard-response,192,417940,0.0-192.0,"<div style=""font-size:60px;"">+</div>","""",256,fixationBtwnNeutralMaskAndPrompt,Test,null,1000,"""","""","""","""","""","""","""","""",1,"""",3/22/2021 19:59,104.185.203.70,Mozilla/5.0 (Windows NT 10.0; Win64; x64; rv:86.0) Gecko/20100101 Firefox/86.0,,Firefox,86,Windows,10
6,1,2414,"""",html-button-response,193,420356,0.0-193.0,"<img src='jspsych/CFDfaces/CFD-AF-230-193-N.jpg' height=""250px"">,</br><b>Brittany</b>",0,256,IntactOrRearranged,Test,"""","""","""","""",CFD-BF-016-017-N.jpg,Rebecca,0,0,"""","""",1,"""",3/22/2021 19:59,104.185.203.70,Mozilla/5.0 (Windows NT 10.0; Win64; x64; rv:86.0) Gecko/20100101 Firefox/86.0,,Firefox,86,Windows,10
6,1,3351,"""",html-slider-response,194,423715,0.0-194.0,"<img src='jspsych/CFDfaces/CFD-AF-230-193-N.jpg' height=""250px"">,</br><b>Brittany</b>","""",256,ConfidenceQuery,Test,"""","""","""","""",CFD-BF-016-017-N.jpg,Rebecca,0,"""",0,90,1,"""",3/22/2021 19:59,104.185.203.70,Mozilla/5.0 (Windows NT 10.0; Win64; x64; rv:86.0) Gecko/20100101 Firefox/86.0,,Firefox,86,Windows,10
6,1,null,"""",html-keyboard-response,195,424718,0.0-195.0,"<div style=""font-size:60px;"">+</div>","""",256,ITI,Test,null,1000,"""","""","""","""","""","""","""","""",1,"""",3/22/2021 19:59,104.185.203.70,Mozilla/5.0 (Windows NT 10.0; Win64; x64; rv:86.0) Gecko/20100101 Firefox/86.0,,Firefox,86,Windows,10
6,1,null,"""",image-keyboard-response,196,424983,0.0-196.0,jspsych/scrambledDisgustFaces/scrambledAF11DIS.JPG,"""",256,forwardMask,Test,null,250,"""",d,"""","""","""","""","""","""",1,"""",3/22/2021 19:59,104.185.203.70,Mozilla/5.0 (Windows NT 10.0; Win64; x64; rv:86.0) Gecko/20100101 Firefox/86.0,,Firefox,86,Windows,10
6,1,null,"""",image-keyboard-response,197,425014,0.0-197.0,jspsych/disgustFaces/AF11DIS.JPG,"""",256,Cue,Test,null,16,"""","""","""","""","""","""","""","""",1,"""",3/22/2021 19:59,104.185.203.70,Mozilla/5.0 (Windows NT 10.0; Win64; x64; rv:86.0) Gecko/20100101 Firefox/86.0,,Firefox,86,Windows,10
6,1,null,"""",image-keyboard-response,198,425127,0.0-198.0,jspsych/neutralFaces/AF15NES.JPG,"""",256,backwardMask,Test,null,100,"""","""","""","""","""","""","""","""",1,"""",3/22/2021 19:59,104.185.203.70,Mozilla/5.0 (Windows NT 10.0; Win64; x64; rv:86.0) Gecko/20100101 Firefox/86.0,,Firefox,86,Windows,10
6,1,null,"""",html-keyboard-response,199,426138,0.0-199.0,"<div style=""font-size:60px;"">+</div>","""",256,fixationBtwnNeutralMaskAndPrompt,Test,null,1000,"""","""","""","""","""","""","""","""",1,"""",3/22/2021 19:59,104.185.203.70,Mozilla/5.0 (Windows NT 10.0; Win64; x64; rv:86.0) Gecko/20100101 Firefox/86.0,,Firefox,86,Windows,10
6,1,2357,"""",html-button-response,200,428496,0.0-200.0,"<img src='jspsych/CFDfaces/CFD-BF-008-001-N.jpg' height=""250px"">,</br><b>Vanessa</b>",0,256,IntactOrRearranged,Test,"""","""","""","""",CFD-AM-220-134-N.jpg,Ryan,0,0,"""","""",1,"""",3/22/2021 19:59,104.185.203.70,Mozilla/5.0 (Windows NT 10.0; Win64; x64; rv:86.0) Gecko/20100101 Firefox/86.0,,Firefox,86,Windows,10
6,1,4483,"""",html-slider-response,201,432986,0.0-201.0,"<img src='jspsych/CFDfaces/CFD-BF-008-001-N.jpg' height=""250px"">,</br><b>Vanessa</b>","""",256,ConfidenceQuery,Test,"""","""","""","""",CFD-AM-220-134-N.jpg,Ryan,0,"""",0,89,1,"""",3/22/2021 19:59,104.185.203.70,Mozilla/5.0 (Windows NT 10.0; Win64; x64; rv:86.0) Gecko/20100101 Firefox/86.0,,Firefox,86,Windows,10
6,1,null,"""",html-keyboard-response,202,434008,0.0-202.0,"<div style=""font-size:60px;"">+</div>","""",256,ITI,Test,null,1000,"""","""","""","""","""","""","""","""",1,"""",3/22/2021 19:59,104.185.203.70,Mozilla/5.0 (Windows NT 10.0; Win64; x64; rv:86.0) Gecko/20100101 Firefox/86.0,,Firefox,86,Windows,10
6,1,null,"""",image-keyboard-response,203,434281,0.0-203.0,jspsych/scrambledNeutralFaces/scrambledAM13NES.JPG,"""",256,forwardMask,Test,null,250,"""",n,"""","""","""","""","""","""",1,"""",3/22/2021 19:59,104.185.203.70,Mozilla/5.0 (Windows NT 10.0; Win64; x64; rv:86.0) Gecko/20100101 Firefox/86.0,,Firefox,86,Windows,10
6,1,null,"""",image-keyboard-response,204,434311,0.0-204.0,jspsych/neutralFaces/AM13NES.JPG,"""",256,Cue,Test,null,16,"""","""","""","""","""","""","""","""",1,"""",3/22/2021 19:59,104.185.203.70,Mozilla/5.0 (Windows NT 10.0; Win64; x64; rv:86.0) Gecko/20100101 Firefox/86.0,,Firefox,86,Windows,10
6,1,null,"""",image-keyboard-response,205,434418,0.0-205.0,jspsych/neutralFaces/AM33NES.JPG,"""",256,backwardMask,Test,null,100,"""","""","""","""","""","""","""","""",1,"""",3/22/2021 19:59,104.185.203.70,Mozilla/5.0 (Windows NT 10.0; Win64; x64; rv:86.0) Gecko/20100101 Firefox/86.0,,Firefox,86,Windows,10
6,1,null,"""",html-keyboard-response,206,435437,0.0-206.0,"<div style=""font-size:60px;"">+</div>","""",256,fixationBtwnNeutralMaskAndPrompt,Test,null,1000,"""","""","""","""","""","""","""","""",1,"""",3/22/2021 19:59,104.185.203.70,Mozilla/5.0 (Windows NT 10.0; Win64; x64; rv:86.0) Gecko/20100101 Firefox/86.0,,Firefox,86,Windows,10
6,1,2793,"""",html-button-response,207,438230,0.0-207.0,"<img src='jspsych/CFDfaces/CFD-LM-233-171-N.jpg' height=""250px"">,</br><b>Brandon</b>",0,256,IntactOrRearranged,Test,"""","""","""","""",CFD-LF-202-065-N.jpg,Erin,0,0,"""","""",1,"""",3/22/2021 19:59,104.185.203.70,Mozilla/5.0 (Windows NT 10.0; Win64; x64; rv:86.0) Gecko/20100101 Firefox/86.0,,Firefox,86,Windows,10
6,1,4216,"""",html-slider-response,208,442452,0.0-208.0,"<img src='jspsych/CFDfaces/CFD-LM-233-171-N.jpg' height=""250px"">,</br><b>Brandon</b>","""",256,ConfidenceQuery,Test,"""","""","""","""",CFD-LF-202-065-N.jpg,Erin,0,"""",0,59,1,"""",3/22/2021 19:59,104.185.203.70,Mozilla/5.0 (Windows NT 10.0; Win64; x64; rv:86.0) Gecko/20100101 Firefox/86.0,,Firefox,86,Windows,10
6,1,null,"""",html-keyboard-response,209,443467,0.0-209.0,"<div style=""font-size:60px;"">+</div>","""",256,ITI,Test,null,1000,"""","""","""","""","""","""","""","""",1,"""",3/22/2021 19:59,104.185.203.70,Mozilla/5.0 (Windows NT 10.0; Win64; x64; rv:86.0) Gecko/20100101 Firefox/86.0,,Firefox,86,Windows,10
6,1,null,"""",image-keyboard-response,210,443747,0.0-210.0,jspsych/scrambledNeutralFaces/scrambledBF34NES.JPG,"""",256,forwardMask,Test,null,250,"""",n,"""","""","""","""","""","""",1,"""",3/22/2021 19:59,104.185.203.70,Mozilla/5.0 (Windows NT 10.0; Win64; x64; rv:86.0) Gecko/20100101 Firefox/86.0,,Firefox,86,Windows,10
6,1,null,"""",image-keyboard-response,211,443788,0.0-211.0,jspsych/neutralFaces/BF34NES.JPG,"""",256,Cue,Test,null,16,"""","""","""","""","""","""","""","""",1,"""",3/22/2021 19:59,104.185.203.70,Mozilla/5.0 (Windows NT 10.0; Win64; x64; rv:86.0) Gecko/20100101 Firefox/86.0,,Firefox,86,Windows,10
6,1,null,"""",image-keyboard-response,212,443908,0.0-212.0,jspsych/neutralFaces/BF10NES.JPG,"""",256,backwardMask,Test,null,100,"""","""","""","""","""","""","""","""",1,"""",3/22/2021 19:59,104.185.203.70,Mozilla/5.0 (Windows NT 10.0; Win64; x64; rv:86.0) Gecko/20100101 Firefox/86.0,,Firefox,86,Windows,10
6,1,null,"""",html-keyboard-response,213,444917,0.0-213.0,"<div style=""font-size:60px;"">+</div>","""",256,fixationBtwnNeutralMaskAndPrompt,Test,null,1000,"""","""","""","""","""","""","""","""",1,"""",3/22/2021 19:59,104.185.203.70,Mozilla/5.0 (Windows NT 10.0; Win64; x64; rv:86.0) Gecko/20100101 Firefox/86.0,,Firefox,86,Windows,10
6,1,1516,"""",html-button-response,214,446434,0.0-214.0,"<img src='jspsych/CFDfaces/CFD-BM-011-016-N.jpg' height=""250px"">,</br><b>Peter</b>",0,256,IntactOrRearranged,Test,"""","""","""","""",CFD-WM-237-052-N.jpg,Justin,0,0,"""","""",1,"""",3/22/2021 19:59,104.185.203.70,Mozilla/5.0 (Windows NT 10.0; Win64; x64; rv:86.0) Gecko/20100101 Firefox/86.0,,Firefox,86,Windows,10
6,1,4267,"""",html-slider-response,215,450710,0.0-215.0,"<img src='jspsych/CFDfaces/CFD-BM-011-016-N.jpg' height=""250px"">,</br><b>Peter</b>","""",256,ConfidenceQuery,Test,"""","""","""","""",CFD-WM-237-052-N.jpg,Justin,0,"""",0,89,1,"""",3/22/2021 19:59,104.185.203.70,Mozilla/5.0 (Windows NT 10.0; Win64; x64; rv:86.0) Gecko/20100101 Firefox/86.0,,Firefox,86,Windows,10
6,1,null,"""",html-keyboard-response,216,451727,0.0-216.0,"<div style=""font-size:60px;"">+</div>","""",256,ITI,Test,null,1000,"""","""","""","""","""","""","""","""",1,"""",3/22/2021 19:59,104.185.203.70,Mozilla/5.0 (Windows NT 10.0; Win64; x64; rv:86.0) Gecko/20100101 Firefox/86.0,,Firefox,86,Windows,10
6,1,null,"""",image-keyboard-response,217,451998,0.0-217.0,jspsych/scrambledNeutralFaces/scrambledBM08NES.JPG,"""",256,forwardMask,Test,null,250,"""",n,"""","""","""","""","""","""",1,"""",3/22/2021 19:59,104.185.203.70,Mozilla/5.0 (Windows NT 10.0; Win64; x64; rv:86.0) Gecko/20100101 Firefox/86.0,,Firefox,86,Windows,10
6,1,null,"""",image-keyboard-response,218,452036,0.0-218.0,jspsych/neutralFaces/BM08NES.JPG,"""",256,Cue,Test,null,16,"""","""","""","""","""","""","""","""",1,"""",3/22/2021 19:59,104.185.203.70,Mozilla/5.0 (Windows NT 10.0; Win64; x64; rv:86.0) Gecko/20100101 Firefox/86.0,,Firefox,86,Windows,10
6,1,null,"""",image-keyboard-response,219,452157,0.0-219.0,jspsych/neutralFaces/AM28NES.JPG,"""",256,backwardMask,Test,null,100,"""","""","""","""","""","""","""","""",1,"""",3/22/2021 19:59,104.185.203.70,Mozilla/5.0 (Windows NT 10.0; Win64; x64; rv:86.0) Gecko/20100101 Firefox/86.0,,Firefox,86,Windows,10
6,1,null,"""",html-keyboard-response,220,453167,0.0-220.0,"<div style=""font-size:60px;"">+</div>","""",256,fixationBtwnNeutralMaskAndPrompt,Test,null,1000,"""","""","""","""","""","""","""","""",1,"""",3/22/2021 19:59,104.185.203.70,Mozilla/5.0 (Windows NT 10.0; Win64; x64; rv:86.0) Gecko/20100101 Firefox/86.0,,Firefox,86,Windows,10
6,1,1883,"""",html-button-response,221,455050,0.0-221.0,"<img src='jspsych/CFDfaces/CFD-WM-216-061-N.jpg' height=""250px"">,</br><b>Nicholas</b>",0,256,IntactOrRearranged,Test,"""","""","""","""",CFD-WM-006-002-N.jpg,Timothy,0,0,"""","""",1,"""",3/22/2021 19:59,104.185.203.70,Mozilla/5.0 (Windows NT 10.0; Win64; x64; rv:86.0) Gecko/20100101 Firefox/86.0,,Firefox,86,Windows,10
6,1,4149,"""",html-slider-response,222,459210,0.0-222.0,"<img src='jspsych/CFDfaces/CFD-WM-216-061-N.jpg' height=""250px"">,</br><b>Nicholas</b>","""",256,ConfidenceQuery,Test,"""","""","""","""",CFD-WM-006-002-N.jpg,Timothy,0,"""",0,79,1,"""",3/22/2021 19:59,104.185.203.70,Mozilla/5.0 (Windows NT 10.0; Win64; x64; rv:86.0) Gecko/20100101 Firefox/86.0,,Firefox,86,Windows,10
6,1,null,"""",html-keyboard-response,223,460228,0.0-223.0,"<div style=""font-size:60px;"">+</div>","""",256,ITI,Test,null,1000,"""","""","""","""","""","""","""","""",1,"""",3/22/2021 19:59,104.185.203.70,Mozilla/5.0 (Windows NT 10.0; Win64; x64; rv:86.0) Gecko/20100101 Firefox/86.0,,Firefox,86,Windows,10
6,1,null,"""",image-keyboard-response,224,460507,0.0-224.0,jspsych/scrambledDisgustFaces/scrambledBF03DIS.JPG,"""",256,forwardMask,Test,null,250,"""",d,"""","""","""","""","""","""",1,"""",3/22/2021 19:59,104.185.203.70,Mozilla/5.0 (Windows NT 10.0; Win64; x64; rv:86.0) Gecko/20100101 Firefox/86.0,,Firefox,86,Windows,10
6,1,null,"""",image-keyboard-response,225,460546,0.0-225.0,jspsych/disgustFaces/BF03DIS.JPG,"""",256,Cue,Test,null,16,"""","""","""","""","""","""","""","""",1,"""",3/22/2021 19:59,104.185.203.70,Mozilla/5.0 (Windows NT 10.0; Win64; x64; rv:86.0) Gecko/20100101 Firefox/86.0,,Firefox,86,Windows,10
6,1,null,"""",image-keyboard-response,226,460666,0.0-226.0,jspsych/neutralFaces/AF22NES.JPG,"""",256,backwardMask,Test,null,100,"""","""","""","""","""","""","""","""",1,"""",3/22/2021 19:59,104.185.203.70,Mozilla/5.0 (Windows NT 10.0; Win64; x64; rv:86.0) Gecko/20100101 Firefox/86.0,,Firefox,86,Windows,10
6,1,null,"""",html-keyboard-response,227,461687,0.0-227.0,"<div style=""font-size:60px;"">+</div>","""",256,fixationBtwnNeutralMaskAndPrompt,Test,null,1000,"""","""","""","""","""","""","""","""",1,"""",3/22/2021 19:59,104.185.203.70,Mozilla/5.0 (Windows NT 10.0; Win64; x64; rv:86.0) Gecko/20100101 Firefox/86.0,,Firefox,86,Windows,10
6,1,2233,"""",html-button-response,228,463919,0.0-228.0,"<img src='jspsych/CFDfaces/CFD-WF-024-003-N.jpg' height=""250px"">,</br><b>Andrea</b>",0,256,IntactOrRearranged,Test,"""","""","""","""",CFD-WM-003-002-N.jpg,Dustin,1,0,"""","""",1,"""",3/22/2021 19:59,104.185.203.70,Mozilla/5.0 (Windows NT 10.0; Win64; x64; rv:86.0) Gecko/20100101 Firefox/86.0,,Firefox,86,Windows,10
6,1,null,"""",html-slider-response,229,468932,0.0-229.0,"<img src='jspsych/CFDfaces/CFD-WF-024-003-N.jpg' height=""250px"">,</br><b>Andrea</b>","""",256,ConfidenceQuery,Test,"""","""","""","""",CFD-WM-003-002-N.jpg,Dustin,1,"""",0,null,1,"""",3/22/2021 19:59,104.185.203.70,Mozilla/5.0 (Windows NT 10.0; Win64; x64; rv:86.0) Gecko/20100101 Firefox/86.0,,Firefox,86,Windows,10
6,1,null,"""",html-keyboard-response,230,469937,0.0-230.0,"<div style=""font-size:60px;"">+</div>","""",256,ITI,Test,null,1000,"""","""","""","""","""","""","""","""",1,"""",3/22/2021 19:59,104.185.203.70,Mozilla/5.0 (Windows NT 10.0; Win64; x64; rv:86.0) Gecko/20100101 Firefox/86.0,,Firefox,86,Windows,10
6,1,null,"""",image-keyboard-response,231,470217,0.0-231.0,jspsych/scrambledDisgustFaces/scrambledBM14DIS.JPG,"""",256,forwardMask,Test,null,250,"""",d,"""","""","""","""","""","""",1,"""",3/22/2021 19:59,104.185.203.70,Mozilla/5.0 (Windows NT 10.0; Win64; x64; rv:86.0) Gecko/20100101 Firefox/86.0,,Firefox,86,Windows,10
6,1,null,"""",image-keyboard-response,232,470256,0.0-232.0,jspsych/disgustFaces/BM15DIS.JPG,"""",256,Cue,Test,null,16,"""","""","""","""","""","""","""","""",1,"""",3/22/2021 19:59,104.185.203.70,Mozilla/5.0 (Windows NT 10.0; Win64; x64; rv:86.0) Gecko/20100101 Firefox/86.0,,Firefox,86,Windows,10
6,1,null,"""",image-keyboard-response,233,470377,0.0-233.0,jspsych/neutralFaces/BM06NES.JPG,"""",256,backwardMask,Test,null,100,"""","""","""","""","""","""","""","""",1,"""",3/22/2021 19:59,104.185.203.70,Mozilla/5.0 (Windows NT 10.0; Win64; x64; rv:86.0) Gecko/20100101 Firefox/86.0,,Firefox,86,Windows,10
6,1,null,"""",html-keyboard-response,234,471392,0.0-234.0,"<div style=""font-size:60px;"">+</div>","""",256,fixationBtwnNeutralMaskAndPrompt,Test,null,1000,"""","""","""","""","""","""","""","""",1,"""",3/22/2021 19:59,104.185.203.70,Mozilla/5.0 (Windows NT 10.0; Win64; x64; rv:86.0) Gecko/20100101 Firefox/86.0,,Firefox,86,Windows,10
6,1,1268,"""",html-button-response,235,472661,0.0-235.0,"<img src='jspsych/CFDfaces/CFD-AF-241-141-N.jpg' height=""250px"">,</br><b>Michelle</b>",0,256,IntactOrRearranged,Test,"""","""","""","""",CFD-AM-205-153-N.jpg,Jacob,0,0,"""","""",1,"""",3/22/2021 19:59,104.185.203.70,Mozilla/5.0 (Windows NT 10.0; Win64; x64; rv:86.0) Gecko/20100101 Firefox/86.0,,Firefox,86,Windows,10
6,1,2808,"""",html-slider-response,236,475472,0.0-236.0,"<img src='jspsych/CFDfaces/CFD-AF-241-141-N.jpg' height=""250px"">,</br><b>Michelle</b>","""",256,ConfidenceQuery,Test,"""","""","""","""",CFD-AM-205-153-N.jpg,Jacob,0,"""",0,100,1,"""",3/22/2021 19:59,104.185.203.70,Mozilla/5.0 (Windows NT 10.0; Win64; x64; rv:86.0) Gecko/20100101 Firefox/86.0,,Firefox,86,Windows,10
6,1,null,"""",html-keyboard-response,237,476487,0.0-237.0,"<div style=""font-size:60px;"">+</div>","""",256,ITI,Test,null,1000,"""","""","""","""","""","""","""","""",1,"""",3/22/2021 19:59,104.185.203.70,Mozilla/5.0 (Windows NT 10.0; Win64; x64; rv:86.0) Gecko/20100101 Firefox/86.0,,Firefox,86,Windows,10
6,1,null,"""",image-keyboard-response,238,476747,0.0-238.0,jspsych/scrambledDisgustFaces/scrambledBM16DIS.JPG,"""",256,forwardMask,Test,null,250,"""",d,"""","""","""","""","""","""",1,"""",3/22/2021 19:59,104.185.203.70,Mozilla/5.0 (Windows NT 10.0; Win64; x64; rv:86.0) Gecko/20100101 Firefox/86.0,,Firefox,86,Windows,10
6,1,null,"""",image-keyboard-response,239,476787,0.0-239.0,jspsych/disgustFaces/BM17DIS.JPG,"""",256,Cue,Test,null,16,"""","""","""","""","""","""","""","""",1,"""",3/22/2021 19:59,104.185.203.70,Mozilla/5.0 (Windows NT 10.0; Win64; x64; rv:86.0) Gecko/20100101 Firefox/86.0,,Firefox,86,Windows,10
6,1,null,"""",image-keyboard-response,240,476906,0.0-240.0,jspsych/neutralFaces/BM07NES.JPG,"""",256,backwardMask,Test,null,100,"""","""","""","""","""","""","""","""",1,"""",3/22/2021 19:59,104.185.203.70,Mozilla/5.0 (Windows NT 10.0; Win64; x64; rv:86.0) Gecko/20100101 Firefox/86.0,,Firefox,86,Windows,10
6,1,null,"""",html-keyboard-response,241,477917,0.0-241.0,"<div style=""font-size:60px;"">+</div>","""",256,fixationBtwnNeutralMaskAndPrompt,Test,null,1000,"""","""","""","""","""","""","""","""",1,"""",3/22/2021 19:59,104.185.203.70,Mozilla/5.0 (Windows NT 10.0; Win64; x64; rv:86.0) Gecko/20100101 Firefox/86.0,,Firefox,86,Windows,10
6,1,1565,"""",html-button-response,242,479484,0.0-242.0,"<img src='jspsych/CFDfaces/CFD-WF-207-014-N.jpg' height=""250px"">,</br><b>Samantha</b>",0,256,IntactOrRearranged,Test,"""","""","""","""",CFD-WF-018-017-N.jpg,Whitney,0,0,"""","""",1,"""",3/22/2021 19:59,104.185.203.70,Mozilla/5.0 (Windows NT 10.0; Win64; x64; rv:86.0) Gecko/20100101 Firefox/86.0,,Firefox,86,Windows,10
6,1,2628,"""",html-slider-response,243,482120,0.0-243.0,"<img src='jspsych/CFDfaces/CFD-WF-207-014-N.jpg' height=""250px"">,</br><b>Samantha</b>","""",256,ConfidenceQuery,Test,"""","""","""","""",CFD-WF-018-017-N.jpg,Whitney,0,"""",0,100,1,"""",3/22/2021 19:59,104.185.203.70,Mozilla/5.0 (Windows NT 10.0; Win64; x64; rv:86.0) Gecko/20100101 Firefox/86.0,,Firefox,86,Windows,10
6,1,null,"""",html-keyboard-response,244,483127,0.0-244.0,"<div style=""font-size:60px;"">+</div>","""",256,ITI,Test,null,1000,"""","""","""","""","""","""","""","""",1,"""",3/22/2021 19:59,104.185.203.70,Mozilla/5.0 (Windows NT 10.0; Win64; x64; rv:86.0) Gecko/20100101 Firefox/86.0,,Firefox,86,Windows,10
6,1,null,"""",image-keyboard-response,245,483406,0.0-245.0,jspsych/scrambledNeutralFaces/scrambledBM06NES.JPG,"""",256,forwardMask,Test,null,250,"""",n,"""","""","""","""","""","""",1,"""",3/22/2021 19:59,104.185.203.70,Mozilla/5.0 (Windows NT 10.0; Win64; x64; rv:86.0) Gecko/20100101 Firefox/86.0,,Firefox,86,Windows,10
6,1,null,"""",image-keyboard-response,246,483427,0.0-246.0,jspsych/neutralFaces/BM06NES.JPG,"""",256,Cue,Test,null,16,"""","""","""","""","""","""","""","""",1,"""",3/22/2021 19:59,104.185.203.70,Mozilla/5.0 (Windows NT 10.0; Win64; x64; rv:86.0) Gecko/20100101 Firefox/86.0,,Firefox,86,Windows,10
6,1,null,"""",image-keyboard-response,247,483548,0.0-247.0,jspsych/neutralFaces/BM04NES.JPG,"""",256,backwardMask,Test,null,100,"""","""","""","""","""","""","""","""",1,"""",3/22/2021 19:59,104.185.203.70,Mozilla/5.0 (Windows NT 10.0; Win64; x64; rv:86.0) Gecko/20100101 Firefox/86.0,,Firefox,86,Windows,10
6,1,null,"""",html-keyboard-response,248,484556,0.0-248.0,"<div style=""font-size:60px;"">+</div>","""",256,fixationBtwnNeutralMaskAndPrompt,Test,null,1000,"""","""","""","""","""","""","""","""",1,"""",3/22/2021 19:59,104.185.203.70,Mozilla/5.0 (Windows NT 10.0; Win64; x64; rv:86.0) Gecko/20100101 Firefox/86.0,,Firefox,86,Windows,10
6,1,1944,"""",html-button-response,249,486502,0.0-249.0,"<img src='jspsych/CFDfaces/CFD-WF-003-003-N.jpg' height=""250px"">,</br><b>Stephanie</b>",0,256,IntactOrRearranged,Test,"""","""","""","""",CFD-WF-023-003-N.jpg,Lindsey,0,0,"""","""",1,"""",3/22/2021 19:59,104.185.203.70,Mozilla/5.0 (Windows NT 10.0; Win64; x64; rv:86.0) Gecko/20100101 Firefox/86.0,,Firefox,86,Windows,10
6,1,3781,"""",html-slider-response,250,490290,0.0-250.0,"<img src='jspsych/CFDfaces/CFD-WF-003-003-N.jpg' height=""250px"">,</br><b>Stephanie</b>","""",256,ConfidenceQuery,Test,"""","""","""","""",CFD-WF-023-003-N.jpg,Lindsey,0,"""",0,87,1,"""",3/22/2021 19:59,104.185.203.70,Mozilla/5.0 (Windows NT 10.0; Win64; x64; rv:86.0) Gecko/20100101 Firefox/86.0,,Firefox,86,Windows,10
6,1,null,"""",html-keyboard-response,251,491297,0.0-251.0,"<div style=""font-size:60px;"">+</div>","""",256,ITI,Test,null,1000,"""","""","""","""","""","""","""","""",1,"""",3/22/2021 19:59,104.185.203.70,Mozilla/5.0 (Windows NT 10.0; Win64; x64; rv:86.0) Gecko/20100101 Firefox/86.0,,Firefox,86,Windows,10
6,1,null,"""",image-keyboard-response,252,491577,0.0-252.0,jspsych/scrambledDisgustFaces/scrambledAF06DIS.JPG,"""",256,forwardMask,Test,null,250,"""",d,"""","""","""","""","""","""",1,"""",3/22/2021 19:59,104.185.203.70,Mozilla/5.0 (Windows NT 10.0; Win64; x64; rv:86.0) Gecko/20100101 Firefox/86.0,,Firefox,86,Windows,10
6,1,null,"""",image-keyboard-response,253,491616,0.0-253.0,jspsych/disgustFaces/AF06DIS.JPG,"""",256,Cue,Test,null,16,"""","""","""","""","""","""","""","""",1,"""",3/22/2021 19:59,104.185.203.70,Mozilla/5.0 (Windows NT 10.0; Win64; x64; rv:86.0) Gecko/20100101 Firefox/86.0,,Firefox,86,Windows,10
6,1,null,"""",image-keyboard-response,254,491737,0.0-254.0,jspsych/neutralFaces/BF17NES.JPG,"""",256,backwardMask,Test,null,100,"""","""","""","""","""","""","""","""",1,"""",3/22/2021 19:59,104.185.203.70,Mozilla/5.0 (Windows NT 10.0; Win64; x64; rv:86.0) Gecko/20100101 Firefox/86.0,,Firefox,86,Windows,10
6,1,null,"""",html-keyboard-response,255,492756,0.0-255.0,"<div style=""font-size:60px;"">+</div>","""",256,fixationBtwnNeutralMaskAndPrompt,Test,null,1000,"""","""","""","""","""","""","""","""",1,"""",3/22/2021 19:59,104.185.203.70,Mozilla/5.0 (Windows NT 10.0; Win64; x64; rv:86.0) Gecko/20100101 Firefox/86.0,,Firefox,86,Windows,10
6,1,3943,"""",html-button-response,256,496701,0.0-256.0,"<img src='jspsych/CFDfaces/CFD-AF-240-206-N.jpg' height=""250px"">,</br><b>Kimberly</b>",1,256,IntactOrRearranged,Test,"""","""","""","""",CFD-BM-210-148-N.jpg,Vincent,1,1,"""","""",1,"""",3/22/2021 19:59,104.185.203.70,Mozilla/5.0 (Windows NT 10.0; Win64; x64; rv:86.0) Gecko/20100101 Firefox/86.0,,Firefox,86,Windows,10
6,1,4555,"""",html-slider-response,257,501266,0.0-257.0,"<img src='jspsych/CFDfaces/CFD-AF-240-206-N.jpg' height=""250px"">,</br><b>Kimberly</b>","""",256,ConfidenceQuery,Test,"""","""","""","""",CFD-BM-210-148-N.jpg,Vincent,1,"""",0,79,1,"""",3/22/2021 19:59,104.185.203.70,Mozilla/5.0 (Windows NT 10.0; Win64; x64; rv:86.0) Gecko/20100101 Firefox/86.0,,Firefox,86,Windows,10
6,1,null,"""",html-keyboard-response,258,502278,0.0-258.0,"<div style=""font-size:60px;"">+</div>","""",256,ITI,Test,null,1000,"""","""","""","""","""","""","""","""",1,"""",3/22/2021 19:59,104.185.203.70,Mozilla/5.0 (Windows NT 10.0; Win64; x64; rv:86.0) Gecko/20100101 Firefox/86.0,,Firefox,86,Windows,10
6,1,null,"""",image-keyboard-response,259,502556,0.0-259.0,jspsych/scrambledNeutralFaces/scrambledAF27NES.JPG,"""",256,forwardMask,Test,null,250,"""",n,"""","""","""","""","""","""",1,"""",3/22/2021 19:59,104.185.203.70,Mozilla/5.0 (Windows NT 10.0; Win64; x64; rv:86.0) Gecko/20100101 Firefox/86.0,,Firefox,86,Windows,10
6,1,null,"""",image-keyboard-response,260,502597,0.0-260.0,jspsych/neutralFaces/AF27NES.JPG,"""",256,Cue,Test,null,16,"""","""","""","""","""","""","""","""",1,"""",3/22/2021 19:59,104.185.203.70,Mozilla/5.0 (Windows NT 10.0; Win64; x64; rv:86.0) Gecko/20100101 Firefox/86.0,,Firefox,86,Windows,10
6,1,null,"""",image-keyboard-response,261,502712,0.0-261.0,jspsych/neutralFaces/AF29NES.JPG,"""",256,backwardMask,Test,null,100,"""","""","""","""","""","""","""","""",1,"""",3/22/2021 19:59,104.185.203.70,Mozilla/5.0 (Windows NT 10.0; Win64; x64; rv:86.0) Gecko/20100101 Firefox/86.0,,Firefox,86,Windows,10
6,1,null,"""",html-keyboard-response,262,503726,0.0-262.0,"<div style=""font-size:60px;"">+</div>","""",256,fixationBtwnNeutralMaskAndPrompt,Test,null,1000,"""","""","""","""","""","""","""","""",1,"""",3/22/2021 19:59,104.185.203.70,Mozilla/5.0 (Windows NT 10.0; Win64; x64; rv:86.0) Gecko/20100101 Firefox/86.0,,Firefox,86,Windows,10
6,1,1537,"""",html-button-response,263,505265,0.0-263.0,"<img src='jspsych/CFDfaces/CFD-LM-220-329-N.jpg' height=""250px"">,</br><b>Robert</b>",0,256,IntactOrRearranged,Test,"""","""","""","""",CFD-AF-222-134-N.jpg,Melissa,0,0,"""","""",1,"""",3/22/2021 19:59,104.185.203.70,Mozilla/5.0 (Windows NT 10.0; Win64; x64; rv:86.0) Gecko/20100101 Firefox/86.0,,Firefox,86,Windows,10
6,1,3920,"""",html-slider-response,264,509193,0.0-264.0,"<img src='jspsych/CFDfaces/CFD-LM-220-329-N.jpg' height=""250px"">,</br><b>Robert</b>","""",256,ConfidenceQuery,Test,"""","""","""","""",CFD-AF-222-134-N.jpg,Melissa,0,"""",0,91,1,"""",3/22/2021 19:59,104.185.203.70,Mozilla/5.0 (Windows NT 10.0; Win64; x64; rv:86.0) Gecko/20100101 Firefox/86.0,,Firefox,86,Windows,10
6,1,null,"""",html-keyboard-response,265,510197,0.0-265.0,"<div style=""font-size:60px;"">+</div>","""",256,ITI,Test,null,1000,"""","""","""","""","""","""","""","""",1,"""",3/22/2021 19:59,104.185.203.70,Mozilla/5.0 (Windows NT 10.0; Win64; x64; rv:86.0) Gecko/20100101 Firefox/86.0,,Firefox,86,Windows,10
6,1,null,"""",image-keyboard-response,266,510477,0.0-266.0,jspsych/scrambledNeutralFaces/scrambledBF02NES.JPG,"""",256,forwardMask,Test,null,250,"""",n,"""","""","""","""","""","""",1,"""",3/22/2021 19:59,104.185.203.70,Mozilla/5.0 (Windows NT 10.0; Win64; x64; rv:86.0) Gecko/20100101 Firefox/86.0,,Firefox,86,Windows,10
6,1,null,"""",image-keyboard-response,267,510517,0.0-267.0,jspsych/neutralFaces/BF02NES.JPG,"""",256,Cue,Test,null,16,"""","""","""","""","""","""","""","""",1,"""",3/22/2021 19:59,104.185.203.70,Mozilla/5.0 (Windows NT 10.0; Win64; x64; rv:86.0) Gecko/20100101 Firefox/86.0,,Firefox,86,Windows,10
6,1,null,"""",image-keyboard-response,268,510636,0.0-268.0,jspsych/neutralFaces/BF20NES.JPG,"""",256,backwardMask,Test,null,100,"""","""","""","""","""","""","""","""",1,"""",3/22/2021 19:59,104.185.203.70,Mozilla/5.0 (Windows NT 10.0; Win64; x64; rv:86.0) Gecko/20100101 Firefox/86.0,,Firefox,86,Windows,10
6,1,null,"""",html-keyboard-response,269,511656,0.0-269.0,"<div style=""font-size:60px;"">+</div>","""",256,fixationBtwnNeutralMaskAndPrompt,Test,null,1000,"""","""","""","""","""","""","""","""",1,"""",3/22/2021 19:59,104.185.203.70,Mozilla/5.0 (Windows NT 10.0; Win64; x64; rv:86.0) Gecko/20100101 Firefox/86.0,,Firefox,86,Windows,10
6,1,1438,"""",html-button-response,270,513095,0.0-270.0,"<img src='jspsych/CFDfaces/CFD-WM-015-002-N.jpg' height=""250px"">,</br><b>Jason</b>",0,256,IntactOrRearranged,Test,"""","""","""","""",CFD-BM-026-002-N.jpg,Jesse,0,0,"""","""",1,"""",3/22/2021 19:59,104.185.203.70,Mozilla/5.0 (Windows NT 10.0; Win64; x64; rv:86.0) Gecko/20100101 Firefox/86.0,,Firefox,86,Windows,10
6,1,4141,"""",html-slider-response,271,517248,0.0-271.0,"<img src='jspsych/CFDfaces/CFD-WM-015-002-N.jpg' height=""250px"">,</br><b>Jason</b>","""",256,ConfidenceQuery,Test,"""","""","""","""",CFD-BM-026-002-N.jpg,Jesse,0,"""",0,90,1,"""",3/22/2021 19:59,104.185.203.70,Mozilla/5.0 (Windows NT 10.0; Win64; x64; rv:86.0) Gecko/20100101 Firefox/86.0,,Firefox,86,Windows,10
6,1,null,"""",html-keyboard-response,272,518265,0.0-272.0,"<div style=""font-size:60px;"">+</div>","""",256,ITI,Test,null,1000,"""","""","""","""","""","""","""","""",1,"""",3/22/2021 19:59,104.185.203.70,Mozilla/5.0 (Windows NT 10.0; Win64; x64; rv:86.0) Gecko/20100101 Firefox/86.0,,Firefox,86,Windows,10
6,1,null,"""",image-keyboard-response,273,518534,0.0-273.0,jspsych/scrambledDisgustFaces/scrambledBM10DIS.JPG,"""",256,forwardMask,Test,null,250,"""",d,"""","""","""","""","""","""",1,"""",3/22/2021 19:59,104.185.203.70,Mozilla/5.0 (Windows NT 10.0; Win64; x64; rv:86.0) Gecko/20100101 Firefox/86.0,,Firefox,86,Windows,10
6,1,null,"""",image-keyboard-response,274,518565,0.0-274.0,jspsych/disgustFaces/BM11DIS.JPG,"""",256,Cue,Test,null,16,"""","""","""","""","""","""","""","""",1,"""",3/22/2021 19:59,104.185.203.70,Mozilla/5.0 (Windows NT 10.0; Win64; x64; rv:86.0) Gecko/20100101 Firefox/86.0,,Firefox,86,Windows,10
6,1,null,"""",image-keyboard-response,275,518687,0.0-275.0,jspsych/neutralFaces/AM23NES.JPG,"""",256,backwardMask,Test,null,100,"""","""","""","""","""","""","""","""",1,"""",3/22/2021 19:59,104.185.203.70,Mozilla/5.0 (Windows NT 10.0; Win64; x64; rv:86.0) Gecko/20100101 Firefox/86.0,,Firefox,86,Windows,10
6,1,null,"""",html-keyboard-response,276,519706,0.0-276.0,"<div style=""font-size:60px;"">+</div>","""",256,fixationBtwnNeutralMaskAndPrompt,Test,null,1000,"""","""","""","""","""","""","""","""",1,"""",3/22/2021 19:59,104.185.203.70,Mozilla/5.0 (Windows NT 10.0; Win64; x64; rv:86.0) Gecko/20100101 Firefox/86.0,,Firefox,86,Windows,10
6,1,3321,"""",html-button-response,277,523028,0.0-277.0,"<img src='jspsych/CFDfaces/CFD-AM-212-050-N.jpg' height=""250px"">,</br><b>James</b>",1,256,IntactOrRearranged,Test,"""","""","""","""",CFD-WF-029-002-N.jpg,Jordan,1,1,"""","""",1,"""",3/22/2021 19:59,104.185.203.70,Mozilla/5.0 (Windows NT 10.0; Win64; x64; rv:86.0) Gecko/20100101 Firefox/86.0,,Firefox,86,Windows,10
6,1,4444,"""",html-slider-response,278,527483,0.0-278.0,"<img src='jspsych/CFDfaces/CFD-AM-212-050-N.jpg' height=""250px"">,</br><b>James</b>","""",256,ConfidenceQuery,Test,"""","""","""","""",CFD-WF-029-002-N.jpg,Jordan,1,"""",0,50,1,"""",3/22/2021 19:59,104.185.203.70,Mozilla/5.0 (Windows NT 10.0; Win64; x64; rv:86.0) Gecko/20100101 Firefox/86.0,,Firefox,86,Windows,10
6,1,null,"""",html-keyboard-response,279,528486,0.0-279.0,"<div style=""font-size:60px;"">+</div>","""",256,ITI,Test,null,1000,"""","""","""","""","""","""","""","""",1,"""",3/22/2021 19:59,104.185.203.70,Mozilla/5.0 (Windows NT 10.0; Win64; x64; rv:86.0) Gecko/20100101 Firefox/86.0,,Firefox,86,Windows,10
6,1,null,"""",image-keyboard-response,280,528766,0.0-280.0,jspsych/scrambledDisgustFaces/scrambledAF16DIS.JPG,"""",256,forwardMask,Test,null,250,"""",d,"""","""","""","""","""","""",1,"""",3/22/2021 19:59,104.185.203.70,Mozilla/5.0 (Windows NT 10.0; Win64; x64; rv:86.0) Gecko/20100101 Firefox/86.0,,Firefox,86,Windows,10
6,1,null,"""",image-keyboard-response,281,528806,0.0-281.0,jspsych/disgustFaces/AF16DIS.JPG,"""",256,Cue,Test,null,16,"""","""","""","""","""","""","""","""",1,"""",3/22/2021 19:59,104.185.203.70,Mozilla/5.0 (Windows NT 10.0; Win64; x64; rv:86.0) Gecko/20100101 Firefox/86.0,,Firefox,86,Windows,10
6,1,null,"""",image-keyboard-response,282,528916,0.0-282.0,jspsych/neutralFaces/BF32NES.JPG,"""",256,backwardMask,Test,null,100,"""","""","""","""","""","""","""","""",1,"""",3/22/2021 19:59,104.185.203.70,Mozilla/5.0 (Windows NT 10.0; Win64; x64; rv:86.0) Gecko/20100101 Firefox/86.0,,Firefox,86,Windows,10
6,1,null,"""",html-keyboard-response,283,529921,0.0-283.0,"<div style=""font-size:60px;"">+</div>","""",256,fixationBtwnNeutralMaskAndPrompt,Test,null,1000,"""","""","""","""","""","""","""","""",1,"""",3/22/2021 19:59,104.185.203.70,Mozilla/5.0 (Windows NT 10.0; Win64; x64; rv:86.0) Gecko/20100101 Firefox/86.0,,Firefox,86,Windows,10
6,1,1853,"""",html-button-response,284,531776,0.0-284.0,"<img src='jspsych/CFDfaces/CFD-WF-217-085-N.jpg' height=""250px"">,</br><b>Kayla</b>",0,256,IntactOrRearranged,Test,"""","""","""","""",CFD-LF-215-157-N.jpg,Jenna,0,0,"""","""",1,"""",3/22/2021 19:59,104.185.203.70,Mozilla/5.0 (Windows NT 10.0; Win64; x64; rv:86.0) Gecko/20100101 Firefox/86.0,,Firefox,86,Windows,10
6,1,3657,"""",html-slider-response,285,535442,0.0-285.0,"<img src='jspsych/CFDfaces/CFD-WF-217-085-N.jpg' height=""250px"">,</br><b>Kayla</b>","""",256,ConfidenceQuery,Test,"""","""","""","""",CFD-LF-215-157-N.jpg,Jenna,0,"""",0,49,1,"""",3/22/2021 19:59,104.185.203.70,Mozilla/5.0 (Windows NT 10.0; Win64; x64; rv:86.0) Gecko/20100101 Firefox/86.0,,Firefox,86,Windows,10
6,1,null,"""",html-keyboard-response,286,536449,0.0-286.0,"<div style=""font-size:60px;"">+</div>","""",256,ITI,Test,null,1000,"""","""","""","""","""","""","""","""",1,"""",3/22/2021 19:59,104.185.203.70,Mozilla/5.0 (Windows NT 10.0; Win64; x64; rv:86.0) Gecko/20100101 Firefox/86.0,,Firefox,86,Windows,10
6,1,null,"""",image-keyboard-response,287,536716,0.0-287.0,jspsych/scrambledDisgustFaces/scrambledAF03DIS.JPG,"""",256,forwardMask,Test,null,250,"""",d,"""","""","""","""","""","""",1,"""",3/22/2021 19:59,104.185.203.70,Mozilla/5.0 (Windows NT 10.0; Win64; x64; rv:86.0) Gecko/20100101 Firefox/86.0,,Firefox,86,Windows,10
6,1,null,"""",image-keyboard-response,288,536754,0.0-288.0,jspsych/disgustFaces/AF03DIS.JPG,"""",256,Cue,Test,null,16,"""","""","""","""","""","""","""","""",1,"""",3/22/2021 19:59,104.185.203.70,Mozilla/5.0 (Windows NT 10.0; Win64; x64; rv:86.0) Gecko/20100101 Firefox/86.0,,Firefox,86,Windows,10
6,1,null,"""",image-keyboard-response,289,536876,0.0-289.0,jspsych/neutralFaces/AF08NES.JPG,"""",256,backwardMask,Test,null,100,"""","""","""","""","""","""","""","""",1,"""",3/22/2021 19:59,104.185.203.70,Mozilla/5.0 (Windows NT 10.0; Win64; x64; rv:86.0) Gecko/20100101 Firefox/86.0,,Firefox,86,Windows,10
6,1,null,"""",html-keyboard-response,290,537897,0.0-290.0,"<div style=""font-size:60px;"">+</div>","""",256,fixationBtwnNeutralMaskAndPrompt,Test,null,1000,"""","""","""","""","""","""","""","""",1,"""",3/22/2021 19:59,104.185.203.70,Mozilla/5.0 (Windows NT 10.0; Win64; x64; rv:86.0) Gecko/20100101 Firefox/86.0,,Firefox,86,Windows,10
6,1,2217,"""",html-button-response,291,540116,0.0-291.0,"<img src='jspsych/CFDfaces/CFD-WM-034-030-N.jpg' height=""250px"">,</br><b>Joshua</b>",1,256,IntactOrRearranged,Test,"""","""","""","""",CFD-BM-018-001-N.jpg,Steven,1,1,"""","""",1,"""",3/22/2021 19:59,104.185.203.70,Mozilla/5.0 (Windows NT 10.0; Win64; x64; rv:86.0) Gecko/20100101 Firefox/86.0,,Firefox,86,Windows,10
6,1,3035,"""",html-slider-response,292,543160,0.0-292.0,"<img src='jspsych/CFDfaces/CFD-WM-034-030-N.jpg' height=""250px"">,</br><b>Joshua</b>","""",256,ConfidenceQuery,Test,"""","""","""","""",CFD-BM-018-001-N.jpg,Steven,1,"""",0,100,1,"""",3/22/2021 19:59,104.185.203.70,Mozilla/5.0 (Windows NT 10.0; Win64; x64; rv:86.0) Gecko/20100101 Firefox/86.0,,Firefox,86,Windows,10
6,1,null,"""",html-keyboard-response,293,544176,0.0-293.0,"<div style=""font-size:60px;"">+</div>","""",256,ITI,Test,null,1000,"""","""","""","""","""","""","""","""",1,"""",3/22/2021 19:59,104.185.203.70,Mozilla/5.0 (Windows NT 10.0; Win64; x64; rv:86.0) Gecko/20100101 Firefox/86.0,,Firefox,86,Windows,10
6,1,null,"""",image-keyboard-response,294,544458,0.0-294.0,jspsych/scrambledNeutralFaces/scrambledAF18NES.JPG,"""",256,forwardMask,Test,null,250,"""",n,"""","""","""","""","""","""",1,"""",3/22/2021 19:59,104.185.203.70,Mozilla/5.0 (Windows NT 10.0; Win64; x64; rv:86.0) Gecko/20100101 Firefox/86.0,,Firefox,86,Windows,10
6,1,null,"""",image-keyboard-response,295,544486,0.0-295.0,jspsych/neutralFaces/AF18NES.JPG,"""",256,Cue,Test,null,16,"""","""","""","""","""","""","""","""",1,"""",3/22/2021 19:59,104.185.203.70,Mozilla/5.0 (Windows NT 10.0; Win64; x64; rv:86.0) Gecko/20100101 Firefox/86.0,,Firefox,86,Windows,10
6,1,null,"""",image-keyboard-response,296,544595,0.0-296.0,jspsych/neutralFaces/BF08NES.JPG,"""",256,backwardMask,Test,null,100,"""","""","""","""","""","""","""","""",1,"""",3/22/2021 19:59,104.185.203.70,Mozilla/5.0 (Windows NT 10.0; Win64; x64; rv:86.0) Gecko/20100101 Firefox/86.0,,Firefox,86,Windows,10
