run_id,condition,rt,responses,trial_type,trial_index,time_elapsed,internal_node_id,stimulus,button_pressed,iTrial,Phase,ExperimentPhase,key_press,StimulusDurationSetting,CharacterResponse,correctResponse,Face,Name,rearranged,slider_start,response,didSubjectEnterRearranged,Block,question_order,recorded_at,ip,user_agent,device,browser,browser_version,platform,platform_version
4,1,16614,"{""Q0"":""A1VX3M8QUU8BQU""}",survey-text,0,16618,0.0-0.0,"""","""","""","""","""","""","""","""","""","""","""","""","""","""","""","""","""",3/22/2021 19:55,94.34.154.188,Mozilla/5.0 (Windows NT 10.0; Win64; x64; rv:86.0) Gecko/20100101 Firefox/86.0,,Firefox,86,Windows,10
4,1,23828,"""",image-button-response,1,40536,0.0-1.0,directionsMemoryAssociation1.JPG,0,1,IntroDirections1,break,"""","""","""","""","""","""","""","""","""","""","""","""",3/22/2021 19:55,94.34.154.188,Mozilla/5.0 (Windows NT 10.0; Win64; x64; rv:86.0) Gecko/20100101 Firefox/86.0,,Firefox,86,Windows,10
4,1,52152,"""",image-button-response,2,92704,0.0-2.0,directionsMemoryAssociation2.JPG,0,1,IntroDirections2,break,"""","""","""","""","""","""","""","""","""","""","""","""",3/22/2021 19:55,94.34.154.188,Mozilla/5.0 (Windows NT 10.0; Win64; x64; rv:86.0) Gecko/20100101 Firefox/86.0,,Firefox,86,Windows,10
4,1,null,"""",html-keyboard-response,3,97715,0.0-3.0,"<img src='jspsych/CFDfaces/CFD-AM-230-150-N.jpg' height=""250px"">,</br><b>Carlos</b>","""",1,IntactFace,Practice,null,5000,"""","""","""","""","""","""","""","""","""","""",3/22/2021 19:55,94.34.154.188,Mozilla/5.0 (Windows NT 10.0; Win64; x64; rv:86.0) Gecko/20100101 Firefox/86.0,,Firefox,86,Windows,10
4,1,null,"""",html-keyboard-response,4,98228,0.0-4.0,"<div style=""font-size:60px;"">+</div>","""",1,ITI,Practice,null,1000,"""","""","""","""","""","""","""","""","""","""",3/22/2021 19:55,94.34.154.188,Mozilla/5.0 (Windows NT 10.0; Win64; x64; rv:86.0) Gecko/20100101 Firefox/86.0,,Firefox,86,Windows,10
4,1,4229,"""",html-keyboard-response,5,103239,0.0-5.0,"<img src='jspsych/CFDfaces/CFD-BM-027-001-N.jpg' height=""250px"">,</br><b>Patrick</b>","""",2,IntactFace,Practice,70,5000,f,"""","""","""","""","""","""","""","""","""",3/22/2021 19:55,94.34.154.188,Mozilla/5.0 (Windows NT 10.0; Win64; x64; rv:86.0) Gecko/20100101 Firefox/86.0,,Firefox,86,Windows,10
4,1,null,"""",html-keyboard-response,6,103753,0.0-6.0,"<div style=""font-size:60px;"">+</div>","""",2,ITI,Practice,null,1000,"""","""","""","""","""","""","""","""","""","""",3/22/2021 19:55,94.34.154.188,Mozilla/5.0 (Windows NT 10.0; Win64; x64; rv:86.0) Gecko/20100101 Firefox/86.0,,Firefox,86,Windows,10
4,1,3422,"""",html-keyboard-response,7,108769,0.0-7.0,"<img src='jspsych/CFDfaces/CFD-WF-200-099-N.jpg' height=""250px"">,</br><b>Katelyn</b>","""",3,IntactFace,Practice,70,5000,f,"""","""","""","""","""","""","""","""","""",3/22/2021 19:55,94.34.154.188,Mozilla/5.0 (Windows NT 10.0; Win64; x64; rv:86.0) Gecko/20100101 Firefox/86.0,,Firefox,86,Windows,10
4,1,null,"""",html-keyboard-response,8,109278,0.0-8.0,"<div style=""font-size:60px;"">+</div>","""",3,ITI,Practice,null,1000,"""","""","""","""","""","""","""","""","""","""",3/22/2021 19:55,94.34.154.188,Mozilla/5.0 (Windows NT 10.0; Win64; x64; rv:86.0) Gecko/20100101 Firefox/86.0,,Firefox,86,Windows,10
4,1,2775,"""",html-keyboard-response,9,114292,0.0-9.0,"<img src='jspsych/CFDfaces/CFD-AM-238-269-N.jpg' height=""250px"">,</br><b>Marcus</b>","""",4,IntactFace,Practice,78,5000,n,"""","""","""","""","""","""","""","""","""",3/22/2021 19:55,94.34.154.188,Mozilla/5.0 (Windows NT 10.0; Win64; x64; rv:86.0) Gecko/20100101 Firefox/86.0,,Firefox,86,Windows,10
4,1,null,"""",html-keyboard-response,10,114801,0.0-10.0,"<div style=""font-size:60px;"">+</div>","""",4,ITI,Practice,null,1000,"""","""","""","""","""","""","""","""","""","""",3/22/2021 19:55,94.34.154.188,Mozilla/5.0 (Windows NT 10.0; Win64; x64; rv:86.0) Gecko/20100101 Firefox/86.0,,Firefox,86,Windows,10
4,1,1854,"""",html-keyboard-response,11,119806,0.0-11.0,"<img src='jspsych/CFDfaces/CFD-LF-203-066-N.jpg' height=""250px"">,</br><b>Shannon</b>","""",5,IntactFace,Practice,78,5000,n,"""","""","""","""","""","""","""","""","""",3/22/2021 19:55,94.34.154.188,Mozilla/5.0 (Windows NT 10.0; Win64; x64; rv:86.0) Gecko/20100101 Firefox/86.0,,Firefox,86,Windows,10
4,1,null,"""",html-keyboard-response,12,120319,0.0-12.0,"<div style=""font-size:60px;"">+</div>","""",5,ITI,Practice,null,1000,"""","""","""","""","""","""","""","""","""","""",3/22/2021 19:55,94.34.154.188,Mozilla/5.0 (Windows NT 10.0; Win64; x64; rv:86.0) Gecko/20100101 Firefox/86.0,,Firefox,86,Windows,10
4,1,null,"""",html-keyboard-response,13,125333,0.0-13.0,"<img src='jspsych/CFDfaces/CFD-AF-220-107-N.jpg' height=""250px"">,</br><b>Cassandra</b>","""",6,IntactFace,Practice,null,5000,"""","""","""","""","""","""","""","""","""","""",3/22/2021 19:55,94.34.154.188,Mozilla/5.0 (Windows NT 10.0; Win64; x64; rv:86.0) Gecko/20100101 Firefox/86.0,,Firefox,86,Windows,10
4,1,null,"""",html-keyboard-response,14,125855,0.0-14.0,"<div style=""font-size:60px;"">+</div>","""",6,ITI,Practice,null,1000,"""","""","""","""","""","""","""","""","""","""",3/22/2021 19:55,94.34.154.188,Mozilla/5.0 (Windows NT 10.0; Win64; x64; rv:86.0) Gecko/20100101 Firefox/86.0,,Firefox,86,Windows,10
4,1,3402,"""",html-keyboard-response,15,130880,0.0-15.0,"<img src='jspsych/CFDfaces/CFD-BF-218-207-N.jpg' height=""250px"">,</br><b>Tara</b>","""",7,IntactFace,Practice,78,5000,n,"""","""","""","""","""","""","""","""","""",3/22/2021 19:55,94.34.154.188,Mozilla/5.0 (Windows NT 10.0; Win64; x64; rv:86.0) Gecko/20100101 Firefox/86.0,,Firefox,86,Windows,10
4,1,null,"""",html-keyboard-response,16,131392,0.0-16.0,"<div style=""font-size:60px;"">+</div>","""",7,ITI,Practice,null,1000,"""","""","""","""","""","""","""","""","""","""",3/22/2021 19:55,94.34.154.188,Mozilla/5.0 (Windows NT 10.0; Win64; x64; rv:86.0) Gecko/20100101 Firefox/86.0,,Firefox,86,Windows,10
4,1,3470,"""",html-keyboard-response,17,136406,0.0-17.0,"<img src='jspsych/CFDfaces/CFD-LM-219-295-N.jpg' height=""250px"">,</br><b>Samuel</b>","""",8,IntactFace,Practice,78,5000,n,"""","""","""","""","""","""","""","""","""",3/22/2021 19:55,94.34.154.188,Mozilla/5.0 (Windows NT 10.0; Win64; x64; rv:86.0) Gecko/20100101 Firefox/86.0,,Firefox,86,Windows,10
4,1,null,"""",html-keyboard-response,18,136915,0.0-18.0,"<div style=""font-size:60px;"">+</div>","""",8,ITI,Practice,null,1000,"""","""","""","""","""","""","""","""","""","""",3/22/2021 19:55,94.34.154.188,Mozilla/5.0 (Windows NT 10.0; Win64; x64; rv:86.0) Gecko/20100101 Firefox/86.0,,Firefox,86,Windows,10
4,1,54042,"""",image-button-response,19,190969,0.0-19.0,directionsForTest.JPG,0,1,directionsForTest,break,"""","""","""","""","""","""","""","""","""","""","""","""",3/22/2021 19:55,94.34.154.188,Mozilla/5.0 (Windows NT 10.0; Win64; x64; rv:86.0) Gecko/20100101 Firefox/86.0,,Firefox,86,Windows,10
4,1,8000,"""",image-button-response,20,198979,0.0-20.0,directionsForTest2.JPG,0,1,directionsForTest2,break,"""","""","""","""","""","""","""","""","""","""","""","""",3/22/2021 19:55,94.34.154.188,Mozilla/5.0 (Windows NT 10.0; Win64; x64; rv:86.0) Gecko/20100101 Firefox/86.0,,Firefox,86,Windows,10
4,1,null,"""",html-keyboard-response,21,200002,0.0-21.0,"<div style=""font-size:60px;"">+</div>","""",1,ITI,Practice,null,1000,"""","""","""","""","""","""","""","""","""","""",3/22/2021 19:55,94.34.154.188,Mozilla/5.0 (Windows NT 10.0; Win64; x64; rv:86.0) Gecko/20100101 Firefox/86.0,,Firefox,86,Windows,10
4,1,null,"""",image-keyboard-response,22,200258,0.0-22.0,jspsych/scrambledDisgustFaces/scrambledAM10DIS.JPG,"""",1,forwardMask,Practice,null,250,"""",d,"""","""","""","""","""","""","""","""",3/22/2021 19:55,94.34.154.188,Mozilla/5.0 (Windows NT 10.0; Win64; x64; rv:86.0) Gecko/20100101 Firefox/86.0,,Firefox,86,Windows,10
4,1,null,"""",image-keyboard-response,23,200300,0.0-23.0,jspsych/disgustFaces/AM10DIS.JPG,"""",1,Cue,Practice,null,16,"""","""","""","""","""","""","""","""","""","""",3/22/2021 19:55,94.34.154.188,Mozilla/5.0 (Windows NT 10.0; Win64; x64; rv:86.0) Gecko/20100101 Firefox/86.0,,Firefox,86,Windows,10
4,1,null,"""",image-keyboard-response,24,200428,0.0-24.0,jspsych/neutralFaces/BM12NES.JPG,"""",1,backwardMask,Practice,null,100,"""","""","""","""","""","""","""","""","""","""",3/22/2021 19:55,94.34.154.188,Mozilla/5.0 (Windows NT 10.0; Win64; x64; rv:86.0) Gecko/20100101 Firefox/86.0,,Firefox,86,Windows,10
4,1,null,"""",html-keyboard-response,25,201441,0.0-25.0,"<div style=""font-size:60px;"">+</div>","""",1,fixationBtwnNeutralMaskAndPrompt,Practice,null,1000,"""","""","""","""","""","""","""","""","""","""",3/22/2021 19:55,94.34.154.188,Mozilla/5.0 (Windows NT 10.0; Win64; x64; rv:86.0) Gecko/20100101 Firefox/86.0,,Firefox,86,Windows,10
4,1,null,"""",html-button-response,26,206458,0.0-26.0,"<img src='jspsych/CFDfaces/CFD-LM-219-295-N.jpg'height=""250px""></br><b>Samuel</b>",null,1,IntactOrRearranged,Practice,"""","""","""","""",CFD-LM-219-295-N.jpg,Samuel,0,"""","""","""","""","""",3/22/2021 19:55,94.34.154.188,Mozilla/5.0 (Windows NT 10.0; Win64; x64; rv:86.0) Gecko/20100101 Firefox/86.0,,Firefox,86,Windows,10
4,1,null,"""",html-slider-response,27,211479,0.0-27.0,"<img src='jspsych/CFDfaces/CFD-LM-219-295-N.jpg'height=""250px""></br><b>Samuel</b>","""",1,ConfidenceQuery,Practice,"""","""","""","""",CFD-WF-220-101-N.jpg,Lauren,0,0,null,"""","""","""",3/22/2021 19:55,94.34.154.188,Mozilla/5.0 (Windows NT 10.0; Win64; x64; rv:86.0) Gecko/20100101 Firefox/86.0,,Firefox,86,Windows,10
4,1,4009,"""",html-button-response,28,215491,0.0-28.0,<p>Please click either button: REARRANGED or INTACT before the 5-second time limit.</p>,0,1,feedback,Practice,"""","""","""","""","""","""","""","""","""","""","""","""",3/22/2021 19:55,94.34.154.188,Mozilla/5.0 (Windows NT 10.0; Win64; x64; rv:86.0) Gecko/20100101 Firefox/86.0,,Firefox,86,Windows,10
4,1,null,"""",html-keyboard-response,29,216504,0.0-29.0,"<div style=""font-size:60px;"">+</div>","""",2,ITI,Practice,null,1000,"""","""","""","""","""","""","""","""","""","""",3/22/2021 19:55,94.34.154.188,Mozilla/5.0 (Windows NT 10.0; Win64; x64; rv:86.0) Gecko/20100101 Firefox/86.0,,Firefox,86,Windows,10
4,1,null,"""",image-keyboard-response,30,216760,0.0-30.0,jspsych/scrambledNeutralFaces/scrambledBM03NES.JPG,"""",2,forwardMask,Practice,null,250,"""",n,"""","""","""","""","""","""","""","""",3/22/2021 19:55,94.34.154.188,Mozilla/5.0 (Windows NT 10.0; Win64; x64; rv:86.0) Gecko/20100101 Firefox/86.0,,Firefox,86,Windows,10
4,1,null,"""",image-keyboard-response,31,216780,0.0-31.0,jspsych/neutralFaces/BM03NES.JPG,"""",2,Cue,Practice,null,16,"""","""","""","""","""","""","""","""","""","""",3/22/2021 19:55,94.34.154.188,Mozilla/5.0 (Windows NT 10.0; Win64; x64; rv:86.0) Gecko/20100101 Firefox/86.0,,Firefox,86,Windows,10
4,1,null,"""",image-keyboard-response,32,216896,0.0-32.0,jspsych/neutralFaces/AM25NES.JPG,"""",2,backwardMask,Practice,null,100,"""","""","""","""","""","""","""","""","""","""",3/22/2021 19:55,94.34.154.188,Mozilla/5.0 (Windows NT 10.0; Win64; x64; rv:86.0) Gecko/20100101 Firefox/86.0,,Firefox,86,Windows,10
4,1,null,"""",html-keyboard-response,33,217909,0.0-33.0,"<div style=""font-size:60px;"">+</div>","""",2,fixationBtwnNeutralMaskAndPrompt,Practice,null,1000,"""","""","""","""","""","""","""","""","""","""",3/22/2021 19:55,94.34.154.188,Mozilla/5.0 (Windows NT 10.0; Win64; x64; rv:86.0) Gecko/20100101 Firefox/86.0,,Firefox,86,Windows,10
4,1,2578,"""",html-button-response,34,220488,0.0-34.0,"<img src='jspsych/CFDfaces/CFD-AM-238-269-N.jpg'height=""250px""></br><b>Carlos</b>",1,2,IntactOrRearranged,Practice,"""","""","""","""",CFD-AM-238-269-N.jpg,Carlos,1,"""","""",1,"""","""",3/22/2021 19:55,94.34.154.188,Mozilla/5.0 (Windows NT 10.0; Win64; x64; rv:86.0) Gecko/20100101 Firefox/86.0,,Firefox,86,Windows,10
4,1,null,"""",html-slider-response,35,225507,0.0-35.0,"<img src='jspsych/CFDfaces/CFD-AM-238-269-N.jpg'height=""250px""></br><b>Carlos</b>","""",2,ConfidenceQuery,Practice,"""","""","""","""",CFD-WF-220-101-N.jpg,Lauren,1,0,null,"""","""","""",3/22/2021 19:55,94.34.154.188,Mozilla/5.0 (Windows NT 10.0; Win64; x64; rv:86.0) Gecko/20100101 Firefox/86.0,,Firefox,86,Windows,10
4,1,3786,"""",html-button-response,36,229295,0.0-36.0,You are Correct. You Called A Rearranged Pair Rearranged,0,2,feedback,Practice,"""","""","""","""","""","""","""","""","""","""","""","""",3/22/2021 19:55,94.34.154.188,Mozilla/5.0 (Windows NT 10.0; Win64; x64; rv:86.0) Gecko/20100101 Firefox/86.0,,Firefox,86,Windows,10
4,1,null,"""",html-keyboard-response,37,230316,0.0-37.0,"<div style=""font-size:60px;"">+</div>","""",3,ITI,Practice,null,1000,"""","""","""","""","""","""","""","""","""","""",3/22/2021 19:55,94.34.154.188,Mozilla/5.0 (Windows NT 10.0; Win64; x64; rv:86.0) Gecko/20100101 Firefox/86.0,,Firefox,86,Windows,10
4,1,null,"""",image-keyboard-response,38,230573,0.0-38.0,jspsych/scrambledNeutralFaces/scrambledAF14NES.JPG,"""",3,forwardMask,Practice,null,250,"""",n,"""","""","""","""","""","""","""","""",3/22/2021 19:55,94.34.154.188,Mozilla/5.0 (Windows NT 10.0; Win64; x64; rv:86.0) Gecko/20100101 Firefox/86.0,,Firefox,86,Windows,10
4,1,null,"""",image-keyboard-response,39,230606,0.0-39.0,jspsych/neutralFaces/AF14NES.JPG,"""",3,Cue,Practice,null,16,"""","""","""","""","""","""","""","""","""","""",3/22/2021 19:55,94.34.154.188,Mozilla/5.0 (Windows NT 10.0; Win64; x64; rv:86.0) Gecko/20100101 Firefox/86.0,,Firefox,86,Windows,10
4,1,null,"""",image-keyboard-response,40,230715,0.0-40.0,jspsych/neutralFaces/BF24NES.JPG,"""",3,backwardMask,Practice,null,100,"""","""","""","""","""","""","""","""","""","""",3/22/2021 19:55,94.34.154.188,Mozilla/5.0 (Windows NT 10.0; Win64; x64; rv:86.0) Gecko/20100101 Firefox/86.0,,Firefox,86,Windows,10
4,1,null,"""",html-keyboard-response,41,231736,0.0-41.0,"<div style=""font-size:60px;"">+</div>","""",3,fixationBtwnNeutralMaskAndPrompt,Practice,null,1000,"""","""","""","""","""","""","""","""","""","""",3/22/2021 19:55,94.34.154.188,Mozilla/5.0 (Windows NT 10.0; Win64; x64; rv:86.0) Gecko/20100101 Firefox/86.0,,Firefox,86,Windows,10
4,1,2012,"""",html-button-response,42,233751,0.0-42.0,"<img src='jspsych/CFDfaces/CFD-AF-220-107-N.jpg'height=""250px""></br><b>Katelyn</b>",1,3,IntactOrRearranged,Practice,"""","""","""","""",CFD-AF-220-107-N.jpg,Katelyn,1,"""","""",1,"""","""",3/22/2021 19:55,94.34.154.188,Mozilla/5.0 (Windows NT 10.0; Win64; x64; rv:86.0) Gecko/20100101 Firefox/86.0,,Firefox,86,Windows,10
4,1,2908,"""",html-slider-response,43,236665,0.0-43.0,"<img src='jspsych/CFDfaces/CFD-AF-220-107-N.jpg'height=""250px""></br><b>Katelyn</b>","""",3,ConfidenceQuery,Practice,"""","""","""","""",CFD-WF-220-101-N.jpg,Lauren,1,0,79,"""","""","""",3/22/2021 19:55,94.34.154.188,Mozilla/5.0 (Windows NT 10.0; Win64; x64; rv:86.0) Gecko/20100101 Firefox/86.0,,Firefox,86,Windows,10
4,1,1734,"""",html-button-response,44,238400,0.0-44.0,You are Correct. You Called A Rearranged Pair Rearranged,0,3,feedback,Practice,"""","""","""","""","""","""","""","""","""","""","""","""",3/22/2021 19:55,94.34.154.188,Mozilla/5.0 (Windows NT 10.0; Win64; x64; rv:86.0) Gecko/20100101 Firefox/86.0,,Firefox,86,Windows,10
4,1,null,"""",html-keyboard-response,45,239415,0.0-45.0,"<div style=""font-size:60px;"">+</div>","""",4,ITI,Practice,null,1000,"""","""","""","""","""","""","""","""","""","""",3/22/2021 19:55,94.34.154.188,Mozilla/5.0 (Windows NT 10.0; Win64; x64; rv:86.0) Gecko/20100101 Firefox/86.0,,Firefox,86,Windows,10
4,1,null,"""",image-keyboard-response,46,239680,0.0-46.0,jspsych/scrambledNeutralFaces/scrambledAF29NES.JPG,"""",4,forwardMask,Practice,null,250,"""",n,"""","""","""","""","""","""","""","""",3/22/2021 19:55,94.34.154.188,Mozilla/5.0 (Windows NT 10.0; Win64; x64; rv:86.0) Gecko/20100101 Firefox/86.0,,Firefox,86,Windows,10
4,1,null,"""",image-keyboard-response,47,239712,0.0-47.0,jspsych/neutralFaces/AF29NES.JPG,"""",4,Cue,Practice,null,16,"""","""","""","""","""","""","""","""","""","""",3/22/2021 19:55,94.34.154.188,Mozilla/5.0 (Windows NT 10.0; Win64; x64; rv:86.0) Gecko/20100101 Firefox/86.0,,Firefox,86,Windows,10
4,1,null,"""",image-keyboard-response,48,239823,0.0-48.0,jspsych/neutralFaces/AF16NES.JPG,"""",4,backwardMask,Practice,null,100,"""","""","""","""","""","""","""","""","""","""",3/22/2021 19:55,94.34.154.188,Mozilla/5.0 (Windows NT 10.0; Win64; x64; rv:86.0) Gecko/20100101 Firefox/86.0,,Firefox,86,Windows,10
4,1,null,"""",html-keyboard-response,49,240833,0.0-49.0,"<div style=""font-size:60px;"">+</div>","""",4,fixationBtwnNeutralMaskAndPrompt,Practice,null,1000,"""","""","""","""","""","""","""","""","""","""",3/22/2021 19:55,94.34.154.188,Mozilla/5.0 (Windows NT 10.0; Win64; x64; rv:86.0) Gecko/20100101 Firefox/86.0,,Firefox,86,Windows,10
4,1,2200,"""",html-button-response,50,243035,0.0-50.0,"<img src='jspsych/CFDfaces/CFD-LF-203-066-N.jpg'height=""250px""></br><b>Shannon</b>",0,4,IntactOrRearranged,Practice,"""","""","""","""",CFD-LF-203-066-N.jpg,Shannon,0,"""","""",0,"""","""",3/22/2021 19:55,94.34.154.188,Mozilla/5.0 (Windows NT 10.0; Win64; x64; rv:86.0) Gecko/20100101 Firefox/86.0,,Firefox,86,Windows,10
4,1,3454,"""",html-slider-response,51,246495,0.0-51.0,"<img src='jspsych/CFDfaces/CFD-LF-203-066-N.jpg'height=""250px""></br><b>Shannon</b>","""",4,ConfidenceQuery,Practice,"""","""","""","""",CFD-WF-220-101-N.jpg,Lauren,0,0,50,"""","""","""",3/22/2021 19:55,94.34.154.188,Mozilla/5.0 (Windows NT 10.0; Win64; x64; rv:86.0) Gecko/20100101 Firefox/86.0,,Firefox,86,Windows,10
4,1,1877,"""",html-button-response,52,248374,0.0-52.0,You are Correct. You called an Intact Pair Intact,0,4,feedback,Practice,"""","""","""","""","""","""","""","""","""","""","""","""",3/22/2021 19:55,94.34.154.188,Mozilla/5.0 (Windows NT 10.0; Win64; x64; rv:86.0) Gecko/20100101 Firefox/86.0,,Firefox,86,Windows,10
4,1,null,"""",html-keyboard-response,53,249380,0.0-53.0,"<div style=""font-size:60px;"">+</div>","""",5,ITI,Practice,null,1000,"""","""","""","""","""","""","""","""","""","""",3/22/2021 19:55,94.34.154.188,Mozilla/5.0 (Windows NT 10.0; Win64; x64; rv:86.0) Gecko/20100101 Firefox/86.0,,Firefox,86,Windows,10
4,1,null,"""",image-keyboard-response,54,249643,0.0-54.0,jspsych/scrambledDisgustFaces/scrambledBM21DIS.JPG,"""",5,forwardMask,Practice,null,250,"""",d,"""","""","""","""","""","""","""","""",3/22/2021 19:55,94.34.154.188,Mozilla/5.0 (Windows NT 10.0; Win64; x64; rv:86.0) Gecko/20100101 Firefox/86.0,,Firefox,86,Windows,10
4,1,null,"""",image-keyboard-response,55,249666,0.0-55.0,jspsych/disgustFaces/BM22DIS.JPG,"""",5,Cue,Practice,null,16,"""","""","""","""","""","""","""","""","""","""",3/22/2021 19:55,94.34.154.188,Mozilla/5.0 (Windows NT 10.0; Win64; x64; rv:86.0) Gecko/20100101 Firefox/86.0,,Firefox,86,Windows,10
4,1,null,"""",image-keyboard-response,56,249773,0.0-56.0,jspsych/neutralFaces/BM04NES.JPG,"""",5,backwardMask,Practice,null,100,"""","""","""","""","""","""","""","""","""","""",3/22/2021 19:55,94.34.154.188,Mozilla/5.0 (Windows NT 10.0; Win64; x64; rv:86.0) Gecko/20100101 Firefox/86.0,,Firefox,86,Windows,10
4,1,null,"""",html-keyboard-response,57,250776,0.0-57.0,"<div style=""font-size:60px;"">+</div>","""",5,fixationBtwnNeutralMaskAndPrompt,Practice,null,1000,"""","""","""","""","""","""","""","""","""","""",3/22/2021 19:55,94.34.154.188,Mozilla/5.0 (Windows NT 10.0; Win64; x64; rv:86.0) Gecko/20100101 Firefox/86.0,,Firefox,86,Windows,10
4,1,1576,"""",html-button-response,58,252354,0.0-58.0,"<img src='jspsych/CFDfaces/CFD-BM-027-001-N.jpg'height=""250px""></br><b>Patrick</b>",0,5,IntactOrRearranged,Practice,"""","""","""","""",CFD-BM-027-001-N.jpg,Patrick,0,"""","""",0,"""","""",3/22/2021 19:55,94.34.154.188,Mozilla/5.0 (Windows NT 10.0; Win64; x64; rv:86.0) Gecko/20100101 Firefox/86.0,,Firefox,86,Windows,10
4,1,2478,"""",html-slider-response,59,254838,0.0-59.0,"<img src='jspsych/CFDfaces/CFD-BM-027-001-N.jpg'height=""250px""></br><b>Patrick</b>","""",5,ConfidenceQuery,Practice,"""","""","""","""",CFD-WF-220-101-N.jpg,Lauren,0,0,100,"""","""","""",3/22/2021 19:55,94.34.154.188,Mozilla/5.0 (Windows NT 10.0; Win64; x64; rv:86.0) Gecko/20100101 Firefox/86.0,,Firefox,86,Windows,10
4,1,2087,"""",html-button-response,60,256927,0.0-60.0,You are Correct. You called an Intact Pair Intact,0,5,feedback,Practice,"""","""","""","""","""","""","""","""","""","""","""","""",3/22/2021 19:55,94.34.154.188,Mozilla/5.0 (Windows NT 10.0; Win64; x64; rv:86.0) Gecko/20100101 Firefox/86.0,,Firefox,86,Windows,10
4,1,null,"""",html-keyboard-response,61,257947,0.0-61.0,"<div style=""font-size:60px;"">+</div>","""",6,ITI,Practice,null,1000,"""","""","""","""","""","""","""","""","""","""",3/22/2021 19:55,94.34.154.188,Mozilla/5.0 (Windows NT 10.0; Win64; x64; rv:86.0) Gecko/20100101 Firefox/86.0,,Firefox,86,Windows,10
4,1,null,"""",image-keyboard-response,62,258212,0.0-62.0,jspsych/scrambledDisgustFaces/scrambledAM10DIS.JPG,"""",6,forwardMask,Practice,null,250,"""",d,"""","""","""","""","""","""","""","""",3/22/2021 19:55,94.34.154.188,Mozilla/5.0 (Windows NT 10.0; Win64; x64; rv:86.0) Gecko/20100101 Firefox/86.0,,Firefox,86,Windows,10
4,1,null,"""",image-keyboard-response,63,258234,0.0-63.0,jspsych/disgustFaces/AM10DIS.JPG,"""",6,Cue,Practice,null,16,"""","""","""","""","""","""","""","""","""","""",3/22/2021 19:55,94.34.154.188,Mozilla/5.0 (Windows NT 10.0; Win64; x64; rv:86.0) Gecko/20100101 Firefox/86.0,,Firefox,86,Windows,10
4,1,null,"""",image-keyboard-response,64,258339,0.0-64.0,jspsych/neutralFaces/AM17NES.JPG,"""",6,backwardMask,Practice,null,100,"""","""","""","""","""","""","""","""","""","""",3/22/2021 19:55,94.34.154.188,Mozilla/5.0 (Windows NT 10.0; Win64; x64; rv:86.0) Gecko/20100101 Firefox/86.0,,Firefox,86,Windows,10
4,1,null,"""",html-keyboard-response,65,259340,0.0-65.0,"<div style=""font-size:60px;"">+</div>","""",6,fixationBtwnNeutralMaskAndPrompt,Practice,null,1000,"""","""","""","""","""","""","""","""","""","""",3/22/2021 19:55,94.34.154.188,Mozilla/5.0 (Windows NT 10.0; Win64; x64; rv:86.0) Gecko/20100101 Firefox/86.0,,Firefox,86,Windows,10
4,1,1324,"""",html-button-response,66,260667,0.0-66.0,"<img src='jspsych/CFDfaces/CFD-BF-218-207-N.jpg'height=""250px""></br><b>Tara</b>",0,6,IntactOrRearranged,Practice,"""","""","""","""",CFD-BF-218-207-N.jpg,Tara,0,"""","""",0,"""","""",3/22/2021 19:55,94.34.154.188,Mozilla/5.0 (Windows NT 10.0; Win64; x64; rv:86.0) Gecko/20100101 Firefox/86.0,,Firefox,86,Windows,10
4,1,2253,"""",html-slider-response,67,262931,0.0-67.0,"<img src='jspsych/CFDfaces/CFD-BF-218-207-N.jpg'height=""250px""></br><b>Tara</b>","""",6,ConfidenceQuery,Practice,"""","""","""","""",CFD-WF-220-101-N.jpg,Lauren,0,0,80,"""","""","""",3/22/2021 19:55,94.34.154.188,Mozilla/5.0 (Windows NT 10.0; Win64; x64; rv:86.0) Gecko/20100101 Firefox/86.0,,Firefox,86,Windows,10
4,1,2054,"""",html-button-response,68,264988,0.0-68.0,You are Correct. You called an Intact Pair Intact,0,6,feedback,Practice,"""","""","""","""","""","""","""","""","""","""","""","""",3/22/2021 19:55,94.34.154.188,Mozilla/5.0 (Windows NT 10.0; Win64; x64; rv:86.0) Gecko/20100101 Firefox/86.0,,Firefox,86,Windows,10
4,1,null,"""",html-keyboard-response,69,266009,0.0-69.0,"<div style=""font-size:60px;"">+</div>","""",7,ITI,Practice,null,1000,"""","""","""","""","""","""","""","""","""","""",3/22/2021 19:55,94.34.154.188,Mozilla/5.0 (Windows NT 10.0; Win64; x64; rv:86.0) Gecko/20100101 Firefox/86.0,,Firefox,86,Windows,10
4,1,null,"""",image-keyboard-response,70,266275,0.0-70.0,jspsych/scrambledNeutralFaces/scrambledAF03NES.JPG,"""",7,forwardMask,Practice,null,250,"""",n,"""","""","""","""","""","""","""","""",3/22/2021 19:55,94.34.154.188,Mozilla/5.0 (Windows NT 10.0; Win64; x64; rv:86.0) Gecko/20100101 Firefox/86.0,,Firefox,86,Windows,10
4,1,null,"""",image-keyboard-response,71,266297,0.0-71.0,jspsych/neutralFaces/AF03NES.JPG,"""",7,Cue,Practice,null,16,"""","""","""","""","""","""","""","""","""","""",3/22/2021 19:55,94.34.154.188,Mozilla/5.0 (Windows NT 10.0; Win64; x64; rv:86.0) Gecko/20100101 Firefox/86.0,,Firefox,86,Windows,10
4,1,null,"""",image-keyboard-response,72,266403,0.0-72.0,jspsych/neutralFaces/BF14NES.JPG,"""",7,backwardMask,Practice,null,100,"""","""","""","""","""","""","""","""","""","""",3/22/2021 19:55,94.34.154.188,Mozilla/5.0 (Windows NT 10.0; Win64; x64; rv:86.0) Gecko/20100101 Firefox/86.0,,Firefox,86,Windows,10
4,1,null,"""",html-keyboard-response,73,267407,0.0-73.0,"<div style=""font-size:60px;"">+</div>","""",7,fixationBtwnNeutralMaskAndPrompt,Practice,null,1000,"""","""","""","""","""","""","""","""","""","""",3/22/2021 19:55,94.34.154.188,Mozilla/5.0 (Windows NT 10.0; Win64; x64; rv:86.0) Gecko/20100101 Firefox/86.0,,Firefox,86,Windows,10
4,1,1949,"""",html-button-response,74,269358,0.0-74.0,"<img src='jspsych/CFDfaces/CFD-WF-200-099-N.jpg'height=""250px""></br><b>Cassandra</b>",1,7,IntactOrRearranged,Practice,"""","""","""","""",CFD-WF-200-099-N.jpg,Cassandra,1,"""","""",1,"""","""",3/22/2021 19:55,94.34.154.188,Mozilla/5.0 (Windows NT 10.0; Win64; x64; rv:86.0) Gecko/20100101 Firefox/86.0,,Firefox,86,Windows,10
4,1,2189,"""",html-slider-response,75,271552,0.0-75.0,"<img src='jspsych/CFDfaces/CFD-WF-200-099-N.jpg'height=""250px""></br><b>Cassandra</b>","""",7,ConfidenceQuery,Practice,"""","""","""","""",CFD-WF-220-101-N.jpg,Lauren,1,0,60,"""","""","""",3/22/2021 19:55,94.34.154.188,Mozilla/5.0 (Windows NT 10.0; Win64; x64; rv:86.0) Gecko/20100101 Firefox/86.0,,Firefox,86,Windows,10
4,1,1401,"""",html-button-response,76,272956,0.0-76.0,You are Correct. You Called A Rearranged Pair Rearranged,0,7,feedback,Practice,"""","""","""","""","""","""","""","""","""","""","""","""",3/22/2021 19:55,94.34.154.188,Mozilla/5.0 (Windows NT 10.0; Win64; x64; rv:86.0) Gecko/20100101 Firefox/86.0,,Firefox,86,Windows,10
4,1,null,"""",html-keyboard-response,77,273977,0.0-77.0,"<div style=""font-size:60px;"">+</div>","""",8,ITI,Practice,null,1000,"""","""","""","""","""","""","""","""","""","""",3/22/2021 19:55,94.34.154.188,Mozilla/5.0 (Windows NT 10.0; Win64; x64; rv:86.0) Gecko/20100101 Firefox/86.0,,Firefox,86,Windows,10
4,1,null,"""",image-keyboard-response,78,274233,0.0-78.0,jspsych/scrambledDisgustFaces/scrambledAM15DIS.JPG,"""",8,forwardMask,Practice,null,250,"""",d,"""","""","""","""","""","""","""","""",3/22/2021 19:55,94.34.154.188,Mozilla/5.0 (Windows NT 10.0; Win64; x64; rv:86.0) Gecko/20100101 Firefox/86.0,,Firefox,86,Windows,10
4,1,null,"""",image-keyboard-response,79,274254,0.0-79.0,jspsych/disgustFaces/AM15DIS.JPG,"""",8,Cue,Practice,null,16,"""","""","""","""","""","""","""","""","""","""",3/22/2021 19:55,94.34.154.188,Mozilla/5.0 (Windows NT 10.0; Win64; x64; rv:86.0) Gecko/20100101 Firefox/86.0,,Firefox,86,Windows,10
4,1,null,"""",image-keyboard-response,80,274361,0.0-80.0,jspsych/neutralFaces/AM25NES.JPG,"""",8,backwardMask,Practice,null,100,"""","""","""","""","""","""","""","""","""","""",3/22/2021 19:55,94.34.154.188,Mozilla/5.0 (Windows NT 10.0; Win64; x64; rv:86.0) Gecko/20100101 Firefox/86.0,,Firefox,86,Windows,10
4,1,null,"""",html-keyboard-response,81,275365,0.0-81.0,"<div style=""font-size:60px;"">+</div>","""",8,fixationBtwnNeutralMaskAndPrompt,Practice,null,1000,"""","""","""","""","""","""","""","""","""","""",3/22/2021 19:55,94.34.154.188,Mozilla/5.0 (Windows NT 10.0; Win64; x64; rv:86.0) Gecko/20100101 Firefox/86.0,,Firefox,86,Windows,10
4,1,3104,"""",html-button-response,82,278470,0.0-82.0,"<img src='jspsych/CFDfaces/CFD-AM-230-150-N.jpg'height=""250px""></br><b>Marcus</b>",0,8,IntactOrRearranged,Practice,"""","""","""","""",CFD-AM-230-150-N.jpg,Marcus,1,"""","""",0,"""","""",3/22/2021 19:55,94.34.154.188,Mozilla/5.0 (Windows NT 10.0; Win64; x64; rv:86.0) Gecko/20100101 Firefox/86.0,,Firefox,86,Windows,10
4,1,2676,"""",html-slider-response,83,281156,0.0-83.0,"<img src='jspsych/CFDfaces/CFD-AM-230-150-N.jpg'height=""250px""></br><b>Marcus</b>","""",8,ConfidenceQuery,Practice,"""","""","""","""",CFD-WF-220-101-N.jpg,Lauren,1,0,100,"""","""","""",3/22/2021 19:55,94.34.154.188,Mozilla/5.0 (Windows NT 10.0; Win64; x64; rv:86.0) Gecko/20100101 Firefox/86.0,,Firefox,86,Windows,10
4,1,2358,"""",html-button-response,84,283515,0.0-84.0,You are Incorrect. You called a Rearranged Pair Intact,0,8,feedback,Practice,"""","""","""","""","""","""","""","""","""","""","""","""",3/22/2021 19:55,94.34.154.188,Mozilla/5.0 (Windows NT 10.0; Win64; x64; rv:86.0) Gecko/20100101 Firefox/86.0,,Firefox,86,Windows,10
4,1,23246,"""",image-button-response,85,306779,0.0-85.0,directionsMemoryAssociation3.JPG,0,128,DirectionsBeforeActualTEst,Break,"""","""","""","""","""","""","""","""","""","""","""","""",3/22/2021 19:55,94.34.154.188,Mozilla/5.0 (Windows NT 10.0; Win64; x64; rv:86.0) Gecko/20100101 Firefox/86.0,,Firefox,86,Windows,10
4,1,9106,"""",image-button-response,86,315895,0.0-86.0,directionsForTest2.JPG,0,1,directionsForTest2,break,"""","""","""","""","""","""","""","""","""","""","""","""",3/22/2021 19:55,94.34.154.188,Mozilla/5.0 (Windows NT 10.0; Win64; x64; rv:86.0) Gecko/20100101 Firefox/86.0,,Firefox,86,Windows,10
4,1,18091,"""",html-button-response,87,333993,0.0-87.0,"<p>You will be asked to memorize and then recall four sets of face-name pairs. </p> <p> Each set will have 32 pairs. </p> <p>After the fourth set, there will be a brief follow-up experiment (<40 min alltogether)</p>",0,"""","""","""","""","""","""","""","""","""","""","""","""","""","""","""",3/22/2021 19:55,94.34.154.188,Mozilla/5.0 (Windows NT 10.0; Win64; x64; rv:86.0) Gecko/20100101 Firefox/86.0,,Firefox,86,Windows,10
4,1,2079,"""",html-keyboard-response,88,339014,0.0-88.0,"<img src='jspsych/CFDfaces/CFD-WF-006-002-N.jpg' height=""250px""></br><b>Christina</b>","""",256,IntactFace,Memorization,70,5000,f,"""",CFD-WM-034-030-N.jpg,Travis,0,"""","""","""",1,"""",3/22/2021 19:55,94.34.154.188,Mozilla/5.0 (Windows NT 10.0; Win64; x64; rv:86.0) Gecko/20100101 Firefox/86.0,,Firefox,86,Windows,10
4,1,null,"""",html-keyboard-response,89,339526,0.0-89.0,"<div style=""font-size:60px;"">+</div>","""",256,fixation,Memorization,null,500,"""","""","""","""","""","""","""","""",1,"""",3/22/2021 19:55,94.34.154.188,Mozilla/5.0 (Windows NT 10.0; Win64; x64; rv:86.0) Gecko/20100101 Firefox/86.0,,Firefox,86,Windows,10
4,1,1861,"""",html-keyboard-response,90,344542,0.0-90.0,"<img src='jspsych/CFDfaces/CFD-WF-003-003-N.jpg' height=""250px""></br><b>Andrea</b>","""",256,IntactFace,Memorization,70,5000,f,"""",CFD-LM-223-175-N.jpg,Mark,0,"""","""","""",1,"""",3/22/2021 19:55,94.34.154.188,Mozilla/5.0 (Windows NT 10.0; Win64; x64; rv:86.0) Gecko/20100101 Firefox/86.0,,Firefox,86,Windows,10
4,1,null,"""",html-keyboard-response,91,345065,0.0-91.0,"<div style=""font-size:60px;"">+</div>","""",256,fixation,Memorization,null,500,"""","""","""","""","""","""","""","""",1,"""",3/22/2021 19:55,94.34.154.188,Mozilla/5.0 (Windows NT 10.0; Win64; x64; rv:86.0) Gecko/20100101 Firefox/86.0,,Firefox,86,Windows,10
4,1,1758,"""",html-keyboard-response,92,350076,0.0-92.0,"<img src='jspsych/CFDfaces/CFD-AF-228-173-N.jpg' height=""250px""></br><b>Kimberly</b>","""",256,IntactFace,Memorization,70,5000,f,"""",CFD-LF-236-221-N.jpg,Jasmine,0,"""","""","""",1,"""",3/22/2021 19:55,94.34.154.188,Mozilla/5.0 (Windows NT 10.0; Win64; x64; rv:86.0) Gecko/20100101 Firefox/86.0,,Firefox,86,Windows,10
4,1,null,"""",html-keyboard-response,93,350599,0.0-93.0,"<div style=""font-size:60px;"">+</div>","""",256,fixation,Memorization,null,500,"""","""","""","""","""","""","""","""",1,"""",3/22/2021 19:55,94.34.154.188,Mozilla/5.0 (Windows NT 10.0; Win64; x64; rv:86.0) Gecko/20100101 Firefox/86.0,,Firefox,86,Windows,10
4,1,1463,"""",html-keyboard-response,94,355613,0.0-94.0,"<img src='jspsych/CFDfaces/CFD-LF-213-079-N.jpg' height=""250px""></br><b>Samantha</b>","""",256,IntactFace,Memorization,78,5000,n,"""",CFD-BF-212-315-N.jpg,Amy,0,"""","""","""",1,"""",3/22/2021 19:55,94.34.154.188,Mozilla/5.0 (Windows NT 10.0; Win64; x64; rv:86.0) Gecko/20100101 Firefox/86.0,,Firefox,86,Windows,10
4,1,null,"""",html-keyboard-response,95,356124,0.0-95.0,"<div style=""font-size:60px;"">+</div>","""",256,fixation,Memorization,null,500,"""","""","""","""","""","""","""","""",1,"""",3/22/2021 19:55,94.34.154.188,Mozilla/5.0 (Windows NT 10.0; Win64; x64; rv:86.0) Gecko/20100101 Firefox/86.0,,Firefox,86,Windows,10
4,1,2826,"""",html-keyboard-response,96,361139,0.0-96.0,"<img src='jspsych/CFDfaces/CFD-LF-218-072-N.jpg' height=""250px""></br><b>Julie</b>","""",256,IntactFace,Memorization,78,5000,n,"""",CFD-WF-023-003-N.jpg,Taylor,0,"""","""","""",1,"""",3/22/2021 19:55,94.34.154.188,Mozilla/5.0 (Windows NT 10.0; Win64; x64; rv:86.0) Gecko/20100101 Firefox/86.0,,Firefox,86,Windows,10
4,1,null,"""",html-keyboard-response,97,361660,0.0-97.0,"<div style=""font-size:60px;"">+</div>","""",256,fixation,Memorization,null,500,"""","""","""","""","""","""","""","""",1,"""",3/22/2021 19:55,94.34.154.188,Mozilla/5.0 (Windows NT 10.0; Win64; x64; rv:86.0) Gecko/20100101 Firefox/86.0,,Firefox,86,Windows,10
4,1,1395,"""",html-keyboard-response,98,366678,0.0-98.0,"<img src='jspsych/CFDfaces/CFD-BM-043-071-N.jpg' height=""250px""></br><b>James</b>","""",256,IntactFace,Memorization,70,5000,f,"""",CFD-WF-220-101-N.jpg,Sara,0,"""","""","""",1,"""",3/22/2021 19:55,94.34.154.188,Mozilla/5.0 (Windows NT 10.0; Win64; x64; rv:86.0) Gecko/20100101 Firefox/86.0,,Firefox,86,Windows,10
4,1,null,"""",html-keyboard-response,99,367196,0.0-99.0,"<div style=""font-size:60px;"">+</div>","""",256,fixation,Memorization,null,500,"""","""","""","""","""","""","""","""",1,"""",3/22/2021 19:55,94.34.154.188,Mozilla/5.0 (Windows NT 10.0; Win64; x64; rv:86.0) Gecko/20100101 Firefox/86.0,,Firefox,86,Windows,10
4,1,2393,"""",html-keyboard-response,100,372213,0.0-100.0,"<img src='jspsych/CFDfaces/CFD-AF-215-70-N.jpg' height=""250px""></br><b>Kayla</b>","""",256,IntactFace,Memorization,78,5000,n,"""",CFD-LM-221-216-N.jpg,Jeremy,0,"""","""","""",1,"""",3/22/2021 19:55,94.34.154.188,Mozilla/5.0 (Windows NT 10.0; Win64; x64; rv:86.0) Gecko/20100101 Firefox/86.0,,Firefox,86,Windows,10
4,1,null,"""",html-keyboard-response,101,372723,0.0-101.0,"<div style=""font-size:60px;"">+</div>","""",256,fixation,Memorization,null,500,"""","""","""","""","""","""","""","""",1,"""",3/22/2021 19:55,94.34.154.188,Mozilla/5.0 (Windows NT 10.0; Win64; x64; rv:86.0) Gecko/20100101 Firefox/86.0,,Firefox,86,Windows,10
4,1,1471,"""",html-keyboard-response,102,377737,0.0-102.0,"<img src='jspsych/CFDfaces/CFD-BF-005-001-N.jpg' height=""250px""></br><b>Stephanie</b>","""",256,IntactFace,Memorization,70,5000,f,"""",CFD-LM-252-076-N.jpg,Vincent,0,"""","""","""",1,"""",3/22/2021 19:55,94.34.154.188,Mozilla/5.0 (Windows NT 10.0; Win64; x64; rv:86.0) Gecko/20100101 Firefox/86.0,,Firefox,86,Windows,10
4,1,null,"""",html-keyboard-response,103,378249,0.0-103.0,"<div style=""font-size:60px;"">+</div>","""",256,fixation,Memorization,null,500,"""","""","""","""","""","""","""","""",1,"""",3/22/2021 19:55,94.34.154.188,Mozilla/5.0 (Windows NT 10.0; Win64; x64; rv:86.0) Gecko/20100101 Firefox/86.0,,Firefox,86,Windows,10
4,1,1332,"""",html-keyboard-response,104,383274,0.0-104.0,"<img src='jspsych/CFDfaces/CFD-LF-204-133-N.jpg' height=""250px""></br><b>Ashley</b>","""",256,IntactFace,Memorization,78,5000,n,"""",CFD-BM-011-016-N.jpg,Jacob,0,"""","""","""",1,"""",3/22/2021 19:55,94.34.154.188,Mozilla/5.0 (Windows NT 10.0; Win64; x64; rv:86.0) Gecko/20100101 Firefox/86.0,,Firefox,86,Windows,10
4,1,null,"""",html-keyboard-response,105,383792,0.0-105.0,"<div style=""font-size:60px;"">+</div>","""",256,fixation,Memorization,null,500,"""","""","""","""","""","""","""","""",1,"""",3/22/2021 19:55,94.34.154.188,Mozilla/5.0 (Windows NT 10.0; Win64; x64; rv:86.0) Gecko/20100101 Firefox/86.0,,Firefox,86,Windows,10
4,1,2086,"""",html-keyboard-response,106,388799,0.0-106.0,"<img src='jspsych/CFDfaces/CFD-BM-018-001-N.jpg' height=""250px""></br><b>Peter</b>","""",256,IntactFace,Memorization,78,5000,n,"""",CFD-BF-009-002-N.jpg,Melissa,0,"""","""","""",1,"""",3/22/2021 19:55,94.34.154.188,Mozilla/5.0 (Windows NT 10.0; Win64; x64; rv:86.0) Gecko/20100101 Firefox/86.0,,Firefox,86,Windows,10
4,1,null,"""",html-keyboard-response,107,389314,0.0-107.0,"<div style=""font-size:60px;"">+</div>","""",256,fixation,Memorization,null,500,"""","""","""","""","""","""","""","""",1,"""",3/22/2021 19:55,94.34.154.188,Mozilla/5.0 (Windows NT 10.0; Win64; x64; rv:86.0) Gecko/20100101 Firefox/86.0,,Firefox,86,Windows,10
4,1,1662,"""",html-keyboard-response,108,394335,0.0-108.0,"<img src='jspsych/CFDfaces/CFD-WM-215-041-N.jpg' height=""250px""></br><b>Juan</b>","""",256,IntactFace,Memorization,78,5000,n,"""",CFD-BF-019-001-N.jpg,Angela,0,"""","""","""",1,"""",3/22/2021 19:55,94.34.154.188,Mozilla/5.0 (Windows NT 10.0; Win64; x64; rv:86.0) Gecko/20100101 Firefox/86.0,,Firefox,86,Windows,10
4,1,null,"""",html-keyboard-response,109,394856,0.0-109.0,"<div style=""font-size:60px;"">+</div>","""",256,fixation,Memorization,null,500,"""","""","""","""","""","""","""","""",1,"""",3/22/2021 19:55,94.34.154.188,Mozilla/5.0 (Windows NT 10.0; Win64; x64; rv:86.0) Gecko/20100101 Firefox/86.0,,Firefox,86,Windows,10
4,1,1295,"""",html-keyboard-response,110,399859,0.0-110.0,"<img src='jspsych/CFDfaces/CFD-LF-202-065-N.jpg' height=""250px""></br><b>Michelle</b>","""",256,IntactFace,Memorization,70,5000,f,"""",CFD-AM-212-050-N.jpg,Jesse,0,"""","""","""",1,"""",3/22/2021 19:55,94.34.154.188,Mozilla/5.0 (Windows NT 10.0; Win64; x64; rv:86.0) Gecko/20100101 Firefox/86.0,,Firefox,86,Windows,10
4,1,null,"""",html-keyboard-response,111,400366,0.0-111.0,"<div style=""font-size:60px;"">+</div>","""",256,fixation,Memorization,null,500,"""","""","""","""","""","""","""","""",1,"""",3/22/2021 19:55,94.34.154.188,Mozilla/5.0 (Windows NT 10.0; Win64; x64; rv:86.0) Gecko/20100101 Firefox/86.0,,Firefox,86,Windows,10
4,1,4094,"""",html-keyboard-response,112,405376,0.0-112.0,"<img src='jspsych/CFDfaces/CFD-AF-209-006-N.jpg' height=""250px""></br><b>Brittany</b>","""",256,IntactFace,Memorization,70,5000,f,"""",CFD-BF-023-010-N.jpg,Erin,0,"""","""","""",1,"""",3/22/2021 19:55,94.34.154.188,Mozilla/5.0 (Windows NT 10.0; Win64; x64; rv:86.0) Gecko/20100101 Firefox/86.0,,Firefox,86,Windows,10
4,1,null,"""",html-keyboard-response,113,405897,0.0-113.0,"<div style=""font-size:60px;"">+</div>","""",256,fixation,Memorization,null,500,"""","""","""","""","""","""","""","""",1,"""",3/22/2021 19:55,94.34.154.188,Mozilla/5.0 (Windows NT 10.0; Win64; x64; rv:86.0) Gecko/20100101 Firefox/86.0,,Firefox,86,Windows,10
4,1,1736,"""",html-keyboard-response,114,410900,0.0-114.0,"<img src='jspsych/CFDfaces/CFD-WM-003-002-N.jpg' height=""250px""></br><b>Daniel</b>","""",256,IntactFace,Memorization,70,5000,f,"""",CFD-BM-010-003-N.jpg,Timothy,0,"""","""","""",1,"""",3/22/2021 19:55,94.34.154.188,Mozilla/5.0 (Windows NT 10.0; Win64; x64; rv:86.0) Gecko/20100101 Firefox/86.0,,Firefox,86,Windows,10
4,1,null,"""",html-keyboard-response,115,411412,0.0-115.0,"<div style=""font-size:60px;"">+</div>","""",256,fixation,Memorization,null,500,"""","""","""","""","""","""","""","""",1,"""",3/22/2021 19:55,94.34.154.188,Mozilla/5.0 (Windows NT 10.0; Win64; x64; rv:86.0) Gecko/20100101 Firefox/86.0,,Firefox,86,Windows,10
4,1,1461,"""",html-keyboard-response,116,416428,0.0-116.0,"<img src='jspsych/CFDfaces/CFD-LM-201-057-N.jpg' height=""250px""></br><b>Brian</b>","""",256,IntactFace,Memorization,70,5000,f,"""",CFD-LM-246-087-N.jpg,Dustin,0,"""","""","""",1,"""",3/22/2021 19:55,94.34.154.188,Mozilla/5.0 (Windows NT 10.0; Win64; x64; rv:86.0) Gecko/20100101 Firefox/86.0,,Firefox,86,Windows,10
4,1,null,"""",html-keyboard-response,117,416948,0.0-117.0,"<div style=""font-size:60px;"">+</div>","""",256,fixation,Memorization,null,500,"""","""","""","""","""","""","""","""",1,"""",3/22/2021 19:55,94.34.154.188,Mozilla/5.0 (Windows NT 10.0; Win64; x64; rv:86.0) Gecko/20100101 Firefox/86.0,,Firefox,86,Windows,10
4,1,2809,"""",html-keyboard-response,118,421973,0.0-118.0,"<img src='jspsych/CFDfaces/CFD-BF-008-001-N.jpg' height=""250px""></br><b>Vanessa</b>","""",256,IntactFace,Memorization,78,5000,n,"""",CFD-BF-010-001-N.jpg,Lindsey,0,"""","""","""",1,"""",3/22/2021 19:55,94.34.154.188,Mozilla/5.0 (Windows NT 10.0; Win64; x64; rv:86.0) Gecko/20100101 Firefox/86.0,,Firefox,86,Windows,10
4,1,null,"""",html-keyboard-response,119,422485,0.0-119.0,"<div style=""font-size:60px;"">+</div>","""",256,fixation,Memorization,null,500,"""","""","""","""","""","""","""","""",1,"""",3/22/2021 19:55,94.34.154.188,Mozilla/5.0 (Windows NT 10.0; Win64; x64; rv:86.0) Gecko/20100101 Firefox/86.0,,Firefox,86,Windows,10
4,1,1428,"""",html-keyboard-response,120,427501,0.0-120.0,"<img src='jspsych/CFDfaces/CFD-BM-207-024-N.jpg' height=""250px""></br><b>Joshua</b>","""",256,IntactFace,Memorization,78,5000,n,"""",CFD-BF-047-003-N.jpg,Jordan,0,"""","""","""",1,"""",3/22/2021 19:55,94.34.154.188,Mozilla/5.0 (Windows NT 10.0; Win64; x64; rv:86.0) Gecko/20100101 Firefox/86.0,,Firefox,86,Windows,10
4,1,null,"""",html-keyboard-response,121,428020,0.0-121.0,"<div style=""font-size:60px;"">+</div>","""",256,fixation,Memorization,null,500,"""","""","""","""","""","""","""","""",1,"""",3/22/2021 19:55,94.34.154.188,Mozilla/5.0 (Windows NT 10.0; Win64; x64; rv:86.0) Gecko/20100101 Firefox/86.0,,Firefox,86,Windows,10
4,1,2455,"""",html-keyboard-response,122,433044,0.0-122.0,"<img src='jspsych/CFDfaces/CFD-BF-201-080-N.jpg' height=""250px""></br><b>Meghan</b>","""",256,IntactFace,Memorization,70,5000,f,"""",CFD-WF-029-002-N.jpg,Rebecca,0,"""","""","""",1,"""",3/22/2021 19:55,94.34.154.188,Mozilla/5.0 (Windows NT 10.0; Win64; x64; rv:86.0) Gecko/20100101 Firefox/86.0,,Firefox,86,Windows,10
4,1,null,"""",html-keyboard-response,123,433569,0.0-123.0,"<div style=""font-size:60px;"">+</div>","""",256,fixation,Memorization,null,500,"""","""","""","""","""","""","""","""",1,"""",3/22/2021 19:55,94.34.154.188,Mozilla/5.0 (Windows NT 10.0; Win64; x64; rv:86.0) Gecko/20100101 Firefox/86.0,,Firefox,86,Windows,10
4,1,1157,"""",html-keyboard-response,124,438593,0.0-124.0,"<img src='jspsych/CFDfaces/CFD-WF-215-145-N.jpg' height=""250px""></br><b>Emily</b>","""",256,IntactFace,Memorization,70,5000,f,"""",CFD-AF-235-170-N.jpg,Heather,0,"""","""","""",1,"""",3/22/2021 19:55,94.34.154.188,Mozilla/5.0 (Windows NT 10.0; Win64; x64; rv:86.0) Gecko/20100101 Firefox/86.0,,Firefox,86,Windows,10
4,1,null,"""",html-keyboard-response,125,439112,0.0-125.0,"<div style=""font-size:60px;"">+</div>","""",256,fixation,Memorization,null,500,"""","""","""","""","""","""","""","""",1,"""",3/22/2021 19:55,94.34.154.188,Mozilla/5.0 (Windows NT 10.0; Win64; x64; rv:86.0) Gecko/20100101 Firefox/86.0,,Firefox,86,Windows,10
4,1,null,"""",html-keyboard-response,126,444140,0.0-126.0,"<img src='jspsych/CFDfaces/CFD-WM-237-052-N.jpg' height=""250px""></br><b>Robert</b>","""",256,IntactFace,Memorization,null,5000,"""","""",CFD-WM-017-002-N.jpg,Luis,0,"""","""","""",1,"""",3/22/2021 19:55,94.34.154.188,Mozilla/5.0 (Windows NT 10.0; Win64; x64; rv:86.0) Gecko/20100101 Firefox/86.0,,Firefox,86,Windows,10
4,1,null,"""",html-keyboard-response,127,444650,0.0-127.0,"<div style=""font-size:60px;"">+</div>","""",256,fixation,Memorization,null,500,"""","""","""","""","""","""","""","""",1,"""",3/22/2021 19:55,94.34.154.188,Mozilla/5.0 (Windows NT 10.0; Win64; x64; rv:86.0) Gecko/20100101 Firefox/86.0,,Firefox,86,Windows,10
4,1,1933,"""",html-keyboard-response,128,449666,0.0-128.0,"<img src='jspsych/CFDfaces/CFD-BF-004-014-N.jpg' height=""250px""></br><b>Victoria</b>","""",256,IntactFace,Memorization,78,5000,n,"""",CFD-BF-226-119-N.jpg,Tiffany,0,"""","""","""",1,"""",3/22/2021 19:55,94.34.154.188,Mozilla/5.0 (Windows NT 10.0; Win64; x64; rv:86.0) Gecko/20100101 Firefox/86.0,,Firefox,86,Windows,10
4,1,null,"""",html-keyboard-response,129,450175,0.0-129.0,"<div style=""font-size:60px;"">+</div>","""",256,fixation,Memorization,null,500,"""","""","""","""","""","""","""","""",1,"""",3/22/2021 19:55,94.34.154.188,Mozilla/5.0 (Windows NT 10.0; Win64; x64; rv:86.0) Gecko/20100101 Firefox/86.0,,Firefox,86,Windows,10
4,1,3098,"""",html-keyboard-response,130,455187,0.0-130.0,"<img src='jspsych/CFDfaces/CFD-WM-213-076-N.jpg' height=""250px""></br><b>Jeffrey</b>","""",256,IntactFace,Memorization,78,5000,n,"""",CFD-AF-208-003-N.jpg,Laura,0,"""","""","""",1,"""",3/22/2021 19:55,94.34.154.188,Mozilla/5.0 (Windows NT 10.0; Win64; x64; rv:86.0) Gecko/20100101 Firefox/86.0,,Firefox,86,Windows,10
4,1,null,"""",html-keyboard-response,131,455702,0.0-131.0,"<div style=""font-size:60px;"">+</div>","""",256,fixation,Memorization,null,500,"""","""","""","""","""","""","""","""",1,"""",3/22/2021 19:55,94.34.154.188,Mozilla/5.0 (Windows NT 10.0; Win64; x64; rv:86.0) Gecko/20100101 Firefox/86.0,,Firefox,86,Windows,10
4,1,1400,"""",html-keyboard-response,132,460707,0.0-132.0,"<img src='jspsych/CFDfaces/CFD-BF-222-240-N.jpg' height=""250px""></br><b>Elizabeth</b>","""",256,IntactFace,Memorization,78,5000,n,"""",CFD-AF-242-158-N.jpg,Jenna,0,"""","""","""",1,"""",3/22/2021 19:55,94.34.154.188,Mozilla/5.0 (Windows NT 10.0; Win64; x64; rv:86.0) Gecko/20100101 Firefox/86.0,,Firefox,86,Windows,10
4,1,null,"""",html-keyboard-response,133,461225,0.0-133.0,"<div style=""font-size:60px;"">+</div>","""",256,fixation,Memorization,null,500,"""","""","""","""","""","""","""","""",1,"""",3/22/2021 19:55,94.34.154.188,Mozilla/5.0 (Windows NT 10.0; Win64; x64; rv:86.0) Gecko/20100101 Firefox/86.0,,Firefox,86,Windows,10
4,1,1314,"""",html-keyboard-response,134,466231,0.0-134.0,"<img src='jspsych/CFDfaces/CFD-WM-020-001-N.jpg' height=""250px""></br><b>Jason</b>","""",256,IntactFace,Memorization,70,5000,f,"""",CFD-WF-038-021-N.jpg,Lauren,0,"""","""","""",1,"""",3/22/2021 19:55,94.34.154.188,Mozilla/5.0 (Windows NT 10.0; Win64; x64; rv:86.0) Gecko/20100101 Firefox/86.0,,Firefox,86,Windows,10
4,1,null,"""",html-keyboard-response,135,466741,0.0-135.0,"<div style=""font-size:60px;"">+</div>","""",256,fixation,Memorization,null,500,"""","""","""","""","""","""","""","""",1,"""",3/22/2021 19:55,94.34.154.188,Mozilla/5.0 (Windows NT 10.0; Win64; x64; rv:86.0) Gecko/20100101 Firefox/86.0,,Firefox,86,Windows,10
4,1,2666,"""",html-keyboard-response,136,471755,0.0-136.0,"<img src='jspsych/CFDfaces/CFD-LM-248-089-N.jpg' height=""250px""></br><b>Nicholas</b>","""",256,IntactFace,Memorization,70,5000,f,"""",CFD-BM-001-014-N.jpg,Steven,0,"""","""","""",1,"""",3/22/2021 19:55,94.34.154.188,Mozilla/5.0 (Windows NT 10.0; Win64; x64; rv:86.0) Gecko/20100101 Firefox/86.0,,Firefox,86,Windows,10
4,1,null,"""",html-keyboard-response,137,472277,0.0-137.0,"<div style=""font-size:60px;"">+</div>","""",256,fixation,Memorization,null,500,"""","""","""","""","""","""","""","""",1,"""",3/22/2021 19:55,94.34.154.188,Mozilla/5.0 (Windows NT 10.0; Win64; x64; rv:86.0) Gecko/20100101 Firefox/86.0,,Firefox,86,Windows,10
4,1,null,"""",html-keyboard-response,138,477304,0.0-138.0,"<img src='jspsych/CFDfaces/CFD-WF-017-003-N.jpg' height=""250px""></br><b>Amanda</b>","""",256,IntactFace,Memorization,null,5000,"""","""",CFD-AM-246-184-N.jpg,Austin,0,"""","""","""",1,"""",3/22/2021 19:55,94.34.154.188,Mozilla/5.0 (Windows NT 10.0; Win64; x64; rv:86.0) Gecko/20100101 Firefox/86.0,,Firefox,86,Windows,10
4,1,null,"""",html-keyboard-response,139,477825,0.0-139.0,"<div style=""font-size:60px;"">+</div>","""",256,fixation,Memorization,null,500,"""","""","""","""","""","""","""","""",1,"""",3/22/2021 19:55,94.34.154.188,Mozilla/5.0 (Windows NT 10.0; Win64; x64; rv:86.0) Gecko/20100101 Firefox/86.0,,Firefox,86,Windows,10
4,1,2760,"""",html-keyboard-response,140,482828,0.0-140.0,"<img src='jspsych/CFDfaces/CFD-WM-207-048-N.jpg' height=""250px""></br><b>Christian</b>","""",256,IntactFace,Memorization,70,5000,f,"""",CFD-AF-214-139-N.jpg,Whitney,0,"""","""","""",1,"""",3/22/2021 19:55,94.34.154.188,Mozilla/5.0 (Windows NT 10.0; Win64; x64; rv:86.0) Gecko/20100101 Firefox/86.0,,Firefox,86,Windows,10
4,1,null,"""",html-keyboard-response,141,483350,0.0-141.0,"<div style=""font-size:60px;"">+</div>","""",256,fixation,Memorization,null,500,"""","""","""","""","""","""","""","""",1,"""",3/22/2021 19:55,94.34.154.188,Mozilla/5.0 (Windows NT 10.0; Win64; x64; rv:86.0) Gecko/20100101 Firefox/86.0,,Firefox,86,Windows,10
4,1,4057,"""",html-keyboard-response,142,488353,0.0-142.0,"<img src='jspsych/CFDfaces/CFD-BM-208-065-N.jpg' height=""250px""></br><b>Brandon</b>","""",256,IntactFace,Memorization,70,5000,f,"""",CFD-WM-212-097-N.jpg,Cameron,0,"""","""","""",1,"""",3/22/2021 19:55,94.34.154.188,Mozilla/5.0 (Windows NT 10.0; Win64; x64; rv:86.0) Gecko/20100101 Firefox/86.0,,Firefox,86,Windows,10
4,1,null,"""",html-keyboard-response,143,488866,0.0-143.0,"<div style=""font-size:60px;"">+</div>","""",256,fixation,Memorization,null,500,"""","""","""","""","""","""","""","""",1,"""",3/22/2021 19:55,94.34.154.188,Mozilla/5.0 (Windows NT 10.0; Win64; x64; rv:86.0) Gecko/20100101 Firefox/86.0,,Firefox,86,Windows,10
4,1,1491,"""",html-keyboard-response,144,493890,0.0-144.0,"<img src='jspsych/CFDfaces/CFD-AM-231-136-N.jpg' height=""250px""></br><b>Richard</b>","""",256,IntactFace,Memorization,78,5000,n,"""",CFD-LM-217-162-N.jpg,Sean,0,"""","""","""",1,"""",3/22/2021 19:55,94.34.154.188,Mozilla/5.0 (Windows NT 10.0; Win64; x64; rv:86.0) Gecko/20100101 Firefox/86.0,,Firefox,86,Windows,10
4,1,null,"""",html-keyboard-response,145,494413,0.0-145.0,"<div style=""font-size:60px;"">+</div>","""",256,fixation,Memorization,null,500,"""","""","""","""","""","""","""","""",1,"""",3/22/2021 19:55,94.34.154.188,Mozilla/5.0 (Windows NT 10.0; Win64; x64; rv:86.0) Gecko/20100101 Firefox/86.0,,Firefox,86,Windows,10
4,1,3537,"""",html-keyboard-response,146,499426,0.0-146.0,"<img src='jspsych/CFDfaces/CFD-AM-228-214-N.jpg' height=""250px""></br><b>Eric</b>","""",256,IntactFace,Memorization,70,5000,f,"""",CFD-AM-202-079-N.jpg,Justin,0,"""","""","""",1,"""",3/22/2021 19:55,94.34.154.188,Mozilla/5.0 (Windows NT 10.0; Win64; x64; rv:86.0) Gecko/20100101 Firefox/86.0,,Firefox,86,Windows,10
4,1,null,"""",html-keyboard-response,147,499937,0.0-147.0,"<div style=""font-size:60px;"">+</div>","""",256,fixation,Memorization,null,500,"""","""","""","""","""","""","""","""",1,"""",3/22/2021 19:55,94.34.154.188,Mozilla/5.0 (Windows NT 10.0; Win64; x64; rv:86.0) Gecko/20100101 Firefox/86.0,,Firefox,86,Windows,10
4,1,1414,"""",html-keyboard-response,148,504955,0.0-148.0,"<img src='jspsych/CFDfaces/CFD-LM-239-075-N.jpg' height=""250px""></br><b>Ian</b>","""",256,IntactFace,Memorization,70,5000,f,"""",CFD-AM-234-355-N.jpg,Kenneth,0,"""","""","""",1,"""",3/22/2021 19:55,94.34.154.188,Mozilla/5.0 (Windows NT 10.0; Win64; x64; rv:86.0) Gecko/20100101 Firefox/86.0,,Firefox,86,Windows,10
4,1,null,"""",html-keyboard-response,149,505478,0.0-149.0,"<div style=""font-size:60px;"">+</div>","""",256,fixation,Memorization,null,500,"""","""","""","""","""","""","""","""",1,"""",3/22/2021 19:55,94.34.154.188,Mozilla/5.0 (Windows NT 10.0; Win64; x64; rv:86.0) Gecko/20100101 Firefox/86.0,,Firefox,86,Windows,10
4,1,1958,"""",html-keyboard-response,150,510493,0.0-150.0,"<img src='jspsych/CFDfaces/CFD-BM-026-002-N.jpg' height=""250px""></br><b>Gregory</b>","""",256,IntactFace,Memorization,78,5000,n,"""",CFD-BM-032-024-N.jpg,Ryan,0,"""","""","""",1,"""",3/22/2021 19:55,94.34.154.188,Mozilla/5.0 (Windows NT 10.0; Win64; x64; rv:86.0) Gecko/20100101 Firefox/86.0,,Firefox,86,Windows,10
4,1,null,"""",html-keyboard-response,151,511010,0.0-151.0,"<div style=""font-size:60px;"">+</div>","""",256,fixation,Memorization,null,500,"""","""","""","""","""","""","""","""",1,"""",3/22/2021 19:55,94.34.154.188,Mozilla/5.0 (Windows NT 10.0; Win64; x64; rv:86.0) Gecko/20100101 Firefox/86.0,,Firefox,86,Windows,10
4,1,2378,"""",html-keyboard-response,152,513391,0.0-152.0,Press Any Key to Begin Memory Test,"""",1,welcomeScreen,Break,78,"""","""","""","""","""","""","""","""","""",1,"""",3/22/2021 19:55,94.34.154.188,Mozilla/5.0 (Windows NT 10.0; Win64; x64; rv:86.0) Gecko/20100101 Firefox/86.0,,Firefox,86,Windows,10
4,1,null,"""",html-keyboard-response,153,514403,0.0-153.0,"<div style=""font-size:60px;"">+</div>","""",256,ITI,Test,null,1000,"""","""","""","""","""","""","""","""",1,"""",3/22/2021 19:55,94.34.154.188,Mozilla/5.0 (Windows NT 10.0; Win64; x64; rv:86.0) Gecko/20100101 Firefox/86.0,,Firefox,86,Windows,10
4,1,null,"""",image-keyboard-response,154,514673,0.0-154.0,jspsych/scrambledDisgustFaces/scrambledAM10DIS.JPG,"""",256,forwardMask,Test,null,250,"""",d,"""","""","""","""","""","""",1,"""",3/22/2021 19:55,94.34.154.188,Mozilla/5.0 (Windows NT 10.0; Win64; x64; rv:86.0) Gecko/20100101 Firefox/86.0,,Firefox,86,Windows,10
4,1,null,"""",image-keyboard-response,155,514705,0.0-155.0,jspsych/disgustFaces/AM10DIS.JPG,"""",256,Cue,Test,null,16,"""","""","""","""","""","""","""","""",1,"""",3/22/2021 19:55,94.34.154.188,Mozilla/5.0 (Windows NT 10.0; Win64; x64; rv:86.0) Gecko/20100101 Firefox/86.0,,Firefox,86,Windows,10
4,1,null,"""",image-keyboard-response,156,514819,0.0-156.0,jspsych/neutralFaces/BM12NES.JPG,"""",256,backwardMask,Test,null,100,"""","""","""","""","""","""","""","""",1,"""",3/22/2021 19:55,94.34.154.188,Mozilla/5.0 (Windows NT 10.0; Win64; x64; rv:86.0) Gecko/20100101 Firefox/86.0,,Firefox,86,Windows,10
4,1,null,"""",html-keyboard-response,157,515821,0.0-157.0,"<div style=""font-size:60px;"">+</div>","""",256,fixationBtwnNeutralMaskAndPrompt,Test,null,1000,"""","""","""","""","""","""","""","""",1,"""",3/22/2021 19:55,94.34.154.188,Mozilla/5.0 (Windows NT 10.0; Win64; x64; rv:86.0) Gecko/20100101 Firefox/86.0,,Firefox,86,Windows,10
4,1,null,"""",html-button-response,158,520824,0.0-158.0,"<img src='jspsych/CFDfaces/CFD-WM-020-001-N.jpg' height=""250px"">,</br><b>Jason</b>",null,256,IntactOrRearranged,Test,"""","""","""","""",CFD-AM-212-050-N.jpg,Kenneth,0,"""","""","""",1,"""",3/22/2021 19:55,94.34.154.188,Mozilla/5.0 (Windows NT 10.0; Win64; x64; rv:86.0) Gecko/20100101 Firefox/86.0,,Firefox,86,Windows,10
4,1,4008,"""",html-slider-response,159,524847,0.0-159.0,"<img src='jspsych/CFDfaces/CFD-WM-020-001-N.jpg' height=""250px"">,</br><b>Jason</b>","""",256,ConfidenceQuery,Test,"""","""","""","""",CFD-AM-212-050-N.jpg,Kenneth,0,0,20,"""",1,"""",3/22/2021 19:55,94.34.154.188,Mozilla/5.0 (Windows NT 10.0; Win64; x64; rv:86.0) Gecko/20100101 Firefox/86.0,,Firefox,86,Windows,10
4,1,null,"""",html-keyboard-response,160,525859,0.0-160.0,"<div style=""font-size:60px;"">+</div>","""",256,ITI,Test,null,1000,"""","""","""","""","""","""","""","""",1,"""",3/22/2021 19:55,94.34.154.188,Mozilla/5.0 (Windows NT 10.0; Win64; x64; rv:86.0) Gecko/20100101 Firefox/86.0,,Firefox,86,Windows,10
4,1,null,"""",image-keyboard-response,161,526124,0.0-161.0,jspsych/scrambledNeutralFaces/scrambledBM03NES.JPG,"""",256,forwardMask,Test,null,250,"""",n,"""","""","""","""","""","""",1,"""",3/22/2021 19:55,94.34.154.188,Mozilla/5.0 (Windows NT 10.0; Win64; x64; rv:86.0) Gecko/20100101 Firefox/86.0,,Firefox,86,Windows,10
4,1,null,"""",image-keyboard-response,162,526146,0.0-162.0,jspsych/neutralFaces/BM03NES.JPG,"""",256,Cue,Test,null,16,"""","""","""","""","""","""","""","""",1,"""",3/22/2021 19:55,94.34.154.188,Mozilla/5.0 (Windows NT 10.0; Win64; x64; rv:86.0) Gecko/20100101 Firefox/86.0,,Firefox,86,Windows,10
4,1,null,"""",image-keyboard-response,163,526253,0.0-163.0,jspsych/neutralFaces/AM25NES.JPG,"""",256,backwardMask,Test,null,100,"""","""","""","""","""","""","""","""",1,"""",3/22/2021 19:55,94.34.154.188,Mozilla/5.0 (Windows NT 10.0; Win64; x64; rv:86.0) Gecko/20100101 Firefox/86.0,,Firefox,86,Windows,10
4,1,null,"""",html-keyboard-response,164,527266,0.0-164.0,"<div style=""font-size:60px;"">+</div>","""",256,fixationBtwnNeutralMaskAndPrompt,Test,null,1000,"""","""","""","""","""","""","""","""",1,"""",3/22/2021 19:55,94.34.154.188,Mozilla/5.0 (Windows NT 10.0; Win64; x64; rv:86.0) Gecko/20100101 Firefox/86.0,,Firefox,86,Windows,10
4,1,2371,"""",html-button-response,165,529640,0.0-165.0,"<img src='jspsych/CFDfaces/CFD-AF-209-006-N.jpg' height=""250px"">,</br><b>Brittany</b>",0,256,IntactOrRearranged,Test,"""","""","""","""",CFD-LM-221-216-N.jpg,Ryan,0,"""","""",0,1,"""",3/22/2021 19:55,94.34.154.188,Mozilla/5.0 (Windows NT 10.0; Win64; x64; rv:86.0) Gecko/20100101 Firefox/86.0,,Firefox,86,Windows,10
4,1,2019,"""",html-slider-response,166,531668,0.0-166.0,"<img src='jspsych/CFDfaces/CFD-AF-209-006-N.jpg' height=""250px"">,</br><b>Brittany</b>","""",256,ConfidenceQuery,Test,"""","""","""","""",CFD-LM-221-216-N.jpg,Ryan,0,0,58,"""",1,"""",3/22/2021 19:55,94.34.154.188,Mozilla/5.0 (Windows NT 10.0; Win64; x64; rv:86.0) Gecko/20100101 Firefox/86.0,,Firefox,86,Windows,10
4,1,null,"""",html-keyboard-response,167,532677,0.0-167.0,"<div style=""font-size:60px;"">+</div>","""",256,ITI,Test,null,1000,"""","""","""","""","""","""","""","""",1,"""",3/22/2021 19:55,94.34.154.188,Mozilla/5.0 (Windows NT 10.0; Win64; x64; rv:86.0) Gecko/20100101 Firefox/86.0,,Firefox,86,Windows,10
4,1,null,"""",image-keyboard-response,168,532934,0.0-168.0,jspsych/scrambledNeutralFaces/scrambledAF14NES.JPG,"""",256,forwardMask,Test,null,250,"""",n,"""","""","""","""","""","""",1,"""",3/22/2021 19:55,94.34.154.188,Mozilla/5.0 (Windows NT 10.0; Win64; x64; rv:86.0) Gecko/20100101 Firefox/86.0,,Firefox,86,Windows,10
4,1,null,"""",image-keyboard-response,169,532966,0.0-169.0,jspsych/neutralFaces/AF14NES.JPG,"""",256,Cue,Test,null,16,"""","""","""","""","""","""","""","""",1,"""",3/22/2021 19:55,94.34.154.188,Mozilla/5.0 (Windows NT 10.0; Win64; x64; rv:86.0) Gecko/20100101 Firefox/86.0,,Firefox,86,Windows,10
4,1,null,"""",image-keyboard-response,170,533074,0.0-170.0,jspsych/neutralFaces/BF24NES.JPG,"""",256,backwardMask,Test,null,100,"""","""","""","""","""","""","""","""",1,"""",3/22/2021 19:55,94.34.154.188,Mozilla/5.0 (Windows NT 10.0; Win64; x64; rv:86.0) Gecko/20100101 Firefox/86.0,,Firefox,86,Windows,10
4,1,null,"""",html-keyboard-response,171,534083,0.0-171.0,"<div style=""font-size:60px;"">+</div>","""",256,fixationBtwnNeutralMaskAndPrompt,Test,null,1000,"""","""","""","""","""","""","""","""",1,"""",3/22/2021 19:55,94.34.154.188,Mozilla/5.0 (Windows NT 10.0; Win64; x64; rv:86.0) Gecko/20100101 Firefox/86.0,,Firefox,86,Windows,10
4,1,2748,"""",html-button-response,172,536833,0.0-172.0,"<img src='jspsych/CFDfaces/CFD-BF-222-240-N.jpg' height=""250px"">,</br><b>Kimberly</b>",1,256,IntactOrRearranged,Test,"""","""","""","""",CFD-BF-010-001-N.jpg,Lindsey,1,"""","""",1,1,"""",3/22/2021 19:55,94.34.154.188,Mozilla/5.0 (Windows NT 10.0; Win64; x64; rv:86.0) Gecko/20100101 Firefox/86.0,,Firefox,86,Windows,10
4,1,1975,"""",html-slider-response,173,538820,0.0-173.0,"<img src='jspsych/CFDfaces/CFD-BF-222-240-N.jpg' height=""250px"">,</br><b>Kimberly</b>","""",256,ConfidenceQuery,Test,"""","""","""","""",CFD-BF-010-001-N.jpg,Lindsey,1,0,60,"""",1,"""",3/22/2021 19:55,94.34.154.188,Mozilla/5.0 (Windows NT 10.0; Win64; x64; rv:86.0) Gecko/20100101 Firefox/86.0,,Firefox,86,Windows,10
4,1,null,"""",html-keyboard-response,174,539825,0.0-174.0,"<div style=""font-size:60px;"">+</div>","""",256,ITI,Test,null,1000,"""","""","""","""","""","""","""","""",1,"""",3/22/2021 19:55,94.34.154.188,Mozilla/5.0 (Windows NT 10.0; Win64; x64; rv:86.0) Gecko/20100101 Firefox/86.0,,Firefox,86,Windows,10
4,1,null,"""",image-keyboard-response,175,540098,0.0-175.0,jspsych/scrambledNeutralFaces/scrambledAF29NES.JPG,"""",256,forwardMask,Test,null,250,"""",n,"""","""","""","""","""","""",1,"""",3/22/2021 19:55,94.34.154.188,Mozilla/5.0 (Windows NT 10.0; Win64; x64; rv:86.0) Gecko/20100101 Firefox/86.0,,Firefox,86,Windows,10
4,1,null,"""",image-keyboard-response,176,540120,0.0-176.0,jspsych/neutralFaces/AF29NES.JPG,"""",256,Cue,Test,null,16,"""","""","""","""","""","""","""","""",1,"""",3/22/2021 19:55,94.34.154.188,Mozilla/5.0 (Windows NT 10.0; Win64; x64; rv:86.0) Gecko/20100101 Firefox/86.0,,Firefox,86,Windows,10
4,1,null,"""",image-keyboard-response,177,540239,0.0-177.0,jspsych/neutralFaces/AF16NES.JPG,"""",256,backwardMask,Test,null,100,"""","""","""","""","""","""","""","""",1,"""",3/22/2021 19:55,94.34.154.188,Mozilla/5.0 (Windows NT 10.0; Win64; x64; rv:86.0) Gecko/20100101 Firefox/86.0,,Firefox,86,Windows,10
4,1,null,"""",html-keyboard-response,178,541254,0.0-178.0,"<div style=""font-size:60px;"">+</div>","""",256,fixationBtwnNeutralMaskAndPrompt,Test,null,1000,"""","""","""","""","""","""","""","""",1,"""",3/22/2021 19:55,94.34.154.188,Mozilla/5.0 (Windows NT 10.0; Win64; x64; rv:86.0) Gecko/20100101 Firefox/86.0,,Firefox,86,Windows,10
4,1,2683,"""",html-button-response,179,543947,0.0-179.0,"<img src='jspsych/CFDfaces/CFD-WF-006-002-N.jpg' height=""250px"">,</br><b>Victoria</b>",1,256,IntactOrRearranged,Test,"""","""","""","""",CFD-BM-010-003-N.jpg,Austin,1,"""","""",1,1,"""",3/22/2021 19:55,94.34.154.188,Mozilla/5.0 (Windows NT 10.0; Win64; x64; rv:86.0) Gecko/20100101 Firefox/86.0,,Firefox,86,Windows,10
4,1,2260,"""",html-slider-response,180,546211,0.0-180.0,"<img src='jspsych/CFDfaces/CFD-WF-006-002-N.jpg' height=""250px"">,</br><b>Victoria</b>","""",256,ConfidenceQuery,Test,"""","""","""","""",CFD-BM-010-003-N.jpg,Austin,1,0,100,"""",1,"""",3/22/2021 19:55,94.34.154.188,Mozilla/5.0 (Windows NT 10.0; Win64; x64; rv:86.0) Gecko/20100101 Firefox/86.0,,Firefox,86,Windows,10
4,1,null,"""",html-keyboard-response,181,547225,0.0-181.0,"<div style=""font-size:60px;"">+</div>","""",256,ITI,Test,null,1000,"""","""","""","""","""","""","""","""",1,"""",3/22/2021 19:55,94.34.154.188,Mozilla/5.0 (Windows NT 10.0; Win64; x64; rv:86.0) Gecko/20100101 Firefox/86.0,,Firefox,86,Windows,10
4,1,null,"""",image-keyboard-response,182,547480,0.0-182.0,jspsych/scrambledDisgustFaces/scrambledBM21DIS.JPG,"""",256,forwardMask,Test,null,250,"""",d,"""","""","""","""","""","""",1,"""",3/22/2021 19:55,94.34.154.188,Mozilla/5.0 (Windows NT 10.0; Win64; x64; rv:86.0) Gecko/20100101 Firefox/86.0,,Firefox,86,Windows,10
4,1,null,"""",image-keyboard-response,183,547511,0.0-183.0,jspsych/disgustFaces/BM22DIS.JPG,"""",256,Cue,Test,null,16,"""","""","""","""","""","""","""","""",1,"""",3/22/2021 19:55,94.34.154.188,Mozilla/5.0 (Windows NT 10.0; Win64; x64; rv:86.0) Gecko/20100101 Firefox/86.0,,Firefox,86,Windows,10
4,1,null,"""",image-keyboard-response,184,547618,0.0-184.0,jspsych/neutralFaces/BM04NES.JPG,"""",256,backwardMask,Test,null,100,"""","""","""","""","""","""","""","""",1,"""",3/22/2021 19:55,94.34.154.188,Mozilla/5.0 (Windows NT 10.0; Win64; x64; rv:86.0) Gecko/20100101 Firefox/86.0,,Firefox,86,Windows,10
4,1,null,"""",html-keyboard-response,185,548622,0.0-185.0,"<div style=""font-size:60px;"">+</div>","""",256,fixationBtwnNeutralMaskAndPrompt,Test,null,1000,"""","""","""","""","""","""","""","""",1,"""",3/22/2021 19:55,94.34.154.188,Mozilla/5.0 (Windows NT 10.0; Win64; x64; rv:86.0) Gecko/20100101 Firefox/86.0,,Firefox,86,Windows,10
4,1,2545,"""",html-button-response,186,551167,0.0-186.0,"<img src='jspsych/CFDfaces/CFD-WF-003-003-N.jpg' height=""250px"">,</br><b>Amanda</b>",0,256,IntactOrRearranged,Test,"""","""","""","""",CFD-AF-214-139-N.jpg,Whitney,1,"""","""",0,1,"""",3/22/2021 19:55,94.34.154.188,Mozilla/5.0 (Windows NT 10.0; Win64; x64; rv:86.0) Gecko/20100101 Firefox/86.0,,Firefox,86,Windows,10
4,1,1844,"""",html-slider-response,187,553023,0.0-187.0,"<img src='jspsych/CFDfaces/CFD-WF-003-003-N.jpg' height=""250px"">,</br><b>Amanda</b>","""",256,ConfidenceQuery,Test,"""","""","""","""",CFD-AF-214-139-N.jpg,Whitney,1,0,40,"""",1,"""",3/22/2021 19:55,94.34.154.188,Mozilla/5.0 (Windows NT 10.0; Win64; x64; rv:86.0) Gecko/20100101 Firefox/86.0,,Firefox,86,Windows,10
4,1,null,"""",html-keyboard-response,188,554030,0.0-188.0,"<div style=""font-size:60px;"">+</div>","""",256,ITI,Test,null,1000,"""","""","""","""","""","""","""","""",1,"""",3/22/2021 19:55,94.34.154.188,Mozilla/5.0 (Windows NT 10.0; Win64; x64; rv:86.0) Gecko/20100101 Firefox/86.0,,Firefox,86,Windows,10
4,1,null,"""",image-keyboard-response,189,554297,0.0-189.0,jspsych/scrambledDisgustFaces/scrambledAM10DIS.JPG,"""",256,forwardMask,Test,null,250,"""",d,"""","""","""","""","""","""",1,"""",3/22/2021 19:55,94.34.154.188,Mozilla/5.0 (Windows NT 10.0; Win64; x64; rv:86.0) Gecko/20100101 Firefox/86.0,,Firefox,86,Windows,10
4,1,null,"""",image-keyboard-response,190,554318,0.0-190.0,jspsych/disgustFaces/AM10DIS.JPG,"""",256,Cue,Test,null,16,"""","""","""","""","""","""","""","""",1,"""",3/22/2021 19:55,94.34.154.188,Mozilla/5.0 (Windows NT 10.0; Win64; x64; rv:86.0) Gecko/20100101 Firefox/86.0,,Firefox,86,Windows,10
4,1,null,"""",image-keyboard-response,191,554425,0.0-191.0,jspsych/neutralFaces/AM17NES.JPG,"""",256,backwardMask,Test,null,100,"""","""","""","""","""","""","""","""",1,"""",3/22/2021 19:55,94.34.154.188,Mozilla/5.0 (Windows NT 10.0; Win64; x64; rv:86.0) Gecko/20100101 Firefox/86.0,,Firefox,86,Windows,10
4,1,null,"""",html-keyboard-response,192,555436,0.0-192.0,"<div style=""font-size:60px;"">+</div>","""",256,fixationBtwnNeutralMaskAndPrompt,Test,null,1000,"""","""","""","""","""","""","""","""",1,"""",3/22/2021 19:55,94.34.154.188,Mozilla/5.0 (Windows NT 10.0; Win64; x64; rv:86.0) Gecko/20100101 Firefox/86.0,,Firefox,86,Windows,10
4,1,3100,"""",html-button-response,193,558538,0.0-193.0,"<img src='jspsych/CFDfaces/CFD-WF-215-145-N.jpg' height=""250px"">,</br><b>Andrea</b>",1,256,IntactOrRearranged,Test,"""","""","""","""",CFD-BM-011-016-N.jpg,Jacob,1,"""","""",1,1,"""",3/22/2021 19:55,94.34.154.188,Mozilla/5.0 (Windows NT 10.0; Win64; x64; rv:86.0) Gecko/20100101 Firefox/86.0,,Firefox,86,Windows,10
4,1,3302,"""",html-slider-response,194,561852,0.0-194.0,"<img src='jspsych/CFDfaces/CFD-WF-215-145-N.jpg' height=""250px"">,</br><b>Andrea</b>","""",256,ConfidenceQuery,Test,"""","""","""","""",CFD-BM-011-016-N.jpg,Jacob,1,0,58,"""",1,"""",3/22/2021 19:55,94.34.154.188,Mozilla/5.0 (Windows NT 10.0; Win64; x64; rv:86.0) Gecko/20100101 Firefox/86.0,,Firefox,86,Windows,10
4,1,null,"""",html-keyboard-response,195,562875,0.0-195.0,"<div style=""font-size:60px;"">+</div>","""",256,ITI,Test,null,1000,"""","""","""","""","""","""","""","""",1,"""",3/22/2021 19:55,94.34.154.188,Mozilla/5.0 (Windows NT 10.0; Win64; x64; rv:86.0) Gecko/20100101 Firefox/86.0,,Firefox,86,Windows,10
4,1,null,"""",image-keyboard-response,196,563161,0.0-196.0,jspsych/scrambledNeutralFaces/scrambledAF03NES.JPG,"""",256,forwardMask,Test,null,250,"""",n,"""","""","""","""","""","""",1,"""",3/22/2021 19:55,94.34.154.188,Mozilla/5.0 (Windows NT 10.0; Win64; x64; rv:86.0) Gecko/20100101 Firefox/86.0,,Firefox,86,Windows,10
4,1,null,"""",image-keyboard-response,197,563181,0.0-197.0,jspsych/neutralFaces/AF03NES.JPG,"""",256,Cue,Test,null,16,"""","""","""","""","""","""","""","""",1,"""",3/22/2021 19:55,94.34.154.188,Mozilla/5.0 (Windows NT 10.0; Win64; x64; rv:86.0) Gecko/20100101 Firefox/86.0,,Firefox,86,Windows,10
4,1,null,"""",image-keyboard-response,198,563299,0.0-198.0,jspsych/neutralFaces/BF14NES.JPG,"""",256,backwardMask,Test,null,100,"""","""","""","""","""","""","""","""",1,"""",3/22/2021 19:55,94.34.154.188,Mozilla/5.0 (Windows NT 10.0; Win64; x64; rv:86.0) Gecko/20100101 Firefox/86.0,,Firefox,86,Windows,10
4,1,null,"""",html-keyboard-response,199,564302,0.0-199.0,"<div style=""font-size:60px;"">+</div>","""",256,fixationBtwnNeutralMaskAndPrompt,Test,null,1000,"""","""","""","""","""","""","""","""",1,"""",3/22/2021 19:55,94.34.154.188,Mozilla/5.0 (Windows NT 10.0; Win64; x64; rv:86.0) Gecko/20100101 Firefox/86.0,,Firefox,86,Windows,10
4,1,4627,"""",html-button-response,200,568931,0.0-200.0,"<img src='jspsych/CFDfaces/CFD-WM-207-048-N.jpg' height=""250px"">,</br><b>Joshua</b>",1,256,IntactOrRearranged,Test,"""","""","""","""",CFD-BF-023-010-N.jpg,Laura,1,"""","""",1,1,"""",3/22/2021 19:55,94.34.154.188,Mozilla/5.0 (Windows NT 10.0; Win64; x64; rv:86.0) Gecko/20100101 Firefox/86.0,,Firefox,86,Windows,10
4,1,null,"""",html-slider-response,201,573947,0.0-201.0,"<img src='jspsych/CFDfaces/CFD-WM-207-048-N.jpg' height=""250px"">,</br><b>Joshua</b>","""",256,ConfidenceQuery,Test,"""","""","""","""",CFD-BF-023-010-N.jpg,Laura,1,0,null,"""",1,"""",3/22/2021 19:55,94.34.154.188,Mozilla/5.0 (Windows NT 10.0; Win64; x64; rv:86.0) Gecko/20100101 Firefox/86.0,,Firefox,86,Windows,10
4,1,null,"""",html-keyboard-response,202,574950,0.0-202.0,"<div style=""font-size:60px;"">+</div>","""",256,ITI,Test,null,1000,"""","""","""","""","""","""","""","""",1,"""",3/22/2021 19:55,94.34.154.188,Mozilla/5.0 (Windows NT 10.0; Win64; x64; rv:86.0) Gecko/20100101 Firefox/86.0,,Firefox,86,Windows,10
4,1,null,"""",image-keyboard-response,203,575213,0.0-203.0,jspsych/scrambledDisgustFaces/scrambledAM15DIS.JPG,"""",256,forwardMask,Test,null,250,"""",d,"""","""","""","""","""","""",1,"""",3/22/2021 19:55,94.34.154.188,Mozilla/5.0 (Windows NT 10.0; Win64; x64; rv:86.0) Gecko/20100101 Firefox/86.0,,Firefox,86,Windows,10
4,1,null,"""",image-keyboard-response,204,575234,0.0-204.0,jspsych/disgustFaces/AM15DIS.JPG,"""",256,Cue,Test,null,16,"""","""","""","""","""","""","""","""",1,"""",3/22/2021 19:55,94.34.154.188,Mozilla/5.0 (Windows NT 10.0; Win64; x64; rv:86.0) Gecko/20100101 Firefox/86.0,,Firefox,86,Windows,10
4,1,null,"""",image-keyboard-response,205,575346,0.0-205.0,jspsych/neutralFaces/AM25NES.JPG,"""",256,backwardMask,Test,null,100,"""","""","""","""","""","""","""","""",1,"""",3/22/2021 19:55,94.34.154.188,Mozilla/5.0 (Windows NT 10.0; Win64; x64; rv:86.0) Gecko/20100101 Firefox/86.0,,Firefox,86,Windows,10
4,1,null,"""",html-keyboard-response,206,576357,0.0-206.0,"<div style=""font-size:60px;"">+</div>","""",256,fixationBtwnNeutralMaskAndPrompt,Test,null,1000,"""","""","""","""","""","""","""","""",1,"""",3/22/2021 19:55,94.34.154.188,Mozilla/5.0 (Windows NT 10.0; Win64; x64; rv:86.0) Gecko/20100101 Firefox/86.0,,Firefox,86,Windows,10
4,1,1993,"""",html-button-response,207,578352,0.0-207.0,"<img src='jspsych/CFDfaces/CFD-LM-248-089-N.jpg' height=""250px"">,</br><b>Nicholas</b>",1,256,IntactOrRearranged,Test,"""","""","""","""",CFD-AF-208-003-N.jpg,Sara,0,"""","""",1,1,"""",3/22/2021 19:55,94.34.154.188,Mozilla/5.0 (Windows NT 10.0; Win64; x64; rv:86.0) Gecko/20100101 Firefox/86.0,,Firefox,86,Windows,10
4,1,2007,"""",html-slider-response,208,580370,0.0-208.0,"<img src='jspsych/CFDfaces/CFD-LM-248-089-N.jpg' height=""250px"">,</br><b>Nicholas</b>","""",256,ConfidenceQuery,Test,"""","""","""","""",CFD-AF-208-003-N.jpg,Sara,0,0,80,"""",1,"""",3/22/2021 19:55,94.34.154.188,Mozilla/5.0 (Windows NT 10.0; Win64; x64; rv:86.0) Gecko/20100101 Firefox/86.0,,Firefox,86,Windows,10
4,1,null,"""",html-keyboard-response,209,581391,0.0-209.0,"<div style=""font-size:60px;"">+</div>","""",256,ITI,Test,null,1000,"""","""","""","""","""","""","""","""",1,"""",3/22/2021 19:55,94.34.154.188,Mozilla/5.0 (Windows NT 10.0; Win64; x64; rv:86.0) Gecko/20100101 Firefox/86.0,,Firefox,86,Windows,10
4,1,null,"""",image-keyboard-response,210,581656,0.0-210.0,jspsych/scrambledDisgustFaces/scrambledBF21DIS.JPG,"""",256,forwardMask,Test,null,250,"""",d,"""","""","""","""","""","""",1,"""",3/22/2021 19:55,94.34.154.188,Mozilla/5.0 (Windows NT 10.0; Win64; x64; rv:86.0) Gecko/20100101 Firefox/86.0,,Firefox,86,Windows,10
4,1,null,"""",image-keyboard-response,211,581689,0.0-211.0,jspsych/disgustFaces/BF21DIS.JPG,"""",256,Cue,Test,null,16,"""","""","""","""","""","""","""","""",1,"""",3/22/2021 19:55,94.34.154.188,Mozilla/5.0 (Windows NT 10.0; Win64; x64; rv:86.0) Gecko/20100101 Firefox/86.0,,Firefox,86,Windows,10
4,1,null,"""",image-keyboard-response,212,581804,0.0-212.0,jspsych/neutralFaces/AF05NES.JPG,"""",256,backwardMask,Test,null,100,"""","""","""","""","""","""","""","""",1,"""",3/22/2021 19:55,94.34.154.188,Mozilla/5.0 (Windows NT 10.0; Win64; x64; rv:86.0) Gecko/20100101 Firefox/86.0,,Firefox,86,Windows,10
4,1,null,"""",html-keyboard-response,213,582807,0.0-213.0,"<div style=""font-size:60px;"">+</div>","""",256,fixationBtwnNeutralMaskAndPrompt,Test,null,1000,"""","""","""","""","""","""","""","""",1,"""",3/22/2021 19:55,94.34.154.188,Mozilla/5.0 (Windows NT 10.0; Win64; x64; rv:86.0) Gecko/20100101 Firefox/86.0,,Firefox,86,Windows,10
4,1,1865,"""",html-button-response,214,584674,0.0-214.0,"<img src='jspsych/CFDfaces/CFD-BM-043-071-N.jpg' height=""250px"">,</br><b>Jeffrey</b>",0,256,IntactOrRearranged,Test,"""","""","""","""",CFD-LM-217-162-N.jpg,Sean,1,"""","""",0,1,"""",3/22/2021 19:55,94.34.154.188,Mozilla/5.0 (Windows NT 10.0; Win64; x64; rv:86.0) Gecko/20100101 Firefox/86.0,,Firefox,86,Windows,10
4,1,1998,"""",html-slider-response,215,586684,0.0-215.0,"<img src='jspsych/CFDfaces/CFD-BM-043-071-N.jpg' height=""250px"">,</br><b>Jeffrey</b>","""",256,ConfidenceQuery,Test,"""","""","""","""",CFD-LM-217-162-N.jpg,Sean,1,0,51,"""",1,"""",3/22/2021 19:55,94.34.154.188,Mozilla/5.0 (Windows NT 10.0; Win64; x64; rv:86.0) Gecko/20100101 Firefox/86.0,,Firefox,86,Windows,10
4,1,null,"""",html-keyboard-response,216,587707,0.0-216.0,"<div style=""font-size:60px;"">+</div>","""",256,ITI,Test,null,1000,"""","""","""","""","""","""","""","""",1,"""",3/22/2021 19:55,94.34.154.188,Mozilla/5.0 (Windows NT 10.0; Win64; x64; rv:86.0) Gecko/20100101 Firefox/86.0,,Firefox,86,Windows,10
4,1,null,"""",image-keyboard-response,217,587983,0.0-217.0,jspsych/scrambledNeutralFaces/scrambledAM17NES.JPG,"""",256,forwardMask,Test,null,250,"""",n,"""","""","""","""","""","""",1,"""",3/22/2021 19:55,94.34.154.188,Mozilla/5.0 (Windows NT 10.0; Win64; x64; rv:86.0) Gecko/20100101 Firefox/86.0,,Firefox,86,Windows,10
4,1,null,"""",image-keyboard-response,218,588004,0.0-218.0,jspsych/neutralFaces/AM17NES.JPG,"""",256,Cue,Test,null,16,"""","""","""","""","""","""","""","""",1,"""",3/22/2021 19:55,94.34.154.188,Mozilla/5.0 (Windows NT 10.0; Win64; x64; rv:86.0) Gecko/20100101 Firefox/86.0,,Firefox,86,Windows,10
4,1,null,"""",image-keyboard-response,219,588112,0.0-219.0,jspsych/neutralFaces/BM05NES.JPG,"""",256,backwardMask,Test,null,100,"""","""","""","""","""","""","""","""",1,"""",3/22/2021 19:55,94.34.154.188,Mozilla/5.0 (Windows NT 10.0; Win64; x64; rv:86.0) Gecko/20100101 Firefox/86.0,,Firefox,86,Windows,10
4,1,null,"""",html-keyboard-response,220,589125,0.0-220.0,"<div style=""font-size:60px;"">+</div>","""",256,fixationBtwnNeutralMaskAndPrompt,Test,null,1000,"""","""","""","""","""","""","""","""",1,"""",3/22/2021 19:55,94.34.154.188,Mozilla/5.0 (Windows NT 10.0; Win64; x64; rv:86.0) Gecko/20100101 Firefox/86.0,,Firefox,86,Windows,10
4,1,2367,"""",html-button-response,221,591495,0.0-221.0,"<img src='jspsych/CFDfaces/CFD-LM-239-075-N.jpg' height=""250px"">,</br><b>Ian</b>",0,256,IntactOrRearranged,Test,"""","""","""","""",CFD-LM-223-175-N.jpg,Jesse,0,"""","""",0,1,"""",3/22/2021 19:55,94.34.154.188,Mozilla/5.0 (Windows NT 10.0; Win64; x64; rv:86.0) Gecko/20100101 Firefox/86.0,,Firefox,86,Windows,10
4,1,2738,"""",html-slider-response,222,594249,0.0-222.0,"<img src='jspsych/CFDfaces/CFD-LM-239-075-N.jpg' height=""250px"">,</br><b>Ian</b>","""",256,ConfidenceQuery,Test,"""","""","""","""",CFD-LM-223-175-N.jpg,Jesse,0,0,43,"""",1,"""",3/22/2021 19:55,94.34.154.188,Mozilla/5.0 (Windows NT 10.0; Win64; x64; rv:86.0) Gecko/20100101 Firefox/86.0,,Firefox,86,Windows,10
4,1,null,"""",html-keyboard-response,223,595266,0.0-223.0,"<div style=""font-size:60px;"">+</div>","""",256,ITI,Test,null,1000,"""","""","""","""","""","""","""","""",1,"""",3/22/2021 19:55,94.34.154.188,Mozilla/5.0 (Windows NT 10.0; Win64; x64; rv:86.0) Gecko/20100101 Firefox/86.0,,Firefox,86,Windows,10
4,1,null,"""",image-keyboard-response,224,595534,0.0-224.0,jspsych/scrambledDisgustFaces/scrambledBM19DIS.JPG,"""",256,forwardMask,Test,null,250,"""",d,"""","""","""","""","""","""",1,"""",3/22/2021 19:55,94.34.154.188,Mozilla/5.0 (Windows NT 10.0; Win64; x64; rv:86.0) Gecko/20100101 Firefox/86.0,,Firefox,86,Windows,10
4,1,null,"""",image-keyboard-response,225,595568,0.0-225.0,jspsych/disgustFaces/BM20DIS.JPG,"""",256,Cue,Test,null,16,"""","""","""","""","""","""","""","""",1,"""",3/22/2021 19:55,94.34.154.188,Mozilla/5.0 (Windows NT 10.0; Win64; x64; rv:86.0) Gecko/20100101 Firefox/86.0,,Firefox,86,Windows,10
4,1,null,"""",image-keyboard-response,226,595685,0.0-226.0,jspsych/neutralFaces/AM02NES.JPG,"""",256,backwardMask,Test,null,100,"""","""","""","""","""","""","""","""",1,"""",3/22/2021 19:55,94.34.154.188,Mozilla/5.0 (Windows NT 10.0; Win64; x64; rv:86.0) Gecko/20100101 Firefox/86.0,,Firefox,86,Windows,10
4,1,null,"""",html-keyboard-response,227,596698,0.0-227.0,"<div style=""font-size:60px;"">+</div>","""",256,fixationBtwnNeutralMaskAndPrompt,Test,null,1000,"""","""","""","""","""","""","""","""",1,"""",3/22/2021 19:55,94.34.154.188,Mozilla/5.0 (Windows NT 10.0; Win64; x64; rv:86.0) Gecko/20100101 Firefox/86.0,,Firefox,86,Windows,10
4,1,3393,"""",html-button-response,228,600092,0.0-228.0,"<img src='jspsych/CFDfaces/CFD-LF-202-065-N.jpg' height=""250px"">,</br><b>Michelle</b>",1,256,IntactOrRearranged,Test,"""","""","""","""",CFD-WF-029-002-N.jpg,Rebecca,0,"""","""",1,1,"""",3/22/2021 19:55,94.34.154.188,Mozilla/5.0 (Windows NT 10.0; Win64; x64; rv:86.0) Gecko/20100101 Firefox/86.0,,Firefox,86,Windows,10
4,1,2693,"""",html-slider-response,229,602797,0.0-229.0,"<img src='jspsych/CFDfaces/CFD-LF-202-065-N.jpg' height=""250px"">,</br><b>Michelle</b>","""",256,ConfidenceQuery,Test,"""","""","""","""",CFD-WF-029-002-N.jpg,Rebecca,0,0,57,"""",1,"""",3/22/2021 19:55,94.34.154.188,Mozilla/5.0 (Windows NT 10.0; Win64; x64; rv:86.0) Gecko/20100101 Firefox/86.0,,Firefox,86,Windows,10
4,1,null,"""",html-keyboard-response,230,603800,0.0-230.0,"<div style=""font-size:60px;"">+</div>","""",256,ITI,Test,null,1000,"""","""","""","""","""","""","""","""",1,"""",3/22/2021 19:55,94.34.154.188,Mozilla/5.0 (Windows NT 10.0; Win64; x64; rv:86.0) Gecko/20100101 Firefox/86.0,,Firefox,86,Windows,10
4,1,null,"""",image-keyboard-response,231,604085,0.0-231.0,jspsych/scrambledDisgustFaces/scrambledAM07DIS.JPG,"""",256,forwardMask,Test,null,250,"""",d,"""","""","""","""","""","""",1,"""",3/22/2021 19:55,94.34.154.188,Mozilla/5.0 (Windows NT 10.0; Win64; x64; rv:86.0) Gecko/20100101 Firefox/86.0,,Firefox,86,Windows,10
4,1,null,"""",image-keyboard-response,232,604106,0.0-232.0,jspsych/disgustFaces/AM07DIS.JPG,"""",256,Cue,Test,null,16,"""","""","""","""","""","""","""","""",1,"""",3/22/2021 19:55,94.34.154.188,Mozilla/5.0 (Windows NT 10.0; Win64; x64; rv:86.0) Gecko/20100101 Firefox/86.0,,Firefox,86,Windows,10
4,1,null,"""",image-keyboard-response,233,604213,0.0-233.0,jspsych/neutralFaces/AM14NES.JPG,"""",256,backwardMask,Test,null,100,"""","""","""","""","""","""","""","""",1,"""",3/22/2021 19:55,94.34.154.188,Mozilla/5.0 (Windows NT 10.0; Win64; x64; rv:86.0) Gecko/20100101 Firefox/86.0,,Firefox,86,Windows,10
4,1,null,"""",html-keyboard-response,234,605218,0.0-234.0,"<div style=""font-size:60px;"">+</div>","""",256,fixationBtwnNeutralMaskAndPrompt,Test,null,1000,"""","""","""","""","""","""","""","""",1,"""",3/22/2021 19:55,94.34.154.188,Mozilla/5.0 (Windows NT 10.0; Win64; x64; rv:86.0) Gecko/20100101 Firefox/86.0,,Firefox,86,Windows,10
4,1,3391,"""",html-button-response,235,608610,0.0-235.0,"<img src='jspsych/CFDfaces/CFD-AM-231-136-N.jpg' height=""250px"">,</br><b>Christian</b>",0,256,IntactOrRearranged,Test,"""","""","""","""",CFD-LM-252-076-N.jpg,Vincent,1,"""","""",0,1,"""",3/22/2021 19:55,94.34.154.188,Mozilla/5.0 (Windows NT 10.0; Win64; x64; rv:86.0) Gecko/20100101 Firefox/86.0,,Firefox,86,Windows,10
4,1,2252,"""",html-slider-response,236,610875,0.0-236.0,"<img src='jspsych/CFDfaces/CFD-AM-231-136-N.jpg' height=""250px"">,</br><b>Christian</b>","""",256,ConfidenceQuery,Test,"""","""","""","""",CFD-LM-252-076-N.jpg,Vincent,1,0,59,"""",1,"""",3/22/2021 19:55,94.34.154.188,Mozilla/5.0 (Windows NT 10.0; Win64; x64; rv:86.0) Gecko/20100101 Firefox/86.0,,Firefox,86,Windows,10
4,1,null,"""",html-keyboard-response,237,611893,0.0-237.0,"<div style=""font-size:60px;"">+</div>","""",256,ITI,Test,null,1000,"""","""","""","""","""","""","""","""",1,"""",3/22/2021 19:55,94.34.154.188,Mozilla/5.0 (Windows NT 10.0; Win64; x64; rv:86.0) Gecko/20100101 Firefox/86.0,,Firefox,86,Windows,10
4,1,null,"""",image-keyboard-response,238,612170,0.0-238.0,jspsych/scrambledDisgustFaces/scrambledBF22DIS.JPG,"""",256,forwardMask,Test,null,250,"""",d,"""","""","""","""","""","""",1,"""",3/22/2021 19:55,94.34.154.188,Mozilla/5.0 (Windows NT 10.0; Win64; x64; rv:86.0) Gecko/20100101 Firefox/86.0,,Firefox,86,Windows,10
4,1,null,"""",image-keyboard-response,239,612192,0.0-239.0,jspsych/disgustFaces/BF22DIS.JPG,"""",256,Cue,Test,null,16,"""","""","""","""","""","""","""","""",1,"""",3/22/2021 19:55,94.34.154.188,Mozilla/5.0 (Windows NT 10.0; Win64; x64; rv:86.0) Gecko/20100101 Firefox/86.0,,Firefox,86,Windows,10
4,1,null,"""",image-keyboard-response,240,612298,0.0-240.0,jspsych/neutralFaces/AF17NES.JPG,"""",256,backwardMask,Test,null,100,"""","""","""","""","""","""","""","""",1,"""",3/22/2021 19:55,94.34.154.188,Mozilla/5.0 (Windows NT 10.0; Win64; x64; rv:86.0) Gecko/20100101 Firefox/86.0,,Firefox,86,Windows,10
4,1,null,"""",html-keyboard-response,241,613313,0.0-241.0,"<div style=""font-size:60px;"">+</div>","""",256,fixationBtwnNeutralMaskAndPrompt,Test,null,1000,"""","""","""","""","""","""","""","""",1,"""",3/22/2021 19:55,94.34.154.188,Mozilla/5.0 (Windows NT 10.0; Win64; x64; rv:86.0) Gecko/20100101 Firefox/86.0,,Firefox,86,Windows,10
4,1,2612,"""",html-button-response,242,615927,0.0-242.0,"<img src='jspsych/CFDfaces/CFD-BF-004-014-N.jpg' height=""250px"">,</br><b>Ashley</b>",1,256,IntactOrRearranged,Test,"""","""","""","""",CFD-AM-246-184-N.jpg,Mark,1,"""","""",1,1,"""",3/22/2021 19:55,94.34.154.188,Mozilla/5.0 (Windows NT 10.0; Win64; x64; rv:86.0) Gecko/20100101 Firefox/86.0,,Firefox,86,Windows,10
4,1,2537,"""",html-slider-response,243,618477,0.0-243.0,"<img src='jspsych/CFDfaces/CFD-BF-004-014-N.jpg' height=""250px"">,</br><b>Ashley</b>","""",256,ConfidenceQuery,Test,"""","""","""","""",CFD-AM-246-184-N.jpg,Mark,1,0,76,"""",1,"""",3/22/2021 19:55,94.34.154.188,Mozilla/5.0 (Windows NT 10.0; Win64; x64; rv:86.0) Gecko/20100101 Firefox/86.0,,Firefox,86,Windows,10
4,1,null,"""",html-keyboard-response,244,619479,0.0-244.0,"<div style=""font-size:60px;"">+</div>","""",256,ITI,Test,null,1000,"""","""","""","""","""","""","""","""",1,"""",3/22/2021 19:55,94.34.154.188,Mozilla/5.0 (Windows NT 10.0; Win64; x64; rv:86.0) Gecko/20100101 Firefox/86.0,,Firefox,86,Windows,10
4,1,null,"""",image-keyboard-response,245,619745,0.0-245.0,jspsych/scrambledDisgustFaces/scrambledAF02DIS.JPG,"""",256,forwardMask,Test,null,250,"""",d,"""","""","""","""","""","""",1,"""",3/22/2021 19:55,94.34.154.188,Mozilla/5.0 (Windows NT 10.0; Win64; x64; rv:86.0) Gecko/20100101 Firefox/86.0,,Firefox,86,Windows,10
4,1,null,"""",image-keyboard-response,246,619765,0.0-246.0,jspsych/disgustFaces/AF02DIS.JPG,"""",256,Cue,Test,null,16,"""","""","""","""","""","""","""","""",1,"""",3/22/2021 19:55,94.34.154.188,Mozilla/5.0 (Windows NT 10.0; Win64; x64; rv:86.0) Gecko/20100101 Firefox/86.0,,Firefox,86,Windows,10
4,1,null,"""",image-keyboard-response,247,619883,0.0-247.0,jspsych/neutralFaces/BF14NES.JPG,"""",256,backwardMask,Test,null,100,"""","""","""","""","""","""","""","""",1,"""",3/22/2021 19:55,94.34.154.188,Mozilla/5.0 (Windows NT 10.0; Win64; x64; rv:86.0) Gecko/20100101 Firefox/86.0,,Firefox,86,Windows,10
4,1,null,"""",html-keyboard-response,248,620889,0.0-248.0,"<div style=""font-size:60px;"">+</div>","""",256,fixationBtwnNeutralMaskAndPrompt,Test,null,1000,"""","""","""","""","""","""","""","""",1,"""",3/22/2021 19:55,94.34.154.188,Mozilla/5.0 (Windows NT 10.0; Win64; x64; rv:86.0) Gecko/20100101 Firefox/86.0,,Firefox,86,Windows,10
4,1,null,"""",html-button-response,249,625909,0.0-249.0,"<img src='jspsych/CFDfaces/CFD-AF-228-173-N.jpg' height=""250px"">,</br><b>Emily</b>",null,256,IntactOrRearranged,Test,"""","""","""","""",CFD-LM-246-087-N.jpg,Dustin,1,"""","""","""",1,"""",3/22/2021 19:55,94.34.154.188,Mozilla/5.0 (Windows NT 10.0; Win64; x64; rv:86.0) Gecko/20100101 Firefox/86.0,,Firefox,86,Windows,10
4,1,2560,"""",html-slider-response,250,628481,0.0-250.0,"<img src='jspsych/CFDfaces/CFD-AF-228-173-N.jpg' height=""250px"">,</br><b>Emily</b>","""",256,ConfidenceQuery,Test,"""","""","""","""",CFD-LM-246-087-N.jpg,Dustin,1,0,56,"""",1,"""",3/22/2021 19:55,94.34.154.188,Mozilla/5.0 (Windows NT 10.0; Win64; x64; rv:86.0) Gecko/20100101 Firefox/86.0,,Firefox,86,Windows,10
4,1,null,"""",html-keyboard-response,251,629505,0.0-251.0,"<div style=""font-size:60px;"">+</div>","""",256,ITI,Test,null,1000,"""","""","""","""","""","""","""","""",1,"""",3/22/2021 19:55,94.34.154.188,Mozilla/5.0 (Windows NT 10.0; Win64; x64; rv:86.0) Gecko/20100101 Firefox/86.0,,Firefox,86,Windows,10
4,1,null,"""",image-keyboard-response,252,629778,0.0-252.0,jspsych/scrambledDisgustFaces/scrambledAM05DIS.JPG,"""",256,forwardMask,Test,null,250,"""",d,"""","""","""","""","""","""",1,"""",3/22/2021 19:55,94.34.154.188,Mozilla/5.0 (Windows NT 10.0; Win64; x64; rv:86.0) Gecko/20100101 Firefox/86.0,,Firefox,86,Windows,10
4,1,null,"""",image-keyboard-response,253,629815,0.0-253.0,jspsych/disgustFaces/AM05DIS.JPG,"""",256,Cue,Test,null,16,"""","""","""","""","""","""","""","""",1,"""",3/22/2021 19:55,94.34.154.188,Mozilla/5.0 (Windows NT 10.0; Win64; x64; rv:86.0) Gecko/20100101 Firefox/86.0,,Firefox,86,Windows,10
4,1,null,"""",image-keyboard-response,254,629928,0.0-254.0,jspsych/neutralFaces/AM09NES.JPG,"""",256,backwardMask,Test,null,100,"""","""","""","""","""","""","""","""",1,"""",3/22/2021 19:55,94.34.154.188,Mozilla/5.0 (Windows NT 10.0; Win64; x64; rv:86.0) Gecko/20100101 Firefox/86.0,,Firefox,86,Windows,10
4,1,null,"""",html-keyboard-response,255,630945,0.0-255.0,"<div style=""font-size:60px;"">+</div>","""",256,fixationBtwnNeutralMaskAndPrompt,Test,null,1000,"""","""","""","""","""","""","""","""",1,"""",3/22/2021 19:55,94.34.154.188,Mozilla/5.0 (Windows NT 10.0; Win64; x64; rv:86.0) Gecko/20100101 Firefox/86.0,,Firefox,86,Windows,10
4,1,3666,"""",html-button-response,256,634613,0.0-256.0,"<img src='jspsych/CFDfaces/CFD-AF-215-70-N.jpg' height=""250px"">,</br><b>Kayla</b>",0,256,IntactOrRearranged,Test,"""","""","""","""",CFD-BF-019-001-N.jpg,Erin,0,"""","""",0,1,"""",3/22/2021 19:55,94.34.154.188,Mozilla/5.0 (Windows NT 10.0; Win64; x64; rv:86.0) Gecko/20100101 Firefox/86.0,,Firefox,86,Windows,10
4,1,3008,"""",html-slider-response,257,637642,0.0-257.0,"<img src='jspsych/CFDfaces/CFD-AF-215-70-N.jpg' height=""250px"">,</br><b>Kayla</b>","""",256,ConfidenceQuery,Test,"""","""","""","""",CFD-BF-019-001-N.jpg,Erin,0,0,40,"""",1,"""",3/22/2021 19:55,94.34.154.188,Mozilla/5.0 (Windows NT 10.0; Win64; x64; rv:86.0) Gecko/20100101 Firefox/86.0,,Firefox,86,Windows,10
4,1,null,"""",html-keyboard-response,258,638654,0.0-258.0,"<div style=""font-size:60px;"">+</div>","""",256,ITI,Test,null,1000,"""","""","""","""","""","""","""","""",1,"""",3/22/2021 19:55,94.34.154.188,Mozilla/5.0 (Windows NT 10.0; Win64; x64; rv:86.0) Gecko/20100101 Firefox/86.0,,Firefox,86,Windows,10
4,1,null,"""",image-keyboard-response,259,638945,0.0-259.0,jspsych/scrambledDisgustFaces/scrambledAF34DIS.JPG,"""",256,forwardMask,Test,null,250,"""",d,"""","""","""","""","""","""",1,"""",3/22/2021 19:55,94.34.154.188,Mozilla/5.0 (Windows NT 10.0; Win64; x64; rv:86.0) Gecko/20100101 Firefox/86.0,,Firefox,86,Windows,10
4,1,null,"""",image-keyboard-response,260,638983,0.0-260.0,jspsych/disgustFaces/AF34DIS.JPG,"""",256,Cue,Test,null,16,"""","""","""","""","""","""","""","""",1,"""",3/22/2021 19:55,94.34.154.188,Mozilla/5.0 (Windows NT 10.0; Win64; x64; rv:86.0) Gecko/20100101 Firefox/86.0,,Firefox,86,Windows,10
4,1,null,"""",image-keyboard-response,261,639089,0.0-261.0,jspsych/neutralFaces/AF03NES.JPG,"""",256,backwardMask,Test,null,100,"""","""","""","""","""","""","""","""",1,"""",3/22/2021 19:55,94.34.154.188,Mozilla/5.0 (Windows NT 10.0; Win64; x64; rv:86.0) Gecko/20100101 Firefox/86.0,,Firefox,86,Windows,10
4,1,null,"""",html-keyboard-response,262,640105,0.0-262.0,"<div style=""font-size:60px;"">+</div>","""",256,fixationBtwnNeutralMaskAndPrompt,Test,null,1000,"""","""","""","""","""","""","""","""",1,"""",3/22/2021 19:55,94.34.154.188,Mozilla/5.0 (Windows NT 10.0; Win64; x64; rv:86.0) Gecko/20100101 Firefox/86.0,,Firefox,86,Windows,10
4,1,3016,"""",html-button-response,263,643124,0.0-263.0,"<img src='jspsych/CFDfaces/CFD-BM-208-065-N.jpg' height=""250px"">,</br><b>Brandon</b>",1,256,IntactOrRearranged,Test,"""","""","""","""",CFD-LF-236-221-N.jpg,Angela,0,"""","""",1,1,"""",3/22/2021 19:55,94.34.154.188,Mozilla/5.0 (Windows NT 10.0; Win64; x64; rv:86.0) Gecko/20100101 Firefox/86.0,,Firefox,86,Windows,10
4,1,2255,"""",html-slider-response,264,645396,0.0-264.0,"<img src='jspsych/CFDfaces/CFD-BM-208-065-N.jpg' height=""250px"">,</br><b>Brandon</b>","""",256,ConfidenceQuery,Test,"""","""","""","""",CFD-LF-236-221-N.jpg,Angela,0,0,39,"""",1,"""",3/22/2021 19:55,94.34.154.188,Mozilla/5.0 (Windows NT 10.0; Win64; x64; rv:86.0) Gecko/20100101 Firefox/86.0,,Firefox,86,Windows,10
4,1,null,"""",html-keyboard-response,265,646410,0.0-265.0,"<div style=""font-size:60px;"">+</div>","""",256,ITI,Test,null,1000,"""","""","""","""","""","""","""","""",1,"""",3/22/2021 19:55,94.34.154.188,Mozilla/5.0 (Windows NT 10.0; Win64; x64; rv:86.0) Gecko/20100101 Firefox/86.0,,Firefox,86,Windows,10
4,1,null,"""",image-keyboard-response,266,646684,0.0-266.0,jspsych/scrambledNeutralFaces/scrambledBF15NES.JPG,"""",256,forwardMask,Test,null,250,"""",n,"""","""","""","""","""","""",1,"""",3/22/2021 19:55,94.34.154.188,Mozilla/5.0 (Windows NT 10.0; Win64; x64; rv:86.0) Gecko/20100101 Firefox/86.0,,Firefox,86,Windows,10
4,1,null,"""",image-keyboard-response,267,646715,0.0-267.0,jspsych/neutralFaces/BF15NES.JPG,"""",256,Cue,Test,null,16,"""","""","""","""","""","""","""","""",1,"""",3/22/2021 19:55,94.34.154.188,Mozilla/5.0 (Windows NT 10.0; Win64; x64; rv:86.0) Gecko/20100101 Firefox/86.0,,Firefox,86,Windows,10
4,1,null,"""",image-keyboard-response,268,646824,0.0-268.0,jspsych/neutralFaces/BF18NES.JPG,"""",256,backwardMask,Test,null,100,"""","""","""","""","""","""","""","""",1,"""",3/22/2021 19:55,94.34.154.188,Mozilla/5.0 (Windows NT 10.0; Win64; x64; rv:86.0) Gecko/20100101 Firefox/86.0,,Firefox,86,Windows,10
4,1,null,"""",html-keyboard-response,269,647836,0.0-269.0,"<div style=""font-size:60px;"">+</div>","""",256,fixationBtwnNeutralMaskAndPrompt,Test,null,1000,"""","""","""","""","""","""","""","""",1,"""",3/22/2021 19:55,94.34.154.188,Mozilla/5.0 (Windows NT 10.0; Win64; x64; rv:86.0) Gecko/20100101 Firefox/86.0,,Firefox,86,Windows,10
4,1,2817,"""",html-button-response,270,650654,0.0-270.0,"<img src='jspsych/CFDfaces/CFD-LF-204-133-N.jpg' height=""250px"">,</br><b>Elizabeth</b>",1,256,IntactOrRearranged,Test,"""","""","""","""",CFD-WM-017-002-N.jpg,Luis,1,"""","""",1,1,"""",3/22/2021 19:55,94.34.154.188,Mozilla/5.0 (Windows NT 10.0; Win64; x64; rv:86.0) Gecko/20100101 Firefox/86.0,,Firefox,86,Windows,10
4,1,2287,"""",html-slider-response,271,652956,0.0-271.0,"<img src='jspsych/CFDfaces/CFD-LF-204-133-N.jpg' height=""250px"">,</br><b>Elizabeth</b>","""",256,ConfidenceQuery,Test,"""","""","""","""",CFD-WM-017-002-N.jpg,Luis,1,0,44,"""",1,"""",3/22/2021 19:55,94.34.154.188,Mozilla/5.0 (Windows NT 10.0; Win64; x64; rv:86.0) Gecko/20100101 Firefox/86.0,,Firefox,86,Windows,10
4,1,null,"""",html-keyboard-response,272,653979,0.0-272.0,"<div style=""font-size:60px;"">+</div>","""",256,ITI,Test,null,1000,"""","""","""","""","""","""","""","""",1,"""",3/22/2021 19:55,94.34.154.188,Mozilla/5.0 (Windows NT 10.0; Win64; x64; rv:86.0) Gecko/20100101 Firefox/86.0,,Firefox,86,Windows,10
4,1,null,"""",image-keyboard-response,273,654247,0.0-273.0,jspsych/scrambledNeutralFaces/scrambledAF33NES.JPG,"""",256,forwardMask,Test,null,250,"""",n,"""","""","""","""","""","""",1,"""",3/22/2021 19:55,94.34.154.188,Mozilla/5.0 (Windows NT 10.0; Win64; x64; rv:86.0) Gecko/20100101 Firefox/86.0,,Firefox,86,Windows,10
4,1,null,"""",image-keyboard-response,274,654267,0.0-274.0,jspsych/neutralFaces/AF33NES.JPG,"""",256,Cue,Test,null,16,"""","""","""","""","""","""","""","""",1,"""",3/22/2021 19:55,94.34.154.188,Mozilla/5.0 (Windows NT 10.0; Win64; x64; rv:86.0) Gecko/20100101 Firefox/86.0,,Firefox,86,Windows,10
4,1,null,"""",image-keyboard-response,275,654375,0.0-275.0,jspsych/neutralFaces/BF05NES.JPG,"""",256,backwardMask,Test,null,100,"""","""","""","""","""","""","""","""",1,"""",3/22/2021 19:55,94.34.154.188,Mozilla/5.0 (Windows NT 10.0; Win64; x64; rv:86.0) Gecko/20100101 Firefox/86.0,,Firefox,86,Windows,10
4,1,null,"""",html-keyboard-response,276,655389,0.0-276.0,"<div style=""font-size:60px;"">+</div>","""",256,fixationBtwnNeutralMaskAndPrompt,Test,null,1000,"""","""","""","""","""","""","""","""",1,"""",3/22/2021 19:55,94.34.154.188,Mozilla/5.0 (Windows NT 10.0; Win64; x64; rv:86.0) Gecko/20100101 Firefox/86.0,,Firefox,86,Windows,10
4,1,4363,"""",html-button-response,277,659755,0.0-277.0,"<img src='jspsych/CFDfaces/CFD-WM-003-002-N.jpg' height=""250px"">,</br><b>James</b>",1,256,IntactOrRearranged,Test,"""","""","""","""",CFD-BF-212-315-N.jpg,Amy,1,"""","""",1,1,"""",3/22/2021 19:55,94.34.154.188,Mozilla/5.0 (Windows NT 10.0; Win64; x64; rv:86.0) Gecko/20100101 Firefox/86.0,,Firefox,86,Windows,10
4,1,2358,"""",html-slider-response,278,662132,0.0-278.0,"<img src='jspsych/CFDfaces/CFD-WM-003-002-N.jpg' height=""250px"">,</br><b>James</b>","""",256,ConfidenceQuery,Test,"""","""","""","""",CFD-BF-212-315-N.jpg,Amy,1,0,59,"""",1,"""",3/22/2021 19:55,94.34.154.188,Mozilla/5.0 (Windows NT 10.0; Win64; x64; rv:86.0) Gecko/20100101 Firefox/86.0,,Firefox,86,Windows,10
4,1,null,"""",html-keyboard-response,279,663141,0.0-279.0,"<div style=""font-size:60px;"">+</div>","""",256,ITI,Test,null,1000,"""","""","""","""","""","""","""","""",1,"""",3/22/2021 19:55,94.34.154.188,Mozilla/5.0 (Windows NT 10.0; Win64; x64; rv:86.0) Gecko/20100101 Firefox/86.0,,Firefox,86,Windows,10
4,1,null,"""",image-keyboard-response,280,663411,0.0-280.0,jspsych/scrambledNeutralFaces/scrambledBM27NES.JPG,"""",256,forwardMask,Test,null,250,"""",n,"""","""","""","""","""","""",1,"""",3/22/2021 19:55,94.34.154.188,Mozilla/5.0 (Windows NT 10.0; Win64; x64; rv:86.0) Gecko/20100101 Firefox/86.0,,Firefox,86,Windows,10
4,1,null,"""",image-keyboard-response,281,663433,0.0-281.0,jspsych/neutralFaces/BM27NES.JPG,"""",256,Cue,Test,null,16,"""","""","""","""","""","""","""","""",1,"""",3/22/2021 19:55,94.34.154.188,Mozilla/5.0 (Windows NT 10.0; Win64; x64; rv:86.0) Gecko/20100101 Firefox/86.0,,Firefox,86,Windows,10
4,1,null,"""",image-keyboard-response,282,663539,0.0-282.0,jspsych/neutralFaces/BM33NES.JPG,"""",256,backwardMask,Test,null,100,"""","""","""","""","""","""","""","""",1,"""",3/22/2021 19:55,94.34.154.188,Mozilla/5.0 (Windows NT 10.0; Win64; x64; rv:86.0) Gecko/20100101 Firefox/86.0,,Firefox,86,Windows,10
4,1,null,"""",html-keyboard-response,283,664570,0.0-283.0,"<div style=""font-size:60px;"">+</div>","""",256,fixationBtwnNeutralMaskAndPrompt,Test,null,1000,"""","""","""","""","""","""","""","""",1,"""",3/22/2021 19:55,94.34.154.188,Mozilla/5.0 (Windows NT 10.0; Win64; x64; rv:86.0) Gecko/20100101 Firefox/86.0,,Firefox,86,Windows,10
4,1,2462,"""",html-button-response,284,667033,0.0-284.0,"<img src='jspsych/CFDfaces/CFD-WM-213-076-N.jpg' height=""250px"">,</br><b>Richard</b>",1,256,IntactOrRearranged,Test,"""","""","""","""",CFD-WF-038-021-N.jpg,Jordan,1,"""","""",1,1,"""",3/22/2021 19:55,94.34.154.188,Mozilla/5.0 (Windows NT 10.0; Win64; x64; rv:86.0) Gecko/20100101 Firefox/86.0,,Firefox,86,Windows,10
4,1,2171,"""",html-slider-response,285,669222,0.0-285.0,"<img src='jspsych/CFDfaces/CFD-WM-213-076-N.jpg' height=""250px"">,</br><b>Richard</b>","""",256,ConfidenceQuery,Test,"""","""","""","""",CFD-WF-038-021-N.jpg,Jordan,1,0,58,"""",1,"""",3/22/2021 19:55,94.34.154.188,Mozilla/5.0 (Windows NT 10.0; Win64; x64; rv:86.0) Gecko/20100101 Firefox/86.0,,Firefox,86,Windows,10
4,1,null,"""",html-keyboard-response,286,670227,0.0-286.0,"<div style=""font-size:60px;"">+</div>","""",256,ITI,Test,null,1000,"""","""","""","""","""","""","""","""",1,"""",3/22/2021 19:55,94.34.154.188,Mozilla/5.0 (Windows NT 10.0; Win64; x64; rv:86.0) Gecko/20100101 Firefox/86.0,,Firefox,86,Windows,10
4,1,null,"""",image-keyboard-response,287,670504,0.0-287.0,jspsych/scrambledDisgustFaces/scrambledAF31DIS.JPG,"""",256,forwardMask,Test,null,250,"""",d,"""","""","""","""","""","""",1,"""",3/22/2021 19:55,94.34.154.188,Mozilla/5.0 (Windows NT 10.0; Win64; x64; rv:86.0) Gecko/20100101 Firefox/86.0,,Firefox,86,Windows,10
4,1,null,"""",image-keyboard-response,288,670525,0.0-288.0,jspsych/disgustFaces/AF31DIS.JPG,"""",256,Cue,Test,null,16,"""","""","""","""","""","""","""","""",1,"""",3/22/2021 19:55,94.34.154.188,Mozilla/5.0 (Windows NT 10.0; Win64; x64; rv:86.0) Gecko/20100101 Firefox/86.0,,Firefox,86,Windows,10
4,1,null,"""",image-keyboard-response,289,670641,0.0-289.0,jspsych/neutralFaces/BF26NES.JPG,"""",256,backwardMask,Test,null,100,"""","""","""","""","""","""","""","""",1,"""",3/22/2021 19:55,94.34.154.188,Mozilla/5.0 (Windows NT 10.0; Win64; x64; rv:86.0) Gecko/20100101 Firefox/86.0,,Firefox,86,Windows,10
4,1,null,"""",html-keyboard-response,290,671657,0.0-290.0,"<div style=""font-size:60px;"">+</div>","""",256,fixationBtwnNeutralMaskAndPrompt,Test,null,1000,"""","""","""","""","""","""","""","""",1,"""",3/22/2021 19:55,94.34.154.188,Mozilla/5.0 (Windows NT 10.0; Win64; x64; rv:86.0) Gecko/20100101 Firefox/86.0,,Firefox,86,Windows,10
4,1,4374,"""",html-button-response,291,676032,0.0-291.0,"<img src='jspsych/CFDfaces/CFD-BM-018-001-N.jpg' height=""250px"">,</br><b>Peter</b>",1,256,IntactOrRearranged,Test,"""","""","""","""",CFD-BM-001-014-N.jpg,Steven,0,"""","""",1,1,"""",3/22/2021 19:55,94.34.154.188,Mozilla/5.0 (Windows NT 10.0; Win64; x64; rv:86.0) Gecko/20100101 Firefox/86.0,,Firefox,86,Windows,10
4,1,2624,"""",html-slider-response,292,678674,0.0-292.0,"<img src='jspsych/CFDfaces/CFD-BM-018-001-N.jpg' height=""250px"">,</br><b>Peter</b>","""",256,ConfidenceQuery,Test,"""","""","""","""",CFD-BM-001-014-N.jpg,Steven,0,0,41,"""",1,"""",3/22/2021 19:55,94.34.154.188,Mozilla/5.0 (Windows NT 10.0; Win64; x64; rv:86.0) Gecko/20100101 Firefox/86.0,,Firefox,86,Windows,10
4,1,null,"""",html-keyboard-response,293,679687,0.0-293.0,"<div style=""font-size:60px;"">+</div>","""",256,ITI,Test,null,1000,"""","""","""","""","""","""","""","""",1,"""",3/22/2021 19:55,94.34.154.188,Mozilla/5.0 (Windows NT 10.0; Win64; x64; rv:86.0) Gecko/20100101 Firefox/86.0,,Firefox,86,Windows,10
4,1,null,"""",image-keyboard-response,294,679955,0.0-294.0,jspsych/scrambledDisgustFaces/scrambledAF29DIS.JPG,"""",256,forwardMask,Test,null,250,"""",d,"""","""","""","""","""","""",1,"""",3/22/2021 19:55,94.34.154.188,Mozilla/5.0 (Windows NT 10.0; Win64; x64; rv:86.0) Gecko/20100101 Firefox/86.0,,Firefox,86,Windows,10
4,1,null,"""",image-keyboard-response,295,679986,0.0-295.0,jspsych/disgustFaces/AF29DIS.JPG,"""",256,Cue,Test,null,16,"""","""","""","""","""","""","""","""",1,"""",3/22/2021 19:55,94.34.154.188,Mozilla/5.0 (Windows NT 10.0; Win64; x64; rv:86.0) Gecko/20100101 Firefox/86.0,,Firefox,86,Windows,10
4,1,null,"""",image-keyboard-response,296,680092,0.0-296.0,jspsych/neutralFaces/AF23NES.JPG,"""",256,backwardMask,Test,null,100,"""","""","""","""","""","""","""","""",1,"""",3/22/2021 19:55,94.34.154.188,Mozilla/5.0 (Windows NT 10.0; Win64; x64; rv:86.0) Gecko/20100101 Firefox/86.0,,Firefox,86,Windows,10
4,1,null,"""",html-keyboard-response,297,681107,0.0-297.0,"<div style=""font-size:60px;"">+</div>","""",256,fixationBtwnNeutralMaskAndPrompt,Test,null,1000,"""","""","""","""","""","""","""","""",1,"""",3/22/2021 19:55,94.34.154.188,Mozilla/5.0 (Windows NT 10.0; Win64; x64; rv:86.0) Gecko/20100101 Firefox/86.0,,Firefox,86,Windows,10
