run_id,condition,rt,responses,trial_type,trial_index,time_elapsed,internal_node_id,stimulus,button_pressed,iTrial,Phase,ExperimentPhase,key_press,StimulusDurationSetting,CharacterResponse,correctResponse,Face,Name,rearranged,slider_start,response,didSubjectEnterRearranged,Block,question_order,recorded_at,ip,user_agent,device,browser,browser_version,platform,platform_version
9,1,12080,"{""Q0"":""AONO3UYAMOOV4""}",survey-text,0,12081,0.0-0.0,"""","""","""","""","""","""","""","""","""","""","""","""","""","""","""","""","""",3/22/2021 20:14,103.55.45.182,Mozilla/5.0 (Windows NT 10.0; Win64; x64; rv:85.0) Gecko/20100101 Firefox/85.0,,Firefox,85,Windows,10
9,1,35091,"""",image-button-response,1,47211,0.0-1.0,directionsMemoryAssociation1.JPG,0,1,IntroDirections1,break,"""","""","""","""","""","""","""","""","""","""","""","""",3/22/2021 20:14,103.55.45.182,Mozilla/5.0 (Windows NT 10.0; Win64; x64; rv:85.0) Gecko/20100101 Firefox/85.0,,Firefox,85,Windows,10
9,1,25687,"""",image-button-response,2,72902,0.0-2.0,directionsMemoryAssociation2.JPG,0,1,IntroDirections2,break,"""","""","""","""","""","""","""","""","""","""","""","""",3/22/2021 20:14,103.55.45.182,Mozilla/5.0 (Windows NT 10.0; Win64; x64; rv:85.0) Gecko/20100101 Firefox/85.0,,Firefox,85,Windows,10
9,1,null,"""",html-keyboard-response,3,77904,0.0-3.0,"<img src='jspsych/CFDfaces/CFD-LM-246-087-N.jpg' height=""250px"">,</br><b>Carlos</b>","""",1,IntactFace,Practice,null,5000,"""","""","""","""","""","""","""","""","""","""",3/22/2021 20:14,103.55.45.182,Mozilla/5.0 (Windows NT 10.0; Win64; x64; rv:85.0) Gecko/20100101 Firefox/85.0,,Firefox,85,Windows,10
9,1,null,"""",html-keyboard-response,4,78406,0.0-4.0,"<div style=""font-size:60px;"">+</div>","""",1,ITI,Practice,null,1000,"""","""","""","""","""","""","""","""","""","""",3/22/2021 20:14,103.55.45.182,Mozilla/5.0 (Windows NT 10.0; Win64; x64; rv:85.0) Gecko/20100101 Firefox/85.0,,Firefox,85,Windows,10
9,1,2752,"""",html-keyboard-response,5,83408,0.0-5.0,"<img src='jspsych/CFDfaces/CFD-AF-233-190-N.jpg' height=""250px"">,</br><b>Cassandra</b>","""",2,IntactFace,Practice,78,5000,n,"""","""","""","""","""","""","""","""","""",3/22/2021 20:14,103.55.45.182,Mozilla/5.0 (Windows NT 10.0; Win64; x64; rv:85.0) Gecko/20100101 Firefox/85.0,,Firefox,85,Windows,10
9,1,null,"""",html-keyboard-response,6,83909,0.0-6.0,"<div style=""font-size:60px;"">+</div>","""",2,ITI,Practice,null,1000,"""","""","""","""","""","""","""","""","""","""",3/22/2021 20:14,103.55.45.182,Mozilla/5.0 (Windows NT 10.0; Win64; x64; rv:85.0) Gecko/20100101 Firefox/85.0,,Firefox,85,Windows,10
9,1,1872,"""",html-keyboard-response,7,88911,0.0-7.0,"<img src='jspsych/CFDfaces/CFD-AM-212-050-N.jpg' height=""250px"">,</br><b>Marcus</b>","""",3,IntactFace,Practice,78,5000,n,"""","""","""","""","""","""","""","""","""",3/22/2021 20:14,103.55.45.182,Mozilla/5.0 (Windows NT 10.0; Win64; x64; rv:85.0) Gecko/20100101 Firefox/85.0,,Firefox,85,Windows,10
9,1,null,"""",html-keyboard-response,8,89412,0.0-8.0,"<div style=""font-size:60px;"">+</div>","""",3,ITI,Practice,null,1000,"""","""","""","""","""","""","""","""","""","""",3/22/2021 20:14,103.55.45.182,Mozilla/5.0 (Windows NT 10.0; Win64; x64; rv:85.0) Gecko/20100101 Firefox/85.0,,Firefox,85,Windows,10
9,1,2097,"""",html-keyboard-response,9,94413,0.0-9.0,"<img src='jspsych/CFDfaces/CFD-BM-210-148-N.jpg' height=""250px"">,</br><b>Patrick</b>","""",4,IntactFace,Practice,70,5000,f,"""","""","""","""","""","""","""","""","""",3/22/2021 20:14,103.55.45.182,Mozilla/5.0 (Windows NT 10.0; Win64; x64; rv:85.0) Gecko/20100101 Firefox/85.0,,Firefox,85,Windows,10
9,1,null,"""",html-keyboard-response,10,94913,0.0-10.0,"<div style=""font-size:60px;"">+</div>","""",4,ITI,Practice,null,1000,"""","""","""","""","""","""","""","""","""","""",3/22/2021 20:14,103.55.45.182,Mozilla/5.0 (Windows NT 10.0; Win64; x64; rv:85.0) Gecko/20100101 Firefox/85.0,,Firefox,85,Windows,10
9,1,2000,"""",html-keyboard-response,11,99916,0.0-11.0,"<img src='jspsych/CFDfaces/CFD-BM-011-016-N.jpg' height=""250px"">,</br><b>Samuel</b>","""",5,IntactFace,Practice,70,5000,f,"""","""","""","""","""","""","""","""","""",3/22/2021 20:14,103.55.45.182,Mozilla/5.0 (Windows NT 10.0; Win64; x64; rv:85.0) Gecko/20100101 Firefox/85.0,,Firefox,85,Windows,10
9,1,null,"""",html-keyboard-response,12,100416,0.0-12.0,"<div style=""font-size:60px;"">+</div>","""",5,ITI,Practice,null,1000,"""","""","""","""","""","""","""","""","""","""",3/22/2021 20:14,103.55.45.182,Mozilla/5.0 (Windows NT 10.0; Win64; x64; rv:85.0) Gecko/20100101 Firefox/85.0,,Firefox,85,Windows,10
9,1,2723,"""",html-keyboard-response,13,105417,0.0-13.0,"<img src='jspsych/CFDfaces/CFD-WF-006-002-N.jpg' height=""250px"">,</br><b>Katelyn</b>","""",6,IntactFace,Practice,70,5000,f,"""","""","""","""","""","""","""","""","""",3/22/2021 20:14,103.55.45.182,Mozilla/5.0 (Windows NT 10.0; Win64; x64; rv:85.0) Gecko/20100101 Firefox/85.0,,Firefox,85,Windows,10
9,1,null,"""",html-keyboard-response,14,105919,0.0-14.0,"<div style=""font-size:60px;"">+</div>","""",6,ITI,Practice,null,1000,"""","""","""","""","""","""","""","""","""","""",3/22/2021 20:14,103.55.45.182,Mozilla/5.0 (Windows NT 10.0; Win64; x64; rv:85.0) Gecko/20100101 Firefox/85.0,,Firefox,85,Windows,10
9,1,1843,"""",html-keyboard-response,15,110921,0.0-15.0,"<img src='jspsych/CFDfaces/CFD-AF-228-173-N.jpg' height=""250px"">,</br><b>Shannon</b>","""",7,IntactFace,Practice,78,5000,n,"""","""","""","""","""","""","""","""","""",3/22/2021 20:14,103.55.45.182,Mozilla/5.0 (Windows NT 10.0; Win64; x64; rv:85.0) Gecko/20100101 Firefox/85.0,,Firefox,85,Windows,10
9,1,null,"""",html-keyboard-response,16,111421,0.0-16.0,"<div style=""font-size:60px;"">+</div>","""",7,ITI,Practice,null,1000,"""","""","""","""","""","""","""","""","""","""",3/22/2021 20:14,103.55.45.182,Mozilla/5.0 (Windows NT 10.0; Win64; x64; rv:85.0) Gecko/20100101 Firefox/85.0,,Firefox,85,Windows,10
9,1,2410,"""",html-keyboard-response,17,116423,0.0-17.0,"<img src='jspsych/CFDfaces/CFD-LF-204-133-N.jpg' height=""250px"">,</br><b>Tara</b>","""",8,IntactFace,Practice,78,5000,n,"""","""","""","""","""","""","""","""","""",3/22/2021 20:14,103.55.45.182,Mozilla/5.0 (Windows NT 10.0; Win64; x64; rv:85.0) Gecko/20100101 Firefox/85.0,,Firefox,85,Windows,10
9,1,null,"""",html-keyboard-response,18,116924,0.0-18.0,"<div style=""font-size:60px;"">+</div>","""",8,ITI,Practice,null,1000,"""","""","""","""","""","""","""","""","""","""",3/22/2021 20:14,103.55.45.182,Mozilla/5.0 (Windows NT 10.0; Win64; x64; rv:85.0) Gecko/20100101 Firefox/85.0,,Firefox,85,Windows,10
9,1,35394,"""",image-button-response,19,152321,0.0-19.0,directionsForTest.JPG,0,1,directionsForTest,break,"""","""","""","""","""","""","""","""","""","""","""","""",3/22/2021 20:14,103.55.45.182,Mozilla/5.0 (Windows NT 10.0; Win64; x64; rv:85.0) Gecko/20100101 Firefox/85.0,,Firefox,85,Windows,10
9,1,15397,"""",image-button-response,20,167720,0.0-20.0,directionsForTest2.JPG,0,1,directionsForTest2,break,"""","""","""","""","""","""","""","""","""","""","""","""",3/22/2021 20:14,103.55.45.182,Mozilla/5.0 (Windows NT 10.0; Win64; x64; rv:85.0) Gecko/20100101 Firefox/85.0,,Firefox,85,Windows,10
9,1,null,"""",html-keyboard-response,21,168722,0.0-21.0,"<div style=""font-size:60px;"">+</div>","""",1,ITI,Practice,null,1000,"""","""","""","""","""","""","""","""","""","""",3/22/2021 20:14,103.55.45.182,Mozilla/5.0 (Windows NT 10.0; Win64; x64; rv:85.0) Gecko/20100101 Firefox/85.0,,Firefox,85,Windows,10
9,1,null,"""",image-keyboard-response,22,168973,0.0-22.0,jspsych/scrambledDisgustFaces/scrambledAF16DIS.JPG,"""",1,forwardMask,Practice,null,250,"""",d,"""","""","""","""","""","""","""","""",3/22/2021 20:14,103.55.45.182,Mozilla/5.0 (Windows NT 10.0; Win64; x64; rv:85.0) Gecko/20100101 Firefox/85.0,,Firefox,85,Windows,10
9,1,null,"""",image-keyboard-response,23,168993,0.0-23.0,jspsych/disgustFaces/AF16DIS.JPG,"""",1,Cue,Practice,null,16,"""","""","""","""","""","""","""","""","""","""",3/22/2021 20:14,103.55.45.182,Mozilla/5.0 (Windows NT 10.0; Win64; x64; rv:85.0) Gecko/20100101 Firefox/85.0,,Firefox,85,Windows,10
9,1,null,"""",image-keyboard-response,24,169094,0.0-24.0,jspsych/neutralFaces/BF01NES.JPG,"""",1,backwardMask,Practice,null,100,"""","""","""","""","""","""","""","""","""","""",3/22/2021 20:14,103.55.45.182,Mozilla/5.0 (Windows NT 10.0; Win64; x64; rv:85.0) Gecko/20100101 Firefox/85.0,,Firefox,85,Windows,10
9,1,null,"""",html-keyboard-response,25,170096,0.0-25.0,"<div style=""font-size:60px;"">+</div>","""",1,fixationBtwnNeutralMaskAndPrompt,Practice,null,1000,"""","""","""","""","""","""","""","""","""","""",3/22/2021 20:14,103.55.45.182,Mozilla/5.0 (Windows NT 10.0; Win64; x64; rv:85.0) Gecko/20100101 Firefox/85.0,,Firefox,85,Windows,10
9,1,null,"""",html-button-response,26,175099,0.0-26.0,"<img src='jspsych/CFDfaces/CFD-AM-212-050-N.jpg'height=""250px""></br><b>Carlos</b>",null,1,IntactOrRearranged,Practice,"""","""","""","""",CFD-AM-212-050-N.jpg,Carlos,1,"""","""","""","""","""",3/22/2021 20:14,103.55.45.182,Mozilla/5.0 (Windows NT 10.0; Win64; x64; rv:85.0) Gecko/20100101 Firefox/85.0,,Firefox,85,Windows,10
9,1,2818,"""",html-slider-response,27,177919,0.0-27.0,"<img src='jspsych/CFDfaces/CFD-AM-212-050-N.jpg'height=""250px""></br><b>Carlos</b>","""",1,ConfidenceQuery,Practice,"""","""","""","""",CFD-AM-242-176-N.jpg,Justin,1,0,0,"""","""","""",3/22/2021 20:14,103.55.45.182,Mozilla/5.0 (Windows NT 10.0; Win64; x64; rv:85.0) Gecko/20100101 Firefox/85.0,,Firefox,85,Windows,10
9,1,3586,"""",html-button-response,28,181506,0.0-28.0,<p>Please click either button: REARRANGED or INTACT before the 5-second time limit.</p>,0,1,feedback,Practice,"""","""","""","""","""","""","""","""","""","""","""","""",3/22/2021 20:14,103.55.45.182,Mozilla/5.0 (Windows NT 10.0; Win64; x64; rv:85.0) Gecko/20100101 Firefox/85.0,,Firefox,85,Windows,10
9,1,null,"""",html-keyboard-response,29,182507,0.0-29.0,"<div style=""font-size:60px;"">+</div>","""",2,ITI,Practice,null,1000,"""","""","""","""","""","""","""","""","""","""",3/22/2021 20:14,103.55.45.182,Mozilla/5.0 (Windows NT 10.0; Win64; x64; rv:85.0) Gecko/20100101 Firefox/85.0,,Firefox,85,Windows,10
9,1,null,"""",image-keyboard-response,30,182759,0.0-30.0,jspsych/scrambledDisgustFaces/scrambledAF21DIS.JPG,"""",2,forwardMask,Practice,null,250,"""",d,"""","""","""","""","""","""","""","""",3/22/2021 20:14,103.55.45.182,Mozilla/5.0 (Windows NT 10.0; Win64; x64; rv:85.0) Gecko/20100101 Firefox/85.0,,Firefox,85,Windows,10
9,1,null,"""",image-keyboard-response,31,182778,0.0-31.0,jspsych/disgustFaces/AF21DIS.JPG,"""",2,Cue,Practice,null,16,"""","""","""","""","""","""","""","""","""","""",3/22/2021 20:14,103.55.45.182,Mozilla/5.0 (Windows NT 10.0; Win64; x64; rv:85.0) Gecko/20100101 Firefox/85.0,,Firefox,85,Windows,10
9,1,null,"""",image-keyboard-response,32,182880,0.0-32.0,jspsych/neutralFaces/BF18NES.JPG,"""",2,backwardMask,Practice,null,100,"""","""","""","""","""","""","""","""","""","""",3/22/2021 20:14,103.55.45.182,Mozilla/5.0 (Windows NT 10.0; Win64; x64; rv:85.0) Gecko/20100101 Firefox/85.0,,Firefox,85,Windows,10
9,1,null,"""",html-keyboard-response,33,183881,0.0-33.0,"<div style=""font-size:60px;"">+</div>","""",2,fixationBtwnNeutralMaskAndPrompt,Practice,null,1000,"""","""","""","""","""","""","""","""","""","""",3/22/2021 20:14,103.55.45.182,Mozilla/5.0 (Windows NT 10.0; Win64; x64; rv:85.0) Gecko/20100101 Firefox/85.0,,Firefox,85,Windows,10
9,1,2248,"""",html-button-response,34,186129,0.0-34.0,"<img src='jspsych/CFDfaces/CFD-LF-204-133-N.jpg'height=""250px""></br><b>Tara</b>",0,2,IntactOrRearranged,Practice,"""","""","""","""",CFD-LF-204-133-N.jpg,Tara,0,"""","""",0,"""","""",3/22/2021 20:14,103.55.45.182,Mozilla/5.0 (Windows NT 10.0; Win64; x64; rv:85.0) Gecko/20100101 Firefox/85.0,,Firefox,85,Windows,10
9,1,2295,"""",html-slider-response,35,188426,0.0-35.0,"<img src='jspsych/CFDfaces/CFD-LF-204-133-N.jpg'height=""250px""></br><b>Tara</b>","""",2,ConfidenceQuery,Practice,"""","""","""","""",CFD-AM-242-176-N.jpg,Justin,0,0,80,"""","""","""",3/22/2021 20:14,103.55.45.182,Mozilla/5.0 (Windows NT 10.0; Win64; x64; rv:85.0) Gecko/20100101 Firefox/85.0,,Firefox,85,Windows,10
9,1,1361,"""",html-button-response,36,189788,0.0-36.0,You are Correct. You called an Intact Pair Intact,0,2,feedback,Practice,"""","""","""","""","""","""","""","""","""","""","""","""",3/22/2021 20:14,103.55.45.182,Mozilla/5.0 (Windows NT 10.0; Win64; x64; rv:85.0) Gecko/20100101 Firefox/85.0,,Firefox,85,Windows,10
9,1,null,"""",html-keyboard-response,37,190790,0.0-37.0,"<div style=""font-size:60px;"">+</div>","""",3,ITI,Practice,null,1000,"""","""","""","""","""","""","""","""","""","""",3/22/2021 20:14,103.55.45.182,Mozilla/5.0 (Windows NT 10.0; Win64; x64; rv:85.0) Gecko/20100101 Firefox/85.0,,Firefox,85,Windows,10
9,1,null,"""",image-keyboard-response,38,191041,0.0-38.0,jspsych/scrambledDisgustFaces/scrambledAM09DIS.JPG,"""",3,forwardMask,Practice,null,250,"""",d,"""","""","""","""","""","""","""","""",3/22/2021 20:14,103.55.45.182,Mozilla/5.0 (Windows NT 10.0; Win64; x64; rv:85.0) Gecko/20100101 Firefox/85.0,,Firefox,85,Windows,10
9,1,null,"""",image-keyboard-response,39,191060,0.0-39.0,jspsych/disgustFaces/AM09DIS.JPG,"""",3,Cue,Practice,null,16,"""","""","""","""","""","""","""","""","""","""",3/22/2021 20:14,103.55.45.182,Mozilla/5.0 (Windows NT 10.0; Win64; x64; rv:85.0) Gecko/20100101 Firefox/85.0,,Firefox,85,Windows,10
9,1,null,"""",image-keyboard-response,40,191162,0.0-40.0,jspsych/neutralFaces/BM23NES.JPG,"""",3,backwardMask,Practice,null,100,"""","""","""","""","""","""","""","""","""","""",3/22/2021 20:14,103.55.45.182,Mozilla/5.0 (Windows NT 10.0; Win64; x64; rv:85.0) Gecko/20100101 Firefox/85.0,,Firefox,85,Windows,10
9,1,null,"""",html-keyboard-response,41,192162,0.0-41.0,"<div style=""font-size:60px;"">+</div>","""",3,fixationBtwnNeutralMaskAndPrompt,Practice,null,1000,"""","""","""","""","""","""","""","""","""","""",3/22/2021 20:14,103.55.45.182,Mozilla/5.0 (Windows NT 10.0; Win64; x64; rv:85.0) Gecko/20100101 Firefox/85.0,,Firefox,85,Windows,10
9,1,2556,"""",html-button-response,42,194719,0.0-42.0,"<img src='jspsych/CFDfaces/CFD-AF-233-190-N.jpg'height=""250px""></br><b>Katelyn</b>",0,3,IntactOrRearranged,Practice,"""","""","""","""",CFD-AF-233-190-N.jpg,Katelyn,1,"""","""",0,"""","""",3/22/2021 20:14,103.55.45.182,Mozilla/5.0 (Windows NT 10.0; Win64; x64; rv:85.0) Gecko/20100101 Firefox/85.0,,Firefox,85,Windows,10
9,1,1837,"""",html-slider-response,43,196557,0.0-43.0,"<img src='jspsych/CFDfaces/CFD-AF-233-190-N.jpg'height=""250px""></br><b>Katelyn</b>","""",3,ConfidenceQuery,Practice,"""","""","""","""",CFD-AM-242-176-N.jpg,Justin,1,0,81,"""","""","""",3/22/2021 20:14,103.55.45.182,Mozilla/5.0 (Windows NT 10.0; Win64; x64; rv:85.0) Gecko/20100101 Firefox/85.0,,Firefox,85,Windows,10
9,1,1801,"""",html-button-response,44,198358,0.0-44.0,You are Incorrect. You called a Rearranged Pair Intact,0,3,feedback,Practice,"""","""","""","""","""","""","""","""","""","""","""","""",3/22/2021 20:14,103.55.45.182,Mozilla/5.0 (Windows NT 10.0; Win64; x64; rv:85.0) Gecko/20100101 Firefox/85.0,,Firefox,85,Windows,10
9,1,null,"""",html-keyboard-response,45,199360,0.0-45.0,"<div style=""font-size:60px;"">+</div>","""",4,ITI,Practice,null,1000,"""","""","""","""","""","""","""","""","""","""",3/22/2021 20:14,103.55.45.182,Mozilla/5.0 (Windows NT 10.0; Win64; x64; rv:85.0) Gecko/20100101 Firefox/85.0,,Firefox,85,Windows,10
9,1,null,"""",image-keyboard-response,46,199612,0.0-46.0,jspsych/scrambledDisgustFaces/scrambledBM02DIS.JPG,"""",4,forwardMask,Practice,null,250,"""",d,"""","""","""","""","""","""","""","""",3/22/2021 20:14,103.55.45.182,Mozilla/5.0 (Windows NT 10.0; Win64; x64; rv:85.0) Gecko/20100101 Firefox/85.0,,Firefox,85,Windows,10
9,1,null,"""",image-keyboard-response,47,199629,0.0-47.0,jspsych/disgustFaces/BM03DIS.JPG,"""",4,Cue,Practice,null,16,"""","""","""","""","""","""","""","""","""","""",3/22/2021 20:14,103.55.45.182,Mozilla/5.0 (Windows NT 10.0; Win64; x64; rv:85.0) Gecko/20100101 Firefox/85.0,,Firefox,85,Windows,10
9,1,null,"""",image-keyboard-response,48,199732,0.0-48.0,jspsych/neutralFaces/BM02NES.JPG,"""",4,backwardMask,Practice,null,100,"""","""","""","""","""","""","""","""","""","""",3/22/2021 20:14,103.55.45.182,Mozilla/5.0 (Windows NT 10.0; Win64; x64; rv:85.0) Gecko/20100101 Firefox/85.0,,Firefox,85,Windows,10
9,1,null,"""",html-keyboard-response,49,200732,0.0-49.0,"<div style=""font-size:60px;"">+</div>","""",4,fixationBtwnNeutralMaskAndPrompt,Practice,null,1000,"""","""","""","""","""","""","""","""","""","""",3/22/2021 20:14,103.55.45.182,Mozilla/5.0 (Windows NT 10.0; Win64; x64; rv:85.0) Gecko/20100101 Firefox/85.0,,Firefox,85,Windows,10
9,1,1694,"""",html-button-response,50,202427,0.0-50.0,"<img src='jspsych/CFDfaces/CFD-BM-011-016-N.jpg'height=""250px""></br><b>Samuel</b>",0,4,IntactOrRearranged,Practice,"""","""","""","""",CFD-BM-011-016-N.jpg,Samuel,0,"""","""",0,"""","""",3/22/2021 20:14,103.55.45.182,Mozilla/5.0 (Windows NT 10.0; Win64; x64; rv:85.0) Gecko/20100101 Firefox/85.0,,Firefox,85,Windows,10
9,1,1871,"""",html-slider-response,51,204299,0.0-51.0,"<img src='jspsych/CFDfaces/CFD-BM-011-016-N.jpg'height=""250px""></br><b>Samuel</b>","""",4,ConfidenceQuery,Practice,"""","""","""","""",CFD-AM-242-176-N.jpg,Justin,0,0,93,"""","""","""",3/22/2021 20:14,103.55.45.182,Mozilla/5.0 (Windows NT 10.0; Win64; x64; rv:85.0) Gecko/20100101 Firefox/85.0,,Firefox,85,Windows,10
9,1,1481,"""",html-button-response,52,205781,0.0-52.0,You are Correct. You called an Intact Pair Intact,0,4,feedback,Practice,"""","""","""","""","""","""","""","""","""","""","""","""",3/22/2021 20:14,103.55.45.182,Mozilla/5.0 (Windows NT 10.0; Win64; x64; rv:85.0) Gecko/20100101 Firefox/85.0,,Firefox,85,Windows,10
9,1,null,"""",html-keyboard-response,53,206783,0.0-53.0,"<div style=""font-size:60px;"">+</div>","""",5,ITI,Practice,null,1000,"""","""","""","""","""","""","""","""","""","""",3/22/2021 20:14,103.55.45.182,Mozilla/5.0 (Windows NT 10.0; Win64; x64; rv:85.0) Gecko/20100101 Firefox/85.0,,Firefox,85,Windows,10
9,1,null,"""",image-keyboard-response,54,207034,0.0-54.0,jspsych/scrambledNeutralFaces/scrambledBF21NES.JPG,"""",5,forwardMask,Practice,null,250,"""",n,"""","""","""","""","""","""","""","""",3/22/2021 20:14,103.55.45.182,Mozilla/5.0 (Windows NT 10.0; Win64; x64; rv:85.0) Gecko/20100101 Firefox/85.0,,Firefox,85,Windows,10
9,1,null,"""",image-keyboard-response,55,207052,0.0-55.0,jspsych/neutralFaces/BF21NES.JPG,"""",5,Cue,Practice,null,16,"""","""","""","""","""","""","""","""","""","""",3/22/2021 20:14,103.55.45.182,Mozilla/5.0 (Windows NT 10.0; Win64; x64; rv:85.0) Gecko/20100101 Firefox/85.0,,Firefox,85,Windows,10
9,1,null,"""",image-keyboard-response,56,207154,0.0-56.0,jspsych/neutralFaces/BF11NES.JPG,"""",5,backwardMask,Practice,null,100,"""","""","""","""","""","""","""","""","""","""",3/22/2021 20:14,103.55.45.182,Mozilla/5.0 (Windows NT 10.0; Win64; x64; rv:85.0) Gecko/20100101 Firefox/85.0,,Firefox,85,Windows,10
9,1,null,"""",html-keyboard-response,57,208154,0.0-57.0,"<div style=""font-size:60px;"">+</div>","""",5,fixationBtwnNeutralMaskAndPrompt,Practice,null,1000,"""","""","""","""","""","""","""","""","""","""",3/22/2021 20:14,103.55.45.182,Mozilla/5.0 (Windows NT 10.0; Win64; x64; rv:85.0) Gecko/20100101 Firefox/85.0,,Firefox,85,Windows,10
9,1,2595,"""",html-button-response,58,210749,0.0-58.0,"<img src='jspsych/CFDfaces/CFD-WF-006-002-N.jpg'height=""250px""></br><b>Cassandra</b>",1,5,IntactOrRearranged,Practice,"""","""","""","""",CFD-WF-006-002-N.jpg,Cassandra,1,"""","""",1,"""","""",3/22/2021 20:14,103.55.45.182,Mozilla/5.0 (Windows NT 10.0; Win64; x64; rv:85.0) Gecko/20100101 Firefox/85.0,,Firefox,85,Windows,10
9,1,1912,"""",html-slider-response,59,212663,0.0-59.0,"<img src='jspsych/CFDfaces/CFD-WF-006-002-N.jpg'height=""250px""></br><b>Cassandra</b>","""",5,ConfidenceQuery,Practice,"""","""","""","""",CFD-AM-242-176-N.jpg,Justin,1,0,91,"""","""","""",3/22/2021 20:14,103.55.45.182,Mozilla/5.0 (Windows NT 10.0; Win64; x64; rv:85.0) Gecko/20100101 Firefox/85.0,,Firefox,85,Windows,10
9,1,1425,"""",html-button-response,60,214089,0.0-60.0,You are Correct. You Called A Rearranged Pair Rearranged,0,5,feedback,Practice,"""","""","""","""","""","""","""","""","""","""","""","""",3/22/2021 20:14,103.55.45.182,Mozilla/5.0 (Windows NT 10.0; Win64; x64; rv:85.0) Gecko/20100101 Firefox/85.0,,Firefox,85,Windows,10
9,1,null,"""",html-keyboard-response,61,215091,0.0-61.0,"<div style=""font-size:60px;"">+</div>","""",6,ITI,Practice,null,1000,"""","""","""","""","""","""","""","""","""","""",3/22/2021 20:14,103.55.45.182,Mozilla/5.0 (Windows NT 10.0; Win64; x64; rv:85.0) Gecko/20100101 Firefox/85.0,,Firefox,85,Windows,10
9,1,null,"""",image-keyboard-response,62,215342,0.0-62.0,jspsych/scrambledDisgustFaces/scrambledAM35DIS.JPG,"""",6,forwardMask,Practice,null,250,"""",d,"""","""","""","""","""","""","""","""",3/22/2021 20:14,103.55.45.182,Mozilla/5.0 (Windows NT 10.0; Win64; x64; rv:85.0) Gecko/20100101 Firefox/85.0,,Firefox,85,Windows,10
9,1,null,"""",image-keyboard-response,63,215360,0.0-63.0,jspsych/disgustFaces/AM35DIS.JPG,"""",6,Cue,Practice,null,16,"""","""","""","""","""","""","""","""","""","""",3/22/2021 20:14,103.55.45.182,Mozilla/5.0 (Windows NT 10.0; Win64; x64; rv:85.0) Gecko/20100101 Firefox/85.0,,Firefox,85,Windows,10
9,1,null,"""",image-keyboard-response,64,215463,0.0-64.0,jspsych/neutralFaces/AM05NES.JPG,"""",6,backwardMask,Practice,null,100,"""","""","""","""","""","""","""","""","""","""",3/22/2021 20:14,103.55.45.182,Mozilla/5.0 (Windows NT 10.0; Win64; x64; rv:85.0) Gecko/20100101 Firefox/85.0,,Firefox,85,Windows,10
9,1,null,"""",html-keyboard-response,65,216463,0.0-65.0,"<div style=""font-size:60px;"">+</div>","""",6,fixationBtwnNeutralMaskAndPrompt,Practice,null,1000,"""","""","""","""","""","""","""","""","""","""",3/22/2021 20:14,103.55.45.182,Mozilla/5.0 (Windows NT 10.0; Win64; x64; rv:85.0) Gecko/20100101 Firefox/85.0,,Firefox,85,Windows,10
9,1,2370,"""",html-button-response,66,218835,0.0-66.0,"<img src='jspsych/CFDfaces/CFD-AF-228-173-N.jpg'height=""250px""></br><b>Shannon</b>",0,6,IntactOrRearranged,Practice,"""","""","""","""",CFD-AF-228-173-N.jpg,Shannon,0,"""","""",0,"""","""",3/22/2021 20:14,103.55.45.182,Mozilla/5.0 (Windows NT 10.0; Win64; x64; rv:85.0) Gecko/20100101 Firefox/85.0,,Firefox,85,Windows,10
9,1,1949,"""",html-slider-response,67,220787,0.0-67.0,"<img src='jspsych/CFDfaces/CFD-AF-228-173-N.jpg'height=""250px""></br><b>Shannon</b>","""",6,ConfidenceQuery,Practice,"""","""","""","""",CFD-AM-242-176-N.jpg,Justin,0,0,51,"""","""","""",3/22/2021 20:14,103.55.45.182,Mozilla/5.0 (Windows NT 10.0; Win64; x64; rv:85.0) Gecko/20100101 Firefox/85.0,,Firefox,85,Windows,10
9,1,1773,"""",html-button-response,68,222561,0.0-68.0,You are Correct. You called an Intact Pair Intact,0,6,feedback,Practice,"""","""","""","""","""","""","""","""","""","""","""","""",3/22/2021 20:14,103.55.45.182,Mozilla/5.0 (Windows NT 10.0; Win64; x64; rv:85.0) Gecko/20100101 Firefox/85.0,,Firefox,85,Windows,10
9,1,null,"""",html-keyboard-response,69,223563,0.0-69.0,"<div style=""font-size:60px;"">+</div>","""",7,ITI,Practice,null,1000,"""","""","""","""","""","""","""","""","""","""",3/22/2021 20:14,103.55.45.182,Mozilla/5.0 (Windows NT 10.0; Win64; x64; rv:85.0) Gecko/20100101 Firefox/85.0,,Firefox,85,Windows,10
9,1,null,"""",image-keyboard-response,70,223816,0.0-70.0,jspsych/scrambledNeutralFaces/scrambledBF05NES.JPG,"""",7,forwardMask,Practice,null,250,"""",n,"""","""","""","""","""","""","""","""",3/22/2021 20:14,103.55.45.182,Mozilla/5.0 (Windows NT 10.0; Win64; x64; rv:85.0) Gecko/20100101 Firefox/85.0,,Firefox,85,Windows,10
9,1,null,"""",image-keyboard-response,71,223833,0.0-71.0,jspsych/neutralFaces/BF05NES.JPG,"""",7,Cue,Practice,null,16,"""","""","""","""","""","""","""","""","""","""",3/22/2021 20:14,103.55.45.182,Mozilla/5.0 (Windows NT 10.0; Win64; x64; rv:85.0) Gecko/20100101 Firefox/85.0,,Firefox,85,Windows,10
9,1,null,"""",image-keyboard-response,72,223935,0.0-72.0,jspsych/neutralFaces/AF03NES.JPG,"""",7,backwardMask,Practice,null,100,"""","""","""","""","""","""","""","""","""","""",3/22/2021 20:14,103.55.45.182,Mozilla/5.0 (Windows NT 10.0; Win64; x64; rv:85.0) Gecko/20100101 Firefox/85.0,,Firefox,85,Windows,10
9,1,null,"""",html-keyboard-response,73,224937,0.0-73.0,"<div style=""font-size:60px;"">+</div>","""",7,fixationBtwnNeutralMaskAndPrompt,Practice,null,1000,"""","""","""","""","""","""","""","""","""","""",3/22/2021 20:14,103.55.45.182,Mozilla/5.0 (Windows NT 10.0; Win64; x64; rv:85.0) Gecko/20100101 Firefox/85.0,,Firefox,85,Windows,10
9,1,1811,"""",html-button-response,74,226749,0.0-74.0,"<img src='jspsych/CFDfaces/CFD-LM-246-087-N.jpg'height=""250px""></br><b>Marcus</b>",1,7,IntactOrRearranged,Practice,"""","""","""","""",CFD-LM-246-087-N.jpg,Marcus,1,"""","""",1,"""","""",3/22/2021 20:14,103.55.45.182,Mozilla/5.0 (Windows NT 10.0; Win64; x64; rv:85.0) Gecko/20100101 Firefox/85.0,,Firefox,85,Windows,10
9,1,2170,"""",html-slider-response,75,228922,0.0-75.0,"<img src='jspsych/CFDfaces/CFD-LM-246-087-N.jpg'height=""250px""></br><b>Marcus</b>","""",7,ConfidenceQuery,Practice,"""","""","""","""",CFD-AM-242-176-N.jpg,Justin,1,0,100,"""","""","""",3/22/2021 20:14,103.55.45.182,Mozilla/5.0 (Windows NT 10.0; Win64; x64; rv:85.0) Gecko/20100101 Firefox/85.0,,Firefox,85,Windows,10
9,1,1631,"""",html-button-response,76,230553,0.0-76.0,You are Correct. You Called A Rearranged Pair Rearranged,0,7,feedback,Practice,"""","""","""","""","""","""","""","""","""","""","""","""",3/22/2021 20:14,103.55.45.182,Mozilla/5.0 (Windows NT 10.0; Win64; x64; rv:85.0) Gecko/20100101 Firefox/85.0,,Firefox,85,Windows,10
9,1,null,"""",html-keyboard-response,77,231555,0.0-77.0,"<div style=""font-size:60px;"">+</div>","""",8,ITI,Practice,null,1000,"""","""","""","""","""","""","""","""","""","""",3/22/2021 20:14,103.55.45.182,Mozilla/5.0 (Windows NT 10.0; Win64; x64; rv:85.0) Gecko/20100101 Firefox/85.0,,Firefox,85,Windows,10
9,1,null,"""",image-keyboard-response,78,231806,0.0-78.0,jspsych/scrambledDisgustFaces/scrambledBF27DIS.JPG,"""",8,forwardMask,Practice,null,250,"""",d,"""","""","""","""","""","""","""","""",3/22/2021 20:14,103.55.45.182,Mozilla/5.0 (Windows NT 10.0; Win64; x64; rv:85.0) Gecko/20100101 Firefox/85.0,,Firefox,85,Windows,10
9,1,null,"""",image-keyboard-response,79,231823,0.0-79.0,jspsych/disgustFaces/BF27DIS.JPG,"""",8,Cue,Practice,null,16,"""","""","""","""","""","""","""","""","""","""",3/22/2021 20:14,103.55.45.182,Mozilla/5.0 (Windows NT 10.0; Win64; x64; rv:85.0) Gecko/20100101 Firefox/85.0,,Firefox,85,Windows,10
9,1,null,"""",image-keyboard-response,80,231925,0.0-80.0,jspsych/neutralFaces/AF07NES.JPG,"""",8,backwardMask,Practice,null,100,"""","""","""","""","""","""","""","""","""","""",3/22/2021 20:14,103.55.45.182,Mozilla/5.0 (Windows NT 10.0; Win64; x64; rv:85.0) Gecko/20100101 Firefox/85.0,,Firefox,85,Windows,10
9,1,null,"""",html-keyboard-response,81,232926,0.0-81.0,"<div style=""font-size:60px;"">+</div>","""",8,fixationBtwnNeutralMaskAndPrompt,Practice,null,1000,"""","""","""","""","""","""","""","""","""","""",3/22/2021 20:14,103.55.45.182,Mozilla/5.0 (Windows NT 10.0; Win64; x64; rv:85.0) Gecko/20100101 Firefox/85.0,,Firefox,85,Windows,10
9,1,1705,"""",html-button-response,82,234633,0.0-82.0,"<img src='jspsych/CFDfaces/CFD-BM-210-148-N.jpg'height=""250px""></br><b>Patrick</b>",0,8,IntactOrRearranged,Practice,"""","""","""","""",CFD-BM-210-148-N.jpg,Patrick,0,"""","""",0,"""","""",3/22/2021 20:14,103.55.45.182,Mozilla/5.0 (Windows NT 10.0; Win64; x64; rv:85.0) Gecko/20100101 Firefox/85.0,,Firefox,85,Windows,10
9,1,1944,"""",html-slider-response,83,236580,0.0-83.0,"<img src='jspsych/CFDfaces/CFD-BM-210-148-N.jpg'height=""250px""></br><b>Patrick</b>","""",8,ConfidenceQuery,Practice,"""","""","""","""",CFD-AM-242-176-N.jpg,Justin,0,0,77,"""","""","""",3/22/2021 20:14,103.55.45.182,Mozilla/5.0 (Windows NT 10.0; Win64; x64; rv:85.0) Gecko/20100101 Firefox/85.0,,Firefox,85,Windows,10
9,1,1167,"""",html-button-response,84,237748,0.0-84.0,You are Correct. You called an Intact Pair Intact,0,8,feedback,Practice,"""","""","""","""","""","""","""","""","""","""","""","""",3/22/2021 20:14,103.55.45.182,Mozilla/5.0 (Windows NT 10.0; Win64; x64; rv:85.0) Gecko/20100101 Firefox/85.0,,Firefox,85,Windows,10
9,1,7095,"""",image-button-response,85,244845,0.0-85.0,directionsMemoryAssociation3.JPG,0,128,DirectionsBeforeActualTEst,Break,"""","""","""","""","""","""","""","""","""","""","""","""",3/22/2021 20:14,103.55.45.182,Mozilla/5.0 (Windows NT 10.0; Win64; x64; rv:85.0) Gecko/20100101 Firefox/85.0,,Firefox,85,Windows,10
9,1,5076,"""",image-button-response,86,249923,0.0-86.0,directionsForTest2.JPG,0,1,directionsForTest2,break,"""","""","""","""","""","""","""","""","""","""","""","""",3/22/2021 20:14,103.55.45.182,Mozilla/5.0 (Windows NT 10.0; Win64; x64; rv:85.0) Gecko/20100101 Firefox/85.0,,Firefox,85,Windows,10
9,1,29184,"""",html-button-response,87,279109,0.0-87.0,"<p>You will be asked to memorize and then recall four sets of face-name pairs. </p> <p> Each set will have 32 pairs. </p> <p>After the fourth set, there will be a brief follow-up experiment (<40 min alltogether)</p>",0,"""","""","""","""","""","""","""","""","""","""","""","""","""","""","""",3/22/2021 20:14,103.55.45.182,Mozilla/5.0 (Windows NT 10.0; Win64; x64; rv:85.0) Gecko/20100101 Firefox/85.0,,Firefox,85,Windows,10
9,1,2076,"""",html-keyboard-response,88,284111,0.0-88.0,"<img src='jspsych/CFDfaces/CFD-BF-009-002-N.jpg' height=""250px""></br><b>Ashley</b>","""",256,IntactFace,Memorization,78,5000,n,"""",CFD-WF-018-017-N.jpg,Lauren,0,"""","""","""",1,"""",3/22/2021 20:14,103.55.45.182,Mozilla/5.0 (Windows NT 10.0; Win64; x64; rv:85.0) Gecko/20100101 Firefox/85.0,,Firefox,85,Windows,10
9,1,null,"""",html-keyboard-response,89,284613,0.0-89.0,"<div style=""font-size:60px;"">+</div>","""",256,fixation,Memorization,null,500,"""","""","""","""","""","""","""","""",1,"""",3/22/2021 20:14,103.55.45.182,Mozilla/5.0 (Windows NT 10.0; Win64; x64; rv:85.0) Gecko/20100101 Firefox/85.0,,Firefox,85,Windows,10
9,1,2496,"""",html-keyboard-response,90,289615,0.0-90.0,"<img src='jspsych/CFDfaces/CFD-BF-008-001-N.jpg' height=""250px""></br><b>Kayla</b>","""",256,IntactFace,Memorization,78,5000,n,"""",CFD-AF-243-170-N.jpg,Heather,0,"""","""","""",1,"""",3/22/2021 20:14,103.55.45.182,Mozilla/5.0 (Windows NT 10.0; Win64; x64; rv:85.0) Gecko/20100101 Firefox/85.0,,Firefox,85,Windows,10
9,1,null,"""",html-keyboard-response,91,290115,0.0-91.0,"<div style=""font-size:60px;"">+</div>","""",256,fixation,Memorization,null,500,"""","""","""","""","""","""","""","""",1,"""",3/22/2021 20:14,103.55.45.182,Mozilla/5.0 (Windows NT 10.0; Win64; x64; rv:85.0) Gecko/20100101 Firefox/85.0,,Firefox,85,Windows,10
9,1,3234,"""",html-keyboard-response,92,295119,0.0-92.0,"<img src='jspsych/CFDfaces/CFD-BF-226-119-N.jpg' height=""250px""></br><b>Victoria</b>","""",256,IntactFace,Memorization,70,5000,f,"""",CFD-BM-039-029-N.jpg,Luis,0,"""","""","""",1,"""",3/22/2021 20:14,103.55.45.182,Mozilla/5.0 (Windows NT 10.0; Win64; x64; rv:85.0) Gecko/20100101 Firefox/85.0,,Firefox,85,Windows,10
9,1,null,"""",html-keyboard-response,93,295620,0.0-93.0,"<div style=""font-size:60px;"">+</div>","""",256,fixation,Memorization,null,500,"""","""","""","""","""","""","""","""",1,"""",3/22/2021 20:14,103.55.45.182,Mozilla/5.0 (Windows NT 10.0; Win64; x64; rv:85.0) Gecko/20100101 Firefox/85.0,,Firefox,85,Windows,10
9,1,2452,"""",html-keyboard-response,94,300622,0.0-94.0,"<img src='jspsych/CFDfaces/CFD-AM-229-224-N.jpg' height=""250px""></br><b>Ian</b>","""",256,IntactFace,Memorization,78,5000,n,"""",CFD-AM-248-104-N.jpg,Dustin,0,"""","""","""",1,"""",3/22/2021 20:14,103.55.45.182,Mozilla/5.0 (Windows NT 10.0; Win64; x64; rv:85.0) Gecko/20100101 Firefox/85.0,,Firefox,85,Windows,10
9,1,null,"""",html-keyboard-response,95,301124,0.0-95.0,"<div style=""font-size:60px;"">+</div>","""",256,fixation,Memorization,null,500,"""","""","""","""","""","""","""","""",1,"""",3/22/2021 20:14,103.55.45.182,Mozilla/5.0 (Windows NT 10.0; Win64; x64; rv:85.0) Gecko/20100101 Firefox/85.0,,Firefox,85,Windows,10
9,1,2514,"""",html-keyboard-response,96,306127,0.0-96.0,"<img src='jspsych/CFDfaces/CFD-BM-205-001-N.jpg' height=""250px""></br><b>Joshua</b>","""",256,IntactFace,Memorization,78,5000,n,"""",CFD-LM-233-171-N.jpg,Travis,0,"""","""","""",1,"""",3/22/2021 20:14,103.55.45.182,Mozilla/5.0 (Windows NT 10.0; Win64; x64; rv:85.0) Gecko/20100101 Firefox/85.0,,Firefox,85,Windows,10
9,1,null,"""",html-keyboard-response,97,306627,0.0-97.0,"<div style=""font-size:60px;"">+</div>","""",256,fixation,Memorization,null,500,"""","""","""","""","""","""","""","""",1,"""",3/22/2021 20:14,103.55.45.182,Mozilla/5.0 (Windows NT 10.0; Win64; x64; rv:85.0) Gecko/20100101 Firefox/85.0,,Firefox,85,Windows,10
9,1,2473,"""",html-keyboard-response,98,311629,0.0-98.0,"<img src='jspsych/CFDfaces/CFD-WM-207-048-N.jpg' height=""250px""></br><b>Nicholas</b>","""",256,IntactFace,Memorization,70,5000,f,"""",CFD-AM-231-136-N.jpg,Austin,0,"""","""","""",1,"""",3/22/2021 20:14,103.55.45.182,Mozilla/5.0 (Windows NT 10.0; Win64; x64; rv:85.0) Gecko/20100101 Firefox/85.0,,Firefox,85,Windows,10
9,1,null,"""",html-keyboard-response,99,312131,0.0-99.0,"<div style=""font-size:60px;"">+</div>","""",256,fixation,Memorization,null,500,"""","""","""","""","""","""","""","""",1,"""",3/22/2021 20:14,103.55.45.182,Mozilla/5.0 (Windows NT 10.0; Win64; x64; rv:85.0) Gecko/20100101 Firefox/85.0,,Firefox,85,Windows,10
9,1,2412,"""",html-keyboard-response,100,317133,0.0-100.0,"<img src='jspsych/CFDfaces/CFD-WF-017-003-N.jpg' height=""250px""></br><b>Christina</b>","""",256,IntactFace,Memorization,70,5000,f,"""",CFD-AM-242-176-N.jpg,Justin,0,"""","""","""",1,"""",3/22/2021 20:14,103.55.45.182,Mozilla/5.0 (Windows NT 10.0; Win64; x64; rv:85.0) Gecko/20100101 Firefox/85.0,,Firefox,85,Windows,10
9,1,null,"""",html-keyboard-response,101,317634,0.0-101.0,"<div style=""font-size:60px;"">+</div>","""",256,fixation,Memorization,null,500,"""","""","""","""","""","""","""","""",1,"""",3/22/2021 20:14,103.55.45.182,Mozilla/5.0 (Windows NT 10.0; Win64; x64; rv:85.0) Gecko/20100101 Firefox/85.0,,Firefox,85,Windows,10
9,1,2210,"""",html-keyboard-response,102,322636,0.0-102.0,"<img src='jspsych/CFDfaces/CFD-LF-215-157-N.jpg' height=""250px""></br><b>Meghan</b>","""",256,IntactFace,Memorization,78,5000,n,"""",CFD-AF-235-170-N.jpg,Rebecca,0,"""","""","""",1,"""",3/22/2021 20:14,103.55.45.182,Mozilla/5.0 (Windows NT 10.0; Win64; x64; rv:85.0) Gecko/20100101 Firefox/85.0,,Firefox,85,Windows,10
9,1,null,"""",html-keyboard-response,103,323138,0.0-103.0,"<div style=""font-size:60px;"">+</div>","""",256,fixation,Memorization,null,500,"""","""","""","""","""","""","""","""",1,"""",3/22/2021 20:14,103.55.45.182,Mozilla/5.0 (Windows NT 10.0; Win64; x64; rv:85.0) Gecko/20100101 Firefox/85.0,,Firefox,85,Windows,10
9,1,2073,"""",html-keyboard-response,104,328140,0.0-104.0,"<img src='jspsych/CFDfaces/CFD-AF-214-139-N.jpg' height=""250px""></br><b>Elizabeth</b>","""",256,IntactFace,Memorization,78,5000,n,"""",CFD-BM-026-002-N.jpg,Vincent,0,"""","""","""",1,"""",3/22/2021 20:14,103.55.45.182,Mozilla/5.0 (Windows NT 10.0; Win64; x64; rv:85.0) Gecko/20100101 Firefox/85.0,,Firefox,85,Windows,10
9,1,null,"""",html-keyboard-response,105,328640,0.0-105.0,"<div style=""font-size:60px;"">+</div>","""",256,fixation,Memorization,null,500,"""","""","""","""","""","""","""","""",1,"""",3/22/2021 20:14,103.55.45.182,Mozilla/5.0 (Windows NT 10.0; Win64; x64; rv:85.0) Gecko/20100101 Firefox/85.0,,Firefox,85,Windows,10
9,1,2245,"""",html-keyboard-response,106,333643,0.0-106.0,"<img src='jspsych/CFDfaces/CFD-LM-220-329-N.jpg' height=""250px""></br><b>Eric</b>","""",256,IntactFace,Memorization,70,5000,f,"""",CFD-LM-209-111-N.jpg,Jesse,0,"""","""","""",1,"""",3/22/2021 20:14,103.55.45.182,Mozilla/5.0 (Windows NT 10.0; Win64; x64; rv:85.0) Gecko/20100101 Firefox/85.0,,Firefox,85,Windows,10
9,1,null,"""",html-keyboard-response,107,334143,0.0-107.0,"<div style=""font-size:60px;"">+</div>","""",256,fixation,Memorization,null,500,"""","""","""","""","""","""","""","""",1,"""",3/22/2021 20:14,103.55.45.182,Mozilla/5.0 (Windows NT 10.0; Win64; x64; rv:85.0) Gecko/20100101 Firefox/85.0,,Firefox,85,Windows,10
9,1,2840,"""",html-keyboard-response,108,339147,0.0-108.0,"<img src='jspsych/CFDfaces/CFD-WM-041-021-N.jpg' height=""250px""></br><b>Jason</b>","""",256,IntactFace,Memorization,78,5000,n,"""",CFD-AM-202-079-N.jpg,Ryan,0,"""","""","""",1,"""",3/22/2021 20:14,103.55.45.182,Mozilla/5.0 (Windows NT 10.0; Win64; x64; rv:85.0) Gecko/20100101 Firefox/85.0,,Firefox,85,Windows,10
9,1,null,"""",html-keyboard-response,109,339648,0.0-109.0,"<div style=""font-size:60px;"">+</div>","""",256,fixation,Memorization,null,500,"""","""","""","""","""","""","""","""",1,"""",3/22/2021 20:14,103.55.45.182,Mozilla/5.0 (Windows NT 10.0; Win64; x64; rv:85.0) Gecko/20100101 Firefox/85.0,,Firefox,85,Windows,10
9,1,2445,"""",html-keyboard-response,110,344650,0.0-110.0,"<img src='jspsych/CFDfaces/CFD-AF-242-158-N.jpg' height=""250px""></br><b>Kimberly</b>","""",256,IntactFace,Memorization,78,5000,n,"""",CFD-WF-016-015-N.jpg,Jordan,0,"""","""","""",1,"""",3/22/2021 20:14,103.55.45.182,Mozilla/5.0 (Windows NT 10.0; Win64; x64; rv:85.0) Gecko/20100101 Firefox/85.0,,Firefox,85,Windows,10
9,1,null,"""",html-keyboard-response,111,345151,0.0-111.0,"<div style=""font-size:60px;"">+</div>","""",256,fixation,Memorization,null,500,"""","""","""","""","""","""","""","""",1,"""",3/22/2021 20:14,103.55.45.182,Mozilla/5.0 (Windows NT 10.0; Win64; x64; rv:85.0) Gecko/20100101 Firefox/85.0,,Firefox,85,Windows,10
9,1,2223,"""",html-keyboard-response,112,350153,0.0-112.0,"<img src='jspsych/CFDfaces/CFD-LF-200-058-N.jpg' height=""250px""></br><b>Samantha</b>","""",256,IntactFace,Memorization,70,5000,f,"""",CFD-WF-220-101-N.jpg,Taylor,0,"""","""","""",1,"""",3/22/2021 20:14,103.55.45.182,Mozilla/5.0 (Windows NT 10.0; Win64; x64; rv:85.0) Gecko/20100101 Firefox/85.0,,Firefox,85,Windows,10
9,1,null,"""",html-keyboard-response,113,350654,0.0-113.0,"<div style=""font-size:60px;"">+</div>","""",256,fixation,Memorization,null,500,"""","""","""","""","""","""","""","""",1,"""",3/22/2021 20:14,103.55.45.182,Mozilla/5.0 (Windows NT 10.0; Win64; x64; rv:85.0) Gecko/20100101 Firefox/85.0,,Firefox,85,Windows,10
9,1,3246,"""",html-keyboard-response,114,355656,0.0-114.0,"<img src='jspsych/CFDfaces/CFD-BF-221-223-N.jpg' height=""250px""></br><b>Brittany</b>","""",256,IntactFace,Memorization,70,5000,f,"""",CFD-BM-211-174-N.jpg,Sean,0,"""","""","""",1,"""",3/22/2021 20:14,103.55.45.182,Mozilla/5.0 (Windows NT 10.0; Win64; x64; rv:85.0) Gecko/20100101 Firefox/85.0,,Firefox,85,Windows,10
9,1,null,"""",html-keyboard-response,115,356157,0.0-115.0,"<div style=""font-size:60px;"">+</div>","""",256,fixation,Memorization,null,500,"""","""","""","""","""","""","""","""",1,"""",3/22/2021 20:14,103.55.45.182,Mozilla/5.0 (Windows NT 10.0; Win64; x64; rv:85.0) Gecko/20100101 Firefox/85.0,,Firefox,85,Windows,10
9,1,3451,"""",html-keyboard-response,116,361160,0.0-116.0,"<img src='jspsych/CFDfaces/CFD-BM-043-071-N.jpg' height=""250px""></br><b>James</b>","""",256,IntactFace,Memorization,78,5000,n,"""",CFD-LF-220-120-N.jpg,Jenna,0,"""","""","""",1,"""",3/22/2021 20:14,103.55.45.182,Mozilla/5.0 (Windows NT 10.0; Win64; x64; rv:85.0) Gecko/20100101 Firefox/85.0,,Firefox,85,Windows,10
9,1,null,"""",html-keyboard-response,117,361660,0.0-117.0,"<div style=""font-size:60px;"">+</div>","""",256,fixation,Memorization,null,500,"""","""","""","""","""","""","""","""",1,"""",3/22/2021 20:14,103.55.45.182,Mozilla/5.0 (Windows NT 10.0; Win64; x64; rv:85.0) Gecko/20100101 Firefox/85.0,,Firefox,85,Windows,10
9,1,2280,"""",html-keyboard-response,118,366662,0.0-118.0,"<img src='jspsych/CFDfaces/CFD-LM-219-295-N.jpg' height=""250px""></br><b>Robert</b>","""",256,IntactFace,Memorization,70,5000,f,"""",CFD-WM-003-002-N.jpg,Timothy,0,"""","""","""",1,"""",3/22/2021 20:14,103.55.45.182,Mozilla/5.0 (Windows NT 10.0; Win64; x64; rv:85.0) Gecko/20100101 Firefox/85.0,,Firefox,85,Windows,10
9,1,null,"""",html-keyboard-response,119,367163,0.0-119.0,"<div style=""font-size:60px;"">+</div>","""",256,fixation,Memorization,null,500,"""","""","""","""","""","""","""","""",1,"""",3/22/2021 20:14,103.55.45.182,Mozilla/5.0 (Windows NT 10.0; Win64; x64; rv:85.0) Gecko/20100101 Firefox/85.0,,Firefox,85,Windows,10
9,1,3063,"""",html-keyboard-response,120,372165,0.0-120.0,"<img src='jspsych/CFDfaces/CFD-WM-034-030-N.jpg' height=""250px""></br><b>Richard</b>","""",256,IntactFace,Memorization,70,5000,f,"""",CFD-WF-218-087-N.jpg,Amy,0,"""","""","""",1,"""",3/22/2021 20:14,103.55.45.182,Mozilla/5.0 (Windows NT 10.0; Win64; x64; rv:85.0) Gecko/20100101 Firefox/85.0,,Firefox,85,Windows,10
9,1,null,"""",html-keyboard-response,121,372667,0.0-121.0,"<div style=""font-size:60px;"">+</div>","""",256,fixation,Memorization,null,500,"""","""","""","""","""","""","""","""",1,"""",3/22/2021 20:14,103.55.45.182,Mozilla/5.0 (Windows NT 10.0; Win64; x64; rv:85.0) Gecko/20100101 Firefox/85.0,,Firefox,85,Windows,10
9,1,2934,"""",html-keyboard-response,122,377668,0.0-122.0,"<img src='jspsych/CFDfaces/CFD-BF-016-017-N.jpg' height=""250px""></br><b>Andrea</b>","""",256,IntactFace,Memorization,78,5000,n,"""",CFD-WF-038-021-N.jpg,Sara,0,"""","""","""",1,"""",3/22/2021 20:14,103.55.45.182,Mozilla/5.0 (Windows NT 10.0; Win64; x64; rv:85.0) Gecko/20100101 Firefox/85.0,,Firefox,85,Windows,10
9,1,null,"""",html-keyboard-response,123,378169,0.0-123.0,"<div style=""font-size:60px;"">+</div>","""",256,fixation,Memorization,null,500,"""","""","""","""","""","""","""","""",1,"""",3/22/2021 20:14,103.55.45.182,Mozilla/5.0 (Windows NT 10.0; Win64; x64; rv:85.0) Gecko/20100101 Firefox/85.0,,Firefox,85,Windows,10
9,1,2479,"""",html-keyboard-response,124,383172,0.0-124.0,"<img src='jspsych/CFDfaces/CFD-BM-010-003-N.jpg' height=""250px""></br><b>Daniel</b>","""",256,IntactFace,Memorization,70,5000,f,"""",CFD-BM-027-001-N.jpg,Jeremy,0,"""","""","""",1,"""",3/22/2021 20:14,103.55.45.182,Mozilla/5.0 (Windows NT 10.0; Win64; x64; rv:85.0) Gecko/20100101 Firefox/85.0,,Firefox,85,Windows,10
9,1,null,"""",html-keyboard-response,125,383673,0.0-125.0,"<div style=""font-size:60px;"">+</div>","""",256,fixation,Memorization,null,500,"""","""","""","""","""","""","""","""",1,"""",3/22/2021 20:14,103.55.45.182,Mozilla/5.0 (Windows NT 10.0; Win64; x64; rv:85.0) Gecko/20100101 Firefox/85.0,,Firefox,85,Windows,10
9,1,2715,"""",html-keyboard-response,126,388675,0.0-126.0,"<img src='jspsych/CFDfaces/CFD-AF-215-70-N.jpg' height=""250px""></br><b>Julie</b>","""",256,IntactFace,Memorization,78,5000,n,"""",CFD-WM-212-097-N.jpg,Jacob,0,"""","""","""",1,"""",3/22/2021 20:14,103.55.45.182,Mozilla/5.0 (Windows NT 10.0; Win64; x64; rv:85.0) Gecko/20100101 Firefox/85.0,,Firefox,85,Windows,10
9,1,null,"""",html-keyboard-response,127,389175,0.0-127.0,"<div style=""font-size:60px;"">+</div>","""",256,fixation,Memorization,null,500,"""","""","""","""","""","""","""","""",1,"""",3/22/2021 20:14,103.55.45.182,Mozilla/5.0 (Windows NT 10.0; Win64; x64; rv:85.0) Gecko/20100101 Firefox/85.0,,Firefox,85,Windows,10
9,1,2146,"""",html-keyboard-response,128,394177,0.0-128.0,"<img src='jspsych/CFDfaces/CFD-WM-215-041-N.jpg' height=""250px""></br><b>Juan</b>","""",256,IntactFace,Memorization,78,5000,n,"""",CFD-AF-239-171-N.jpg,Laura,0,"""","""","""",1,"""",3/22/2021 20:14,103.55.45.182,Mozilla/5.0 (Windows NT 10.0; Win64; x64; rv:85.0) Gecko/20100101 Firefox/85.0,,Firefox,85,Windows,10
9,1,null,"""",html-keyboard-response,129,394679,0.0-129.0,"<div style=""font-size:60px;"">+</div>","""",256,fixation,Memorization,null,500,"""","""","""","""","""","""","""","""",1,"""",3/22/2021 20:14,103.55.45.182,Mozilla/5.0 (Windows NT 10.0; Win64; x64; rv:85.0) Gecko/20100101 Firefox/85.0,,Firefox,85,Windows,10
9,1,2962,"""",html-keyboard-response,130,399681,0.0-130.0,"<img src='jspsych/CFDfaces/CFD-AF-201-060-N.jpg' height=""250px""></br><b>Michelle</b>","""",256,IntactFace,Memorization,78,5000,n,"""",CFD-AM-238-269-N.jpg,Cameron,0,"""","""","""",1,"""",3/22/2021 20:14,103.55.45.182,Mozilla/5.0 (Windows NT 10.0; Win64; x64; rv:85.0) Gecko/20100101 Firefox/85.0,,Firefox,85,Windows,10
9,1,null,"""",html-keyboard-response,131,400181,0.0-131.0,"<div style=""font-size:60px;"">+</div>","""",256,fixation,Memorization,null,500,"""","""","""","""","""","""","""","""",1,"""",3/22/2021 20:14,103.55.45.182,Mozilla/5.0 (Windows NT 10.0; Win64; x64; rv:85.0) Gecko/20100101 Firefox/85.0,,Firefox,85,Windows,10
9,1,3233,"""",html-keyboard-response,132,405184,0.0-132.0,"<img src='jspsych/CFDfaces/CFD-WF-215-145-N.jpg' height=""250px""></br><b>Emily</b>","""",256,IntactFace,Memorization,70,5000,f,"""",CFD-AF-220-107-N.jpg,Jasmine,0,"""","""","""",1,"""",3/22/2021 20:14,103.55.45.182,Mozilla/5.0 (Windows NT 10.0; Win64; x64; rv:85.0) Gecko/20100101 Firefox/85.0,,Firefox,85,Windows,10
9,1,null,"""",html-keyboard-response,133,405686,0.0-133.0,"<div style=""font-size:60px;"">+</div>","""",256,fixation,Memorization,null,500,"""","""","""","""","""","""","""","""",1,"""",3/22/2021 20:14,103.55.45.182,Mozilla/5.0 (Windows NT 10.0; Win64; x64; rv:85.0) Gecko/20100101 Firefox/85.0,,Firefox,85,Windows,10
9,1,2449,"""",html-keyboard-response,134,410689,0.0-134.0,"<img src='jspsych/CFDfaces/CFD-WF-023-003-N.jpg' height=""250px""></br><b>Stephanie</b>","""",256,IntactFace,Memorization,70,5000,f,"""",CFD-BF-019-001-N.jpg,Erin,0,"""","""","""",1,"""",3/22/2021 20:14,103.55.45.182,Mozilla/5.0 (Windows NT 10.0; Win64; x64; rv:85.0) Gecko/20100101 Firefox/85.0,,Firefox,85,Windows,10
9,1,null,"""",html-keyboard-response,135,411189,0.0-135.0,"<div style=""font-size:60px;"">+</div>","""",256,fixation,Memorization,null,500,"""","""","""","""","""","""","""","""",1,"""",3/22/2021 20:14,103.55.45.182,Mozilla/5.0 (Windows NT 10.0; Win64; x64; rv:85.0) Gecko/20100101 Firefox/85.0,,Firefox,85,Windows,10
9,1,2964,"""",html-keyboard-response,136,416192,0.0-136.0,"<img src='jspsych/CFDfaces/CFD-WF-205-006-N.jpg' height=""250px""></br><b>Amanda</b>","""",256,IntactFace,Memorization,70,5000,f,"""",CFD-BM-018-001-N.jpg,Steven,0,"""","""","""",1,"""",3/22/2021 20:14,103.55.45.182,Mozilla/5.0 (Windows NT 10.0; Win64; x64; rv:85.0) Gecko/20100101 Firefox/85.0,,Firefox,85,Windows,10
9,1,null,"""",html-keyboard-response,137,416692,0.0-137.0,"<div style=""font-size:60px;"">+</div>","""",256,fixation,Memorization,null,500,"""","""","""","""","""","""","""","""",1,"""",3/22/2021 20:14,103.55.45.182,Mozilla/5.0 (Windows NT 10.0; Win64; x64; rv:85.0) Gecko/20100101 Firefox/85.0,,Firefox,85,Windows,10
9,1,3100,"""",html-keyboard-response,138,421696,0.0-138.0,"<img src='jspsych/CFDfaces/CFD-BM-001-014-N.jpg' height=""250px""></br><b>Christian</b>","""",256,IntactFace,Memorization,78,5000,n,"""",CFD-BF-004-014-N.jpg,Melissa,0,"""","""","""",1,"""",3/22/2021 20:14,103.55.45.182,Mozilla/5.0 (Windows NT 10.0; Win64; x64; rv:85.0) Gecko/20100101 Firefox/85.0,,Firefox,85,Windows,10
9,1,null,"""",html-keyboard-response,139,422196,0.0-139.0,"<div style=""font-size:60px;"">+</div>","""",256,fixation,Memorization,null,500,"""","""","""","""","""","""","""","""",1,"""",3/22/2021 20:14,103.55.45.182,Mozilla/5.0 (Windows NT 10.0; Win64; x64; rv:85.0) Gecko/20100101 Firefox/85.0,,Firefox,85,Windows,10
9,1,2660,"""",html-keyboard-response,140,427198,0.0-140.0,"<img src='jspsych/CFDfaces/CFD-LF-232-199-N.jpg' height=""250px""></br><b>Vanessa</b>","""",256,IntactFace,Memorization,78,5000,n,"""",CFD-BF-021-013-N.jpg,Tiffany,0,"""","""","""",1,"""",3/22/2021 20:14,103.55.45.182,Mozilla/5.0 (Windows NT 10.0; Win64; x64; rv:85.0) Gecko/20100101 Firefox/85.0,,Firefox,85,Windows,10
9,1,null,"""",html-keyboard-response,141,427701,0.0-141.0,"<div style=""font-size:60px;"">+</div>","""",256,fixation,Memorization,null,500,"""","""","""","""","""","""","""","""",1,"""",3/22/2021 20:14,103.55.45.182,Mozilla/5.0 (Windows NT 10.0; Win64; x64; rv:85.0) Gecko/20100101 Firefox/85.0,,Firefox,85,Windows,10
9,1,2527,"""",html-keyboard-response,142,432704,0.0-142.0,"<img src='jspsych/CFDfaces/CFD-AM-246-184-N.jpg' height=""250px""></br><b>Brian</b>","""",256,IntactFace,Memorization,78,5000,n,"""",CFD-LF-230-203-N.jpg,Lindsey,0,"""","""","""",1,"""",3/22/2021 20:14,103.55.45.182,Mozilla/5.0 (Windows NT 10.0; Win64; x64; rv:85.0) Gecko/20100101 Firefox/85.0,,Firefox,85,Windows,10
9,1,null,"""",html-keyboard-response,143,433205,0.0-143.0,"<div style=""font-size:60px;"">+</div>","""",256,fixation,Memorization,null,500,"""","""","""","""","""","""","""","""",1,"""",3/22/2021 20:14,103.55.45.182,Mozilla/5.0 (Windows NT 10.0; Win64; x64; rv:85.0) Gecko/20100101 Firefox/85.0,,Firefox,85,Windows,10
9,1,3381,"""",html-keyboard-response,144,438208,0.0-144.0,"<img src='jspsych/CFDfaces/CFD-BM-032-024-N.jpg' height=""250px""></br><b>Brandon</b>","""",256,IntactFace,Memorization,70,5000,f,"""",CFD-WF-204-038-N.jpg,Angela,0,"""","""","""",1,"""",3/22/2021 20:14,103.55.45.182,Mozilla/5.0 (Windows NT 10.0; Win64; x64; rv:85.0) Gecko/20100101 Firefox/85.0,,Firefox,85,Windows,10
9,1,null,"""",html-keyboard-response,145,438709,0.0-145.0,"<div style=""font-size:60px;"">+</div>","""",256,fixation,Memorization,null,500,"""","""","""","""","""","""","""","""",1,"""",3/22/2021 20:14,103.55.45.182,Mozilla/5.0 (Windows NT 10.0; Win64; x64; rv:85.0) Gecko/20100101 Firefox/85.0,,Firefox,85,Windows,10
9,1,2353,"""",html-keyboard-response,146,443713,0.0-146.0,"<img src='jspsych/CFDfaces/CFD-LM-217-162-N.jpg' height=""250px""></br><b>Jeffrey</b>","""",256,IntactFace,Memorization,70,5000,f,"""",CFD-AM-237-154-N.jpg,Kenneth,0,"""","""","""",1,"""",3/22/2021 20:14,103.55.45.182,Mozilla/5.0 (Windows NT 10.0; Win64; x64; rv:85.0) Gecko/20100101 Firefox/85.0,,Firefox,85,Windows,10
9,1,null,"""",html-keyboard-response,147,444215,0.0-147.0,"<div style=""font-size:60px;"">+</div>","""",256,fixation,Memorization,null,500,"""","""","""","""","""","""","""","""",1,"""",3/22/2021 20:14,103.55.45.182,Mozilla/5.0 (Windows NT 10.0; Win64; x64; rv:85.0) Gecko/20100101 Firefox/85.0,,Firefox,85,Windows,10
9,1,3211,"""",html-keyboard-response,148,449217,0.0-148.0,"<img src='jspsych/CFDfaces/CFD-WM-232-070-N.jpg' height=""250px""></br><b>Peter</b>","""",256,IntactFace,Memorization,70,5000,f,"""",CFD-LM-224-162-N.jpg,Mark,0,"""","""","""",1,"""",3/22/2021 20:14,103.55.45.182,Mozilla/5.0 (Windows NT 10.0; Win64; x64; rv:85.0) Gecko/20100101 Firefox/85.0,,Firefox,85,Windows,10
9,1,null,"""",html-keyboard-response,149,449718,0.0-149.0,"<div style=""font-size:60px;"">+</div>","""",256,fixation,Memorization,null,500,"""","""","""","""","""","""","""","""",1,"""",3/22/2021 20:14,103.55.45.182,Mozilla/5.0 (Windows NT 10.0; Win64; x64; rv:85.0) Gecko/20100101 Firefox/85.0,,Firefox,85,Windows,10
9,1,3565,"""",html-keyboard-response,150,454722,0.0-150.0,"<img src='jspsych/CFDfaces/CFD-BM-203-001-N.jpg' height=""250px""></br><b>Gregory</b>","""",256,IntactFace,Memorization,78,5000,n,"""",CFD-WF-202-056-N.jpg,Whitney,0,"""","""","""",1,"""",3/22/2021 20:14,103.55.45.182,Mozilla/5.0 (Windows NT 10.0; Win64; x64; rv:85.0) Gecko/20100101 Firefox/85.0,,Firefox,85,Windows,10
9,1,null,"""",html-keyboard-response,151,455222,0.0-151.0,"<div style=""font-size:60px;"">+</div>","""",256,fixation,Memorization,null,500,"""","""","""","""","""","""","""","""",1,"""",3/22/2021 20:14,103.55.45.182,Mozilla/5.0 (Windows NT 10.0; Win64; x64; rv:85.0) Gecko/20100101 Firefox/85.0,,Firefox,85,Windows,10
9,1,1583,"""",html-keyboard-response,152,456808,0.0-152.0,Press Any Key to Begin Memory Test,"""",1,welcomeScreen,Break,32,"""","""","""","""","""","""","""","""","""",1,"""",3/22/2021 20:14,103.55.45.182,Mozilla/5.0 (Windows NT 10.0; Win64; x64; rv:85.0) Gecko/20100101 Firefox/85.0,,Firefox,85,Windows,10
9,1,null,"""",html-keyboard-response,153,457809,0.0-153.0,"<div style=""font-size:60px;"">+</div>","""",256,ITI,Test,null,1000,"""","""","""","""","""","""","""","""",1,"""",3/22/2021 20:14,103.55.45.182,Mozilla/5.0 (Windows NT 10.0; Win64; x64; rv:85.0) Gecko/20100101 Firefox/85.0,,Firefox,85,Windows,10
9,1,null,"""",image-keyboard-response,154,458061,0.0-154.0,jspsych/scrambledDisgustFaces/scrambledAF16DIS.JPG,"""",256,forwardMask,Test,null,250,"""",d,"""","""","""","""","""","""",1,"""",3/22/2021 20:14,103.55.45.182,Mozilla/5.0 (Windows NT 10.0; Win64; x64; rv:85.0) Gecko/20100101 Firefox/85.0,,Firefox,85,Windows,10
9,1,null,"""",image-keyboard-response,155,458080,0.0-155.0,jspsych/disgustFaces/AF16DIS.JPG,"""",256,Cue,Test,null,16,"""","""","""","""","""","""","""","""",1,"""",3/22/2021 20:14,103.55.45.182,Mozilla/5.0 (Windows NT 10.0; Win64; x64; rv:85.0) Gecko/20100101 Firefox/85.0,,Firefox,85,Windows,10
9,1,null,"""",image-keyboard-response,156,458181,0.0-156.0,jspsych/neutralFaces/BF01NES.JPG,"""",256,backwardMask,Test,null,100,"""","""","""","""","""","""","""","""",1,"""",3/22/2021 20:14,103.55.45.182,Mozilla/5.0 (Windows NT 10.0; Win64; x64; rv:85.0) Gecko/20100101 Firefox/85.0,,Firefox,85,Windows,10
9,1,null,"""",html-keyboard-response,157,459181,0.0-157.0,"<div style=""font-size:60px;"">+</div>","""",256,fixationBtwnNeutralMaskAndPrompt,Test,null,1000,"""","""","""","""","""","""","""","""",1,"""",3/22/2021 20:14,103.55.45.182,Mozilla/5.0 (Windows NT 10.0; Win64; x64; rv:85.0) Gecko/20100101 Firefox/85.0,,Firefox,85,Windows,10
9,1,2004,"""",html-button-response,158,461188,0.0-158.0,"<img src='jspsych/CFDfaces/CFD-AM-229-224-N.jpg' height=""250px"">,</br><b>Ian</b>",1,256,IntactOrRearranged,Test,"""","""","""","""",CFD-AM-231-136-N.jpg,Mark,0,"""","""",1,1,"""",3/22/2021 20:14,103.55.45.182,Mozilla/5.0 (Windows NT 10.0; Win64; x64; rv:85.0) Gecko/20100101 Firefox/85.0,,Firefox,85,Windows,10
9,1,2108,"""",html-slider-response,159,463298,0.0-159.0,"<img src='jspsych/CFDfaces/CFD-AM-229-224-N.jpg' height=""250px"">,</br><b>Ian</b>","""",256,ConfidenceQuery,Test,"""","""","""","""",CFD-AM-231-136-N.jpg,Mark,0,0,49,"""",1,"""",3/22/2021 20:14,103.55.45.182,Mozilla/5.0 (Windows NT 10.0; Win64; x64; rv:85.0) Gecko/20100101 Firefox/85.0,,Firefox,85,Windows,10
9,1,null,"""",html-keyboard-response,160,464300,0.0-160.0,"<div style=""font-size:60px;"">+</div>","""",256,ITI,Test,null,1000,"""","""","""","""","""","""","""","""",1,"""",3/22/2021 20:14,103.55.45.182,Mozilla/5.0 (Windows NT 10.0; Win64; x64; rv:85.0) Gecko/20100101 Firefox/85.0,,Firefox,85,Windows,10
9,1,null,"""",image-keyboard-response,161,464552,0.0-161.0,jspsych/scrambledDisgustFaces/scrambledAF21DIS.JPG,"""",256,forwardMask,Test,null,250,"""",d,"""","""","""","""","""","""",1,"""",3/22/2021 20:14,103.55.45.182,Mozilla/5.0 (Windows NT 10.0; Win64; x64; rv:85.0) Gecko/20100101 Firefox/85.0,,Firefox,85,Windows,10
9,1,null,"""",image-keyboard-response,162,464571,0.0-162.0,jspsych/disgustFaces/AF21DIS.JPG,"""",256,Cue,Test,null,16,"""","""","""","""","""","""","""","""",1,"""",3/22/2021 20:14,103.55.45.182,Mozilla/5.0 (Windows NT 10.0; Win64; x64; rv:85.0) Gecko/20100101 Firefox/85.0,,Firefox,85,Windows,10
9,1,null,"""",image-keyboard-response,163,464673,0.0-163.0,jspsych/neutralFaces/BF18NES.JPG,"""",256,backwardMask,Test,null,100,"""","""","""","""","""","""","""","""",1,"""",3/22/2021 20:14,103.55.45.182,Mozilla/5.0 (Windows NT 10.0; Win64; x64; rv:85.0) Gecko/20100101 Firefox/85.0,,Firefox,85,Windows,10
9,1,null,"""",html-keyboard-response,164,465675,0.0-164.0,"<div style=""font-size:60px;"">+</div>","""",256,fixationBtwnNeutralMaskAndPrompt,Test,null,1000,"""","""","""","""","""","""","""","""",1,"""",3/22/2021 20:14,103.55.45.182,Mozilla/5.0 (Windows NT 10.0; Win64; x64; rv:85.0) Gecko/20100101 Firefox/85.0,,Firefox,85,Windows,10
9,1,2783,"""",html-button-response,165,468458,0.0-165.0,"<img src='jspsych/CFDfaces/CFD-WF-205-006-N.jpg' height=""250px"">,</br><b>Christina</b>",0,256,IntactOrRearranged,Test,"""","""","""","""",CFD-BM-039-029-N.jpg,Luis,1,"""","""",0,1,"""",3/22/2021 20:14,103.55.45.182,Mozilla/5.0 (Windows NT 10.0; Win64; x64; rv:85.0) Gecko/20100101 Firefox/85.0,,Firefox,85,Windows,10
9,1,1978,"""",html-slider-response,166,470440,0.0-166.0,"<img src='jspsych/CFDfaces/CFD-WF-205-006-N.jpg' height=""250px"">,</br><b>Christina</b>","""",256,ConfidenceQuery,Test,"""","""","""","""",CFD-BM-039-029-N.jpg,Luis,1,0,58,"""",1,"""",3/22/2021 20:14,103.55.45.182,Mozilla/5.0 (Windows NT 10.0; Win64; x64; rv:85.0) Gecko/20100101 Firefox/85.0,,Firefox,85,Windows,10
9,1,null,"""",html-keyboard-response,167,471440,0.0-167.0,"<div style=""font-size:60px;"">+</div>","""",256,ITI,Test,null,1000,"""","""","""","""","""","""","""","""",1,"""",3/22/2021 20:14,103.55.45.182,Mozilla/5.0 (Windows NT 10.0; Win64; x64; rv:85.0) Gecko/20100101 Firefox/85.0,,Firefox,85,Windows,10
9,1,null,"""",image-keyboard-response,168,471692,0.0-168.0,jspsych/scrambledDisgustFaces/scrambledAM09DIS.JPG,"""",256,forwardMask,Test,null,250,"""",d,"""","""","""","""","""","""",1,"""",3/22/2021 20:14,103.55.45.182,Mozilla/5.0 (Windows NT 10.0; Win64; x64; rv:85.0) Gecko/20100101 Firefox/85.0,,Firefox,85,Windows,10
9,1,null,"""",image-keyboard-response,169,471710,0.0-169.0,jspsych/disgustFaces/AM09DIS.JPG,"""",256,Cue,Test,null,16,"""","""","""","""","""","""","""","""",1,"""",3/22/2021 20:14,103.55.45.182,Mozilla/5.0 (Windows NT 10.0; Win64; x64; rv:85.0) Gecko/20100101 Firefox/85.0,,Firefox,85,Windows,10
9,1,null,"""",image-keyboard-response,170,471812,0.0-170.0,jspsych/neutralFaces/BM23NES.JPG,"""",256,backwardMask,Test,null,100,"""","""","""","""","""","""","""","""",1,"""",3/22/2021 20:14,103.55.45.182,Mozilla/5.0 (Windows NT 10.0; Win64; x64; rv:85.0) Gecko/20100101 Firefox/85.0,,Firefox,85,Windows,10
9,1,null,"""",html-keyboard-response,171,472812,0.0-171.0,"<div style=""font-size:60px;"">+</div>","""",256,fixationBtwnNeutralMaskAndPrompt,Test,null,1000,"""","""","""","""","""","""","""","""",1,"""",3/22/2021 20:14,103.55.45.182,Mozilla/5.0 (Windows NT 10.0; Win64; x64; rv:85.0) Gecko/20100101 Firefox/85.0,,Firefox,85,Windows,10
9,1,2483,"""",html-button-response,172,475298,0.0-172.0,"<img src='jspsych/CFDfaces/CFD-AF-215-70-N.jpg' height=""250px"">,</br><b>Julie</b>",0,256,IntactOrRearranged,Test,"""","""","""","""",CFD-AF-235-170-N.jpg,Rebecca,0,"""","""",0,1,"""",3/22/2021 20:14,103.55.45.182,Mozilla/5.0 (Windows NT 10.0; Win64; x64; rv:85.0) Gecko/20100101 Firefox/85.0,,Firefox,85,Windows,10
9,1,3162,"""",html-slider-response,173,478461,0.0-173.0,"<img src='jspsych/CFDfaces/CFD-AF-215-70-N.jpg' height=""250px"">,</br><b>Julie</b>","""",256,ConfidenceQuery,Test,"""","""","""","""",CFD-AF-235-170-N.jpg,Rebecca,0,0,74,"""",1,"""",3/22/2021 20:14,103.55.45.182,Mozilla/5.0 (Windows NT 10.0; Win64; x64; rv:85.0) Gecko/20100101 Firefox/85.0,,Firefox,85,Windows,10
9,1,null,"""",html-keyboard-response,174,479465,0.0-174.0,"<div style=""font-size:60px;"">+</div>","""",256,ITI,Test,null,1000,"""","""","""","""","""","""","""","""",1,"""",3/22/2021 20:14,103.55.45.182,Mozilla/5.0 (Windows NT 10.0; Win64; x64; rv:85.0) Gecko/20100101 Firefox/85.0,,Firefox,85,Windows,10
9,1,null,"""",image-keyboard-response,175,479715,0.0-175.0,jspsych/scrambledDisgustFaces/scrambledBM02DIS.JPG,"""",256,forwardMask,Test,null,250,"""",d,"""","""","""","""","""","""",1,"""",3/22/2021 20:14,103.55.45.182,Mozilla/5.0 (Windows NT 10.0; Win64; x64; rv:85.0) Gecko/20100101 Firefox/85.0,,Firefox,85,Windows,10
9,1,null,"""",image-keyboard-response,176,479735,0.0-176.0,jspsych/disgustFaces/BM03DIS.JPG,"""",256,Cue,Test,null,16,"""","""","""","""","""","""","""","""",1,"""",3/22/2021 20:14,103.55.45.182,Mozilla/5.0 (Windows NT 10.0; Win64; x64; rv:85.0) Gecko/20100101 Firefox/85.0,,Firefox,85,Windows,10
9,1,null,"""",image-keyboard-response,177,479836,0.0-177.0,jspsych/neutralFaces/BM02NES.JPG,"""",256,backwardMask,Test,null,100,"""","""","""","""","""","""","""","""",1,"""",3/22/2021 20:14,103.55.45.182,Mozilla/5.0 (Windows NT 10.0; Win64; x64; rv:85.0) Gecko/20100101 Firefox/85.0,,Firefox,85,Windows,10
9,1,null,"""",html-keyboard-response,178,480837,0.0-178.0,"<div style=""font-size:60px;"">+</div>","""",256,fixationBtwnNeutralMaskAndPrompt,Test,null,1000,"""","""","""","""","""","""","""","""",1,"""",3/22/2021 20:14,103.55.45.182,Mozilla/5.0 (Windows NT 10.0; Win64; x64; rv:85.0) Gecko/20100101 Firefox/85.0,,Firefox,85,Windows,10
9,1,2558,"""",html-button-response,179,483396,0.0-179.0,"<img src='jspsych/CFDfaces/CFD-BM-205-001-N.jpg' height=""250px"">,</br><b>Eric</b>",1,256,IntactOrRearranged,Test,"""","""","""","""",CFD-BM-211-174-N.jpg,Sean,1,"""","""",1,1,"""",3/22/2021 20:14,103.55.45.182,Mozilla/5.0 (Windows NT 10.0; Win64; x64; rv:85.0) Gecko/20100101 Firefox/85.0,,Firefox,85,Windows,10
9,1,2873,"""",html-slider-response,180,486272,0.0-180.0,"<img src='jspsych/CFDfaces/CFD-BM-205-001-N.jpg' height=""250px"">,</br><b>Eric</b>","""",256,ConfidenceQuery,Test,"""","""","""","""",CFD-BM-211-174-N.jpg,Sean,1,0,75,"""",1,"""",3/22/2021 20:14,103.55.45.182,Mozilla/5.0 (Windows NT 10.0; Win64; x64; rv:85.0) Gecko/20100101 Firefox/85.0,,Firefox,85,Windows,10
9,1,null,"""",html-keyboard-response,181,487274,0.0-181.0,"<div style=""font-size:60px;"">+</div>","""",256,ITI,Test,null,1000,"""","""","""","""","""","""","""","""",1,"""",3/22/2021 20:14,103.55.45.182,Mozilla/5.0 (Windows NT 10.0; Win64; x64; rv:85.0) Gecko/20100101 Firefox/85.0,,Firefox,85,Windows,10
9,1,null,"""",image-keyboard-response,182,487528,0.0-182.0,jspsych/scrambledNeutralFaces/scrambledBF21NES.JPG,"""",256,forwardMask,Test,null,250,"""",n,"""","""","""","""","""","""",1,"""",3/22/2021 20:14,103.55.45.182,Mozilla/5.0 (Windows NT 10.0; Win64; x64; rv:85.0) Gecko/20100101 Firefox/85.0,,Firefox,85,Windows,10
9,1,null,"""",image-keyboard-response,183,487546,0.0-183.0,jspsych/neutralFaces/BF21NES.JPG,"""",256,Cue,Test,null,16,"""","""","""","""","""","""","""","""",1,"""",3/22/2021 20:14,103.55.45.182,Mozilla/5.0 (Windows NT 10.0; Win64; x64; rv:85.0) Gecko/20100101 Firefox/85.0,,Firefox,85,Windows,10
9,1,null,"""",image-keyboard-response,184,487648,0.0-184.0,jspsych/neutralFaces/BF11NES.JPG,"""",256,backwardMask,Test,null,100,"""","""","""","""","""","""","""","""",1,"""",3/22/2021 20:14,103.55.45.182,Mozilla/5.0 (Windows NT 10.0; Win64; x64; rv:85.0) Gecko/20100101 Firefox/85.0,,Firefox,85,Windows,10
9,1,null,"""",html-keyboard-response,185,488648,0.0-185.0,"<div style=""font-size:60px;"">+</div>","""",256,fixationBtwnNeutralMaskAndPrompt,Test,null,1000,"""","""","""","""","""","""","""","""",1,"""",3/22/2021 20:14,103.55.45.182,Mozilla/5.0 (Windows NT 10.0; Win64; x64; rv:85.0) Gecko/20100101 Firefox/85.0,,Firefox,85,Windows,10
9,1,2354,"""",html-button-response,186,491004,0.0-186.0,"<img src='jspsych/CFDfaces/CFD-BM-001-014-N.jpg' height=""250px"">,</br><b>Joshua</b>",0,256,IntactOrRearranged,Test,"""","""","""","""",CFD-AM-237-154-N.jpg,Jeremy,1,"""","""",0,1,"""",3/22/2021 20:14,103.55.45.182,Mozilla/5.0 (Windows NT 10.0; Win64; x64; rv:85.0) Gecko/20100101 Firefox/85.0,,Firefox,85,Windows,10
9,1,4057,"""",html-slider-response,187,495063,0.0-187.0,"<img src='jspsych/CFDfaces/CFD-BM-001-014-N.jpg' height=""250px"">,</br><b>Joshua</b>","""",256,ConfidenceQuery,Test,"""","""","""","""",CFD-AM-237-154-N.jpg,Jeremy,1,0,70,"""",1,"""",3/22/2021 20:14,103.55.45.182,Mozilla/5.0 (Windows NT 10.0; Win64; x64; rv:85.0) Gecko/20100101 Firefox/85.0,,Firefox,85,Windows,10
9,1,null,"""",html-keyboard-response,188,496066,0.0-188.0,"<div style=""font-size:60px;"">+</div>","""",256,ITI,Test,null,1000,"""","""","""","""","""","""","""","""",1,"""",3/22/2021 20:14,103.55.45.182,Mozilla/5.0 (Windows NT 10.0; Win64; x64; rv:85.0) Gecko/20100101 Firefox/85.0,,Firefox,85,Windows,10
9,1,null,"""",image-keyboard-response,189,496317,0.0-189.0,jspsych/scrambledDisgustFaces/scrambledAM35DIS.JPG,"""",256,forwardMask,Test,null,250,"""",d,"""","""","""","""","""","""",1,"""",3/22/2021 20:14,103.55.45.182,Mozilla/5.0 (Windows NT 10.0; Win64; x64; rv:85.0) Gecko/20100101 Firefox/85.0,,Firefox,85,Windows,10
9,1,null,"""",image-keyboard-response,190,496336,0.0-190.0,jspsych/disgustFaces/AM35DIS.JPG,"""",256,Cue,Test,null,16,"""","""","""","""","""","""","""","""",1,"""",3/22/2021 20:14,103.55.45.182,Mozilla/5.0 (Windows NT 10.0; Win64; x64; rv:85.0) Gecko/20100101 Firefox/85.0,,Firefox,85,Windows,10
9,1,null,"""",image-keyboard-response,191,496437,0.0-191.0,jspsych/neutralFaces/AM05NES.JPG,"""",256,backwardMask,Test,null,100,"""","""","""","""","""","""","""","""",1,"""",3/22/2021 20:14,103.55.45.182,Mozilla/5.0 (Windows NT 10.0; Win64; x64; rv:85.0) Gecko/20100101 Firefox/85.0,,Firefox,85,Windows,10
9,1,null,"""",html-keyboard-response,192,497438,0.0-192.0,"<div style=""font-size:60px;"">+</div>","""",256,fixationBtwnNeutralMaskAndPrompt,Test,null,1000,"""","""","""","""","""","""","""","""",1,"""",3/22/2021 20:14,103.55.45.182,Mozilla/5.0 (Windows NT 10.0; Win64; x64; rv:85.0) Gecko/20100101 Firefox/85.0,,Firefox,85,Windows,10
9,1,1878,"""",html-button-response,193,499316,0.0-193.0,"<img src='jspsych/CFDfaces/CFD-BM-010-003-N.jpg' height=""250px"">,</br><b>James</b>",1,256,IntactOrRearranged,Test,"""","""","""","""",CFD-BF-004-014-N.jpg,Melissa,1,"""","""",1,1,"""",3/22/2021 20:14,103.55.45.182,Mozilla/5.0 (Windows NT 10.0; Win64; x64; rv:85.0) Gecko/20100101 Firefox/85.0,,Firefox,85,Windows,10
9,1,2403,"""",html-slider-response,194,501722,0.0-194.0,"<img src='jspsych/CFDfaces/CFD-BM-010-003-N.jpg' height=""250px"">,</br><b>James</b>","""",256,ConfidenceQuery,Test,"""","""","""","""",CFD-BF-004-014-N.jpg,Melissa,1,0,82,"""",1,"""",3/22/2021 20:14,103.55.45.182,Mozilla/5.0 (Windows NT 10.0; Win64; x64; rv:85.0) Gecko/20100101 Firefox/85.0,,Firefox,85,Windows,10
9,1,null,"""",html-keyboard-response,195,502723,0.0-195.0,"<div style=""font-size:60px;"">+</div>","""",256,ITI,Test,null,1000,"""","""","""","""","""","""","""","""",1,"""",3/22/2021 20:14,103.55.45.182,Mozilla/5.0 (Windows NT 10.0; Win64; x64; rv:85.0) Gecko/20100101 Firefox/85.0,,Firefox,85,Windows,10
9,1,null,"""",image-keyboard-response,196,502974,0.0-196.0,jspsych/scrambledNeutralFaces/scrambledBF05NES.JPG,"""",256,forwardMask,Test,null,250,"""",n,"""","""","""","""","""","""",1,"""",3/22/2021 20:14,103.55.45.182,Mozilla/5.0 (Windows NT 10.0; Win64; x64; rv:85.0) Gecko/20100101 Firefox/85.0,,Firefox,85,Windows,10
9,1,null,"""",image-keyboard-response,197,502992,0.0-197.0,jspsych/neutralFaces/BF05NES.JPG,"""",256,Cue,Test,null,16,"""","""","""","""","""","""","""","""",1,"""",3/22/2021 20:14,103.55.45.182,Mozilla/5.0 (Windows NT 10.0; Win64; x64; rv:85.0) Gecko/20100101 Firefox/85.0,,Firefox,85,Windows,10
9,1,null,"""",image-keyboard-response,198,503095,0.0-198.0,jspsych/neutralFaces/AF03NES.JPG,"""",256,backwardMask,Test,null,100,"""","""","""","""","""","""","""","""",1,"""",3/22/2021 20:14,103.55.45.182,Mozilla/5.0 (Windows NT 10.0; Win64; x64; rv:85.0) Gecko/20100101 Firefox/85.0,,Firefox,85,Windows,10
9,1,null,"""",html-keyboard-response,199,504095,0.0-199.0,"<div style=""font-size:60px;"">+</div>","""",256,fixationBtwnNeutralMaskAndPrompt,Test,null,1000,"""","""","""","""","""","""","""","""",1,"""",3/22/2021 20:14,103.55.45.182,Mozilla/5.0 (Windows NT 10.0; Win64; x64; rv:85.0) Gecko/20100101 Firefox/85.0,,Firefox,85,Windows,10
9,1,2127,"""",html-button-response,200,506226,0.0-200.0,"<img src='jspsych/CFDfaces/CFD-BM-203-001-N.jpg' height=""250px"">,</br><b>Daniel</b>",1,256,IntactOrRearranged,Test,"""","""","""","""",CFD-LM-233-171-N.jpg,Travis,1,"""","""",1,1,"""",3/22/2021 20:14,103.55.45.182,Mozilla/5.0 (Windows NT 10.0; Win64; x64; rv:85.0) Gecko/20100101 Firefox/85.0,,Firefox,85,Windows,10
9,1,3014,"""",html-slider-response,201,509240,0.0-201.0,"<img src='jspsych/CFDfaces/CFD-BM-203-001-N.jpg' height=""250px"">,</br><b>Daniel</b>","""",256,ConfidenceQuery,Test,"""","""","""","""",CFD-LM-233-171-N.jpg,Travis,1,0,72,"""",1,"""",3/22/2021 20:14,103.55.45.182,Mozilla/5.0 (Windows NT 10.0; Win64; x64; rv:85.0) Gecko/20100101 Firefox/85.0,,Firefox,85,Windows,10
9,1,null,"""",html-keyboard-response,202,510244,0.0-202.0,"<div style=""font-size:60px;"">+</div>","""",256,ITI,Test,null,1000,"""","""","""","""","""","""","""","""",1,"""",3/22/2021 20:14,103.55.45.182,Mozilla/5.0 (Windows NT 10.0; Win64; x64; rv:85.0) Gecko/20100101 Firefox/85.0,,Firefox,85,Windows,10
9,1,null,"""",image-keyboard-response,203,510495,0.0-203.0,jspsych/scrambledDisgustFaces/scrambledBF27DIS.JPG,"""",256,forwardMask,Test,null,250,"""",d,"""","""","""","""","""","""",1,"""",3/22/2021 20:14,103.55.45.182,Mozilla/5.0 (Windows NT 10.0; Win64; x64; rv:85.0) Gecko/20100101 Firefox/85.0,,Firefox,85,Windows,10
9,1,null,"""",image-keyboard-response,204,510512,0.0-204.0,jspsych/disgustFaces/BF27DIS.JPG,"""",256,Cue,Test,null,16,"""","""","""","""","""","""","""","""",1,"""",3/22/2021 20:14,103.55.45.182,Mozilla/5.0 (Windows NT 10.0; Win64; x64; rv:85.0) Gecko/20100101 Firefox/85.0,,Firefox,85,Windows,10
9,1,null,"""",image-keyboard-response,205,510613,0.0-205.0,jspsych/neutralFaces/AF07NES.JPG,"""",256,backwardMask,Test,null,100,"""","""","""","""","""","""","""","""",1,"""",3/22/2021 20:14,103.55.45.182,Mozilla/5.0 (Windows NT 10.0; Win64; x64; rv:85.0) Gecko/20100101 Firefox/85.0,,Firefox,85,Windows,10
9,1,null,"""",html-keyboard-response,206,511615,0.0-206.0,"<div style=""font-size:60px;"">+</div>","""",256,fixationBtwnNeutralMaskAndPrompt,Test,null,1000,"""","""","""","""","""","""","""","""",1,"""",3/22/2021 20:14,103.55.45.182,Mozilla/5.0 (Windows NT 10.0; Win64; x64; rv:85.0) Gecko/20100101 Firefox/85.0,,Firefox,85,Windows,10
9,1,2852,"""",html-button-response,207,514467,0.0-207.0,"<img src='jspsych/CFDfaces/CFD-BF-008-001-N.jpg' height=""250px"">,</br><b>Kayla</b>",1,256,IntactOrRearranged,Test,"""","""","""","""",CFD-LF-220-120-N.jpg,Jasmine,0,"""","""",1,1,"""",3/22/2021 20:14,103.55.45.182,Mozilla/5.0 (Windows NT 10.0; Win64; x64; rv:85.0) Gecko/20100101 Firefox/85.0,,Firefox,85,Windows,10
9,1,1929,"""",html-slider-response,208,516400,0.0-208.0,"<img src='jspsych/CFDfaces/CFD-BF-008-001-N.jpg' height=""250px"">,</br><b>Kayla</b>","""",256,ConfidenceQuery,Test,"""","""","""","""",CFD-LF-220-120-N.jpg,Jasmine,0,0,50,"""",1,"""",3/22/2021 20:14,103.55.45.182,Mozilla/5.0 (Windows NT 10.0; Win64; x64; rv:85.0) Gecko/20100101 Firefox/85.0,,Firefox,85,Windows,10
9,1,null,"""",html-keyboard-response,209,517401,0.0-209.0,"<div style=""font-size:60px;"">+</div>","""",256,ITI,Test,null,1000,"""","""","""","""","""","""","""","""",1,"""",3/22/2021 20:14,103.55.45.182,Mozilla/5.0 (Windows NT 10.0; Win64; x64; rv:85.0) Gecko/20100101 Firefox/85.0,,Firefox,85,Windows,10
9,1,null,"""",image-keyboard-response,210,517652,0.0-210.0,jspsych/scrambledNeutralFaces/scrambledAF19NES.JPG,"""",256,forwardMask,Test,null,250,"""",n,"""","""","""","""","""","""",1,"""",3/22/2021 20:14,103.55.45.182,Mozilla/5.0 (Windows NT 10.0; Win64; x64; rv:85.0) Gecko/20100101 Firefox/85.0,,Firefox,85,Windows,10
9,1,null,"""",image-keyboard-response,211,517670,0.0-211.0,jspsych/neutralFaces/AF19NES.JPG,"""",256,Cue,Test,null,16,"""","""","""","""","""","""","""","""",1,"""",3/22/2021 20:14,103.55.45.182,Mozilla/5.0 (Windows NT 10.0; Win64; x64; rv:85.0) Gecko/20100101 Firefox/85.0,,Firefox,85,Windows,10
9,1,null,"""",image-keyboard-response,212,517773,0.0-212.0,jspsych/neutralFaces/AF13NES.JPG,"""",256,backwardMask,Test,null,100,"""","""","""","""","""","""","""","""",1,"""",3/22/2021 20:14,103.55.45.182,Mozilla/5.0 (Windows NT 10.0; Win64; x64; rv:85.0) Gecko/20100101 Firefox/85.0,,Firefox,85,Windows,10
9,1,null,"""",html-keyboard-response,213,518774,0.0-213.0,"<div style=""font-size:60px;"">+</div>","""",256,fixationBtwnNeutralMaskAndPrompt,Test,null,1000,"""","""","""","""","""","""","""","""",1,"""",3/22/2021 20:14,103.55.45.182,Mozilla/5.0 (Windows NT 10.0; Win64; x64; rv:85.0) Gecko/20100101 Firefox/85.0,,Firefox,85,Windows,10
9,1,1689,"""",html-button-response,214,520465,0.0-214.0,"<img src='jspsych/CFDfaces/CFD-AF-201-060-N.jpg' height=""250px"">,</br><b>Michelle</b>",0,256,IntactOrRearranged,Test,"""","""","""","""",CFD-AM-202-079-N.jpg,Cameron,0,"""","""",0,1,"""",3/22/2021 20:14,103.55.45.182,Mozilla/5.0 (Windows NT 10.0; Win64; x64; rv:85.0) Gecko/20100101 Firefox/85.0,,Firefox,85,Windows,10
9,1,2287,"""",html-slider-response,215,522753,0.0-215.0,"<img src='jspsych/CFDfaces/CFD-AF-201-060-N.jpg' height=""250px"">,</br><b>Michelle</b>","""",256,ConfidenceQuery,Test,"""","""","""","""",CFD-AM-202-079-N.jpg,Cameron,0,0,79,"""",1,"""",3/22/2021 20:14,103.55.45.182,Mozilla/5.0 (Windows NT 10.0; Win64; x64; rv:85.0) Gecko/20100101 Firefox/85.0,,Firefox,85,Windows,10
9,1,null,"""",html-keyboard-response,216,523755,0.0-216.0,"<div style=""font-size:60px;"">+</div>","""",256,ITI,Test,null,1000,"""","""","""","""","""","""","""","""",1,"""",3/22/2021 20:14,103.55.45.182,Mozilla/5.0 (Windows NT 10.0; Win64; x64; rv:85.0) Gecko/20100101 Firefox/85.0,,Firefox,85,Windows,10
9,1,null,"""",image-keyboard-response,217,524009,0.0-217.0,jspsych/scrambledDisgustFaces/scrambledBF35DIS.JPG,"""",256,forwardMask,Test,null,250,"""",d,"""","""","""","""","""","""",1,"""",3/22/2021 20:14,103.55.45.182,Mozilla/5.0 (Windows NT 10.0; Win64; x64; rv:85.0) Gecko/20100101 Firefox/85.0,,Firefox,85,Windows,10
9,1,null,"""",image-keyboard-response,218,524028,0.0-218.0,jspsych/disgustFaces/BF35DIS.JPG,"""",256,Cue,Test,null,16,"""","""","""","""","""","""","""","""",1,"""",3/22/2021 20:14,103.55.45.182,Mozilla/5.0 (Windows NT 10.0; Win64; x64; rv:85.0) Gecko/20100101 Firefox/85.0,,Firefox,85,Windows,10
9,1,null,"""",image-keyboard-response,219,524130,0.0-219.0,jspsych/neutralFaces/AF16NES.JPG,"""",256,backwardMask,Test,null,100,"""","""","""","""","""","""","""","""",1,"""",3/22/2021 20:14,103.55.45.182,Mozilla/5.0 (Windows NT 10.0; Win64; x64; rv:85.0) Gecko/20100101 Firefox/85.0,,Firefox,85,Windows,10
9,1,null,"""",html-keyboard-response,220,525130,0.0-220.0,"<div style=""font-size:60px;"">+</div>","""",256,fixationBtwnNeutralMaskAndPrompt,Test,null,1000,"""","""","""","""","""","""","""","""",1,"""",3/22/2021 20:14,103.55.45.182,Mozilla/5.0 (Windows NT 10.0; Win64; x64; rv:85.0) Gecko/20100101 Firefox/85.0,,Firefox,85,Windows,10
9,1,1716,"""",html-button-response,221,526846,0.0-221.0,"<img src='jspsych/CFDfaces/CFD-WF-023-003-N.jpg' height=""250px"">,</br><b>Stephanie</b>",0,256,IntactOrRearranged,Test,"""","""","""","""",CFD-BF-021-013-N.jpg,Tiffany,0,"""","""",0,1,"""",3/22/2021 20:14,103.55.45.182,Mozilla/5.0 (Windows NT 10.0; Win64; x64; rv:85.0) Gecko/20100101 Firefox/85.0,,Firefox,85,Windows,10
9,1,2645,"""",html-slider-response,222,529495,0.0-222.0,"<img src='jspsych/CFDfaces/CFD-WF-023-003-N.jpg' height=""250px"">,</br><b>Stephanie</b>","""",256,ConfidenceQuery,Test,"""","""","""","""",CFD-BF-021-013-N.jpg,Tiffany,0,0,74,"""",1,"""",3/22/2021 20:14,103.55.45.182,Mozilla/5.0 (Windows NT 10.0; Win64; x64; rv:85.0) Gecko/20100101 Firefox/85.0,,Firefox,85,Windows,10
9,1,null,"""",html-keyboard-response,223,530496,0.0-223.0,"<div style=""font-size:60px;"">+</div>","""",256,ITI,Test,null,1000,"""","""","""","""","""","""","""","""",1,"""",3/22/2021 20:14,103.55.45.182,Mozilla/5.0 (Windows NT 10.0; Win64; x64; rv:85.0) Gecko/20100101 Firefox/85.0,,Firefox,85,Windows,10
9,1,null,"""",image-keyboard-response,224,530747,0.0-224.0,jspsych/scrambledDisgustFaces/scrambledBM05DIS.JPG,"""",256,forwardMask,Test,null,250,"""",d,"""","""","""","""","""","""",1,"""",3/22/2021 20:14,103.55.45.182,Mozilla/5.0 (Windows NT 10.0; Win64; x64; rv:85.0) Gecko/20100101 Firefox/85.0,,Firefox,85,Windows,10
9,1,null,"""",image-keyboard-response,225,530768,0.0-225.0,jspsych/disgustFaces/BM06DIS.JPG,"""",256,Cue,Test,null,16,"""","""","""","""","""","""","""","""",1,"""",3/22/2021 20:14,103.55.45.182,Mozilla/5.0 (Windows NT 10.0; Win64; x64; rv:85.0) Gecko/20100101 Firefox/85.0,,Firefox,85,Windows,10
9,1,null,"""",image-keyboard-response,226,530869,0.0-226.0,jspsych/neutralFaces/BM16NES.JPG,"""",256,backwardMask,Test,null,100,"""","""","""","""","""","""","""","""",1,"""",3/22/2021 20:14,103.55.45.182,Mozilla/5.0 (Windows NT 10.0; Win64; x64; rv:85.0) Gecko/20100101 Firefox/85.0,,Firefox,85,Windows,10
9,1,null,"""",html-keyboard-response,227,531870,0.0-227.0,"<div style=""font-size:60px;"">+</div>","""",256,fixationBtwnNeutralMaskAndPrompt,Test,null,1000,"""","""","""","""","""","""","""","""",1,"""",3/22/2021 20:14,103.55.45.182,Mozilla/5.0 (Windows NT 10.0; Win64; x64; rv:85.0) Gecko/20100101 Firefox/85.0,,Firefox,85,Windows,10
9,1,4235,"""",html-button-response,228,536105,0.0-228.0,"<img src='jspsych/CFDfaces/CFD-LM-220-329-N.jpg' height=""250px"">,</br><b>Gregory</b>",1,256,IntactOrRearranged,Test,"""","""","""","""",CFD-AF-239-171-N.jpg,Sara,1,"""","""",1,1,"""",3/22/2021 20:14,103.55.45.182,Mozilla/5.0 (Windows NT 10.0; Win64; x64; rv:85.0) Gecko/20100101 Firefox/85.0,,Firefox,85,Windows,10
9,1,2851,"""",html-slider-response,229,538959,0.0-229.0,"<img src='jspsych/CFDfaces/CFD-LM-220-329-N.jpg' height=""250px"">,</br><b>Gregory</b>","""",256,ConfidenceQuery,Test,"""","""","""","""",CFD-AF-239-171-N.jpg,Sara,1,0,41,"""",1,"""",3/22/2021 20:14,103.55.45.182,Mozilla/5.0 (Windows NT 10.0; Win64; x64; rv:85.0) Gecko/20100101 Firefox/85.0,,Firefox,85,Windows,10
9,1,null,"""",html-keyboard-response,230,539960,0.0-230.0,"<div style=""font-size:60px;"">+</div>","""",256,ITI,Test,null,1000,"""","""","""","""","""","""","""","""",1,"""",3/22/2021 20:14,103.55.45.182,Mozilla/5.0 (Windows NT 10.0; Win64; x64; rv:85.0) Gecko/20100101 Firefox/85.0,,Firefox,85,Windows,10
9,1,null,"""",image-keyboard-response,231,540211,0.0-231.0,jspsych/scrambledDisgustFaces/scrambledBF05DIS.JPG,"""",256,forwardMask,Test,null,250,"""",d,"""","""","""","""","""","""",1,"""",3/22/2021 20:14,103.55.45.182,Mozilla/5.0 (Windows NT 10.0; Win64; x64; rv:85.0) Gecko/20100101 Firefox/85.0,,Firefox,85,Windows,10
9,1,null,"""",image-keyboard-response,232,540229,0.0-232.0,jspsych/disgustFaces/BF05DIS.JPG,"""",256,Cue,Test,null,16,"""","""","""","""","""","""","""","""",1,"""",3/22/2021 20:14,103.55.45.182,Mozilla/5.0 (Windows NT 10.0; Win64; x64; rv:85.0) Gecko/20100101 Firefox/85.0,,Firefox,85,Windows,10
9,1,null,"""",image-keyboard-response,233,540332,0.0-233.0,jspsych/neutralFaces/BF31NES.JPG,"""",256,backwardMask,Test,null,100,"""","""","""","""","""","""","""","""",1,"""",3/22/2021 20:14,103.55.45.182,Mozilla/5.0 (Windows NT 10.0; Win64; x64; rv:85.0) Gecko/20100101 Firefox/85.0,,Firefox,85,Windows,10
9,1,null,"""",html-keyboard-response,234,541335,0.0-234.0,"<div style=""font-size:60px;"">+</div>","""",256,fixationBtwnNeutralMaskAndPrompt,Test,null,1000,"""","""","""","""","""","""","""","""",1,"""",3/22/2021 20:14,103.55.45.182,Mozilla/5.0 (Windows NT 10.0; Win64; x64; rv:85.0) Gecko/20100101 Firefox/85.0,,Firefox,85,Windows,10
9,1,2067,"""",html-button-response,235,543403,0.0-235.0,"<img src='jspsych/CFDfaces/CFD-WM-207-048-N.jpg' height=""250px"">,</br><b>Nicholas</b>",0,256,IntactOrRearranged,Test,"""","""","""","""",CFD-WF-204-038-N.jpg,Erin,0,"""","""",0,1,"""",3/22/2021 20:14,103.55.45.182,Mozilla/5.0 (Windows NT 10.0; Win64; x64; rv:85.0) Gecko/20100101 Firefox/85.0,,Firefox,85,Windows,10
9,1,1752,"""",html-slider-response,236,545157,0.0-236.0,"<img src='jspsych/CFDfaces/CFD-WM-207-048-N.jpg' height=""250px"">,</br><b>Nicholas</b>","""",256,ConfidenceQuery,Test,"""","""","""","""",CFD-WF-204-038-N.jpg,Erin,0,0,59,"""",1,"""",3/22/2021 20:14,103.55.45.182,Mozilla/5.0 (Windows NT 10.0; Win64; x64; rv:85.0) Gecko/20100101 Firefox/85.0,,Firefox,85,Windows,10
9,1,null,"""",html-keyboard-response,237,546160,0.0-237.0,"<div style=""font-size:60px;"">+</div>","""",256,ITI,Test,null,1000,"""","""","""","""","""","""","""","""",1,"""",3/22/2021 20:14,103.55.45.182,Mozilla/5.0 (Windows NT 10.0; Win64; x64; rv:85.0) Gecko/20100101 Firefox/85.0,,Firefox,85,Windows,10
9,1,null,"""",image-keyboard-response,238,546411,0.0-238.0,jspsych/scrambledDisgustFaces/scrambledAF02DIS.JPG,"""",256,forwardMask,Test,null,250,"""",d,"""","""","""","""","""","""",1,"""",3/22/2021 20:14,103.55.45.182,Mozilla/5.0 (Windows NT 10.0; Win64; x64; rv:85.0) Gecko/20100101 Firefox/85.0,,Firefox,85,Windows,10
9,1,null,"""",image-keyboard-response,239,546430,0.0-239.0,jspsych/disgustFaces/AF02DIS.JPG,"""",256,Cue,Test,null,16,"""","""","""","""","""","""","""","""",1,"""",3/22/2021 20:14,103.55.45.182,Mozilla/5.0 (Windows NT 10.0; Win64; x64; rv:85.0) Gecko/20100101 Firefox/85.0,,Firefox,85,Windows,10
9,1,null,"""",image-keyboard-response,240,546532,0.0-240.0,jspsych/neutralFaces/BF16NES.JPG,"""",256,backwardMask,Test,null,100,"""","""","""","""","""","""","""","""",1,"""",3/22/2021 20:14,103.55.45.182,Mozilla/5.0 (Windows NT 10.0; Win64; x64; rv:85.0) Gecko/20100101 Firefox/85.0,,Firefox,85,Windows,10
9,1,null,"""",html-keyboard-response,241,547532,0.0-241.0,"<div style=""font-size:60px;"">+</div>","""",256,fixationBtwnNeutralMaskAndPrompt,Test,null,1000,"""","""","""","""","""","""","""","""",1,"""",3/22/2021 20:14,103.55.45.182,Mozilla/5.0 (Windows NT 10.0; Win64; x64; rv:85.0) Gecko/20100101 Firefox/85.0,,Firefox,85,Windows,10
9,1,3685,"""",html-button-response,242,551218,0.0-242.0,"<img src='jspsych/CFDfaces/CFD-WF-215-145-N.jpg' height=""250px"">,</br><b>Andrea</b>",0,256,IntactOrRearranged,Test,"""","""","""","""",CFD-LF-230-203-N.jpg,Lindsey,1,"""","""",0,1,"""",3/22/2021 20:14,103.55.45.182,Mozilla/5.0 (Windows NT 10.0; Win64; x64; rv:85.0) Gecko/20100101 Firefox/85.0,,Firefox,85,Windows,10
9,1,1822,"""",html-slider-response,243,553045,0.0-243.0,"<img src='jspsych/CFDfaces/CFD-WF-215-145-N.jpg' height=""250px"">,</br><b>Andrea</b>","""",256,ConfidenceQuery,Test,"""","""","""","""",CFD-LF-230-203-N.jpg,Lindsey,1,0,53,"""",1,"""",3/22/2021 20:14,103.55.45.182,Mozilla/5.0 (Windows NT 10.0; Win64; x64; rv:85.0) Gecko/20100101 Firefox/85.0,,Firefox,85,Windows,10
9,1,null,"""",html-keyboard-response,244,554046,0.0-244.0,"<div style=""font-size:60px;"">+</div>","""",256,ITI,Test,null,1000,"""","""","""","""","""","""","""","""",1,"""",3/22/2021 20:14,103.55.45.182,Mozilla/5.0 (Windows NT 10.0; Win64; x64; rv:85.0) Gecko/20100101 Firefox/85.0,,Firefox,85,Windows,10
9,1,null,"""",image-keyboard-response,245,554297,0.0-245.0,jspsych/scrambledDisgustFaces/scrambledAM34DIS.JPG,"""",256,forwardMask,Test,null,250,"""",d,"""","""","""","""","""","""",1,"""",3/22/2021 20:14,103.55.45.182,Mozilla/5.0 (Windows NT 10.0; Win64; x64; rv:85.0) Gecko/20100101 Firefox/85.0,,Firefox,85,Windows,10
9,1,null,"""",image-keyboard-response,246,554314,0.0-246.0,jspsych/disgustFaces/AM34DIS.JPG,"""",256,Cue,Test,null,16,"""","""","""","""","""","""","""","""",1,"""",3/22/2021 20:14,103.55.45.182,Mozilla/5.0 (Windows NT 10.0; Win64; x64; rv:85.0) Gecko/20100101 Firefox/85.0,,Firefox,85,Windows,10
9,1,null,"""",image-keyboard-response,247,554416,0.0-247.0,jspsych/neutralFaces/BM35NES.JPG,"""",256,backwardMask,Test,null,100,"""","""","""","""","""","""","""","""",1,"""",3/22/2021 20:14,103.55.45.182,Mozilla/5.0 (Windows NT 10.0; Win64; x64; rv:85.0) Gecko/20100101 Firefox/85.0,,Firefox,85,Windows,10
9,1,null,"""",html-keyboard-response,248,555418,0.0-248.0,"<div style=""font-size:60px;"">+</div>","""",256,fixationBtwnNeutralMaskAndPrompt,Test,null,1000,"""","""","""","""","""","""","""","""",1,"""",3/22/2021 20:14,103.55.45.182,Mozilla/5.0 (Windows NT 10.0; Win64; x64; rv:85.0) Gecko/20100101 Firefox/85.0,,Firefox,85,Windows,10
9,1,3970,"""",html-button-response,249,559390,0.0-249.0,"<img src='jspsych/CFDfaces/CFD-BM-032-024-N.jpg' height=""250px"">,</br><b>Brandon</b>",0,256,IntactOrRearranged,Test,"""","""","""","""",CFD-WF-016-015-N.jpg,Jenna,0,"""","""",0,1,"""",3/22/2021 20:14,103.55.45.182,Mozilla/5.0 (Windows NT 10.0; Win64; x64; rv:85.0) Gecko/20100101 Firefox/85.0,,Firefox,85,Windows,10
9,1,1655,"""",html-slider-response,250,561047,0.0-250.0,"<img src='jspsych/CFDfaces/CFD-BM-032-024-N.jpg' height=""250px"">,</br><b>Brandon</b>","""",256,ConfidenceQuery,Test,"""","""","""","""",CFD-WF-016-015-N.jpg,Jenna,0,0,49,"""",1,"""",3/22/2021 20:14,103.55.45.182,Mozilla/5.0 (Windows NT 10.0; Win64; x64; rv:85.0) Gecko/20100101 Firefox/85.0,,Firefox,85,Windows,10
9,1,null,"""",html-keyboard-response,251,562049,0.0-251.0,"<div style=""font-size:60px;"">+</div>","""",256,ITI,Test,null,1000,"""","""","""","""","""","""","""","""",1,"""",3/22/2021 20:14,103.55.45.182,Mozilla/5.0 (Windows NT 10.0; Win64; x64; rv:85.0) Gecko/20100101 Firefox/85.0,,Firefox,85,Windows,10
9,1,null,"""",image-keyboard-response,252,562301,0.0-252.0,jspsych/scrambledDisgustFaces/scrambledBM14DIS.JPG,"""",256,forwardMask,Test,null,250,"""",d,"""","""","""","""","""","""",1,"""",3/22/2021 20:14,103.55.45.182,Mozilla/5.0 (Windows NT 10.0; Win64; x64; rv:85.0) Gecko/20100101 Firefox/85.0,,Firefox,85,Windows,10
9,1,null,"""",image-keyboard-response,253,562319,0.0-253.0,jspsych/disgustFaces/BM15DIS.JPG,"""",256,Cue,Test,null,16,"""","""","""","""","""","""","""","""",1,"""",3/22/2021 20:14,103.55.45.182,Mozilla/5.0 (Windows NT 10.0; Win64; x64; rv:85.0) Gecko/20100101 Firefox/85.0,,Firefox,85,Windows,10
9,1,null,"""",image-keyboard-response,254,562421,0.0-254.0,jspsych/neutralFaces/BM25NES.JPG,"""",256,backwardMask,Test,null,100,"""","""","""","""","""","""","""","""",1,"""",3/22/2021 20:14,103.55.45.182,Mozilla/5.0 (Windows NT 10.0; Win64; x64; rv:85.0) Gecko/20100101 Firefox/85.0,,Firefox,85,Windows,10
9,1,null,"""",html-keyboard-response,255,563423,0.0-255.0,"<div style=""font-size:60px;"">+</div>","""",256,fixationBtwnNeutralMaskAndPrompt,Test,null,1000,"""","""","""","""","""","""","""","""",1,"""",3/22/2021 20:14,103.55.45.182,Mozilla/5.0 (Windows NT 10.0; Win64; x64; rv:85.0) Gecko/20100101 Firefox/85.0,,Firefox,85,Windows,10
9,1,4016,"""",html-button-response,256,567439,0.0-256.0,"<img src='jspsych/CFDfaces/CFD-LF-232-199-N.jpg' height=""250px"">,</br><b>Vanessa</b>",0,256,IntactOrRearranged,Test,"""","""","""","""",CFD-WF-220-101-N.jpg,Taylor,0,"""","""",0,1,"""",3/22/2021 20:14,103.55.45.182,Mozilla/5.0 (Windows NT 10.0; Win64; x64; rv:85.0) Gecko/20100101 Firefox/85.0,,Firefox,85,Windows,10
9,1,1897,"""",html-slider-response,257,569340,0.0-257.0,"<img src='jspsych/CFDfaces/CFD-LF-232-199-N.jpg' height=""250px"">,</br><b>Vanessa</b>","""",256,ConfidenceQuery,Test,"""","""","""","""",CFD-WF-220-101-N.jpg,Taylor,0,0,36,"""",1,"""",3/22/2021 20:14,103.55.45.182,Mozilla/5.0 (Windows NT 10.0; Win64; x64; rv:85.0) Gecko/20100101 Firefox/85.0,,Firefox,85,Windows,10
9,1,null,"""",html-keyboard-response,258,570342,0.0-258.0,"<div style=""font-size:60px;"">+</div>","""",256,ITI,Test,null,1000,"""","""","""","""","""","""","""","""",1,"""",3/22/2021 20:14,103.55.45.182,Mozilla/5.0 (Windows NT 10.0; Win64; x64; rv:85.0) Gecko/20100101 Firefox/85.0,,Firefox,85,Windows,10
9,1,null,"""",image-keyboard-response,259,570594,0.0-259.0,jspsych/scrambledNeutralFaces/scrambledAM31NES.JPG,"""",256,forwardMask,Test,null,250,"""",n,"""","""","""","""","""","""",1,"""",3/22/2021 20:14,103.55.45.182,Mozilla/5.0 (Windows NT 10.0; Win64; x64; rv:85.0) Gecko/20100101 Firefox/85.0,,Firefox,85,Windows,10
9,1,null,"""",image-keyboard-response,260,570612,0.0-260.0,jspsych/neutralFaces/AM31NES.JPG,"""",256,Cue,Test,null,16,"""","""","""","""","""","""","""","""",1,"""",3/22/2021 20:14,103.55.45.182,Mozilla/5.0 (Windows NT 10.0; Win64; x64; rv:85.0) Gecko/20100101 Firefox/85.0,,Firefox,85,Windows,10
9,1,null,"""",image-keyboard-response,261,570713,0.0-261.0,jspsych/neutralFaces/BM03NES.JPG,"""",256,backwardMask,Test,null,100,"""","""","""","""","""","""","""","""",1,"""",3/22/2021 20:14,103.55.45.182,Mozilla/5.0 (Windows NT 10.0; Win64; x64; rv:85.0) Gecko/20100101 Firefox/85.0,,Firefox,85,Windows,10
9,1,null,"""",html-keyboard-response,262,571714,0.0-262.0,"<div style=""font-size:60px;"">+</div>","""",256,fixationBtwnNeutralMaskAndPrompt,Test,null,1000,"""","""","""","""","""","""","""","""",1,"""",3/22/2021 20:14,103.55.45.182,Mozilla/5.0 (Windows NT 10.0; Win64; x64; rv:85.0) Gecko/20100101 Firefox/85.0,,Firefox,85,Windows,10
9,1,1854,"""",html-button-response,263,573572,0.0-263.0,"<img src='jspsych/CFDfaces/CFD-BF-009-002-N.jpg' height=""250px"">,</br><b>Elizabeth</b>",1,256,IntactOrRearranged,Test,"""","""","""","""",CFD-WM-212-097-N.jpg,Jacob,1,"""","""",1,1,"""",3/22/2021 20:14,103.55.45.182,Mozilla/5.0 (Windows NT 10.0; Win64; x64; rv:85.0) Gecko/20100101 Firefox/85.0,,Firefox,85,Windows,10
9,1,2421,"""",html-slider-response,264,575993,0.0-264.0,"<img src='jspsych/CFDfaces/CFD-BF-009-002-N.jpg' height=""250px"">,</br><b>Elizabeth</b>","""",256,ConfidenceQuery,Test,"""","""","""","""",CFD-WM-212-097-N.jpg,Jacob,1,0,69,"""",1,"""",3/22/2021 20:14,103.55.45.182,Mozilla/5.0 (Windows NT 10.0; Win64; x64; rv:85.0) Gecko/20100101 Firefox/85.0,,Firefox,85,Windows,10
9,1,null,"""",html-keyboard-response,265,576997,0.0-265.0,"<div style=""font-size:60px;"">+</div>","""",256,ITI,Test,null,1000,"""","""","""","""","""","""","""","""",1,"""",3/22/2021 20:14,103.55.45.182,Mozilla/5.0 (Windows NT 10.0; Win64; x64; rv:85.0) Gecko/20100101 Firefox/85.0,,Firefox,85,Windows,10
9,1,null,"""",image-keyboard-response,266,577250,0.0-266.0,jspsych/scrambledDisgustFaces/scrambledBF12DIS.JPG,"""",256,forwardMask,Test,null,250,"""",d,"""","""","""","""","""","""",1,"""",3/22/2021 20:14,103.55.45.182,Mozilla/5.0 (Windows NT 10.0; Win64; x64; rv:85.0) Gecko/20100101 Firefox/85.0,,Firefox,85,Windows,10
9,1,null,"""",image-keyboard-response,267,577269,0.0-267.0,jspsych/disgustFaces/BF12DIS.JPG,"""",256,Cue,Test,null,16,"""","""","""","""","""","""","""","""",1,"""",3/22/2021 20:14,103.55.45.182,Mozilla/5.0 (Windows NT 10.0; Win64; x64; rv:85.0) Gecko/20100101 Firefox/85.0,,Firefox,85,Windows,10
9,1,null,"""",image-keyboard-response,268,577371,0.0-268.0,jspsych/neutralFaces/AF31NES.JPG,"""",256,backwardMask,Test,null,100,"""","""","""","""","""","""","""","""",1,"""",3/22/2021 20:14,103.55.45.182,Mozilla/5.0 (Windows NT 10.0; Win64; x64; rv:85.0) Gecko/20100101 Firefox/85.0,,Firefox,85,Windows,10
9,1,null,"""",html-keyboard-response,269,578372,0.0-269.0,"<div style=""font-size:60px;"">+</div>","""",256,fixationBtwnNeutralMaskAndPrompt,Test,null,1000,"""","""","""","""","""","""","""","""",1,"""",3/22/2021 20:14,103.55.45.182,Mozilla/5.0 (Windows NT 10.0; Win64; x64; rv:85.0) Gecko/20100101 Firefox/85.0,,Firefox,85,Windows,10
9,1,2886,"""",html-button-response,270,581259,0.0-270.0,"<img src='jspsych/CFDfaces/CFD-WF-017-003-N.jpg' height=""250px"">,</br><b>Victoria</b>",1,256,IntactOrRearranged,Test,"""","""","""","""",CFD-BF-019-001-N.jpg,Laura,1,"""","""",1,1,"""",3/22/2021 20:14,103.55.45.182,Mozilla/5.0 (Windows NT 10.0; Win64; x64; rv:85.0) Gecko/20100101 Firefox/85.0,,Firefox,85,Windows,10
9,1,2911,"""",html-slider-response,271,584173,0.0-271.0,"<img src='jspsych/CFDfaces/CFD-WF-017-003-N.jpg' height=""250px"">,</br><b>Victoria</b>","""",256,ConfidenceQuery,Test,"""","""","""","""",CFD-BF-019-001-N.jpg,Laura,1,0,57,"""",1,"""",3/22/2021 20:14,103.55.45.182,Mozilla/5.0 (Windows NT 10.0; Win64; x64; rv:85.0) Gecko/20100101 Firefox/85.0,,Firefox,85,Windows,10
9,1,null,"""",html-keyboard-response,272,585175,0.0-272.0,"<div style=""font-size:60px;"">+</div>","""",256,ITI,Test,null,1000,"""","""","""","""","""","""","""","""",1,"""",3/22/2021 20:14,103.55.45.182,Mozilla/5.0 (Windows NT 10.0; Win64; x64; rv:85.0) Gecko/20100101 Firefox/85.0,,Firefox,85,Windows,10
9,1,null,"""",image-keyboard-response,273,585426,0.0-273.0,jspsych/scrambledDisgustFaces/scrambledBM20DIS.JPG,"""",256,forwardMask,Test,null,250,"""",d,"""","""","""","""","""","""",1,"""",3/22/2021 20:14,103.55.45.182,Mozilla/5.0 (Windows NT 10.0; Win64; x64; rv:85.0) Gecko/20100101 Firefox/85.0,,Firefox,85,Windows,10
9,1,null,"""",image-keyboard-response,274,585444,0.0-274.0,jspsych/disgustFaces/BM21DIS.JPG,"""",256,Cue,Test,null,16,"""","""","""","""","""","""","""","""",1,"""",3/22/2021 20:14,103.55.45.182,Mozilla/5.0 (Windows NT 10.0; Win64; x64; rv:85.0) Gecko/20100101 Firefox/85.0,,Firefox,85,Windows,10
9,1,null,"""",image-keyboard-response,275,585547,0.0-275.0,jspsych/neutralFaces/AM04NES.JPG,"""",256,backwardMask,Test,null,100,"""","""","""","""","""","""","""","""",1,"""",3/22/2021 20:14,103.55.45.182,Mozilla/5.0 (Windows NT 10.0; Win64; x64; rv:85.0) Gecko/20100101 Firefox/85.0,,Firefox,85,Windows,10
9,1,null,"""",html-keyboard-response,276,586547,0.0-276.0,"<div style=""font-size:60px;"">+</div>","""",256,fixationBtwnNeutralMaskAndPrompt,Test,null,1000,"""","""","""","""","""","""","""","""",1,"""",3/22/2021 20:14,103.55.45.182,Mozilla/5.0 (Windows NT 10.0; Win64; x64; rv:85.0) Gecko/20100101 Firefox/85.0,,Firefox,85,Windows,10
9,1,3509,"""",html-button-response,277,590059,0.0-277.0,"<img src='jspsych/CFDfaces/CFD-BM-043-071-N.jpg' height=""250px"">,</br><b>Jeffrey</b>",0,256,IntactOrRearranged,Test,"""","""","""","""",CFD-WF-202-056-N.jpg,Whitney,1,"""","""",0,1,"""",3/22/2021 20:14,103.55.45.182,Mozilla/5.0 (Windows NT 10.0; Win64; x64; rv:85.0) Gecko/20100101 Firefox/85.0,,Firefox,85,Windows,10
9,1,1571,"""",html-slider-response,278,591631,0.0-278.0,"<img src='jspsych/CFDfaces/CFD-BM-043-071-N.jpg' height=""250px"">,</br><b>Jeffrey</b>","""",256,ConfidenceQuery,Test,"""","""","""","""",CFD-WF-202-056-N.jpg,Whitney,1,0,49,"""",1,"""",3/22/2021 20:14,103.55.45.182,Mozilla/5.0 (Windows NT 10.0; Win64; x64; rv:85.0) Gecko/20100101 Firefox/85.0,,Firefox,85,Windows,10
9,1,null,"""",html-keyboard-response,279,592637,0.0-279.0,"<div style=""font-size:60px;"">+</div>","""",256,ITI,Test,null,1000,"""","""","""","""","""","""","""","""",1,"""",3/22/2021 20:14,103.55.45.182,Mozilla/5.0 (Windows NT 10.0; Win64; x64; rv:85.0) Gecko/20100101 Firefox/85.0,,Firefox,85,Windows,10
9,1,null,"""",image-keyboard-response,280,592889,0.0-280.0,jspsych/scrambledDisgustFaces/scrambledAF12DIS.JPG,"""",256,forwardMask,Test,null,250,"""",d,"""","""","""","""","""","""",1,"""",3/22/2021 20:14,103.55.45.182,Mozilla/5.0 (Windows NT 10.0; Win64; x64; rv:85.0) Gecko/20100101 Firefox/85.0,,Firefox,85,Windows,10
9,1,null,"""",image-keyboard-response,281,592906,0.0-281.0,jspsych/disgustFaces/AF12DIS.JPG,"""",256,Cue,Test,null,16,"""","""","""","""","""","""","""","""",1,"""",3/22/2021 20:14,103.55.45.182,Mozilla/5.0 (Windows NT 10.0; Win64; x64; rv:85.0) Gecko/20100101 Firefox/85.0,,Firefox,85,Windows,10
9,1,null,"""",image-keyboard-response,282,593008,0.0-282.0,jspsych/neutralFaces/AF05NES.JPG,"""",256,backwardMask,Test,null,100,"""","""","""","""","""","""","""","""",1,"""",3/22/2021 20:14,103.55.45.182,Mozilla/5.0 (Windows NT 10.0; Win64; x64; rv:85.0) Gecko/20100101 Firefox/85.0,,Firefox,85,Windows,10
9,1,null,"""",html-keyboard-response,283,594009,0.0-283.0,"<div style=""font-size:60px;"">+</div>","""",256,fixationBtwnNeutralMaskAndPrompt,Test,null,1000,"""","""","""","""","""","""","""","""",1,"""",3/22/2021 20:14,103.55.45.182,Mozilla/5.0 (Windows NT 10.0; Win64; x64; rv:85.0) Gecko/20100101 Firefox/85.0,,Firefox,85,Windows,10
9,1,3862,"""",html-button-response,284,597871,0.0-284.0,"<img src='jspsych/CFDfaces/CFD-AF-242-158-N.jpg' height=""250px"">,</br><b>Emily</b>",1,256,IntactOrRearranged,Test,"""","""","""","""",CFD-BM-026-002-N.jpg,Vincent,1,"""","""",1,1,"""",3/22/2021 20:14,103.55.45.182,Mozilla/5.0 (Windows NT 10.0; Win64; x64; rv:85.0) Gecko/20100101 Firefox/85.0,,Firefox,85,Windows,10
9,1,2078,"""",html-slider-response,285,599953,0.0-285.0,"<img src='jspsych/CFDfaces/CFD-AF-242-158-N.jpg' height=""250px"">,</br><b>Emily</b>","""",256,ConfidenceQuery,Test,"""","""","""","""",CFD-BM-026-002-N.jpg,Vincent,1,0,47,"""",1,"""",3/22/2021 20:14,103.55.45.182,Mozilla/5.0 (Windows NT 10.0; Win64; x64; rv:85.0) Gecko/20100101 Firefox/85.0,,Firefox,85,Windows,10
9,1,null,"""",html-keyboard-response,286,600954,0.0-286.0,"<div style=""font-size:60px;"">+</div>","""",256,ITI,Test,null,1000,"""","""","""","""","""","""","""","""",1,"""",3/22/2021 20:14,103.55.45.182,Mozilla/5.0 (Windows NT 10.0; Win64; x64; rv:85.0) Gecko/20100101 Firefox/85.0,,Firefox,85,Windows,10
9,1,null,"""",image-keyboard-response,287,601205,0.0-287.0,jspsych/scrambledDisgustFaces/scrambledAF34DIS.JPG,"""",256,forwardMask,Test,null,250,"""",d,"""","""","""","""","""","""",1,"""",3/22/2021 20:14,103.55.45.182,Mozilla/5.0 (Windows NT 10.0; Win64; x64; rv:85.0) Gecko/20100101 Firefox/85.0,,Firefox,85,Windows,10
9,1,null,"""",image-keyboard-response,288,601224,0.0-288.0,jspsych/disgustFaces/AF34DIS.JPG,"""",256,Cue,Test,null,16,"""","""","""","""","""","""","""","""",1,"""",3/22/2021 20:14,103.55.45.182,Mozilla/5.0 (Windows NT 10.0; Win64; x64; rv:85.0) Gecko/20100101 Firefox/85.0,,Firefox,85,Windows,10
9,1,null,"""",image-keyboard-response,289,601326,0.0-289.0,jspsych/neutralFaces/BF18NES.JPG,"""",256,backwardMask,Test,null,100,"""","""","""","""","""","""","""","""",1,"""",3/22/2021 20:14,103.55.45.182,Mozilla/5.0 (Windows NT 10.0; Win64; x64; rv:85.0) Gecko/20100101 Firefox/85.0,,Firefox,85,Windows,10
9,1,null,"""",html-keyboard-response,290,602327,0.0-290.0,"<div style=""font-size:60px;"">+</div>","""",256,fixationBtwnNeutralMaskAndPrompt,Test,null,1000,"""","""","""","""","""","""","""","""",1,"""",3/22/2021 20:14,103.55.45.182,Mozilla/5.0 (Windows NT 10.0; Win64; x64; rv:85.0) Gecko/20100101 Firefox/85.0,,Firefox,85,Windows,10
9,1,3515,"""",html-button-response,291,605843,0.0-291.0,"<img src='jspsych/CFDfaces/CFD-WM-215-041-N.jpg' height=""250px"">,</br><b>Juan</b>",0,256,IntactOrRearranged,Test,"""","""","""","""",CFD-AF-243-170-N.jpg,Heather,0,"""","""",0,1,"""",3/22/2021 20:14,103.55.45.182,Mozilla/5.0 (Windows NT 10.0; Win64; x64; rv:85.0) Gecko/20100101 Firefox/85.0,,Firefox,85,Windows,10
9,1,2402,"""",html-slider-response,292,608249,0.0-292.0,"<img src='jspsych/CFDfaces/CFD-WM-215-041-N.jpg' height=""250px"">,</br><b>Juan</b>","""",256,ConfidenceQuery,Test,"""","""","""","""",CFD-AF-243-170-N.jpg,Heather,0,0,79,"""",1,"""",3/22/2021 20:14,103.55.45.182,Mozilla/5.0 (Windows NT 10.0; Win64; x64; rv:85.0) Gecko/20100101 Firefox/85.0,,Firefox,85,Windows,10
9,1,null,"""",html-keyboard-response,293,609251,0.0-293.0,"<div style=""font-size:60px;"">+</div>","""",256,ITI,Test,null,1000,"""","""","""","""","""","""","""","""",1,"""",3/22/2021 20:14,103.55.45.182,Mozilla/5.0 (Windows NT 10.0; Win64; x64; rv:85.0) Gecko/20100101 Firefox/85.0,,Firefox,85,Windows,10
9,1,null,"""",image-keyboard-response,294,609507,0.0-294.0,jspsych/scrambledDisgustFaces/scrambledAF21DIS.JPG,"""",256,forwardMask,Test,null,250,"""",d,"""","""","""","""","""","""",1,"""",3/22/2021 20:14,103.55.45.182,Mozilla/5.0 (Windows NT 10.0; Win64; x64; rv:85.0) Gecko/20100101 Firefox/85.0,,Firefox,85,Windows,10
9,1,null,"""",image-keyboard-response,295,609525,0.0-295.0,jspsych/disgustFaces/AF21DIS.JPG,"""",256,Cue,Test,null,16,"""","""","""","""","""","""","""","""",1,"""",3/22/2021 20:14,103.55.45.182,Mozilla/5.0 (Windows NT 10.0; Win64; x64; rv:85.0) Gecko/20100101 Firefox/85.0,,Firefox,85,Windows,10
9,1,null,"""",image-keyboard-response,296,609626,0.0-296.0,jspsych/neutralFaces/AF29NES.JPG,"""",256,backwardMask,Test,null,100,"""","""","""","""","""","""","""","""",1,"""",3/22/2021 20:14,103.55.45.182,Mozilla/5.0 (Windows NT 10.0; Win64; x64; rv:85.0) Gecko/20100101 Firefox/85.0,,Firefox,85,Windows,10
9,1,null,"""",html-keyboard-response,297,610627,0.0-297.0,"<div style=""font-size:60px;"">+</div>","""",256,fixationBtwnNeutralMaskAndPrompt,Test,null,1000,"""","""","""","""","""","""","""","""",1,"""",3/22/2021 20:14,103.55.45.182,Mozilla/5.0 (Windows NT 10.0; Win64; x64; rv:85.0) Gecko/20100101 Firefox/85.0,,Firefox,85,Windows,10
