run_id,condition,rt,responses,trial_type,trial_index,time_elapsed,internal_node_id,stimulus,button_pressed,iTrial,Phase,ExperimentPhase,key_press,StimulusDurationSetting,CharacterResponse,correctResponse,Face,Name,rearranged,slider_start,response,didSubjectEnterRearranged,Block,question_order,recorded_at,ip,user_agent,device,browser,browser_version,platform,platform_version
10,1,8728,"{""Q0"":""AAGBW25TZVAX7""}",survey-text,0,8733,0.0-0.0,"""","""","""","""","""","""","""","""","""","""","""","""","""","""","""","""","""",3/22/2021 20:25,68.81.85.24,Mozilla/5.0 (X11; Ubuntu; Linux x86_64; rv:86.0) Gecko/20100101 Firefox/86.0,,Firefox,86,Ubuntu,
10,1,16495,"""",image-button-response,1,25246,0.0-1.0,directionsMemoryAssociation1.JPG,0,1,IntroDirections1,break,"""","""","""","""","""","""","""","""","""","""","""","""",3/22/2021 20:25,68.81.85.24,Mozilla/5.0 (X11; Ubuntu; Linux x86_64; rv:86.0) Gecko/20100101 Firefox/86.0,,Firefox,86,Ubuntu,
10,1,12204,"""",image-button-response,2,37477,0.0-2.0,directionsMemoryAssociation2.JPG,0,1,IntroDirections2,break,"""","""","""","""","""","""","""","""","""","""","""","""",3/22/2021 20:25,68.81.85.24,Mozilla/5.0 (X11; Ubuntu; Linux x86_64; rv:86.0) Gecko/20100101 Firefox/86.0,,Firefox,86,Ubuntu,
10,1,3888,"""",html-keyboard-response,3,42494,0.0-3.0,"<img src='jspsych/CFDfaces/CFD-LF-200-058-N.jpg' height=""250px"">,</br><b>Shannon</b>","""",1,IntactFace,Practice,70,5000,f,"""","""","""","""","""","""","""","""","""",3/22/2021 20:25,68.81.85.24,Mozilla/5.0 (X11; Ubuntu; Linux x86_64; rv:86.0) Gecko/20100101 Firefox/86.0,,Firefox,86,Ubuntu,
10,1,null,"""",html-keyboard-response,4,42998,0.0-4.0,"<div style=""font-size:60px;"">+</div>","""",1,ITI,Practice,null,1000,"""","""","""","""","""","""","""","""","""","""",3/22/2021 20:25,68.81.85.24,Mozilla/5.0 (X11; Ubuntu; Linux x86_64; rv:86.0) Gecko/20100101 Firefox/86.0,,Firefox,86,Ubuntu,
10,1,2297,"""",html-keyboard-response,5,48003,0.0-5.0,"<img src='jspsych/CFDfaces/CFD-BF-039-031-N.jpg' height=""250px"">,</br><b>Katelyn</b>","""",2,IntactFace,Practice,78,5000,n,"""","""","""","""","""","""","""","""","""",3/22/2021 20:25,68.81.85.24,Mozilla/5.0 (X11; Ubuntu; Linux x86_64; rv:86.0) Gecko/20100101 Firefox/86.0,,Firefox,86,Ubuntu,
10,1,null,"""",html-keyboard-response,6,48508,0.0-6.0,"<div style=""font-size:60px;"">+</div>","""",2,ITI,Practice,null,1000,"""","""","""","""","""","""","""","""","""","""",3/22/2021 20:25,68.81.85.24,Mozilla/5.0 (X11; Ubuntu; Linux x86_64; rv:86.0) Gecko/20100101 Firefox/86.0,,Firefox,86,Ubuntu,
10,1,3809,"""",html-keyboard-response,7,53514,0.0-7.0,"<img src='jspsych/CFDfaces/CFD-AM-231-136-N.jpg' height=""250px"">,</br><b>Carlos</b>","""",3,IntactFace,Practice,78,5000,n,"""","""","""","""","""","""","""","""","""",3/22/2021 20:25,68.81.85.24,Mozilla/5.0 (X11; Ubuntu; Linux x86_64; rv:86.0) Gecko/20100101 Firefox/86.0,,Firefox,86,Ubuntu,
10,1,null,"""",html-keyboard-response,8,54015,0.0-8.0,"<div style=""font-size:60px;"">+</div>","""",3,ITI,Practice,null,1000,"""","""","""","""","""","""","""","""","""","""",3/22/2021 20:25,68.81.85.24,Mozilla/5.0 (X11; Ubuntu; Linux x86_64; rv:86.0) Gecko/20100101 Firefox/86.0,,Firefox,86,Ubuntu,
10,1,2043,"""",html-keyboard-response,9,59019,0.0-9.0,"<img src='jspsych/CFDfaces/CFD-BF-009-002-N.jpg' height=""250px"">,</br><b>Cassandra</b>","""",4,IntactFace,Practice,70,5000,f,"""","""","""","""","""","""","""","""","""",3/22/2021 20:25,68.81.85.24,Mozilla/5.0 (X11; Ubuntu; Linux x86_64; rv:86.0) Gecko/20100101 Firefox/86.0,,Firefox,86,Ubuntu,
10,1,null,"""",html-keyboard-response,10,59519,0.0-10.0,"<div style=""font-size:60px;"">+</div>","""",4,ITI,Practice,null,1000,"""","""","""","""","""","""","""","""","""","""",3/22/2021 20:25,68.81.85.24,Mozilla/5.0 (X11; Ubuntu; Linux x86_64; rv:86.0) Gecko/20100101 Firefox/86.0,,Firefox,86,Ubuntu,
10,1,2742,"""",html-keyboard-response,11,64522,0.0-11.0,"<img src='jspsych/CFDfaces/CFD-AM-229-224-N.jpg' height=""250px"">,</br><b>Patrick</b>","""",5,IntactFace,Practice,78,5000,n,"""","""","""","""","""","""","""","""","""",3/22/2021 20:25,68.81.85.24,Mozilla/5.0 (X11; Ubuntu; Linux x86_64; rv:86.0) Gecko/20100101 Firefox/86.0,,Firefox,86,Ubuntu,
10,1,null,"""",html-keyboard-response,12,65025,0.0-12.0,"<div style=""font-size:60px;"">+</div>","""",5,ITI,Practice,null,1000,"""","""","""","""","""","""","""","""","""","""",3/22/2021 20:25,68.81.85.24,Mozilla/5.0 (X11; Ubuntu; Linux x86_64; rv:86.0) Gecko/20100101 Firefox/86.0,,Firefox,86,Ubuntu,
10,1,1853,"""",html-keyboard-response,13,70030,0.0-13.0,"<img src='jspsych/CFDfaces/CFD-WM-011-002-N.jpg' height=""250px"">,</br><b>Marcus</b>","""",6,IntactFace,Practice,70,5000,f,"""","""","""","""","""","""","""","""","""",3/22/2021 20:25,68.81.85.24,Mozilla/5.0 (X11; Ubuntu; Linux x86_64; rv:86.0) Gecko/20100101 Firefox/86.0,,Firefox,86,Ubuntu,
10,1,null,"""",html-keyboard-response,14,70531,0.0-14.0,"<div style=""font-size:60px;"">+</div>","""",6,ITI,Practice,null,1000,"""","""","""","""","""","""","""","""","""","""",3/22/2021 20:25,68.81.85.24,Mozilla/5.0 (X11; Ubuntu; Linux x86_64; rv:86.0) Gecko/20100101 Firefox/86.0,,Firefox,86,Ubuntu,
10,1,2014,"""",html-keyboard-response,15,75539,0.0-15.0,"<img src='jspsych/CFDfaces/CFD-WM-213-076-N.jpg' height=""250px"">,</br><b>Samuel</b>","""",7,IntactFace,Practice,70,5000,f,"""","""","""","""","""","""","""","""","""",3/22/2021 20:25,68.81.85.24,Mozilla/5.0 (X11; Ubuntu; Linux x86_64; rv:86.0) Gecko/20100101 Firefox/86.0,,Firefox,86,Ubuntu,
10,1,null,"""",html-keyboard-response,16,76041,0.0-16.0,"<div style=""font-size:60px;"">+</div>","""",7,ITI,Practice,null,1000,"""","""","""","""","""","""","""","""","""","""",3/22/2021 20:25,68.81.85.24,Mozilla/5.0 (X11; Ubuntu; Linux x86_64; rv:86.0) Gecko/20100101 Firefox/86.0,,Firefox,86,Ubuntu,
10,1,2088,"""",html-keyboard-response,17,81044,0.0-17.0,"<img src='jspsych/CFDfaces/CFD-WF-023-003-N.jpg' height=""250px"">,</br><b>Tara</b>","""",8,IntactFace,Practice,70,5000,f,"""","""","""","""","""","""","""","""","""",3/22/2021 20:25,68.81.85.24,Mozilla/5.0 (X11; Ubuntu; Linux x86_64; rv:86.0) Gecko/20100101 Firefox/86.0,,Firefox,86,Ubuntu,
10,1,null,"""",html-keyboard-response,18,81546,0.0-18.0,"<div style=""font-size:60px;"">+</div>","""",8,ITI,Practice,null,1000,"""","""","""","""","""","""","""","""","""","""",3/22/2021 20:25,68.81.85.24,Mozilla/5.0 (X11; Ubuntu; Linux x86_64; rv:86.0) Gecko/20100101 Firefox/86.0,,Firefox,86,Ubuntu,
10,1,12810,"""",image-button-response,19,94378,0.0-19.0,directionsForTest.JPG,0,1,directionsForTest,break,"""","""","""","""","""","""","""","""","""","""","""","""",3/22/2021 20:25,68.81.85.24,Mozilla/5.0 (X11; Ubuntu; Linux x86_64; rv:86.0) Gecko/20100101 Firefox/86.0,,Firefox,86,Ubuntu,
10,1,8873,"""",image-button-response,20,103257,0.0-20.0,directionsForTest2.JPG,0,1,directionsForTest2,break,"""","""","""","""","""","""","""","""","""","""","""","""",3/22/2021 20:25,68.81.85.24,Mozilla/5.0 (X11; Ubuntu; Linux x86_64; rv:86.0) Gecko/20100101 Firefox/86.0,,Firefox,86,Ubuntu,
10,1,null,"""",html-keyboard-response,21,104260,0.0-21.0,"<div style=""font-size:60px;"">+</div>","""",1,ITI,Practice,null,1000,"""","""","""","""","""","""","""","""","""","""",3/22/2021 20:25,68.81.85.24,Mozilla/5.0 (X11; Ubuntu; Linux x86_64; rv:86.0) Gecko/20100101 Firefox/86.0,,Firefox,86,Ubuntu,
10,1,null,"""",image-keyboard-response,22,104517,0.0-22.0,jspsych/scrambledDisgustFaces/scrambledBF32DIS.JPG,"""",1,forwardMask,Practice,null,250,"""",d,"""","""","""","""","""","""","""","""",3/22/2021 20:25,68.81.85.24,Mozilla/5.0 (X11; Ubuntu; Linux x86_64; rv:86.0) Gecko/20100101 Firefox/86.0,,Firefox,86,Ubuntu,
10,1,null,"""",image-keyboard-response,23,104542,0.0-23.0,jspsych/disgustFaces/BF32DIS.JPG,"""",1,Cue,Practice,null,16,"""","""","""","""","""","""","""","""","""","""",3/22/2021 20:25,68.81.85.24,Mozilla/5.0 (X11; Ubuntu; Linux x86_64; rv:86.0) Gecko/20100101 Firefox/86.0,,Firefox,86,Ubuntu,
10,1,null,"""",image-keyboard-response,24,104650,0.0-24.0,jspsych/neutralFaces/BF13NES.JPG,"""",1,backwardMask,Practice,null,100,"""","""","""","""","""","""","""","""","""","""",3/22/2021 20:25,68.81.85.24,Mozilla/5.0 (X11; Ubuntu; Linux x86_64; rv:86.0) Gecko/20100101 Firefox/86.0,,Firefox,86,Ubuntu,
10,1,null,"""",html-keyboard-response,25,105652,0.0-25.0,"<div style=""font-size:60px;"">+</div>","""",1,fixationBtwnNeutralMaskAndPrompt,Practice,null,1000,"""","""","""","""","""","""","""","""","""","""",3/22/2021 20:25,68.81.85.24,Mozilla/5.0 (X11; Ubuntu; Linux x86_64; rv:86.0) Gecko/20100101 Firefox/86.0,,Firefox,86,Ubuntu,
10,1,null,"""",html-button-response,26,110657,0.0-26.0,"<img src='jspsych/CFDfaces/CFD-WF-023-003-N.jpg'height=""250px""></br><b>Tara</b>",null,1,IntactOrRearranged,Practice,"""","""","""","""",CFD-WF-023-003-N.jpg,Tara,0,"""","""","""","""","""",3/22/2021 20:25,68.81.85.24,Mozilla/5.0 (X11; Ubuntu; Linux x86_64; rv:86.0) Gecko/20100101 Firefox/86.0,,Firefox,86,Ubuntu,
10,1,4888,"""",html-slider-response,27,115561,0.0-27.0,"<img src='jspsych/CFDfaces/CFD-WF-023-003-N.jpg'height=""250px""></br><b>Tara</b>","""",1,ConfidenceQuery,Practice,"""","""","""","""",CFD-LM-217-162-N.jpg,Dustin,0,0,38,"""","""","""",3/22/2021 20:25,68.81.85.24,Mozilla/5.0 (X11; Ubuntu; Linux x86_64; rv:86.0) Gecko/20100101 Firefox/86.0,,Firefox,86,Ubuntu,
10,1,3232,"""",html-button-response,28,118798,0.0-28.0,<p>Please click either button: REARRANGED or INTACT before the 5-second time limit.</p>,0,1,feedback,Practice,"""","""","""","""","""","""","""","""","""","""","""","""",3/22/2021 20:25,68.81.85.24,Mozilla/5.0 (X11; Ubuntu; Linux x86_64; rv:86.0) Gecko/20100101 Firefox/86.0,,Firefox,86,Ubuntu,
10,1,null,"""",html-keyboard-response,29,119804,0.0-29.0,"<div style=""font-size:60px;"">+</div>","""",2,ITI,Practice,null,1000,"""","""","""","""","""","""","""","""","""","""",3/22/2021 20:25,68.81.85.24,Mozilla/5.0 (X11; Ubuntu; Linux x86_64; rv:86.0) Gecko/20100101 Firefox/86.0,,Firefox,86,Ubuntu,
10,1,null,"""",image-keyboard-response,30,120061,0.0-30.0,jspsych/scrambledDisgustFaces/scrambledBM11DIS.JPG,"""",2,forwardMask,Practice,null,250,"""",d,"""","""","""","""","""","""","""","""",3/22/2021 20:25,68.81.85.24,Mozilla/5.0 (X11; Ubuntu; Linux x86_64; rv:86.0) Gecko/20100101 Firefox/86.0,,Firefox,86,Ubuntu,
10,1,null,"""",image-keyboard-response,31,120083,0.0-31.0,jspsych/disgustFaces/BM12DIS.JPG,"""",2,Cue,Practice,null,16,"""","""","""","""","""","""","""","""","""","""",3/22/2021 20:25,68.81.85.24,Mozilla/5.0 (X11; Ubuntu; Linux x86_64; rv:86.0) Gecko/20100101 Firefox/86.0,,Firefox,86,Ubuntu,
10,1,null,"""",image-keyboard-response,32,120186,0.0-32.0,jspsych/neutralFaces/AM26NES.JPG,"""",2,backwardMask,Practice,null,100,"""","""","""","""","""","""","""","""","""","""",3/22/2021 20:25,68.81.85.24,Mozilla/5.0 (X11; Ubuntu; Linux x86_64; rv:86.0) Gecko/20100101 Firefox/86.0,,Firefox,86,Ubuntu,
10,1,null,"""",html-keyboard-response,33,121188,0.0-33.0,"<div style=""font-size:60px;"">+</div>","""",2,fixationBtwnNeutralMaskAndPrompt,Practice,null,1000,"""","""","""","""","""","""","""","""","""","""",3/22/2021 20:25,68.81.85.24,Mozilla/5.0 (X11; Ubuntu; Linux x86_64; rv:86.0) Gecko/20100101 Firefox/86.0,,Firefox,86,Ubuntu,
10,1,2010,"""",html-button-response,34,123200,0.0-34.0,"<img src='jspsych/CFDfaces/CFD-LF-200-058-N.jpg'height=""250px""></br><b>Shannon</b>",0,2,IntactOrRearranged,Practice,"""","""","""","""",CFD-LF-200-058-N.jpg,Shannon,0,"""","""",0,"""","""",3/22/2021 20:25,68.81.85.24,Mozilla/5.0 (X11; Ubuntu; Linux x86_64; rv:86.0) Gecko/20100101 Firefox/86.0,,Firefox,86,Ubuntu,
10,1,3636,"""",html-slider-response,35,126845,0.0-35.0,"<img src='jspsych/CFDfaces/CFD-LF-200-058-N.jpg'height=""250px""></br><b>Shannon</b>","""",2,ConfidenceQuery,Practice,"""","""","""","""",CFD-LM-217-162-N.jpg,Dustin,0,0,100,"""","""","""",3/22/2021 20:25,68.81.85.24,Mozilla/5.0 (X11; Ubuntu; Linux x86_64; rv:86.0) Gecko/20100101 Firefox/86.0,,Firefox,86,Ubuntu,
10,1,4296,"""",html-button-response,36,131144,0.0-36.0,You are Correct. You called an Intact Pair Intact,0,2,feedback,Practice,"""","""","""","""","""","""","""","""","""","""","""","""",3/22/2021 20:25,68.81.85.24,Mozilla/5.0 (X11; Ubuntu; Linux x86_64; rv:86.0) Gecko/20100101 Firefox/86.0,,Firefox,86,Ubuntu,
10,1,null,"""",html-keyboard-response,37,132146,0.0-37.0,"<div style=""font-size:60px;"">+</div>","""",3,ITI,Practice,null,1000,"""","""","""","""","""","""","""","""","""","""",3/22/2021 20:25,68.81.85.24,Mozilla/5.0 (X11; Ubuntu; Linux x86_64; rv:86.0) Gecko/20100101 Firefox/86.0,,Firefox,86,Ubuntu,
10,1,null,"""",image-keyboard-response,38,132398,0.0-38.0,jspsych/scrambledDisgustFaces/scrambledAF33DIS.JPG,"""",3,forwardMask,Practice,null,250,"""",d,"""","""","""","""","""","""","""","""",3/22/2021 20:25,68.81.85.24,Mozilla/5.0 (X11; Ubuntu; Linux x86_64; rv:86.0) Gecko/20100101 Firefox/86.0,,Firefox,86,Ubuntu,
10,1,null,"""",image-keyboard-response,39,132422,0.0-39.0,jspsych/disgustFaces/AF33DIS.JPG,"""",3,Cue,Practice,null,16,"""","""","""","""","""","""","""","""","""","""",3/22/2021 20:25,68.81.85.24,Mozilla/5.0 (X11; Ubuntu; Linux x86_64; rv:86.0) Gecko/20100101 Firefox/86.0,,Firefox,86,Ubuntu,
10,1,null,"""",image-keyboard-response,40,132530,0.0-40.0,jspsych/neutralFaces/AF26NES.JPG,"""",3,backwardMask,Practice,null,100,"""","""","""","""","""","""","""","""","""","""",3/22/2021 20:25,68.81.85.24,Mozilla/5.0 (X11; Ubuntu; Linux x86_64; rv:86.0) Gecko/20100101 Firefox/86.0,,Firefox,86,Ubuntu,
10,1,null,"""",html-keyboard-response,41,133532,0.0-41.0,"<div style=""font-size:60px;"">+</div>","""",3,fixationBtwnNeutralMaskAndPrompt,Practice,null,1000,"""","""","""","""","""","""","""","""","""","""",3/22/2021 20:25,68.81.85.24,Mozilla/5.0 (X11; Ubuntu; Linux x86_64; rv:86.0) Gecko/20100101 Firefox/86.0,,Firefox,86,Ubuntu,
10,1,2787,"""",html-button-response,42,136321,0.0-42.0,"<img src='jspsych/CFDfaces/CFD-AM-231-136-N.jpg'height=""250px""></br><b>Marcus</b>",1,3,IntactOrRearranged,Practice,"""","""","""","""",CFD-AM-231-136-N.jpg,Marcus,1,"""","""",1,"""","""",3/22/2021 20:25,68.81.85.24,Mozilla/5.0 (X11; Ubuntu; Linux x86_64; rv:86.0) Gecko/20100101 Firefox/86.0,,Firefox,86,Ubuntu,
10,1,4084,"""",html-slider-response,43,140414,0.0-43.0,"<img src='jspsych/CFDfaces/CFD-AM-231-136-N.jpg'height=""250px""></br><b>Marcus</b>","""",3,ConfidenceQuery,Practice,"""","""","""","""",CFD-LM-217-162-N.jpg,Dustin,1,0,59,"""","""","""",3/22/2021 20:25,68.81.85.24,Mozilla/5.0 (X11; Ubuntu; Linux x86_64; rv:86.0) Gecko/20100101 Firefox/86.0,,Firefox,86,Ubuntu,
10,1,2162,"""",html-button-response,44,142579,0.0-44.0,You are Correct. You Called A Rearranged Pair Rearranged,0,3,feedback,Practice,"""","""","""","""","""","""","""","""","""","""","""","""",3/22/2021 20:25,68.81.85.24,Mozilla/5.0 (X11; Ubuntu; Linux x86_64; rv:86.0) Gecko/20100101 Firefox/86.0,,Firefox,86,Ubuntu,
10,1,null,"""",html-keyboard-response,45,143585,0.0-45.0,"<div style=""font-size:60px;"">+</div>","""",4,ITI,Practice,null,1000,"""","""","""","""","""","""","""","""","""","""",3/22/2021 20:25,68.81.85.24,Mozilla/5.0 (X11; Ubuntu; Linux x86_64; rv:86.0) Gecko/20100101 Firefox/86.0,,Firefox,86,Ubuntu,
10,1,null,"""",image-keyboard-response,46,143842,0.0-46.0,jspsych/scrambledNeutralFaces/scrambledAF27NES.JPG,"""",4,forwardMask,Practice,null,250,"""",n,"""","""","""","""","""","""","""","""",3/22/2021 20:25,68.81.85.24,Mozilla/5.0 (X11; Ubuntu; Linux x86_64; rv:86.0) Gecko/20100101 Firefox/86.0,,Firefox,86,Ubuntu,
10,1,null,"""",image-keyboard-response,47,143865,0.0-47.0,jspsych/neutralFaces/AF27NES.JPG,"""",4,Cue,Practice,null,16,"""","""","""","""","""","""","""","""","""","""",3/22/2021 20:25,68.81.85.24,Mozilla/5.0 (X11; Ubuntu; Linux x86_64; rv:86.0) Gecko/20100101 Firefox/86.0,,Firefox,86,Ubuntu,
10,1,null,"""",image-keyboard-response,48,143972,0.0-48.0,jspsych/neutralFaces/BF30NES.JPG,"""",4,backwardMask,Practice,null,100,"""","""","""","""","""","""","""","""","""","""",3/22/2021 20:25,68.81.85.24,Mozilla/5.0 (X11; Ubuntu; Linux x86_64; rv:86.0) Gecko/20100101 Firefox/86.0,,Firefox,86,Ubuntu,
10,1,null,"""",html-keyboard-response,49,144975,0.0-49.0,"<div style=""font-size:60px;"">+</div>","""",4,fixationBtwnNeutralMaskAndPrompt,Practice,null,1000,"""","""","""","""","""","""","""","""","""","""",3/22/2021 20:25,68.81.85.24,Mozilla/5.0 (X11; Ubuntu; Linux x86_64; rv:86.0) Gecko/20100101 Firefox/86.0,,Firefox,86,Ubuntu,
10,1,3033,"""",html-button-response,50,148012,0.0-50.0,"<img src='jspsych/CFDfaces/CFD-BF-039-031-N.jpg'height=""250px""></br><b>Cassandra</b>",0,4,IntactOrRearranged,Practice,"""","""","""","""",CFD-BF-039-031-N.jpg,Cassandra,1,"""","""",0,"""","""",3/22/2021 20:25,68.81.85.24,Mozilla/5.0 (X11; Ubuntu; Linux x86_64; rv:86.0) Gecko/20100101 Firefox/86.0,,Firefox,86,Ubuntu,
10,1,3904,"""",html-slider-response,51,151921,0.0-51.0,"<img src='jspsych/CFDfaces/CFD-BF-039-031-N.jpg'height=""250px""></br><b>Cassandra</b>","""",4,ConfidenceQuery,Practice,"""","""","""","""",CFD-LM-217-162-N.jpg,Dustin,1,0,41,"""","""","""",3/22/2021 20:25,68.81.85.24,Mozilla/5.0 (X11; Ubuntu; Linux x86_64; rv:86.0) Gecko/20100101 Firefox/86.0,,Firefox,86,Ubuntu,
10,1,2203,"""",html-button-response,52,154128,0.0-52.0,You are Incorrect. You called a Rearranged Pair Intact,0,4,feedback,Practice,"""","""","""","""","""","""","""","""","""","""","""","""",3/22/2021 20:25,68.81.85.24,Mozilla/5.0 (X11; Ubuntu; Linux x86_64; rv:86.0) Gecko/20100101 Firefox/86.0,,Firefox,86,Ubuntu,
10,1,null,"""",html-keyboard-response,53,155135,0.0-53.0,"<div style=""font-size:60px;"">+</div>","""",5,ITI,Practice,null,1000,"""","""","""","""","""","""","""","""","""","""",3/22/2021 20:25,68.81.85.24,Mozilla/5.0 (X11; Ubuntu; Linux x86_64; rv:86.0) Gecko/20100101 Firefox/86.0,,Firefox,86,Ubuntu,
10,1,null,"""",image-keyboard-response,54,155390,0.0-54.0,jspsych/scrambledNeutralFaces/scrambledBF08NES.JPG,"""",5,forwardMask,Practice,null,250,"""",n,"""","""","""","""","""","""","""","""",3/22/2021 20:25,68.81.85.24,Mozilla/5.0 (X11; Ubuntu; Linux x86_64; rv:86.0) Gecko/20100101 Firefox/86.0,,Firefox,86,Ubuntu,
10,1,null,"""",image-keyboard-response,55,155414,0.0-55.0,jspsych/neutralFaces/BF08NES.JPG,"""",5,Cue,Practice,null,16,"""","""","""","""","""","""","""","""","""","""",3/22/2021 20:25,68.81.85.24,Mozilla/5.0 (X11; Ubuntu; Linux x86_64; rv:86.0) Gecko/20100101 Firefox/86.0,,Firefox,86,Ubuntu,
10,1,null,"""",image-keyboard-response,56,155522,0.0-56.0,jspsych/neutralFaces/AF16NES.JPG,"""",5,backwardMask,Practice,null,100,"""","""","""","""","""","""","""","""","""","""",3/22/2021 20:25,68.81.85.24,Mozilla/5.0 (X11; Ubuntu; Linux x86_64; rv:86.0) Gecko/20100101 Firefox/86.0,,Firefox,86,Ubuntu,
10,1,null,"""",html-keyboard-response,57,156523,0.0-57.0,"<div style=""font-size:60px;"">+</div>","""",5,fixationBtwnNeutralMaskAndPrompt,Practice,null,1000,"""","""","""","""","""","""","""","""","""","""",3/22/2021 20:25,68.81.85.24,Mozilla/5.0 (X11; Ubuntu; Linux x86_64; rv:86.0) Gecko/20100101 Firefox/86.0,,Firefox,86,Ubuntu,
10,1,3097,"""",html-button-response,58,159623,0.0-58.0,"<img src='jspsych/CFDfaces/CFD-BF-009-002-N.jpg'height=""250px""></br><b>Katelyn</b>",1,5,IntactOrRearranged,Practice,"""","""","""","""",CFD-BF-009-002-N.jpg,Katelyn,1,"""","""",1,"""","""",3/22/2021 20:25,68.81.85.24,Mozilla/5.0 (X11; Ubuntu; Linux x86_64; rv:86.0) Gecko/20100101 Firefox/86.0,,Firefox,86,Ubuntu,
10,1,4405,"""",html-slider-response,59,164039,0.0-59.0,"<img src='jspsych/CFDfaces/CFD-BF-009-002-N.jpg'height=""250px""></br><b>Katelyn</b>","""",5,ConfidenceQuery,Practice,"""","""","""","""",CFD-LM-217-162-N.jpg,Dustin,1,0,77,"""","""","""",3/22/2021 20:25,68.81.85.24,Mozilla/5.0 (X11; Ubuntu; Linux x86_64; rv:86.0) Gecko/20100101 Firefox/86.0,,Firefox,86,Ubuntu,
10,1,1489,"""",html-button-response,60,165532,0.0-60.0,You are Correct. You Called A Rearranged Pair Rearranged,0,5,feedback,Practice,"""","""","""","""","""","""","""","""","""","""","""","""",3/22/2021 20:25,68.81.85.24,Mozilla/5.0 (X11; Ubuntu; Linux x86_64; rv:86.0) Gecko/20100101 Firefox/86.0,,Firefox,86,Ubuntu,
10,1,null,"""",html-keyboard-response,61,166540,0.0-61.0,"<div style=""font-size:60px;"">+</div>","""",6,ITI,Practice,null,1000,"""","""","""","""","""","""","""","""","""","""",3/22/2021 20:25,68.81.85.24,Mozilla/5.0 (X11; Ubuntu; Linux x86_64; rv:86.0) Gecko/20100101 Firefox/86.0,,Firefox,86,Ubuntu,
10,1,null,"""",image-keyboard-response,62,166796,0.0-62.0,jspsych/scrambledDisgustFaces/scrambledBM33DIS.JPG,"""",6,forwardMask,Practice,null,250,"""",d,"""","""","""","""","""","""","""","""",3/22/2021 20:25,68.81.85.24,Mozilla/5.0 (X11; Ubuntu; Linux x86_64; rv:86.0) Gecko/20100101 Firefox/86.0,,Firefox,86,Ubuntu,
10,1,null,"""",image-keyboard-response,63,166819,0.0-63.0,jspsych/disgustFaces/BM34DIS.JPG,"""",6,Cue,Practice,null,16,"""","""","""","""","""","""","""","""","""","""",3/22/2021 20:25,68.81.85.24,Mozilla/5.0 (X11; Ubuntu; Linux x86_64; rv:86.0) Gecko/20100101 Firefox/86.0,,Firefox,86,Ubuntu,
10,1,null,"""",image-keyboard-response,64,166927,0.0-64.0,jspsych/neutralFaces/AM32NES.JPG,"""",6,backwardMask,Practice,null,100,"""","""","""","""","""","""","""","""","""","""",3/22/2021 20:25,68.81.85.24,Mozilla/5.0 (X11; Ubuntu; Linux x86_64; rv:86.0) Gecko/20100101 Firefox/86.0,,Firefox,86,Ubuntu,
10,1,null,"""",html-keyboard-response,65,167929,0.0-65.0,"<div style=""font-size:60px;"">+</div>","""",6,fixationBtwnNeutralMaskAndPrompt,Practice,null,1000,"""","""","""","""","""","""","""","""","""","""",3/22/2021 20:25,68.81.85.24,Mozilla/5.0 (X11; Ubuntu; Linux x86_64; rv:86.0) Gecko/20100101 Firefox/86.0,,Firefox,86,Ubuntu,
10,1,2408,"""",html-button-response,66,170339,0.0-66.0,"<img src='jspsych/CFDfaces/CFD-AM-229-224-N.jpg'height=""250px""></br><b>Patrick</b>",0,6,IntactOrRearranged,Practice,"""","""","""","""",CFD-AM-229-224-N.jpg,Patrick,0,"""","""",0,"""","""",3/22/2021 20:25,68.81.85.24,Mozilla/5.0 (X11; Ubuntu; Linux x86_64; rv:86.0) Gecko/20100101 Firefox/86.0,,Firefox,86,Ubuntu,
10,1,3392,"""",html-slider-response,67,173734,0.0-67.0,"<img src='jspsych/CFDfaces/CFD-AM-229-224-N.jpg'height=""250px""></br><b>Patrick</b>","""",6,ConfidenceQuery,Practice,"""","""","""","""",CFD-LM-217-162-N.jpg,Dustin,0,0,59,"""","""","""",3/22/2021 20:25,68.81.85.24,Mozilla/5.0 (X11; Ubuntu; Linux x86_64; rv:86.0) Gecko/20100101 Firefox/86.0,,Firefox,86,Ubuntu,
10,1,1916,"""",html-button-response,68,175653,0.0-68.0,You are Correct. You called an Intact Pair Intact,0,6,feedback,Practice,"""","""","""","""","""","""","""","""","""","""","""","""",3/22/2021 20:25,68.81.85.24,Mozilla/5.0 (X11; Ubuntu; Linux x86_64; rv:86.0) Gecko/20100101 Firefox/86.0,,Firefox,86,Ubuntu,
10,1,null,"""",html-keyboard-response,69,176656,0.0-69.0,"<div style=""font-size:60px;"">+</div>","""",7,ITI,Practice,null,1000,"""","""","""","""","""","""","""","""","""","""",3/22/2021 20:25,68.81.85.24,Mozilla/5.0 (X11; Ubuntu; Linux x86_64; rv:86.0) Gecko/20100101 Firefox/86.0,,Firefox,86,Ubuntu,
10,1,null,"""",image-keyboard-response,70,176912,0.0-70.0,jspsych/scrambledNeutralFaces/scrambledBF13NES.JPG,"""",7,forwardMask,Practice,null,250,"""",n,"""","""","""","""","""","""","""","""",3/22/2021 20:25,68.81.85.24,Mozilla/5.0 (X11; Ubuntu; Linux x86_64; rv:86.0) Gecko/20100101 Firefox/86.0,,Firefox,86,Ubuntu,
10,1,null,"""",image-keyboard-response,71,176932,0.0-71.0,jspsych/neutralFaces/BF13NES.JPG,"""",7,Cue,Practice,null,16,"""","""","""","""","""","""","""","""","""","""",3/22/2021 20:25,68.81.85.24,Mozilla/5.0 (X11; Ubuntu; Linux x86_64; rv:86.0) Gecko/20100101 Firefox/86.0,,Firefox,86,Ubuntu,
10,1,null,"""",image-keyboard-response,72,177035,0.0-72.0,jspsych/neutralFaces/BF12NES.JPG,"""",7,backwardMask,Practice,null,100,"""","""","""","""","""","""","""","""","""","""",3/22/2021 20:25,68.81.85.24,Mozilla/5.0 (X11; Ubuntu; Linux x86_64; rv:86.0) Gecko/20100101 Firefox/86.0,,Firefox,86,Ubuntu,
10,1,null,"""",html-keyboard-response,73,178037,0.0-73.0,"<div style=""font-size:60px;"">+</div>","""",7,fixationBtwnNeutralMaskAndPrompt,Practice,null,1000,"""","""","""","""","""","""","""","""","""","""",3/22/2021 20:25,68.81.85.24,Mozilla/5.0 (X11; Ubuntu; Linux x86_64; rv:86.0) Gecko/20100101 Firefox/86.0,,Firefox,86,Ubuntu,
10,1,2240,"""",html-button-response,74,180279,0.0-74.0,"<img src='jspsych/CFDfaces/CFD-WM-011-002-N.jpg'height=""250px""></br><b>Carlos</b>",1,7,IntactOrRearranged,Practice,"""","""","""","""",CFD-WM-011-002-N.jpg,Carlos,1,"""","""",1,"""","""",3/22/2021 20:25,68.81.85.24,Mozilla/5.0 (X11; Ubuntu; Linux x86_64; rv:86.0) Gecko/20100101 Firefox/86.0,,Firefox,86,Ubuntu,
10,1,3303,"""",html-slider-response,75,183595,0.0-75.0,"<img src='jspsych/CFDfaces/CFD-WM-011-002-N.jpg'height=""250px""></br><b>Carlos</b>","""",7,ConfidenceQuery,Practice,"""","""","""","""",CFD-LM-217-162-N.jpg,Dustin,1,0,80,"""","""","""",3/22/2021 20:25,68.81.85.24,Mozilla/5.0 (X11; Ubuntu; Linux x86_64; rv:86.0) Gecko/20100101 Firefox/86.0,,Firefox,86,Ubuntu,
10,1,1445,"""",html-button-response,76,185043,0.0-76.0,You are Correct. You Called A Rearranged Pair Rearranged,0,7,feedback,Practice,"""","""","""","""","""","""","""","""","""","""","""","""",3/22/2021 20:25,68.81.85.24,Mozilla/5.0 (X11; Ubuntu; Linux x86_64; rv:86.0) Gecko/20100101 Firefox/86.0,,Firefox,86,Ubuntu,
10,1,null,"""",html-keyboard-response,77,186045,0.0-77.0,"<div style=""font-size:60px;"">+</div>","""",8,ITI,Practice,null,1000,"""","""","""","""","""","""","""","""","""","""",3/22/2021 20:25,68.81.85.24,Mozilla/5.0 (X11; Ubuntu; Linux x86_64; rv:86.0) Gecko/20100101 Firefox/86.0,,Firefox,86,Ubuntu,
10,1,null,"""",image-keyboard-response,78,186301,0.0-78.0,jspsych/scrambledDisgustFaces/scrambledAF25DIS.JPG,"""",8,forwardMask,Practice,null,250,"""",d,"""","""","""","""","""","""","""","""",3/22/2021 20:25,68.81.85.24,Mozilla/5.0 (X11; Ubuntu; Linux x86_64; rv:86.0) Gecko/20100101 Firefox/86.0,,Firefox,86,Ubuntu,
10,1,null,"""",image-keyboard-response,79,186326,0.0-79.0,jspsych/disgustFaces/AF25DIS.JPG,"""",8,Cue,Practice,null,16,"""","""","""","""","""","""","""","""","""","""",3/22/2021 20:25,68.81.85.24,Mozilla/5.0 (X11; Ubuntu; Linux x86_64; rv:86.0) Gecko/20100101 Firefox/86.0,,Firefox,86,Ubuntu,
10,1,null,"""",image-keyboard-response,80,186432,0.0-80.0,jspsych/neutralFaces/AF13NES.JPG,"""",8,backwardMask,Practice,null,100,"""","""","""","""","""","""","""","""","""","""",3/22/2021 20:25,68.81.85.24,Mozilla/5.0 (X11; Ubuntu; Linux x86_64; rv:86.0) Gecko/20100101 Firefox/86.0,,Firefox,86,Ubuntu,
10,1,null,"""",html-keyboard-response,81,187433,0.0-81.0,"<div style=""font-size:60px;"">+</div>","""",8,fixationBtwnNeutralMaskAndPrompt,Practice,null,1000,"""","""","""","""","""","""","""","""","""","""",3/22/2021 20:25,68.81.85.24,Mozilla/5.0 (X11; Ubuntu; Linux x86_64; rv:86.0) Gecko/20100101 Firefox/86.0,,Firefox,86,Ubuntu,
10,1,3254,"""",html-button-response,82,190690,0.0-82.0,"<img src='jspsych/CFDfaces/CFD-WM-213-076-N.jpg'height=""250px""></br><b>Samuel</b>",1,8,IntactOrRearranged,Practice,"""","""","""","""",CFD-WM-213-076-N.jpg,Samuel,0,"""","""",1,"""","""",3/22/2021 20:25,68.81.85.24,Mozilla/5.0 (X11; Ubuntu; Linux x86_64; rv:86.0) Gecko/20100101 Firefox/86.0,,Firefox,86,Ubuntu,
10,1,3974,"""",html-slider-response,83,194677,0.0-83.0,"<img src='jspsych/CFDfaces/CFD-WM-213-076-N.jpg'height=""250px""></br><b>Samuel</b>","""",8,ConfidenceQuery,Practice,"""","""","""","""",CFD-LM-217-162-N.jpg,Dustin,0,0,39,"""","""","""",3/22/2021 20:25,68.81.85.24,Mozilla/5.0 (X11; Ubuntu; Linux x86_64; rv:86.0) Gecko/20100101 Firefox/86.0,,Firefox,86,Ubuntu,
10,1,1539,"""",html-button-response,84,196219,0.0-84.0,You are Incorrect. You Called an Intact Pair Rearranged,0,8,feedback,Practice,"""","""","""","""","""","""","""","""","""","""","""","""",3/22/2021 20:25,68.81.85.24,Mozilla/5.0 (X11; Ubuntu; Linux x86_64; rv:86.0) Gecko/20100101 Firefox/86.0,,Firefox,86,Ubuntu,
10,1,3480,"""",image-button-response,85,199726,0.0-85.0,directionsMemoryAssociation3.JPG,0,128,DirectionsBeforeActualTEst,Break,"""","""","""","""","""","""","""","""","""","""","""","""",3/22/2021 20:25,68.81.85.24,Mozilla/5.0 (X11; Ubuntu; Linux x86_64; rv:86.0) Gecko/20100101 Firefox/86.0,,Firefox,86,Ubuntu,
10,1,1972,"""",image-button-response,86,201718,0.0-86.0,directionsForTest2.JPG,0,1,directionsForTest2,break,"""","""","""","""","""","""","""","""","""","""","""","""",3/22/2021 20:25,68.81.85.24,Mozilla/5.0 (X11; Ubuntu; Linux x86_64; rv:86.0) Gecko/20100101 Firefox/86.0,,Firefox,86,Ubuntu,
10,1,5637,"""",html-button-response,87,207357,0.0-87.0,"<p>You will be asked to memorize and then recall four sets of face-name pairs. </p> <p> Each set will have 32 pairs. </p> <p>After the fourth set, there will be a brief follow-up experiment (<40 min alltogether)</p>",0,"""","""","""","""","""","""","""","""","""","""","""","""","""","""","""",3/22/2021 20:25,68.81.85.24,Mozilla/5.0 (X11; Ubuntu; Linux x86_64; rv:86.0) Gecko/20100101 Firefox/86.0,,Firefox,86,Ubuntu,
10,1,2807,"""",html-keyboard-response,88,212361,0.0-88.0,"<img src='jspsych/CFDfaces/CFD-LM-233-171-N.jpg' height=""250px""></br><b>Brian</b>","""",256,IntactFace,Memorization,70,5000,f,"""",CFD-AM-242-176-N.jpg,Jesse,0,"""","""","""",1,"""",3/22/2021 20:25,68.81.85.24,Mozilla/5.0 (X11; Ubuntu; Linux x86_64; rv:86.0) Gecko/20100101 Firefox/86.0,,Firefox,86,Ubuntu,
10,1,null,"""",html-keyboard-response,89,212868,0.0-89.0,"<div style=""font-size:60px;"">+</div>","""",256,fixation,Memorization,null,500,"""","""","""","""","""","""","""","""",1,"""",3/22/2021 20:25,68.81.85.24,Mozilla/5.0 (X11; Ubuntu; Linux x86_64; rv:86.0) Gecko/20100101 Firefox/86.0,,Firefox,86,Ubuntu,
10,1,1712,"""",html-keyboard-response,90,217872,0.0-90.0,"<img src='jspsych/CFDfaces/CFD-WF-207-014-N.jpg' height=""250px""></br><b>Meghan</b>","""",256,IntactFace,Memorization,70,5000,f,"""",CFD-WF-223-133-N.jpg,Jordan,0,"""","""","""",1,"""",3/22/2021 20:25,68.81.85.24,Mozilla/5.0 (X11; Ubuntu; Linux x86_64; rv:86.0) Gecko/20100101 Firefox/86.0,,Firefox,86,Ubuntu,
10,1,null,"""",html-keyboard-response,91,218377,0.0-91.0,"<div style=""font-size:60px;"">+</div>","""",256,fixation,Memorization,null,500,"""","""","""","""","""","""","""","""",1,"""",3/22/2021 20:25,68.81.85.24,Mozilla/5.0 (X11; Ubuntu; Linux x86_64; rv:86.0) Gecko/20100101 Firefox/86.0,,Firefox,86,Ubuntu,
10,1,2901,"""",html-keyboard-response,92,223381,0.0-92.0,"<img src='jspsych/CFDfaces/CFD-AM-207-108-N.jpg' height=""250px""></br><b>Brandon</b>","""",256,IntactFace,Memorization,70,5000,f,"""",CFD-BF-008-001-N.jpg,Sara,0,"""","""","""",1,"""",3/22/2021 20:25,68.81.85.24,Mozilla/5.0 (X11; Ubuntu; Linux x86_64; rv:86.0) Gecko/20100101 Firefox/86.0,,Firefox,86,Ubuntu,
10,1,null,"""",html-keyboard-response,93,223889,0.0-93.0,"<div style=""font-size:60px;"">+</div>","""",256,fixation,Memorization,null,500,"""","""","""","""","""","""","""","""",1,"""",3/22/2021 20:25,68.81.85.24,Mozilla/5.0 (X11; Ubuntu; Linux x86_64; rv:86.0) Gecko/20100101 Firefox/86.0,,Firefox,86,Ubuntu,
10,1,1676,"""",html-keyboard-response,94,228892,0.0-94.0,"<img src='jspsych/CFDfaces/CFD-WF-217-085-N.jpg' height=""250px""></br><b>Vanessa</b>","""",256,IntactFace,Memorization,70,5000,f,"""",CFD-BF-047-003-N.jpg,Lauren,0,"""","""","""",1,"""",3/22/2021 20:25,68.81.85.24,Mozilla/5.0 (X11; Ubuntu; Linux x86_64; rv:86.0) Gecko/20100101 Firefox/86.0,,Firefox,86,Ubuntu,
10,1,null,"""",html-keyboard-response,95,229399,0.0-95.0,"<div style=""font-size:60px;"">+</div>","""",256,fixation,Memorization,null,500,"""","""","""","""","""","""","""","""",1,"""",3/22/2021 20:25,68.81.85.24,Mozilla/5.0 (X11; Ubuntu; Linux x86_64; rv:86.0) Gecko/20100101 Firefox/86.0,,Firefox,86,Ubuntu,
10,1,1558,"""",html-keyboard-response,96,234401,0.0-96.0,"<img src='jspsych/CFDfaces/CFD-WM-207-048-N.jpg' height=""250px""></br><b>Eric</b>","""",256,IntactFace,Memorization,70,5000,f,"""",CFD-LM-220-329-N.jpg,Austin,0,"""","""","""",1,"""",3/22/2021 20:25,68.81.85.24,Mozilla/5.0 (X11; Ubuntu; Linux x86_64; rv:86.0) Gecko/20100101 Firefox/86.0,,Firefox,86,Ubuntu,
10,1,null,"""",html-keyboard-response,97,234904,0.0-97.0,"<div style=""font-size:60px;"">+</div>","""",256,fixation,Memorization,null,500,"""","""","""","""","""","""","""","""",1,"""",3/22/2021 20:25,68.81.85.24,Mozilla/5.0 (X11; Ubuntu; Linux x86_64; rv:86.0) Gecko/20100101 Firefox/86.0,,Firefox,86,Ubuntu,
10,1,1619,"""",html-keyboard-response,98,239907,0.0-98.0,"<img src='jspsych/CFDfaces/CFD-WM-015-002-N.jpg' height=""250px""></br><b>Robert</b>","""",256,IntactFace,Memorization,70,5000,f,"""",CFD-WF-200-099-N.jpg,Jasmine,0,"""","""","""",1,"""",3/22/2021 20:25,68.81.85.24,Mozilla/5.0 (X11; Ubuntu; Linux x86_64; rv:86.0) Gecko/20100101 Firefox/86.0,,Firefox,86,Ubuntu,
10,1,null,"""",html-keyboard-response,99,240415,0.0-99.0,"<div style=""font-size:60px;"">+</div>","""",256,fixation,Memorization,null,500,"""","""","""","""","""","""","""","""",1,"""",3/22/2021 20:25,68.81.85.24,Mozilla/5.0 (X11; Ubuntu; Linux x86_64; rv:86.0) Gecko/20100101 Firefox/86.0,,Firefox,86,Ubuntu,
10,1,2128,"""",html-keyboard-response,100,245418,0.0-100.0,"<img src='jspsych/CFDfaces/CFD-LF-218-072-N.jpg' height=""250px""></br><b>Emily</b>","""",256,IntactFace,Memorization,70,5000,f,"""",CFD-WM-215-041-N.jpg,Jeremy,0,"""","""","""",1,"""",3/22/2021 20:25,68.81.85.24,Mozilla/5.0 (X11; Ubuntu; Linux x86_64; rv:86.0) Gecko/20100101 Firefox/86.0,,Firefox,86,Ubuntu,
10,1,null,"""",html-keyboard-response,101,245926,0.0-101.0,"<div style=""font-size:60px;"">+</div>","""",256,fixation,Memorization,null,500,"""","""","""","""","""","""","""","""",1,"""",3/22/2021 20:25,68.81.85.24,Mozilla/5.0 (X11; Ubuntu; Linux x86_64; rv:86.0) Gecko/20100101 Firefox/86.0,,Firefox,86,Ubuntu,
10,1,2427,"""",html-keyboard-response,102,250929,0.0-102.0,"<img src='jspsych/CFDfaces/CFD-AF-235-170-N.jpg' height=""250px""></br><b>Victoria</b>","""",256,IntactFace,Memorization,78,5000,n,"""",CFD-AM-202-079-N.jpg,Mark,0,"""","""","""",1,"""",3/22/2021 20:25,68.81.85.24,Mozilla/5.0 (X11; Ubuntu; Linux x86_64; rv:86.0) Gecko/20100101 Firefox/86.0,,Firefox,86,Ubuntu,
10,1,null,"""",html-keyboard-response,103,251432,0.0-103.0,"<div style=""font-size:60px;"">+</div>","""",256,fixation,Memorization,null,500,"""","""","""","""","""","""","""","""",1,"""",3/22/2021 20:25,68.81.85.24,Mozilla/5.0 (X11; Ubuntu; Linux x86_64; rv:86.0) Gecko/20100101 Firefox/86.0,,Firefox,86,Ubuntu,
10,1,1535,"""",html-keyboard-response,104,256434,0.0-104.0,"<img src='jspsych/CFDfaces/CFD-LF-244-096-N.jpg' height=""250px""></br><b>Kayla</b>","""",256,IntactFace,Memorization,78,5000,n,"""",CFD-BF-025-002-N.jpg,Taylor,0,"""","""","""",1,"""",3/22/2021 20:25,68.81.85.24,Mozilla/5.0 (X11; Ubuntu; Linux x86_64; rv:86.0) Gecko/20100101 Firefox/86.0,,Firefox,86,Ubuntu,
10,1,null,"""",html-keyboard-response,105,256943,0.0-105.0,"<div style=""font-size:60px;"">+</div>","""",256,fixation,Memorization,null,500,"""","""","""","""","""","""","""","""",1,"""",3/22/2021 20:25,68.81.85.24,Mozilla/5.0 (X11; Ubuntu; Linux x86_64; rv:86.0) Gecko/20100101 Firefox/86.0,,Firefox,86,Ubuntu,
10,1,3002,"""",html-keyboard-response,106,261946,0.0-106.0,"<img src='jspsych/CFDfaces/CFD-AF-233-190-N.jpg' height=""250px""></br><b>Kimberly</b>","""",256,IntactFace,Memorization,78,5000,n,"""",CFD-WF-038-021-N.jpg,Angela,0,"""","""","""",1,"""",3/22/2021 20:25,68.81.85.24,Mozilla/5.0 (X11; Ubuntu; Linux x86_64; rv:86.0) Gecko/20100101 Firefox/86.0,,Firefox,86,Ubuntu,
10,1,null,"""",html-keyboard-response,107,262456,0.0-107.0,"<div style=""font-size:60px;"">+</div>","""",256,fixation,Memorization,null,500,"""","""","""","""","""","""","""","""",1,"""",3/22/2021 20:25,68.81.85.24,Mozilla/5.0 (X11; Ubuntu; Linux x86_64; rv:86.0) Gecko/20100101 Firefox/86.0,,Firefox,86,Ubuntu,
10,1,2069,"""",html-keyboard-response,108,267458,0.0-108.0,"<img src='jspsych/CFDfaces/CFD-BF-222-240-N.jpg' height=""250px""></br><b>Julie</b>","""",256,IntactFace,Memorization,78,5000,n,"""",CFD-LM-217-162-N.jpg,Dustin,0,"""","""","""",1,"""",3/22/2021 20:25,68.81.85.24,Mozilla/5.0 (X11; Ubuntu; Linux x86_64; rv:86.0) Gecko/20100101 Firefox/86.0,,Firefox,86,Ubuntu,
10,1,null,"""",html-keyboard-response,109,267968,0.0-109.0,"<div style=""font-size:60px;"">+</div>","""",256,fixation,Memorization,null,500,"""","""","""","""","""","""","""","""",1,"""",3/22/2021 20:25,68.81.85.24,Mozilla/5.0 (X11; Ubuntu; Linux x86_64; rv:86.0) Gecko/20100101 Firefox/86.0,,Firefox,86,Ubuntu,
10,1,1298,"""",html-keyboard-response,110,272970,0.0-110.0,"<img src='jspsych/CFDfaces/CFD-WM-232-070-N.jpg' height=""250px""></br><b>Daniel</b>","""",256,IntactFace,Memorization,70,5000,f,"""",CFD-AF-230-193-N.jpg,Laura,0,"""","""","""",1,"""",3/22/2021 20:25,68.81.85.24,Mozilla/5.0 (X11; Ubuntu; Linux x86_64; rv:86.0) Gecko/20100101 Firefox/86.0,,Firefox,86,Ubuntu,
10,1,null,"""",html-keyboard-response,111,273476,0.0-111.0,"<div style=""font-size:60px;"">+</div>","""",256,fixation,Memorization,null,500,"""","""","""","""","""","""","""","""",1,"""",3/22/2021 20:25,68.81.85.24,Mozilla/5.0 (X11; Ubuntu; Linux x86_64; rv:86.0) Gecko/20100101 Firefox/86.0,,Firefox,86,Ubuntu,
10,1,1709,"""",html-keyboard-response,112,278478,0.0-112.0,"<img src='jspsych/CFDfaces/CFD-AF-215-70-N.jpg' height=""250px""></br><b>Stephanie</b>","""",256,IntactFace,Memorization,78,5000,n,"""",CFD-AM-221-184-N.jpg,Justin,0,"""","""","""",1,"""",3/22/2021 20:25,68.81.85.24,Mozilla/5.0 (X11; Ubuntu; Linux x86_64; rv:86.0) Gecko/20100101 Firefox/86.0,,Firefox,86,Ubuntu,
10,1,null,"""",html-keyboard-response,113,278981,0.0-113.0,"<div style=""font-size:60px;"">+</div>","""",256,fixation,Memorization,null,500,"""","""","""","""","""","""","""","""",1,"""",3/22/2021 20:25,68.81.85.24,Mozilla/5.0 (X11; Ubuntu; Linux x86_64; rv:86.0) Gecko/20100101 Firefox/86.0,,Firefox,86,Ubuntu,
10,1,1971,"""",html-keyboard-response,114,283984,0.0-114.0,"<img src='jspsych/CFDfaces/CFD-AF-220-107-N.jpg' height=""250px""></br><b>Christina</b>","""",256,IntactFace,Memorization,78,5000,n,"""",CFD-LM-224-162-N.jpg,Steven,0,"""","""","""",1,"""",3/22/2021 20:25,68.81.85.24,Mozilla/5.0 (X11; Ubuntu; Linux x86_64; rv:86.0) Gecko/20100101 Firefox/86.0,,Firefox,86,Ubuntu,
10,1,null,"""",html-keyboard-response,115,284490,0.0-115.0,"<div style=""font-size:60px;"">+</div>","""",256,fixation,Memorization,null,500,"""","""","""","""","""","""","""","""",1,"""",3/22/2021 20:25,68.81.85.24,Mozilla/5.0 (X11; Ubuntu; Linux x86_64; rv:86.0) Gecko/20100101 Firefox/86.0,,Firefox,86,Ubuntu,
10,1,3482,"""",html-keyboard-response,116,289492,0.0-116.0,"<img src='jspsych/CFDfaces/CFD-AM-214-168-N.jpg' height=""250px""></br><b>Jeffrey</b>","""",256,IntactFace,Memorization,78,5000,n,"""",CFD-AF-203-077-N.jpg,Melissa,0,"""","""","""",1,"""",3/22/2021 20:25,68.81.85.24,Mozilla/5.0 (X11; Ubuntu; Linux x86_64; rv:86.0) Gecko/20100101 Firefox/86.0,,Firefox,86,Ubuntu,
10,1,null,"""",html-keyboard-response,117,290002,0.0-117.0,"<div style=""font-size:60px;"">+</div>","""",256,fixation,Memorization,null,500,"""","""","""","""","""","""","""","""",1,"""",3/22/2021 20:25,68.81.85.24,Mozilla/5.0 (X11; Ubuntu; Linux x86_64; rv:86.0) Gecko/20100101 Firefox/86.0,,Firefox,86,Ubuntu,
10,1,1620,"""",html-keyboard-response,118,295005,0.0-118.0,"<img src='jspsych/CFDfaces/CFD-AF-214-139-N.jpg' height=""250px""></br><b>Ashley</b>","""",256,IntactFace,Memorization,78,5000,n,"""",CFD-LF-205-100-N.jpg,Erin,0,"""","""","""",1,"""",3/22/2021 20:25,68.81.85.24,Mozilla/5.0 (X11; Ubuntu; Linux x86_64; rv:86.0) Gecko/20100101 Firefox/86.0,,Firefox,86,Ubuntu,
10,1,null,"""",html-keyboard-response,119,295514,0.0-119.0,"<div style=""font-size:60px;"">+</div>","""",256,fixation,Memorization,null,500,"""","""","""","""","""","""","""","""",1,"""",3/22/2021 20:25,68.81.85.24,Mozilla/5.0 (X11; Ubuntu; Linux x86_64; rv:86.0) Gecko/20100101 Firefox/86.0,,Firefox,86,Ubuntu,
10,1,1201,"""",html-keyboard-response,120,300517,0.0-120.0,"<img src='jspsych/CFDfaces/CFD-LM-200-045-N.jpg' height=""250px""></br><b>Gregory</b>","""",256,IntactFace,Memorization,70,5000,f,"""",CFD-LF-239-148-N.jpg,Heather,0,"""","""","""",1,"""",3/22/2021 20:25,68.81.85.24,Mozilla/5.0 (X11; Ubuntu; Linux x86_64; rv:86.0) Gecko/20100101 Firefox/86.0,,Firefox,86,Ubuntu,
10,1,null,"""",html-keyboard-response,121,301026,0.0-121.0,"<div style=""font-size:60px;"">+</div>","""",256,fixation,Memorization,null,500,"""","""","""","""","""","""","""","""",1,"""",3/22/2021 20:25,68.81.85.24,Mozilla/5.0 (X11; Ubuntu; Linux x86_64; rv:86.0) Gecko/20100101 Firefox/86.0,,Firefox,86,Ubuntu,
10,1,1400,"""",html-keyboard-response,122,306029,0.0-122.0,"<img src='jspsych/CFDfaces/CFD-BM-210-148-N.jpg' height=""250px""></br><b>Jason</b>","""",256,IntactFace,Memorization,70,5000,f,"""",CFD-WM-032-001-N.jpg,Sean,0,"""","""","""",1,"""",3/22/2021 20:25,68.81.85.24,Mozilla/5.0 (X11; Ubuntu; Linux x86_64; rv:86.0) Gecko/20100101 Firefox/86.0,,Firefox,86,Ubuntu,
10,1,null,"""",html-keyboard-response,123,306536,0.0-123.0,"<div style=""font-size:60px;"">+</div>","""",256,fixation,Memorization,null,500,"""","""","""","""","""","""","""","""",1,"""",3/22/2021 20:25,68.81.85.24,Mozilla/5.0 (X11; Ubuntu; Linux x86_64; rv:86.0) Gecko/20100101 Firefox/86.0,,Firefox,86,Ubuntu,
10,1,2623,"""",html-keyboard-response,124,311539,0.0-124.0,"<img src='jspsych/CFDfaces/CFD-WF-218-087-N.jpg' height=""250px""></br><b>Andrea</b>","""",256,IntactFace,Memorization,70,5000,f,"""",CFD-AF-228-173-N.jpg,Amy,0,"""","""","""",1,"""",3/22/2021 20:25,68.81.85.24,Mozilla/5.0 (X11; Ubuntu; Linux x86_64; rv:86.0) Gecko/20100101 Firefox/86.0,,Firefox,86,Ubuntu,
10,1,null,"""",html-keyboard-response,125,312051,0.0-125.0,"<div style=""font-size:60px;"">+</div>","""",256,fixation,Memorization,null,500,"""","""","""","""","""","""","""","""",1,"""",3/22/2021 20:25,68.81.85.24,Mozilla/5.0 (X11; Ubuntu; Linux x86_64; rv:86.0) Gecko/20100101 Firefox/86.0,,Firefox,86,Ubuntu,
10,1,2886,"""",html-keyboard-response,126,317053,0.0-126.0,"<img src='jspsych/CFDfaces/CFD-WF-202-056-N.jpg' height=""250px""></br><b>Elizabeth</b>","""",256,IntactFace,Memorization,70,5000,f,"""",CFD-WF-018-017-N.jpg,Rebecca,0,"""","""","""",1,"""",3/22/2021 20:25,68.81.85.24,Mozilla/5.0 (X11; Ubuntu; Linux x86_64; rv:86.0) Gecko/20100101 Firefox/86.0,,Firefox,86,Ubuntu,
10,1,null,"""",html-keyboard-response,127,317563,0.0-127.0,"<div style=""font-size:60px;"">+</div>","""",256,fixation,Memorization,null,500,"""","""","""","""","""","""","""","""",1,"""",3/22/2021 20:25,68.81.85.24,Mozilla/5.0 (X11; Ubuntu; Linux x86_64; rv:86.0) Gecko/20100101 Firefox/86.0,,Firefox,86,Ubuntu,
10,1,1708,"""",html-keyboard-response,128,322566,0.0-128.0,"<img src='jspsych/CFDfaces/CFD-LM-213-061-N.jpg' height=""250px""></br><b>Peter</b>","""",256,IntactFace,Memorization,78,5000,n,"""",CFD-BF-212-315-N.jpg,Jenna,0,"""","""","""",1,"""",3/22/2021 20:25,68.81.85.24,Mozilla/5.0 (X11; Ubuntu; Linux x86_64; rv:86.0) Gecko/20100101 Firefox/86.0,,Firefox,86,Ubuntu,
10,1,null,"""",html-keyboard-response,129,323075,0.0-129.0,"<div style=""font-size:60px;"">+</div>","""",256,fixation,Memorization,null,500,"""","""","""","""","""","""","""","""",1,"""",3/22/2021 20:25,68.81.85.24,Mozilla/5.0 (X11; Ubuntu; Linux x86_64; rv:86.0) Gecko/20100101 Firefox/86.0,,Firefox,86,Ubuntu,
10,1,1562,"""",html-keyboard-response,130,328077,0.0-130.0,"<img src='jspsych/CFDfaces/CFD-AM-243-212-N.jpg' height=""250px""></br><b>Juan</b>","""",256,IntactFace,Memorization,70,5000,f,"""",CFD-WM-041-021-N.jpg,Ryan,0,"""","""","""",1,"""",3/22/2021 20:25,68.81.85.24,Mozilla/5.0 (X11; Ubuntu; Linux x86_64; rv:86.0) Gecko/20100101 Firefox/86.0,,Firefox,86,Ubuntu,
10,1,null,"""",html-keyboard-response,131,328585,0.0-131.0,"<div style=""font-size:60px;"">+</div>","""",256,fixation,Memorization,null,500,"""","""","""","""","""","""","""","""",1,"""",3/22/2021 20:25,68.81.85.24,Mozilla/5.0 (X11; Ubuntu; Linux x86_64; rv:86.0) Gecko/20100101 Firefox/86.0,,Firefox,86,Ubuntu,
10,1,1965,"""",html-keyboard-response,132,334444,0.0-132.0,"<img src='jspsych/CFDfaces/CFD-BF-226-119-N.jpg' height=""250px""></br><b>Michelle</b>","""",256,IntactFace,Memorization,70,5000,f,"""",CFD-AM-212-050-N.jpg,Luis,0,"""","""","""",1,"""",3/22/2021 20:25,68.81.85.24,Mozilla/5.0 (X11; Ubuntu; Linux x86_64; rv:86.0) Gecko/20100101 Firefox/86.0,,Firefox,86,Ubuntu,
10,1,null,"""",html-keyboard-response,133,334950,0.0-133.0,"<div style=""font-size:60px;"">+</div>","""",256,fixation,Memorization,null,500,"""","""","""","""","""","""","""","""",1,"""",3/22/2021 20:25,68.81.85.24,Mozilla/5.0 (X11; Ubuntu; Linux x86_64; rv:86.0) Gecko/20100101 Firefox/86.0,,Firefox,86,Ubuntu,
10,1,1542,"""",html-keyboard-response,134,339953,0.0-134.0,"<img src='jspsych/CFDfaces/CFD-WM-006-002-N.jpg' height=""250px""></br><b>Joshua</b>","""",256,IntactFace,Memorization,70,5000,f,"""",CFD-BM-022-022-N.jpg,Kenneth,0,"""","""","""",1,"""",3/22/2021 20:25,68.81.85.24,Mozilla/5.0 (X11; Ubuntu; Linux x86_64; rv:86.0) Gecko/20100101 Firefox/86.0,,Firefox,86,Ubuntu,
10,1,null,"""",html-keyboard-response,135,340465,0.0-135.0,"<div style=""font-size:60px;"">+</div>","""",256,fixation,Memorization,null,500,"""","""","""","""","""","""","""","""",1,"""",3/22/2021 20:25,68.81.85.24,Mozilla/5.0 (X11; Ubuntu; Linux x86_64; rv:86.0) Gecko/20100101 Firefox/86.0,,Firefox,86,Ubuntu,
10,1,1690,"""",html-keyboard-response,136,345469,0.0-136.0,"<img src='jspsych/CFDfaces/CFD-WM-022-001-N.jpg' height=""250px""></br><b>Richard</b>","""",256,IntactFace,Memorization,70,5000,f,"""",CFD-AF-209-006-N.jpg,Whitney,0,"""","""","""",1,"""",3/22/2021 20:25,68.81.85.24,Mozilla/5.0 (X11; Ubuntu; Linux x86_64; rv:86.0) Gecko/20100101 Firefox/86.0,,Firefox,86,Ubuntu,
10,1,null,"""",html-keyboard-response,137,345975,0.0-137.0,"<div style=""font-size:60px;"">+</div>","""",256,fixation,Memorization,null,500,"""","""","""","""","""","""","""","""",1,"""",3/22/2021 20:25,68.81.85.24,Mozilla/5.0 (X11; Ubuntu; Linux x86_64; rv:86.0) Gecko/20100101 Firefox/86.0,,Firefox,86,Ubuntu,
10,1,1798,"""",html-keyboard-response,138,350979,0.0-138.0,"<img src='jspsych/CFDfaces/CFD-BM-010-003-N.jpg' height=""250px""></br><b>Christian</b>","""",256,IntactFace,Memorization,70,5000,f,"""",CFD-BM-207-024-N.jpg,Timothy,0,"""","""","""",1,"""",3/22/2021 20:25,68.81.85.24,Mozilla/5.0 (X11; Ubuntu; Linux x86_64; rv:86.0) Gecko/20100101 Firefox/86.0,,Firefox,86,Ubuntu,
10,1,null,"""",html-keyboard-response,139,351490,0.0-139.0,"<div style=""font-size:60px;"">+</div>","""",256,fixation,Memorization,null,500,"""","""","""","""","""","""","""","""",1,"""",3/22/2021 20:25,68.81.85.24,Mozilla/5.0 (X11; Ubuntu; Linux x86_64; rv:86.0) Gecko/20100101 Firefox/86.0,,Firefox,86,Ubuntu,
10,1,1860,"""",html-keyboard-response,140,356493,0.0-140.0,"<img src='jspsych/CFDfaces/CFD-AF-208-003-N.jpg' height=""250px""></br><b>Samantha</b>","""",256,IntactFace,Memorization,78,5000,n,"""",CFD-LM-225-130-N.jpg,Cameron,0,"""","""","""",1,"""",3/22/2021 20:25,68.81.85.24,Mozilla/5.0 (X11; Ubuntu; Linux x86_64; rv:86.0) Gecko/20100101 Firefox/86.0,,Firefox,86,Ubuntu,
10,1,null,"""",html-keyboard-response,141,356999,0.0-141.0,"<div style=""font-size:60px;"">+</div>","""",256,fixation,Memorization,null,500,"""","""","""","""","""","""","""","""",1,"""",3/22/2021 20:25,68.81.85.24,Mozilla/5.0 (X11; Ubuntu; Linux x86_64; rv:86.0) Gecko/20100101 Firefox/86.0,,Firefox,86,Ubuntu,
10,1,1485,"""",html-keyboard-response,142,362002,0.0-142.0,"<img src='jspsych/CFDfaces/CFD-BM-203-001-N.jpg' height=""250px""></br><b>James</b>","""",256,IntactFace,Memorization,70,5000,f,"""",CFD-WF-024-003-N.jpg,Lindsey,0,"""","""","""",1,"""",3/22/2021 20:25,68.81.85.24,Mozilla/5.0 (X11; Ubuntu; Linux x86_64; rv:86.0) Gecko/20100101 Firefox/86.0,,Firefox,86,Ubuntu,
10,1,null,"""",html-keyboard-response,143,362508,0.0-143.0,"<div style=""font-size:60px;"">+</div>","""",256,fixation,Memorization,null,500,"""","""","""","""","""","""","""","""",1,"""",3/22/2021 20:25,68.81.85.24,Mozilla/5.0 (X11; Ubuntu; Linux x86_64; rv:86.0) Gecko/20100101 Firefox/86.0,,Firefox,86,Ubuntu,
10,1,2020,"""",html-keyboard-response,144,367511,0.0-144.0,"<img src='jspsych/CFDfaces/CFD-AF-242-158-N.jpg' height=""250px""></br><b>Brittany</b>","""",256,IntactFace,Memorization,70,5000,f,"""",CFD-LF-210-220-N.jpg,Tiffany,0,"""","""","""",1,"""",3/22/2021 20:25,68.81.85.24,Mozilla/5.0 (X11; Ubuntu; Linux x86_64; rv:86.0) Gecko/20100101 Firefox/86.0,,Firefox,86,Ubuntu,
10,1,null,"""",html-keyboard-response,145,368022,0.0-145.0,"<div style=""font-size:60px;"">+</div>","""",256,fixation,Memorization,null,500,"""","""","""","""","""","""","""","""",1,"""",3/22/2021 20:25,68.81.85.24,Mozilla/5.0 (X11; Ubuntu; Linux x86_64; rv:86.0) Gecko/20100101 Firefox/86.0,,Firefox,86,Ubuntu,
10,1,1998,"""",html-keyboard-response,146,373026,0.0-146.0,"<img src='jspsych/CFDfaces/CFD-AM-205-153-N.jpg' height=""250px""></br><b>Nicholas</b>","""",256,IntactFace,Memorization,78,5000,n,"""",CFD-BM-029-024-N.jpg,Jacob,0,"""","""","""",1,"""",3/22/2021 20:25,68.81.85.24,Mozilla/5.0 (X11; Ubuntu; Linux x86_64; rv:86.0) Gecko/20100101 Firefox/86.0,,Firefox,86,Ubuntu,
10,1,null,"""",html-keyboard-response,147,373537,0.0-147.0,"<div style=""font-size:60px;"">+</div>","""",256,fixation,Memorization,null,500,"""","""","""","""","""","""","""","""",1,"""",3/22/2021 20:25,68.81.85.24,Mozilla/5.0 (X11; Ubuntu; Linux x86_64; rv:86.0) Gecko/20100101 Firefox/86.0,,Firefox,86,Ubuntu,
10,1,1357,"""",html-keyboard-response,148,378539,0.0-148.0,"<img src='jspsych/CFDfaces/CFD-WF-205-006-N.jpg' height=""250px""></br><b>Amanda</b>","""",256,IntactFace,Memorization,70,5000,f,"""",CFD-BM-205-001-N.jpg,Travis,0,"""","""","""",1,"""",3/22/2021 20:25,68.81.85.24,Mozilla/5.0 (X11; Ubuntu; Linux x86_64; rv:86.0) Gecko/20100101 Firefox/86.0,,Firefox,86,Ubuntu,
10,1,null,"""",html-keyboard-response,149,379051,0.0-149.0,"<div style=""font-size:60px;"">+</div>","""",256,fixation,Memorization,null,500,"""","""","""","""","""","""","""","""",1,"""",3/22/2021 20:25,68.81.85.24,Mozilla/5.0 (X11; Ubuntu; Linux x86_64; rv:86.0) Gecko/20100101 Firefox/86.0,,Firefox,86,Ubuntu,
10,1,1692,"""",html-keyboard-response,150,384053,0.0-150.0,"<img src='jspsych/CFDfaces/CFD-WM-017-002-N.jpg' height=""250px""></br><b>Ian</b>","""",256,IntactFace,Memorization,70,5000,f,"""",CFD-WM-222-057-N.jpg,Vincent,0,"""","""","""",1,"""",3/22/2021 20:25,68.81.85.24,Mozilla/5.0 (X11; Ubuntu; Linux x86_64; rv:86.0) Gecko/20100101 Firefox/86.0,,Firefox,86,Ubuntu,
10,1,null,"""",html-keyboard-response,151,384565,0.0-151.0,"<div style=""font-size:60px;"">+</div>","""",256,fixation,Memorization,null,500,"""","""","""","""","""","""","""","""",1,"""",3/22/2021 20:25,68.81.85.24,Mozilla/5.0 (X11; Ubuntu; Linux x86_64; rv:86.0) Gecko/20100101 Firefox/86.0,,Firefox,86,Ubuntu,
10,1,1714,"""",html-keyboard-response,152,386279,0.0-152.0,Press Any Key to Begin Memory Test,"""",1,welcomeScreen,Break,65,"""","""","""","""","""","""","""","""","""",1,"""",3/22/2021 20:25,68.81.85.24,Mozilla/5.0 (X11; Ubuntu; Linux x86_64; rv:86.0) Gecko/20100101 Firefox/86.0,,Firefox,86,Ubuntu,
10,1,null,"""",html-keyboard-response,153,387281,0.0-153.0,"<div style=""font-size:60px;"">+</div>","""",256,ITI,Test,null,1000,"""","""","""","""","""","""","""","""",1,"""",3/22/2021 20:25,68.81.85.24,Mozilla/5.0 (X11; Ubuntu; Linux x86_64; rv:86.0) Gecko/20100101 Firefox/86.0,,Firefox,86,Ubuntu,
10,1,null,"""",image-keyboard-response,154,387539,0.0-154.0,jspsych/scrambledDisgustFaces/scrambledBF32DIS.JPG,"""",256,forwardMask,Test,null,250,"""",d,"""","""","""","""","""","""",1,"""",3/22/2021 20:25,68.81.85.24,Mozilla/5.0 (X11; Ubuntu; Linux x86_64; rv:86.0) Gecko/20100101 Firefox/86.0,,Firefox,86,Ubuntu,
10,1,null,"""",image-keyboard-response,155,387563,0.0-155.0,jspsych/disgustFaces/BF32DIS.JPG,"""",256,Cue,Test,null,16,"""","""","""","""","""","""","""","""",1,"""",3/22/2021 20:25,68.81.85.24,Mozilla/5.0 (X11; Ubuntu; Linux x86_64; rv:86.0) Gecko/20100101 Firefox/86.0,,Firefox,86,Ubuntu,
10,1,null,"""",image-keyboard-response,156,387669,0.0-156.0,jspsych/neutralFaces/BF13NES.JPG,"""",256,backwardMask,Test,null,100,"""","""","""","""","""","""","""","""",1,"""",3/22/2021 20:25,68.81.85.24,Mozilla/5.0 (X11; Ubuntu; Linux x86_64; rv:86.0) Gecko/20100101 Firefox/86.0,,Firefox,86,Ubuntu,
10,1,null,"""",html-keyboard-response,157,388671,0.0-157.0,"<div style=""font-size:60px;"">+</div>","""",256,fixationBtwnNeutralMaskAndPrompt,Test,null,1000,"""","""","""","""","""","""","""","""",1,"""",3/22/2021 20:25,68.81.85.24,Mozilla/5.0 (X11; Ubuntu; Linux x86_64; rv:86.0) Gecko/20100101 Firefox/86.0,,Firefox,86,Ubuntu,
10,1,3583,"""",html-button-response,158,392258,0.0-158.0,"<img src='jspsych/CFDfaces/CFD-WF-218-087-N.jpg' height=""250px"">,</br><b>Amanda</b>",1,256,IntactOrRearranged,Test,"""","""","""","""",CFD-LF-205-100-N.jpg,Laura,1,"""","""",1,1,"""",3/22/2021 20:25,68.81.85.24,Mozilla/5.0 (X11; Ubuntu; Linux x86_64; rv:86.0) Gecko/20100101 Firefox/86.0,,Firefox,86,Ubuntu,
10,1,3654,"""",html-slider-response,159,395928,0.0-159.0,"<img src='jspsych/CFDfaces/CFD-WF-218-087-N.jpg' height=""250px"">,</br><b>Amanda</b>","""",256,ConfidenceQuery,Test,"""","""","""","""",CFD-LF-205-100-N.jpg,Laura,1,0,40,"""",1,"""",3/22/2021 20:25,68.81.85.24,Mozilla/5.0 (X11; Ubuntu; Linux x86_64; rv:86.0) Gecko/20100101 Firefox/86.0,,Firefox,86,Ubuntu,
10,1,null,"""",html-keyboard-response,160,396930,0.0-160.0,"<div style=""font-size:60px;"">+</div>","""",256,ITI,Test,null,1000,"""","""","""","""","""","""","""","""",1,"""",3/22/2021 20:25,68.81.85.24,Mozilla/5.0 (X11; Ubuntu; Linux x86_64; rv:86.0) Gecko/20100101 Firefox/86.0,,Firefox,86,Ubuntu,
10,1,null,"""",image-keyboard-response,161,397196,0.0-161.0,jspsych/scrambledDisgustFaces/scrambledBM11DIS.JPG,"""",256,forwardMask,Test,null,250,"""",d,"""","""","""","""","""","""",1,"""",3/22/2021 20:25,68.81.85.24,Mozilla/5.0 (X11; Ubuntu; Linux x86_64; rv:86.0) Gecko/20100101 Firefox/86.0,,Firefox,86,Ubuntu,
10,1,null,"""",image-keyboard-response,162,397220,0.0-162.0,jspsych/disgustFaces/BM12DIS.JPG,"""",256,Cue,Test,null,16,"""","""","""","""","""","""","""","""",1,"""",3/22/2021 20:25,68.81.85.24,Mozilla/5.0 (X11; Ubuntu; Linux x86_64; rv:86.0) Gecko/20100101 Firefox/86.0,,Firefox,86,Ubuntu,
10,1,null,"""",image-keyboard-response,163,397324,0.0-163.0,jspsych/neutralFaces/AM26NES.JPG,"""",256,backwardMask,Test,null,100,"""","""","""","""","""","""","""","""",1,"""",3/22/2021 20:25,68.81.85.24,Mozilla/5.0 (X11; Ubuntu; Linux x86_64; rv:86.0) Gecko/20100101 Firefox/86.0,,Firefox,86,Ubuntu,
10,1,null,"""",html-keyboard-response,164,398326,0.0-164.0,"<div style=""font-size:60px;"">+</div>","""",256,fixationBtwnNeutralMaskAndPrompt,Test,null,1000,"""","""","""","""","""","""","""","""",1,"""",3/22/2021 20:25,68.81.85.24,Mozilla/5.0 (X11; Ubuntu; Linux x86_64; rv:86.0) Gecko/20100101 Firefox/86.0,,Firefox,86,Ubuntu,
10,1,2875,"""",html-button-response,165,401203,0.0-165.0,"<img src='jspsych/CFDfaces/CFD-WF-217-085-N.jpg' height=""250px"">,</br><b>Vanessa</b>",0,256,IntactOrRearranged,Test,"""","""","""","""",CFD-WF-200-099-N.jpg,Angela,0,"""","""",0,1,"""",3/22/2021 20:25,68.81.85.24,Mozilla/5.0 (X11; Ubuntu; Linux x86_64; rv:86.0) Gecko/20100101 Firefox/86.0,,Firefox,86,Ubuntu,
10,1,3463,"""",html-slider-response,166,404682,0.0-166.0,"<img src='jspsych/CFDfaces/CFD-WF-217-085-N.jpg' height=""250px"">,</br><b>Vanessa</b>","""",256,ConfidenceQuery,Test,"""","""","""","""",CFD-WF-200-099-N.jpg,Angela,0,0,48,"""",1,"""",3/22/2021 20:25,68.81.85.24,Mozilla/5.0 (X11; Ubuntu; Linux x86_64; rv:86.0) Gecko/20100101 Firefox/86.0,,Firefox,86,Ubuntu,
10,1,null,"""",html-keyboard-response,167,405685,0.0-167.0,"<div style=""font-size:60px;"">+</div>","""",256,ITI,Test,null,1000,"""","""","""","""","""","""","""","""",1,"""",3/22/2021 20:25,68.81.85.24,Mozilla/5.0 (X11; Ubuntu; Linux x86_64; rv:86.0) Gecko/20100101 Firefox/86.0,,Firefox,86,Ubuntu,
10,1,null,"""",image-keyboard-response,168,405944,0.0-168.0,jspsych/scrambledDisgustFaces/scrambledAF33DIS.JPG,"""",256,forwardMask,Test,null,250,"""",d,"""","""","""","""","""","""",1,"""",3/22/2021 20:25,68.81.85.24,Mozilla/5.0 (X11; Ubuntu; Linux x86_64; rv:86.0) Gecko/20100101 Firefox/86.0,,Firefox,86,Ubuntu,
10,1,null,"""",image-keyboard-response,169,405967,0.0-169.0,jspsych/disgustFaces/AF33DIS.JPG,"""",256,Cue,Test,null,16,"""","""","""","""","""","""","""","""",1,"""",3/22/2021 20:25,68.81.85.24,Mozilla/5.0 (X11; Ubuntu; Linux x86_64; rv:86.0) Gecko/20100101 Firefox/86.0,,Firefox,86,Ubuntu,
10,1,null,"""",image-keyboard-response,170,406075,0.0-170.0,jspsych/neutralFaces/AF26NES.JPG,"""",256,backwardMask,Test,null,100,"""","""","""","""","""","""","""","""",1,"""",3/22/2021 20:25,68.81.85.24,Mozilla/5.0 (X11; Ubuntu; Linux x86_64; rv:86.0) Gecko/20100101 Firefox/86.0,,Firefox,86,Ubuntu,
10,1,null,"""",html-keyboard-response,171,407077,0.0-171.0,"<div style=""font-size:60px;"">+</div>","""",256,fixationBtwnNeutralMaskAndPrompt,Test,null,1000,"""","""","""","""","""","""","""","""",1,"""",3/22/2021 20:25,68.81.85.24,Mozilla/5.0 (X11; Ubuntu; Linux x86_64; rv:86.0) Gecko/20100101 Firefox/86.0,,Firefox,86,Ubuntu,
10,1,3947,"""",html-button-response,172,411026,0.0-172.0,"<img src='jspsych/CFDfaces/CFD-WM-207-048-N.jpg' height=""250px"">,</br><b>Gregory</b>",1,256,IntactOrRearranged,Test,"""","""","""","""",CFD-BM-029-024-N.jpg,Jacob,1,"""","""",1,1,"""",3/22/2021 20:25,68.81.85.24,Mozilla/5.0 (X11; Ubuntu; Linux x86_64; rv:86.0) Gecko/20100101 Firefox/86.0,,Firefox,86,Ubuntu,
10,1,3203,"""",html-slider-response,173,414244,0.0-173.0,"<img src='jspsych/CFDfaces/CFD-WM-207-048-N.jpg' height=""250px"">,</br><b>Gregory</b>","""",256,ConfidenceQuery,Test,"""","""","""","""",CFD-BM-029-024-N.jpg,Jacob,1,0,18,"""",1,"""",3/22/2021 20:25,68.81.85.24,Mozilla/5.0 (X11; Ubuntu; Linux x86_64; rv:86.0) Gecko/20100101 Firefox/86.0,,Firefox,86,Ubuntu,
10,1,null,"""",html-keyboard-response,174,415246,0.0-174.0,"<div style=""font-size:60px;"">+</div>","""",256,ITI,Test,null,1000,"""","""","""","""","""","""","""","""",1,"""",3/22/2021 20:25,68.81.85.24,Mozilla/5.0 (X11; Ubuntu; Linux x86_64; rv:86.0) Gecko/20100101 Firefox/86.0,,Firefox,86,Ubuntu,
10,1,null,"""",image-keyboard-response,175,415514,0.0-175.0,jspsych/scrambledNeutralFaces/scrambledAF27NES.JPG,"""",256,forwardMask,Test,null,250,"""",n,"""","""","""","""","""","""",1,"""",3/22/2021 20:25,68.81.85.24,Mozilla/5.0 (X11; Ubuntu; Linux x86_64; rv:86.0) Gecko/20100101 Firefox/86.0,,Firefox,86,Ubuntu,
10,1,null,"""",image-keyboard-response,176,415538,0.0-176.0,jspsych/neutralFaces/AF27NES.JPG,"""",256,Cue,Test,null,16,"""","""","""","""","""","""","""","""",1,"""",3/22/2021 20:25,68.81.85.24,Mozilla/5.0 (X11; Ubuntu; Linux x86_64; rv:86.0) Gecko/20100101 Firefox/86.0,,Firefox,86,Ubuntu,
10,1,null,"""",image-keyboard-response,177,415645,0.0-177.0,jspsych/neutralFaces/BF30NES.JPG,"""",256,backwardMask,Test,null,100,"""","""","""","""","""","""","""","""",1,"""",3/22/2021 20:25,68.81.85.24,Mozilla/5.0 (X11; Ubuntu; Linux x86_64; rv:86.0) Gecko/20100101 Firefox/86.0,,Firefox,86,Ubuntu,
10,1,null,"""",html-keyboard-response,178,416647,0.0-178.0,"<div style=""font-size:60px;"">+</div>","""",256,fixationBtwnNeutralMaskAndPrompt,Test,null,1000,"""","""","""","""","""","""","""","""",1,"""",3/22/2021 20:25,68.81.85.24,Mozilla/5.0 (X11; Ubuntu; Linux x86_64; rv:86.0) Gecko/20100101 Firefox/86.0,,Firefox,86,Ubuntu,
10,1,2441,"""",html-button-response,179,419091,0.0-179.0,"<img src='jspsych/CFDfaces/CFD-BM-203-001-N.jpg' height=""250px"">,</br><b>Jeffrey</b>",1,256,IntactOrRearranged,Test,"""","""","""","""",CFD-AM-212-050-N.jpg,Luis,1,"""","""",1,1,"""",3/22/2021 20:25,68.81.85.24,Mozilla/5.0 (X11; Ubuntu; Linux x86_64; rv:86.0) Gecko/20100101 Firefox/86.0,,Firefox,86,Ubuntu,
10,1,2521,"""",html-slider-response,180,421620,0.0-180.0,"<img src='jspsych/CFDfaces/CFD-BM-203-001-N.jpg' height=""250px"">,</br><b>Jeffrey</b>","""",256,ConfidenceQuery,Test,"""","""","""","""",CFD-AM-212-050-N.jpg,Luis,1,0,81,"""",1,"""",3/22/2021 20:25,68.81.85.24,Mozilla/5.0 (X11; Ubuntu; Linux x86_64; rv:86.0) Gecko/20100101 Firefox/86.0,,Firefox,86,Ubuntu,
10,1,null,"""",html-keyboard-response,181,422623,0.0-181.0,"<div style=""font-size:60px;"">+</div>","""",256,ITI,Test,null,1000,"""","""","""","""","""","""","""","""",1,"""",3/22/2021 20:25,68.81.85.24,Mozilla/5.0 (X11; Ubuntu; Linux x86_64; rv:86.0) Gecko/20100101 Firefox/86.0,,Firefox,86,Ubuntu,
10,1,null,"""",image-keyboard-response,182,422890,0.0-182.0,jspsych/scrambledNeutralFaces/scrambledBF08NES.JPG,"""",256,forwardMask,Test,null,250,"""",n,"""","""","""","""","""","""",1,"""",3/22/2021 20:25,68.81.85.24,Mozilla/5.0 (X11; Ubuntu; Linux x86_64; rv:86.0) Gecko/20100101 Firefox/86.0,,Firefox,86,Ubuntu,
10,1,null,"""",image-keyboard-response,183,422914,0.0-183.0,jspsych/neutralFaces/BF08NES.JPG,"""",256,Cue,Test,null,16,"""","""","""","""","""","""","""","""",1,"""",3/22/2021 20:25,68.81.85.24,Mozilla/5.0 (X11; Ubuntu; Linux x86_64; rv:86.0) Gecko/20100101 Firefox/86.0,,Firefox,86,Ubuntu,
10,1,null,"""",image-keyboard-response,184,423022,0.0-184.0,jspsych/neutralFaces/AF16NES.JPG,"""",256,backwardMask,Test,null,100,"""","""","""","""","""","""","""","""",1,"""",3/22/2021 20:25,68.81.85.24,Mozilla/5.0 (X11; Ubuntu; Linux x86_64; rv:86.0) Gecko/20100101 Firefox/86.0,,Firefox,86,Ubuntu,
10,1,null,"""",html-keyboard-response,185,424024,0.0-185.0,"<div style=""font-size:60px;"">+</div>","""",256,fixationBtwnNeutralMaskAndPrompt,Test,null,1000,"""","""","""","""","""","""","""","""",1,"""",3/22/2021 20:25,68.81.85.24,Mozilla/5.0 (X11; Ubuntu; Linux x86_64; rv:86.0) Gecko/20100101 Firefox/86.0,,Firefox,86,Ubuntu,
10,1,2664,"""",html-button-response,186,426691,0.0-186.0,"<img src='jspsych/CFDfaces/CFD-AM-207-108-N.jpg' height=""250px"">,</br><b>Brandon</b>",0,256,IntactOrRearranged,Test,"""","""","""","""",CFD-LM-220-329-N.jpg,Mark,0,"""","""",0,1,"""",3/22/2021 20:25,68.81.85.24,Mozilla/5.0 (X11; Ubuntu; Linux x86_64; rv:86.0) Gecko/20100101 Firefox/86.0,,Firefox,86,Ubuntu,
10,1,2812,"""",html-slider-response,187,429511,0.0-187.0,"<img src='jspsych/CFDfaces/CFD-AM-207-108-N.jpg' height=""250px"">,</br><b>Brandon</b>","""",256,ConfidenceQuery,Test,"""","""","""","""",CFD-LM-220-329-N.jpg,Mark,0,0,69,"""",1,"""",3/22/2021 20:25,68.81.85.24,Mozilla/5.0 (X11; Ubuntu; Linux x86_64; rv:86.0) Gecko/20100101 Firefox/86.0,,Firefox,86,Ubuntu,
10,1,null,"""",html-keyboard-response,188,430515,0.0-188.0,"<div style=""font-size:60px;"">+</div>","""",256,ITI,Test,null,1000,"""","""","""","""","""","""","""","""",1,"""",3/22/2021 20:25,68.81.85.24,Mozilla/5.0 (X11; Ubuntu; Linux x86_64; rv:86.0) Gecko/20100101 Firefox/86.0,,Firefox,86,Ubuntu,
10,1,null,"""",image-keyboard-response,189,430781,0.0-189.0,jspsych/scrambledDisgustFaces/scrambledBM33DIS.JPG,"""",256,forwardMask,Test,null,250,"""",d,"""","""","""","""","""","""",1,"""",3/22/2021 20:25,68.81.85.24,Mozilla/5.0 (X11; Ubuntu; Linux x86_64; rv:86.0) Gecko/20100101 Firefox/86.0,,Firefox,86,Ubuntu,
10,1,null,"""",image-keyboard-response,190,430803,0.0-190.0,jspsych/disgustFaces/BM34DIS.JPG,"""",256,Cue,Test,null,16,"""","""","""","""","""","""","""","""",1,"""",3/22/2021 20:25,68.81.85.24,Mozilla/5.0 (X11; Ubuntu; Linux x86_64; rv:86.0) Gecko/20100101 Firefox/86.0,,Firefox,86,Ubuntu,
10,1,null,"""",image-keyboard-response,191,430906,0.0-191.0,jspsych/neutralFaces/AM32NES.JPG,"""",256,backwardMask,Test,null,100,"""","""","""","""","""","""","""","""",1,"""",3/22/2021 20:25,68.81.85.24,Mozilla/5.0 (X11; Ubuntu; Linux x86_64; rv:86.0) Gecko/20100101 Firefox/86.0,,Firefox,86,Ubuntu,
10,1,null,"""",html-keyboard-response,192,431908,0.0-192.0,"<div style=""font-size:60px;"">+</div>","""",256,fixationBtwnNeutralMaskAndPrompt,Test,null,1000,"""","""","""","""","""","""","""","""",1,"""",3/22/2021 20:25,68.81.85.24,Mozilla/5.0 (X11; Ubuntu; Linux x86_64; rv:86.0) Gecko/20100101 Firefox/86.0,,Firefox,86,Ubuntu,
10,1,2485,"""",html-button-response,193,434396,0.0-193.0,"<img src='jspsych/CFDfaces/CFD-WF-207-014-N.jpg' height=""250px"">,</br><b>Meghan</b>",0,256,IntactOrRearranged,Test,"""","""","""","""",CFD-WM-215-041-N.jpg,Ryan,0,"""","""",0,1,"""",3/22/2021 20:25,68.81.85.24,Mozilla/5.0 (X11; Ubuntu; Linux x86_64; rv:86.0) Gecko/20100101 Firefox/86.0,,Firefox,86,Ubuntu,
10,1,3361,"""",html-slider-response,194,437773,0.0-194.0,"<img src='jspsych/CFDfaces/CFD-WF-207-014-N.jpg' height=""250px"">,</br><b>Meghan</b>","""",256,ConfidenceQuery,Test,"""","""","""","""",CFD-WM-215-041-N.jpg,Ryan,0,0,80,"""",1,"""",3/22/2021 20:25,68.81.85.24,Mozilla/5.0 (X11; Ubuntu; Linux x86_64; rv:86.0) Gecko/20100101 Firefox/86.0,,Firefox,86,Ubuntu,
10,1,null,"""",html-keyboard-response,195,438779,0.0-195.0,"<div style=""font-size:60px;"">+</div>","""",256,ITI,Test,null,1000,"""","""","""","""","""","""","""","""",1,"""",3/22/2021 20:25,68.81.85.24,Mozilla/5.0 (X11; Ubuntu; Linux x86_64; rv:86.0) Gecko/20100101 Firefox/86.0,,Firefox,86,Ubuntu,
10,1,null,"""",image-keyboard-response,196,439038,0.0-196.0,jspsych/scrambledNeutralFaces/scrambledBF13NES.JPG,"""",256,forwardMask,Test,null,250,"""",n,"""","""","""","""","""","""",1,"""",3/22/2021 20:25,68.81.85.24,Mozilla/5.0 (X11; Ubuntu; Linux x86_64; rv:86.0) Gecko/20100101 Firefox/86.0,,Firefox,86,Ubuntu,
10,1,null,"""",image-keyboard-response,197,439058,0.0-197.0,jspsych/neutralFaces/BF13NES.JPG,"""",256,Cue,Test,null,16,"""","""","""","""","""","""","""","""",1,"""",3/22/2021 20:25,68.81.85.24,Mozilla/5.0 (X11; Ubuntu; Linux x86_64; rv:86.0) Gecko/20100101 Firefox/86.0,,Firefox,86,Ubuntu,
10,1,null,"""",image-keyboard-response,198,439165,0.0-198.0,jspsych/neutralFaces/BF12NES.JPG,"""",256,backwardMask,Test,null,100,"""","""","""","""","""","""","""","""",1,"""",3/22/2021 20:25,68.81.85.24,Mozilla/5.0 (X11; Ubuntu; Linux x86_64; rv:86.0) Gecko/20100101 Firefox/86.0,,Firefox,86,Ubuntu,
10,1,null,"""",html-keyboard-response,199,440168,0.0-199.0,"<div style=""font-size:60px;"">+</div>","""",256,fixationBtwnNeutralMaskAndPrompt,Test,null,1000,"""","""","""","""","""","""","""","""",1,"""",3/22/2021 20:25,68.81.85.24,Mozilla/5.0 (X11; Ubuntu; Linux x86_64; rv:86.0) Gecko/20100101 Firefox/86.0,,Firefox,86,Ubuntu,
10,1,2626,"""",html-button-response,200,442795,0.0-200.0,"<img src='jspsych/CFDfaces/CFD-AM-205-153-N.jpg' height=""250px"">,</br><b>Nicholas</b>",0,256,IntactOrRearranged,Test,"""","""","""","""",CFD-BF-025-002-N.jpg,Taylor,0,"""","""",0,1,"""",3/22/2021 20:25,68.81.85.24,Mozilla/5.0 (X11; Ubuntu; Linux x86_64; rv:86.0) Gecko/20100101 Firefox/86.0,,Firefox,86,Ubuntu,
10,1,2272,"""",html-slider-response,201,445071,0.0-201.0,"<img src='jspsych/CFDfaces/CFD-AM-205-153-N.jpg' height=""250px"">,</br><b>Nicholas</b>","""",256,ConfidenceQuery,Test,"""","""","""","""",CFD-BF-025-002-N.jpg,Taylor,0,0,93,"""",1,"""",3/22/2021 20:25,68.81.85.24,Mozilla/5.0 (X11; Ubuntu; Linux x86_64; rv:86.0) Gecko/20100101 Firefox/86.0,,Firefox,86,Ubuntu,
10,1,null,"""",html-keyboard-response,202,446072,0.0-202.0,"<div style=""font-size:60px;"">+</div>","""",256,ITI,Test,null,1000,"""","""","""","""","""","""","""","""",1,"""",3/22/2021 20:25,68.81.85.24,Mozilla/5.0 (X11; Ubuntu; Linux x86_64; rv:86.0) Gecko/20100101 Firefox/86.0,,Firefox,86,Ubuntu,
10,1,null,"""",image-keyboard-response,203,446341,0.0-203.0,jspsych/scrambledDisgustFaces/scrambledAF25DIS.JPG,"""",256,forwardMask,Test,null,250,"""",d,"""","""","""","""","""","""",1,"""",3/22/2021 20:25,68.81.85.24,Mozilla/5.0 (X11; Ubuntu; Linux x86_64; rv:86.0) Gecko/20100101 Firefox/86.0,,Firefox,86,Ubuntu,
10,1,null,"""",image-keyboard-response,204,446365,0.0-204.0,jspsych/disgustFaces/AF25DIS.JPG,"""",256,Cue,Test,null,16,"""","""","""","""","""","""","""","""",1,"""",3/22/2021 20:25,68.81.85.24,Mozilla/5.0 (X11; Ubuntu; Linux x86_64; rv:86.0) Gecko/20100101 Firefox/86.0,,Firefox,86,Ubuntu,
10,1,null,"""",image-keyboard-response,205,446472,0.0-205.0,jspsych/neutralFaces/AF13NES.JPG,"""",256,backwardMask,Test,null,100,"""","""","""","""","""","""","""","""",1,"""",3/22/2021 20:25,68.81.85.24,Mozilla/5.0 (X11; Ubuntu; Linux x86_64; rv:86.0) Gecko/20100101 Firefox/86.0,,Firefox,86,Ubuntu,
10,1,null,"""",html-keyboard-response,206,447474,0.0-206.0,"<div style=""font-size:60px;"">+</div>","""",256,fixationBtwnNeutralMaskAndPrompt,Test,null,1000,"""","""","""","""","""","""","""","""",1,"""",3/22/2021 20:25,68.81.85.24,Mozilla/5.0 (X11; Ubuntu; Linux x86_64; rv:86.0) Gecko/20100101 Firefox/86.0,,Firefox,86,Ubuntu,
10,1,4122,"""",html-button-response,207,451597,0.0-207.0,"<img src='jspsych/CFDfaces/CFD-BF-222-240-N.jpg' height=""250px"">,</br><b>Julie</b>",0,256,IntactOrRearranged,Test,"""","""","""","""",CFD-BF-008-001-N.jpg,Lauren,0,"""","""",0,1,"""",3/22/2021 20:25,68.81.85.24,Mozilla/5.0 (X11; Ubuntu; Linux x86_64; rv:86.0) Gecko/20100101 Firefox/86.0,,Firefox,86,Ubuntu,
10,1,2526,"""",html-slider-response,208,454141,0.0-208.0,"<img src='jspsych/CFDfaces/CFD-BF-222-240-N.jpg' height=""250px"">,</br><b>Julie</b>","""",256,ConfidenceQuery,Test,"""","""","""","""",CFD-BF-008-001-N.jpg,Lauren,0,0,42,"""",1,"""",3/22/2021 20:25,68.81.85.24,Mozilla/5.0 (X11; Ubuntu; Linux x86_64; rv:86.0) Gecko/20100101 Firefox/86.0,,Firefox,86,Ubuntu,
10,1,null,"""",html-keyboard-response,209,455144,0.0-209.0,"<div style=""font-size:60px;"">+</div>","""",256,ITI,Test,null,1000,"""","""","""","""","""","""","""","""",1,"""",3/22/2021 20:25,68.81.85.24,Mozilla/5.0 (X11; Ubuntu; Linux x86_64; rv:86.0) Gecko/20100101 Firefox/86.0,,Firefox,86,Ubuntu,
10,1,null,"""",image-keyboard-response,210,455402,0.0-210.0,jspsych/scrambledNeutralFaces/scrambledAF24NES.JPG,"""",256,forwardMask,Test,null,250,"""",n,"""","""","""","""","""","""",1,"""",3/22/2021 20:25,68.81.85.24,Mozilla/5.0 (X11; Ubuntu; Linux x86_64; rv:86.0) Gecko/20100101 Firefox/86.0,,Firefox,86,Ubuntu,
10,1,null,"""",image-keyboard-response,211,455425,0.0-211.0,jspsych/neutralFaces/AF24NES.JPG,"""",256,Cue,Test,null,16,"""","""","""","""","""","""","""","""",1,"""",3/22/2021 20:25,68.81.85.24,Mozilla/5.0 (X11; Ubuntu; Linux x86_64; rv:86.0) Gecko/20100101 Firefox/86.0,,Firefox,86,Ubuntu,
10,1,null,"""",image-keyboard-response,212,455533,0.0-212.0,jspsych/neutralFaces/AF21NES.JPG,"""",256,backwardMask,Test,null,100,"""","""","""","""","""","""","""","""",1,"""",3/22/2021 20:25,68.81.85.24,Mozilla/5.0 (X11; Ubuntu; Linux x86_64; rv:86.0) Gecko/20100101 Firefox/86.0,,Firefox,86,Ubuntu,
10,1,null,"""",html-keyboard-response,213,456534,0.0-213.0,"<div style=""font-size:60px;"">+</div>","""",256,fixationBtwnNeutralMaskAndPrompt,Test,null,1000,"""","""","""","""","""","""","""","""",1,"""",3/22/2021 20:25,68.81.85.24,Mozilla/5.0 (X11; Ubuntu; Linux x86_64; rv:86.0) Gecko/20100101 Firefox/86.0,,Firefox,86,Ubuntu,
10,1,4115,"""",html-button-response,214,460650,0.0-214.0,"<img src='jspsych/CFDfaces/CFD-WM-022-001-N.jpg' height=""250px"">,</br><b>Christian</b>",1,256,IntactOrRearranged,Test,"""","""","""","""",CFD-WM-222-057-N.jpg,Vincent,1,"""","""",1,1,"""",3/22/2021 20:25,68.81.85.24,Mozilla/5.0 (X11; Ubuntu; Linux x86_64; rv:86.0) Gecko/20100101 Firefox/86.0,,Firefox,86,Ubuntu,
10,1,2388,"""",html-slider-response,215,463044,0.0-215.0,"<img src='jspsych/CFDfaces/CFD-WM-022-001-N.jpg' height=""250px"">,</br><b>Christian</b>","""",256,ConfidenceQuery,Test,"""","""","""","""",CFD-WM-222-057-N.jpg,Vincent,1,0,83,"""",1,"""",3/22/2021 20:25,68.81.85.24,Mozilla/5.0 (X11; Ubuntu; Linux x86_64; rv:86.0) Gecko/20100101 Firefox/86.0,,Firefox,86,Ubuntu,
10,1,null,"""",html-keyboard-response,216,464047,0.0-216.0,"<div style=""font-size:60px;"">+</div>","""",256,ITI,Test,null,1000,"""","""","""","""","""","""","""","""",1,"""",3/22/2021 20:25,68.81.85.24,Mozilla/5.0 (X11; Ubuntu; Linux x86_64; rv:86.0) Gecko/20100101 Firefox/86.0,,Firefox,86,Ubuntu,
10,1,null,"""",image-keyboard-response,217,464315,0.0-217.0,jspsych/scrambledNeutralFaces/scrambledAM33NES.JPG,"""",256,forwardMask,Test,null,250,"""",n,"""","""","""","""","""","""",1,"""",3/22/2021 20:25,68.81.85.24,Mozilla/5.0 (X11; Ubuntu; Linux x86_64; rv:86.0) Gecko/20100101 Firefox/86.0,,Firefox,86,Ubuntu,
10,1,null,"""",image-keyboard-response,218,464339,0.0-218.0,jspsych/neutralFaces/AM33NES.JPG,"""",256,Cue,Test,null,16,"""","""","""","""","""","""","""","""",1,"""",3/22/2021 20:25,68.81.85.24,Mozilla/5.0 (X11; Ubuntu; Linux x86_64; rv:86.0) Gecko/20100101 Firefox/86.0,,Firefox,86,Ubuntu,
10,1,null,"""",image-keyboard-response,219,464447,0.0-219.0,jspsych/neutralFaces/BM06NES.JPG,"""",256,backwardMask,Test,null,100,"""","""","""","""","""","""","""","""",1,"""",3/22/2021 20:25,68.81.85.24,Mozilla/5.0 (X11; Ubuntu; Linux x86_64; rv:86.0) Gecko/20100101 Firefox/86.0,,Firefox,86,Ubuntu,
10,1,null,"""",html-keyboard-response,220,465449,0.0-220.0,"<div style=""font-size:60px;"">+</div>","""",256,fixationBtwnNeutralMaskAndPrompt,Test,null,1000,"""","""","""","""","""","""","""","""",1,"""",3/22/2021 20:25,68.81.85.24,Mozilla/5.0 (X11; Ubuntu; Linux x86_64; rv:86.0) Gecko/20100101 Firefox/86.0,,Firefox,86,Ubuntu,
10,1,4784,"""",html-button-response,221,470234,0.0-221.0,"<img src='jspsych/CFDfaces/CFD-AF-233-190-N.jpg' height=""250px"">,</br><b>Emily</b>",1,256,IntactOrRearranged,Test,"""","""","""","""",CFD-BF-212-315-N.jpg,Jasmine,1,"""","""",1,1,"""",3/22/2021 20:25,68.81.85.24,Mozilla/5.0 (X11; Ubuntu; Linux x86_64; rv:86.0) Gecko/20100101 Firefox/86.0,,Firefox,86,Ubuntu,
10,1,3446,"""",html-slider-response,222,473697,0.0-222.0,"<img src='jspsych/CFDfaces/CFD-AF-233-190-N.jpg' height=""250px"">,</br><b>Emily</b>","""",256,ConfidenceQuery,Test,"""","""","""","""",CFD-BF-212-315-N.jpg,Jasmine,1,0,40,"""",1,"""",3/22/2021 20:25,68.81.85.24,Mozilla/5.0 (X11; Ubuntu; Linux x86_64; rv:86.0) Gecko/20100101 Firefox/86.0,,Firefox,86,Ubuntu,
10,1,null,"""",html-keyboard-response,223,474701,0.0-223.0,"<div style=""font-size:60px;"">+</div>","""",256,ITI,Test,null,1000,"""","""","""","""","""","""","""","""",1,"""",3/22/2021 20:25,68.81.85.24,Mozilla/5.0 (X11; Ubuntu; Linux x86_64; rv:86.0) Gecko/20100101 Firefox/86.0,,Firefox,86,Ubuntu,
10,1,null,"""",image-keyboard-response,224,474969,0.0-224.0,jspsych/scrambledNeutralFaces/scrambledBM13NES.JPG,"""",256,forwardMask,Test,null,250,"""",n,"""","""","""","""","""","""",1,"""",3/22/2021 20:25,68.81.85.24,Mozilla/5.0 (X11; Ubuntu; Linux x86_64; rv:86.0) Gecko/20100101 Firefox/86.0,,Firefox,86,Ubuntu,
10,1,null,"""",image-keyboard-response,225,474994,0.0-225.0,jspsych/neutralFaces/BM13NES.JPG,"""",256,Cue,Test,null,16,"""","""","""","""","""","""","""","""",1,"""",3/22/2021 20:25,68.81.85.24,Mozilla/5.0 (X11; Ubuntu; Linux x86_64; rv:86.0) Gecko/20100101 Firefox/86.0,,Firefox,86,Ubuntu,
10,1,null,"""",image-keyboard-response,226,475100,0.0-226.0,jspsych/neutralFaces/BM35NES.JPG,"""",256,backwardMask,Test,null,100,"""","""","""","""","""","""","""","""",1,"""",3/22/2021 20:25,68.81.85.24,Mozilla/5.0 (X11; Ubuntu; Linux x86_64; rv:86.0) Gecko/20100101 Firefox/86.0,,Firefox,86,Ubuntu,
10,1,null,"""",html-keyboard-response,227,476101,0.0-227.0,"<div style=""font-size:60px;"">+</div>","""",256,fixationBtwnNeutralMaskAndPrompt,Test,null,1000,"""","""","""","""","""","""","""","""",1,"""",3/22/2021 20:25,68.81.85.24,Mozilla/5.0 (X11; Ubuntu; Linux x86_64; rv:86.0) Gecko/20100101 Firefox/86.0,,Firefox,86,Ubuntu,
10,1,4927,"""",html-button-response,228,481030,0.0-228.0,"<img src='jspsych/CFDfaces/CFD-AF-220-107-N.jpg' height=""250px"">,</br><b>Victoria</b>",1,256,IntactOrRearranged,Test,"""","""","""","""",CFD-AM-221-184-N.jpg,Justin,1,"""","""",1,1,"""",3/22/2021 20:25,68.81.85.24,Mozilla/5.0 (X11; Ubuntu; Linux x86_64; rv:86.0) Gecko/20100101 Firefox/86.0,,Firefox,86,Ubuntu,
10,1,2365,"""",html-slider-response,229,483415,0.0-229.0,"<img src='jspsych/CFDfaces/CFD-AF-220-107-N.jpg' height=""250px"">,</br><b>Victoria</b>","""",256,ConfidenceQuery,Test,"""","""","""","""",CFD-AM-221-184-N.jpg,Justin,1,0,39,"""",1,"""",3/22/2021 20:25,68.81.85.24,Mozilla/5.0 (X11; Ubuntu; Linux x86_64; rv:86.0) Gecko/20100101 Firefox/86.0,,Firefox,86,Ubuntu,
10,1,null,"""",html-keyboard-response,230,484419,0.0-230.0,"<div style=""font-size:60px;"">+</div>","""",256,ITI,Test,null,1000,"""","""","""","""","""","""","""","""",1,"""",3/22/2021 20:25,68.81.85.24,Mozilla/5.0 (X11; Ubuntu; Linux x86_64; rv:86.0) Gecko/20100101 Firefox/86.0,,Firefox,86,Ubuntu,
10,1,null,"""",image-keyboard-response,231,484680,0.0-231.0,jspsych/scrambledDisgustFaces/scrambledAM19DIS.JPG,"""",256,forwardMask,Test,null,250,"""",d,"""","""","""","""","""","""",1,"""",3/22/2021 20:25,68.81.85.24,Mozilla/5.0 (X11; Ubuntu; Linux x86_64; rv:86.0) Gecko/20100101 Firefox/86.0,,Firefox,86,Ubuntu,
10,1,null,"""",image-keyboard-response,232,484704,0.0-232.0,jspsych/disgustFaces/AM19DIS.JPG,"""",256,Cue,Test,null,16,"""","""","""","""","""","""","""","""",1,"""",3/22/2021 20:25,68.81.85.24,Mozilla/5.0 (X11; Ubuntu; Linux x86_64; rv:86.0) Gecko/20100101 Firefox/86.0,,Firefox,86,Ubuntu,
10,1,null,"""",image-keyboard-response,233,484811,0.0-233.0,jspsych/neutralFaces/BM02NES.JPG,"""",256,backwardMask,Test,null,100,"""","""","""","""","""","""","""","""",1,"""",3/22/2021 20:25,68.81.85.24,Mozilla/5.0 (X11; Ubuntu; Linux x86_64; rv:86.0) Gecko/20100101 Firefox/86.0,,Firefox,86,Ubuntu,
10,1,null,"""",html-keyboard-response,234,485813,0.0-234.0,"<div style=""font-size:60px;"">+</div>","""",256,fixationBtwnNeutralMaskAndPrompt,Test,null,1000,"""","""","""","""","""","""","""","""",1,"""",3/22/2021 20:25,68.81.85.24,Mozilla/5.0 (X11; Ubuntu; Linux x86_64; rv:86.0) Gecko/20100101 Firefox/86.0,,Firefox,86,Ubuntu,
10,1,3512,"""",html-button-response,235,489328,0.0-235.0,"<img src='jspsych/CFDfaces/CFD-WM-006-002-N.jpg' height=""250px"">,</br><b>Eric</b>",1,256,IntactOrRearranged,Test,"""","""","""","""",CFD-WM-032-001-N.jpg,Sean,1,"""","""",1,1,"""",3/22/2021 20:25,68.81.85.24,Mozilla/5.0 (X11; Ubuntu; Linux x86_64; rv:86.0) Gecko/20100101 Firefox/86.0,,Firefox,86,Ubuntu,
10,1,2155,"""",html-slider-response,236,491505,0.0-236.0,"<img src='jspsych/CFDfaces/CFD-WM-006-002-N.jpg' height=""250px"">,</br><b>Eric</b>","""",256,ConfidenceQuery,Test,"""","""","""","""",CFD-WM-032-001-N.jpg,Sean,1,0,18,"""",1,"""",3/22/2021 20:25,68.81.85.24,Mozilla/5.0 (X11; Ubuntu; Linux x86_64; rv:86.0) Gecko/20100101 Firefox/86.0,,Firefox,86,Ubuntu,
10,1,null,"""",html-keyboard-response,237,492508,0.0-237.0,"<div style=""font-size:60px;"">+</div>","""",256,ITI,Test,null,1000,"""","""","""","""","""","""","""","""",1,"""",3/22/2021 20:25,68.81.85.24,Mozilla/5.0 (X11; Ubuntu; Linux x86_64; rv:86.0) Gecko/20100101 Firefox/86.0,,Firefox,86,Ubuntu,
10,1,null,"""",image-keyboard-response,238,492767,0.0-238.0,jspsych/scrambledNeutralFaces/scrambledAM14NES.JPG,"""",256,forwardMask,Test,null,250,"""",n,"""","""","""","""","""","""",1,"""",3/22/2021 20:25,68.81.85.24,Mozilla/5.0 (X11; Ubuntu; Linux x86_64; rv:86.0) Gecko/20100101 Firefox/86.0,,Firefox,86,Ubuntu,
10,1,null,"""",image-keyboard-response,239,492788,0.0-239.0,jspsych/neutralFaces/AM14NES.JPG,"""",256,Cue,Test,null,16,"""","""","""","""","""","""","""","""",1,"""",3/22/2021 20:25,68.81.85.24,Mozilla/5.0 (X11; Ubuntu; Linux x86_64; rv:86.0) Gecko/20100101 Firefox/86.0,,Firefox,86,Ubuntu,
10,1,null,"""",image-keyboard-response,240,492895,0.0-240.0,jspsych/neutralFaces/BM21NES.JPG,"""",256,backwardMask,Test,null,100,"""","""","""","""","""","""","""","""",1,"""",3/22/2021 20:25,68.81.85.24,Mozilla/5.0 (X11; Ubuntu; Linux x86_64; rv:86.0) Gecko/20100101 Firefox/86.0,,Firefox,86,Ubuntu,
10,1,null,"""",html-keyboard-response,241,493896,0.0-241.0,"<div style=""font-size:60px;"">+</div>","""",256,fixationBtwnNeutralMaskAndPrompt,Test,null,1000,"""","""","""","""","""","""","""","""",1,"""",3/22/2021 20:25,68.81.85.24,Mozilla/5.0 (X11; Ubuntu; Linux x86_64; rv:86.0) Gecko/20100101 Firefox/86.0,,Firefox,86,Ubuntu,
10,1,2231,"""",html-button-response,242,496129,0.0-242.0,"<img src='jspsych/CFDfaces/CFD-AM-243-212-N.jpg' height=""250px"">,</br><b>Juan</b>",0,256,IntactOrRearranged,Test,"""","""","""","""",CFD-AM-242-176-N.jpg,Kenneth,0,"""","""",0,1,"""",3/22/2021 20:25,68.81.85.24,Mozilla/5.0 (X11; Ubuntu; Linux x86_64; rv:86.0) Gecko/20100101 Firefox/86.0,,Firefox,86,Ubuntu,
10,1,2265,"""",html-slider-response,243,498399,0.0-243.0,"<img src='jspsych/CFDfaces/CFD-AM-243-212-N.jpg' height=""250px"">,</br><b>Juan</b>","""",256,ConfidenceQuery,Test,"""","""","""","""",CFD-AM-242-176-N.jpg,Kenneth,0,0,85,"""",1,"""",3/22/2021 20:25,68.81.85.24,Mozilla/5.0 (X11; Ubuntu; Linux x86_64; rv:86.0) Gecko/20100101 Firefox/86.0,,Firefox,86,Ubuntu,
10,1,null,"""",html-keyboard-response,244,499401,0.0-244.0,"<div style=""font-size:60px;"">+</div>","""",256,ITI,Test,null,1000,"""","""","""","""","""","""","""","""",1,"""",3/22/2021 20:25,68.81.85.24,Mozilla/5.0 (X11; Ubuntu; Linux x86_64; rv:86.0) Gecko/20100101 Firefox/86.0,,Firefox,86,Ubuntu,
10,1,null,"""",image-keyboard-response,245,499660,0.0-245.0,jspsych/scrambledDisgustFaces/scrambledAM08DIS.JPG,"""",256,forwardMask,Test,null,250,"""",d,"""","""","""","""","""","""",1,"""",3/22/2021 20:25,68.81.85.24,Mozilla/5.0 (X11; Ubuntu; Linux x86_64; rv:86.0) Gecko/20100101 Firefox/86.0,,Firefox,86,Ubuntu,
10,1,null,"""",image-keyboard-response,246,499684,0.0-246.0,jspsych/disgustFaces/AM08DIS.JPG,"""",256,Cue,Test,null,16,"""","""","""","""","""","""","""","""",1,"""",3/22/2021 20:25,68.81.85.24,Mozilla/5.0 (X11; Ubuntu; Linux x86_64; rv:86.0) Gecko/20100101 Firefox/86.0,,Firefox,86,Ubuntu,
10,1,null,"""",image-keyboard-response,247,499791,0.0-247.0,jspsych/neutralFaces/AM06NES.JPG,"""",256,backwardMask,Test,null,100,"""","""","""","""","""","""","""","""",1,"""",3/22/2021 20:25,68.81.85.24,Mozilla/5.0 (X11; Ubuntu; Linux x86_64; rv:86.0) Gecko/20100101 Firefox/86.0,,Firefox,86,Ubuntu,
10,1,null,"""",html-keyboard-response,248,500793,0.0-248.0,"<div style=""font-size:60px;"">+</div>","""",256,fixationBtwnNeutralMaskAndPrompt,Test,null,1000,"""","""","""","""","""","""","""","""",1,"""",3/22/2021 20:25,68.81.85.24,Mozilla/5.0 (X11; Ubuntu; Linux x86_64; rv:86.0) Gecko/20100101 Firefox/86.0,,Firefox,86,Ubuntu,
10,1,3790,"""",html-button-response,249,504585,0.0-249.0,"<img src='jspsych/CFDfaces/CFD-LM-213-061-N.jpg' height=""250px"">,</br><b>Peter</b>",0,256,IntactOrRearranged,Test,"""","""","""","""",CFD-WF-024-003-N.jpg,Lindsey,0,"""","""",0,1,"""",3/22/2021 20:25,68.81.85.24,Mozilla/5.0 (X11; Ubuntu; Linux x86_64; rv:86.0) Gecko/20100101 Firefox/86.0,,Firefox,86,Ubuntu,
10,1,4403,"""",html-slider-response,250,509002,0.0-250.0,"<img src='jspsych/CFDfaces/CFD-LM-213-061-N.jpg' height=""250px"">,</br><b>Peter</b>","""",256,ConfidenceQuery,Test,"""","""","""","""",CFD-WF-024-003-N.jpg,Lindsey,0,0,21,"""",1,"""",3/22/2021 20:25,68.81.85.24,Mozilla/5.0 (X11; Ubuntu; Linux x86_64; rv:86.0) Gecko/20100101 Firefox/86.0,,Firefox,86,Ubuntu,
10,1,null,"""",html-keyboard-response,251,510004,0.0-251.0,"<div style=""font-size:60px;"">+</div>","""",256,ITI,Test,null,1000,"""","""","""","""","""","""","""","""",1,"""",3/22/2021 20:25,68.81.85.24,Mozilla/5.0 (X11; Ubuntu; Linux x86_64; rv:86.0) Gecko/20100101 Firefox/86.0,,Firefox,86,Ubuntu,
10,1,null,"""",image-keyboard-response,252,510263,0.0-252.0,jspsych/scrambledNeutralFaces/scrambledBM31NES.JPG,"""",256,forwardMask,Test,null,250,"""",n,"""","""","""","""","""","""",1,"""",3/22/2021 20:25,68.81.85.24,Mozilla/5.0 (X11; Ubuntu; Linux x86_64; rv:86.0) Gecko/20100101 Firefox/86.0,,Firefox,86,Ubuntu,
10,1,null,"""",image-keyboard-response,253,510287,0.0-253.0,jspsych/neutralFaces/BM31NES.JPG,"""",256,Cue,Test,null,16,"""","""","""","""","""","""","""","""",1,"""",3/22/2021 20:25,68.81.85.24,Mozilla/5.0 (X11; Ubuntu; Linux x86_64; rv:86.0) Gecko/20100101 Firefox/86.0,,Firefox,86,Ubuntu,
10,1,null,"""",image-keyboard-response,254,510394,0.0-254.0,jspsych/neutralFaces/BM27NES.JPG,"""",256,backwardMask,Test,null,100,"""","""","""","""","""","""","""","""",1,"""",3/22/2021 20:25,68.81.85.24,Mozilla/5.0 (X11; Ubuntu; Linux x86_64; rv:86.0) Gecko/20100101 Firefox/86.0,,Firefox,86,Ubuntu,
10,1,null,"""",html-keyboard-response,255,511396,0.0-255.0,"<div style=""font-size:60px;"">+</div>","""",256,fixationBtwnNeutralMaskAndPrompt,Test,null,1000,"""","""","""","""","""","""","""","""",1,"""",3/22/2021 20:25,68.81.85.24,Mozilla/5.0 (X11; Ubuntu; Linux x86_64; rv:86.0) Gecko/20100101 Firefox/86.0,,Firefox,86,Ubuntu,
10,1,3406,"""",html-button-response,256,514803,0.0-256.0,"<img src='jspsych/CFDfaces/CFD-BM-210-148-N.jpg' height=""250px"">,</br><b>Jason</b>",1,256,IntactOrRearranged,Test,"""","""","""","""",CFD-LM-224-162-N.jpg,Steven,0,"""","""",1,1,"""",3/22/2021 20:25,68.81.85.24,Mozilla/5.0 (X11; Ubuntu; Linux x86_64; rv:86.0) Gecko/20100101 Firefox/86.0,,Firefox,86,Ubuntu,
10,1,3855,"""",html-slider-response,257,518664,0.0-257.0,"<img src='jspsych/CFDfaces/CFD-BM-210-148-N.jpg' height=""250px"">,</br><b>Jason</b>","""",256,ConfidenceQuery,Test,"""","""","""","""",CFD-LM-224-162-N.jpg,Steven,0,0,71,"""",1,"""",3/22/2021 20:25,68.81.85.24,Mozilla/5.0 (X11; Ubuntu; Linux x86_64; rv:86.0) Gecko/20100101 Firefox/86.0,,Firefox,86,Ubuntu,
10,1,null,"""",html-keyboard-response,258,519669,0.0-258.0,"<div style=""font-size:60px;"">+</div>","""",256,ITI,Test,null,1000,"""","""","""","""","""","""","""","""",1,"""",3/22/2021 20:25,68.81.85.24,Mozilla/5.0 (X11; Ubuntu; Linux x86_64; rv:86.0) Gecko/20100101 Firefox/86.0,,Firefox,86,Ubuntu,
10,1,null,"""",image-keyboard-response,259,519927,0.0-259.0,jspsych/scrambledDisgustFaces/scrambledBM25DIS.JPG,"""",256,forwardMask,Test,null,250,"""",d,"""","""","""","""","""","""",1,"""",3/22/2021 20:25,68.81.85.24,Mozilla/5.0 (X11; Ubuntu; Linux x86_64; rv:86.0) Gecko/20100101 Firefox/86.0,,Firefox,86,Ubuntu,
10,1,null,"""",image-keyboard-response,260,519949,0.0-260.0,jspsych/disgustFaces/BM26DIS.JPG,"""",256,Cue,Test,null,16,"""","""","""","""","""","""","""","""",1,"""",3/22/2021 20:25,68.81.85.24,Mozilla/5.0 (X11; Ubuntu; Linux x86_64; rv:86.0) Gecko/20100101 Firefox/86.0,,Firefox,86,Ubuntu,
10,1,null,"""",image-keyboard-response,261,520052,0.0-261.0,jspsych/neutralFaces/AM05NES.JPG,"""",256,backwardMask,Test,null,100,"""","""","""","""","""","""","""","""",1,"""",3/22/2021 20:25,68.81.85.24,Mozilla/5.0 (X11; Ubuntu; Linux x86_64; rv:86.0) Gecko/20100101 Firefox/86.0,,Firefox,86,Ubuntu,
10,1,null,"""",html-keyboard-response,262,521053,0.0-262.0,"<div style=""font-size:60px;"">+</div>","""",256,fixationBtwnNeutralMaskAndPrompt,Test,null,1000,"""","""","""","""","""","""","""","""",1,"""",3/22/2021 20:25,68.81.85.24,Mozilla/5.0 (X11; Ubuntu; Linux x86_64; rv:86.0) Gecko/20100101 Firefox/86.0,,Firefox,86,Ubuntu,
10,1,4227,"""",html-button-response,263,525282,0.0-263.0,"<img src='jspsych/CFDfaces/CFD-LM-233-171-N.jpg' height=""250px"">,</br><b>Brian</b>",0,256,IntactOrRearranged,Test,"""","""","""","""",CFD-AF-203-077-N.jpg,Melissa,0,"""","""",0,1,"""",3/22/2021 20:25,68.81.85.24,Mozilla/5.0 (X11; Ubuntu; Linux x86_64; rv:86.0) Gecko/20100101 Firefox/86.0,,Firefox,86,Ubuntu,
10,1,2899,"""",html-slider-response,264,528202,0.0-264.0,"<img src='jspsych/CFDfaces/CFD-LM-233-171-N.jpg' height=""250px"">,</br><b>Brian</b>","""",256,ConfidenceQuery,Test,"""","""","""","""",CFD-AF-203-077-N.jpg,Melissa,0,0,35,"""",1,"""",3/22/2021 20:25,68.81.85.24,Mozilla/5.0 (X11; Ubuntu; Linux x86_64; rv:86.0) Gecko/20100101 Firefox/86.0,,Firefox,86,Ubuntu,
10,1,null,"""",html-keyboard-response,265,529206,0.0-265.0,"<div style=""font-size:60px;"">+</div>","""",256,ITI,Test,null,1000,"""","""","""","""","""","""","""","""",1,"""",3/22/2021 20:25,68.81.85.24,Mozilla/5.0 (X11; Ubuntu; Linux x86_64; rv:86.0) Gecko/20100101 Firefox/86.0,,Firefox,86,Ubuntu,
10,1,null,"""",image-keyboard-response,266,529465,0.0-266.0,jspsych/scrambledNeutralFaces/scrambledBM12NES.JPG,"""",256,forwardMask,Test,null,250,"""",n,"""","""","""","""","""","""",1,"""",3/22/2021 20:25,68.81.85.24,Mozilla/5.0 (X11; Ubuntu; Linux x86_64; rv:86.0) Gecko/20100101 Firefox/86.0,,Firefox,86,Ubuntu,
10,1,null,"""",image-keyboard-response,267,529489,0.0-267.0,jspsych/neutralFaces/BM12NES.JPG,"""",256,Cue,Test,null,16,"""","""","""","""","""","""","""","""",1,"""",3/22/2021 20:25,68.81.85.24,Mozilla/5.0 (X11; Ubuntu; Linux x86_64; rv:86.0) Gecko/20100101 Firefox/86.0,,Firefox,86,Ubuntu,
10,1,null,"""",image-keyboard-response,268,529596,0.0-268.0,jspsych/neutralFaces/BM16NES.JPG,"""",256,backwardMask,Test,null,100,"""","""","""","""","""","""","""","""",1,"""",3/22/2021 20:25,68.81.85.24,Mozilla/5.0 (X11; Ubuntu; Linux x86_64; rv:86.0) Gecko/20100101 Firefox/86.0,,Firefox,86,Ubuntu,
10,1,null,"""",html-keyboard-response,269,530598,0.0-269.0,"<div style=""font-size:60px;"">+</div>","""",256,fixationBtwnNeutralMaskAndPrompt,Test,null,1000,"""","""","""","""","""","""","""","""",1,"""",3/22/2021 20:25,68.81.85.24,Mozilla/5.0 (X11; Ubuntu; Linux x86_64; rv:86.0) Gecko/20100101 Firefox/86.0,,Firefox,86,Ubuntu,
10,1,4335,"""",html-button-response,270,534935,0.0-270.0,"<img src='jspsych/CFDfaces/CFD-LF-244-096-N.jpg' height=""250px"">,</br><b>Kayla</b>",0,256,IntactOrRearranged,Test,"""","""","""","""",CFD-WF-018-017-N.jpg,Rebecca,0,"""","""",0,1,"""",3/22/2021 20:25,68.81.85.24,Mozilla/5.0 (X11; Ubuntu; Linux x86_64; rv:86.0) Gecko/20100101 Firefox/86.0,,Firefox,86,Ubuntu,
10,1,3042,"""",html-slider-response,271,537998,0.0-271.0,"<img src='jspsych/CFDfaces/CFD-LF-244-096-N.jpg' height=""250px"">,</br><b>Kayla</b>","""",256,ConfidenceQuery,Test,"""","""","""","""",CFD-WF-018-017-N.jpg,Rebecca,0,0,28,"""",1,"""",3/22/2021 20:25,68.81.85.24,Mozilla/5.0 (X11; Ubuntu; Linux x86_64; rv:86.0) Gecko/20100101 Firefox/86.0,,Firefox,86,Ubuntu,
10,1,null,"""",html-keyboard-response,272,539002,0.0-272.0,"<div style=""font-size:60px;"">+</div>","""",256,ITI,Test,null,1000,"""","""","""","""","""","""","""","""",1,"""",3/22/2021 20:25,68.81.85.24,Mozilla/5.0 (X11; Ubuntu; Linux x86_64; rv:86.0) Gecko/20100101 Firefox/86.0,,Firefox,86,Ubuntu,
10,1,null,"""",image-keyboard-response,273,539275,0.0-273.0,jspsych/scrambledDisgustFaces/scrambledAM10DIS.JPG,"""",256,forwardMask,Test,null,250,"""",d,"""","""","""","""","""","""",1,"""",3/22/2021 20:25,68.81.85.24,Mozilla/5.0 (X11; Ubuntu; Linux x86_64; rv:86.0) Gecko/20100101 Firefox/86.0,,Firefox,86,Ubuntu,
10,1,null,"""",image-keyboard-response,274,539298,0.0-274.0,jspsych/disgustFaces/AM10DIS.JPG,"""",256,Cue,Test,null,16,"""","""","""","""","""","""","""","""",1,"""",3/22/2021 20:25,68.81.85.24,Mozilla/5.0 (X11; Ubuntu; Linux x86_64; rv:86.0) Gecko/20100101 Firefox/86.0,,Firefox,86,Ubuntu,
10,1,null,"""",image-keyboard-response,275,539406,0.0-275.0,jspsych/neutralFaces/AM29NES.JPG,"""",256,backwardMask,Test,null,100,"""","""","""","""","""","""","""","""",1,"""",3/22/2021 20:25,68.81.85.24,Mozilla/5.0 (X11; Ubuntu; Linux x86_64; rv:86.0) Gecko/20100101 Firefox/86.0,,Firefox,86,Ubuntu,
10,1,null,"""",html-keyboard-response,276,540407,0.0-276.0,"<div style=""font-size:60px;"">+</div>","""",256,fixationBtwnNeutralMaskAndPrompt,Test,null,1000,"""","""","""","""","""","""","""","""",1,"""",3/22/2021 20:25,68.81.85.24,Mozilla/5.0 (X11; Ubuntu; Linux x86_64; rv:86.0) Gecko/20100101 Firefox/86.0,,Firefox,86,Ubuntu,
10,1,3093,"""",html-button-response,277,543501,0.0-277.0,"<img src='jspsych/CFDfaces/CFD-AF-215-70-N.jpg' height=""250px"">,</br><b>Stephanie</b>",0,256,IntactOrRearranged,Test,"""","""","""","""",CFD-AM-202-079-N.jpg,Jesse,0,"""","""",0,1,"""",3/22/2021 20:25,68.81.85.24,Mozilla/5.0 (X11; Ubuntu; Linux x86_64; rv:86.0) Gecko/20100101 Firefox/86.0,,Firefox,86,Ubuntu,
10,1,3202,"""",html-slider-response,278,546726,0.0-278.0,"<img src='jspsych/CFDfaces/CFD-AF-215-70-N.jpg' height=""250px"">,</br><b>Stephanie</b>","""",256,ConfidenceQuery,Test,"""","""","""","""",CFD-AM-202-079-N.jpg,Jesse,0,0,53,"""",1,"""",3/22/2021 20:25,68.81.85.24,Mozilla/5.0 (X11; Ubuntu; Linux x86_64; rv:86.0) Gecko/20100101 Firefox/86.0,,Firefox,86,Ubuntu,
10,1,null,"""",html-keyboard-response,279,547728,0.0-279.0,"<div style=""font-size:60px;"">+</div>","""",256,ITI,Test,null,1000,"""","""","""","""","""","""","""","""",1,"""",3/22/2021 20:25,68.81.85.24,Mozilla/5.0 (X11; Ubuntu; Linux x86_64; rv:86.0) Gecko/20100101 Firefox/86.0,,Firefox,86,Ubuntu,
10,1,null,"""",image-keyboard-response,280,548000,0.0-280.0,jspsych/scrambledDisgustFaces/scrambledAF22DIS.JPG,"""",256,forwardMask,Test,null,250,"""",d,"""","""","""","""","""","""",1,"""",3/22/2021 20:25,68.81.85.24,Mozilla/5.0 (X11; Ubuntu; Linux x86_64; rv:86.0) Gecko/20100101 Firefox/86.0,,Firefox,86,Ubuntu,
10,1,null,"""",image-keyboard-response,281,548022,0.0-281.0,jspsych/disgustFaces/AF22DIS.JPG,"""",256,Cue,Test,null,16,"""","""","""","""","""","""","""","""",1,"""",3/22/2021 20:25,68.81.85.24,Mozilla/5.0 (X11; Ubuntu; Linux x86_64; rv:86.0) Gecko/20100101 Firefox/86.0,,Firefox,86,Ubuntu,
10,1,null,"""",image-keyboard-response,282,548125,0.0-282.0,jspsych/neutralFaces/BF09NES.JPG,"""",256,backwardMask,Test,null,100,"""","""","""","""","""","""","""","""",1,"""",3/22/2021 20:25,68.81.85.24,Mozilla/5.0 (X11; Ubuntu; Linux x86_64; rv:86.0) Gecko/20100101 Firefox/86.0,,Firefox,86,Ubuntu,
10,1,null,"""",html-keyboard-response,283,549128,0.0-283.0,"<div style=""font-size:60px;"">+</div>","""",256,fixationBtwnNeutralMaskAndPrompt,Test,null,1000,"""","""","""","""","""","""","""","""",1,"""",3/22/2021 20:25,68.81.85.24,Mozilla/5.0 (X11; Ubuntu; Linux x86_64; rv:86.0) Gecko/20100101 Firefox/86.0,,Firefox,86,Ubuntu,
10,1,4502,"""",html-button-response,284,553632,0.0-284.0,"<img src='jspsych/CFDfaces/CFD-LM-200-045-N.jpg' height=""250px"">,</br><b>Daniel</b>",0,256,IntactOrRearranged,Test,"""","""","""","""",CFD-WM-041-021-N.jpg,Cameron,1,"""","""",0,1,"""",3/22/2021 20:25,68.81.85.24,Mozilla/5.0 (X11; Ubuntu; Linux x86_64; rv:86.0) Gecko/20100101 Firefox/86.0,,Firefox,86,Ubuntu,
10,1,2366,"""",html-slider-response,285,556021,0.0-285.0,"<img src='jspsych/CFDfaces/CFD-LM-200-045-N.jpg' height=""250px"">,</br><b>Daniel</b>","""",256,ConfidenceQuery,Test,"""","""","""","""",CFD-WM-041-021-N.jpg,Cameron,1,0,20,"""",1,"""",3/22/2021 20:25,68.81.85.24,Mozilla/5.0 (X11; Ubuntu; Linux x86_64; rv:86.0) Gecko/20100101 Firefox/86.0,,Firefox,86,Ubuntu,
10,1,null,"""",html-keyboard-response,286,557023,0.0-286.0,"<div style=""font-size:60px;"">+</div>","""",256,ITI,Test,null,1000,"""","""","""","""","""","""","""","""",1,"""",3/22/2021 20:25,68.81.85.24,Mozilla/5.0 (X11; Ubuntu; Linux x86_64; rv:86.0) Gecko/20100101 Firefox/86.0,,Firefox,86,Ubuntu,
10,1,null,"""",image-keyboard-response,287,557281,0.0-287.0,jspsych/scrambledDisgustFaces/scrambledAM17DIS.JPG,"""",256,forwardMask,Test,null,250,"""",d,"""","""","""","""","""","""",1,"""",3/22/2021 20:25,68.81.85.24,Mozilla/5.0 (X11; Ubuntu; Linux x86_64; rv:86.0) Gecko/20100101 Firefox/86.0,,Firefox,86,Ubuntu,
10,1,null,"""",image-keyboard-response,288,557299,0.0-288.0,jspsych/disgustFaces/AM17DIS.JPG,"""",256,Cue,Test,null,16,"""","""","""","""","""","""","""","""",1,"""",3/22/2021 20:25,68.81.85.24,Mozilla/5.0 (X11; Ubuntu; Linux x86_64; rv:86.0) Gecko/20100101 Firefox/86.0,,Firefox,86,Ubuntu,
10,1,null,"""",image-keyboard-response,289,557401,0.0-289.0,jspsych/neutralFaces/BM31NES.JPG,"""",256,backwardMask,Test,null,100,"""","""","""","""","""","""","""","""",1,"""",3/22/2021 20:25,68.81.85.24,Mozilla/5.0 (X11; Ubuntu; Linux x86_64; rv:86.0) Gecko/20100101 Firefox/86.0,,Firefox,86,Ubuntu,
10,1,null,"""",html-keyboard-response,290,558403,0.0-290.0,"<div style=""font-size:60px;"">+</div>","""",256,fixationBtwnNeutralMaskAndPrompt,Test,null,1000,"""","""","""","""","""","""","""","""",1,"""",3/22/2021 20:25,68.81.85.24,Mozilla/5.0 (X11; Ubuntu; Linux x86_64; rv:86.0) Gecko/20100101 Firefox/86.0,,Firefox,86,Ubuntu,
10,1,2685,"""",html-button-response,291,561091,0.0-291.0,"<img src='jspsych/CFDfaces/CFD-BF-226-119-N.jpg' height=""250px"">,</br><b>Michelle</b>",0,256,IntactOrRearranged,Test,"""","""","""","""",CFD-WF-223-133-N.jpg,Jenna,0,"""","""",0,1,"""",3/22/2021 20:25,68.81.85.24,Mozilla/5.0 (X11; Ubuntu; Linux x86_64; rv:86.0) Gecko/20100101 Firefox/86.0,,Firefox,86,Ubuntu,
10,1,2469,"""",html-slider-response,292,563586,0.0-292.0,"<img src='jspsych/CFDfaces/CFD-BF-226-119-N.jpg' height=""250px"">,</br><b>Michelle</b>","""",256,ConfidenceQuery,Test,"""","""","""","""",CFD-WF-223-133-N.jpg,Jenna,0,0,49,"""",1,"""",3/22/2021 20:25,68.81.85.24,Mozilla/5.0 (X11; Ubuntu; Linux x86_64; rv:86.0) Gecko/20100101 Firefox/86.0,,Firefox,86,Ubuntu,
10,1,null,"""",html-keyboard-response,293,564596,0.0-293.0,"<div style=""font-size:60px;"">+</div>","""",256,ITI,Test,null,1000,"""","""","""","""","""","""","""","""",1,"""",3/22/2021 20:25,68.81.85.24,Mozilla/5.0 (X11; Ubuntu; Linux x86_64; rv:86.0) Gecko/20100101 Firefox/86.0,,Firefox,86,Ubuntu,
10,1,null,"""",image-keyboard-response,294,564884,0.0-294.0,jspsych/scrambledDisgustFaces/scrambledBM10DIS.JPG,"""",256,forwardMask,Test,null,250,"""",d,"""","""","""","""","""","""",1,"""",3/22/2021 20:25,68.81.85.24,Mozilla/5.0 (X11; Ubuntu; Linux x86_64; rv:86.0) Gecko/20100101 Firefox/86.0,,Firefox,86,Ubuntu,
10,1,null,"""",image-keyboard-response,295,564904,0.0-295.0,jspsych/disgustFaces/BM11DIS.JPG,"""",256,Cue,Test,null,16,"""","""","""","""","""","""","""","""",1,"""",3/22/2021 20:25,68.81.85.24,Mozilla/5.0 (X11; Ubuntu; Linux x86_64; rv:86.0) Gecko/20100101 Firefox/86.0,,Firefox,86,Ubuntu,
10,1,null,"""",image-keyboard-response,296,565008,0.0-296.0,jspsych/neutralFaces/AM09NES.JPG,"""",256,backwardMask,Test,null,100,"""","""","""","""","""","""","""","""",1,"""",3/22/2021 20:25,68.81.85.24,Mozilla/5.0 (X11; Ubuntu; Linux x86_64; rv:86.0) Gecko/20100101 Firefox/86.0,,Firefox,86,Ubuntu,
10,1,null,"""",html-keyboard-response,297,566010,0.0-297.0,"<div style=""font-size:60px;"">+</div>","""",256,fixationBtwnNeutralMaskAndPrompt,Test,null,1000,"""","""","""","""","""","""","""","""",1,"""",3/22/2021 20:25,68.81.85.24,Mozilla/5.0 (X11; Ubuntu; Linux x86_64; rv:86.0) Gecko/20100101 Firefox/86.0,,Firefox,86,Ubuntu,
10,1,2231,"""",html-button-response,298,568245,0.0-298.0,"<img src='jspsych/CFDfaces/CFD-WF-202-056-N.jpg' height=""250px"">,</br><b>Kimberly</b>",1,256,IntactOrRearranged,Test,"""","""","""","""",CFD-AF-209-006-N.jpg,Whitney,1,"""","""",1,1,"""",3/22/2021 20:25,68.81.85.24,Mozilla/5.0 (X11; Ubuntu; Linux x86_64; rv:86.0) Gecko/20100101 Firefox/86.0,,Firefox,86,Ubuntu,
10,1,3634,"""",html-slider-response,299,571906,0.0-299.0,"<img src='jspsych/CFDfaces/CFD-WF-202-056-N.jpg' height=""250px"">,</br><b>Kimberly</b>","""",256,ConfidenceQuery,Test,"""","""","""","""",CFD-AF-209-006-N.jpg,Whitney,1,0,44,"""",1,"""",3/22/2021 20:25,68.81.85.24,Mozilla/5.0 (X11; Ubuntu; Linux x86_64; rv:86.0) Gecko/20100101 Firefox/86.0,,Firefox,86,Ubuntu,
10,1,null,"""",html-keyboard-response,300,572908,0.0-300.0,"<div style=""font-size:60px;"">+</div>","""",256,ITI,Test,null,1000,"""","""","""","""","""","""","""","""",1,"""",3/22/2021 20:25,68.81.85.24,Mozilla/5.0 (X11; Ubuntu; Linux x86_64; rv:86.0) Gecko/20100101 Firefox/86.0,,Firefox,86,Ubuntu,
10,1,null,"""",image-keyboard-response,301,573184,0.0-301.0,jspsych/scrambledDisgustFaces/scrambledAM30DIS.JPG,"""",256,forwardMask,Test,null,250,"""",d,"""","""","""","""","""","""",1,"""",3/22/2021 20:25,68.81.85.24,Mozilla/5.0 (X11; Ubuntu; Linux x86_64; rv:86.0) Gecko/20100101 Firefox/86.0,,Firefox,86,Ubuntu,
10,1,null,"""",image-keyboard-response,302,573210,0.0-302.0,jspsych/disgustFaces/AM30DIS.JPG,"""",256,Cue,Test,null,16,"""","""","""","""","""","""","""","""",1,"""",3/22/2021 20:25,68.81.85.24,Mozilla/5.0 (X11; Ubuntu; Linux x86_64; rv:86.0) Gecko/20100101 Firefox/86.0,,Firefox,86,Ubuntu,
