run_id,condition,rt,responses,trial_type,trial_index,time_elapsed,internal_node_id,stimulus,button_pressed,iTrial,Phase,ExperimentPhase,key_press,StimulusDurationSetting,correctResponse,slider_start,response,rearranged,Face,Name,didSubjectEnterRearranged,recorded_at,ip,user_agent,device,browser,browser_version,platform,platform_version
108,1,1170.68,"{""Q0"":""j""}",survey-text,0,1183,0.0-0.0,"""","""","""","""","""","""","""","""","""","""","""","""","""","""",1/27/2021 1:28,67.83.183.0,"Mozilla/5.0 (Windows NT 10.0; Win64; x64) AppleWebKit/537.36 (KHTML, like Gecko) Chrome/87.0.4280.141 Safari/537.36",WebKit,Chrome,87.0.4280.141,Windows,10
108,1,1486.285,"""",image-button-response,1,2685,0.0-1.0,directionsMemoryAssociation1.JPG,0,1,IntroDirections1,break,"""","""","""","""","""","""","""","""","""",1/27/2021 1:28,67.83.183.0,"Mozilla/5.0 (Windows NT 10.0; Win64; x64) AppleWebKit/537.36 (KHTML, like Gecko) Chrome/87.0.4280.141 Safari/537.36",WebKit,Chrome,87.0.4280.141,Windows,10
108,1,167.35,"""",image-button-response,2,2855,0.0-2.0,directionsMemoryAssociation2.JPG,0,1,IntroDirections2,break,"""","""","""","""","""","""","""","""","""",1/27/2021 1:28,67.83.183.0,"Mozilla/5.0 (Windows NT 10.0; Win64; x64) AppleWebKit/537.36 (KHTML, like Gecko) Chrome/87.0.4280.141 Safari/537.36",WebKit,Chrome,87.0.4280.141,Windows,10
108,1,162.96,"""",image-button-response,3,3029,0.0-3.0,directionsForTest.JPG,0,1,directionsForTest,break,"""","""","""","""","""","""","""","""","""",1/27/2021 1:28,67.83.183.0,"Mozilla/5.0 (Windows NT 10.0; Win64; x64) AppleWebKit/537.36 (KHTML, like Gecko) Chrome/87.0.4280.141 Safari/537.36",WebKit,Chrome,87.0.4280.141,Windows,10
108,1,130.34,"""",image-button-response,4,3161,0.0-4.0,directionsForTest2.JPG,0,1,directionsForTest2,break,"""","""","""","""","""","""","""","""","""",1/27/2021 1:28,67.83.183.0,"Mozilla/5.0 (Windows NT 10.0; Win64; x64) AppleWebKit/537.36 (KHTML, like Gecko) Chrome/87.0.4280.141 Safari/537.36",WebKit,Chrome,87.0.4280.141,Windows,10
108,1,225.45,"""",image-button-response,5,3390,0.0-5.0,directionsMemoryAssociation3.JPG,0,1,DirectionsBeforeActualTEst,Break,"""","""","""","""","""","""","""","""","""",1/27/2021 1:28,67.83.183.0,"Mozilla/5.0 (Windows NT 10.0; Win64; x64) AppleWebKit/537.36 (KHTML, like Gecko) Chrome/87.0.4280.141 Safari/537.36",WebKit,Chrome,87.0.4280.141,Windows,10
108,1,1425.32,"""",html-keyboard-response,6,4817,0.0-6.0,Press Key to Begin Memory Test,"""",1,welcomeScreen,Break,74,"""","""","""","""","""","""","""","""",1/27/2021 1:28,67.83.183.0,"Mozilla/5.0 (Windows NT 10.0; Win64; x64) AppleWebKit/537.36 (KHTML, like Gecko) Chrome/87.0.4280.141 Safari/537.36",WebKit,Chrome,87.0.4280.141,Windows,10
108,1,null,"""",html-keyboard-response,7,5821,0.0-7.0,"<div style=""font-size:60px;"">+</div>","""",1,ITI,Test,null,1000,"""","""","""","""","""","""","""",1/27/2021 1:28,67.83.183.0,"Mozilla/5.0 (Windows NT 10.0; Win64; x64) AppleWebKit/537.36 (KHTML, like Gecko) Chrome/87.0.4280.141 Safari/537.36",WebKit,Chrome,87.0.4280.141,Windows,10
108,1,null,"""",image-keyboard-response,8,6088,0.0-8.0,jspsych/scrambledDisgustFaces/scrambledBM33DIS.JPG,"""",1,forwardMask,Test,null,250,d,"""","""","""","""","""","""",1/27/2021 1:28,67.83.183.0,"Mozilla/5.0 (Windows NT 10.0; Win64; x64) AppleWebKit/537.36 (KHTML, like Gecko) Chrome/87.0.4280.141 Safari/537.36",WebKit,Chrome,87.0.4280.141,Windows,10
108,1,null,"""",image-keyboard-response,9,6107,0.0-9.0,jspsych/disgustFaces/BM34DIS.JPG,"""",1,Cue,Test,null,16,"""","""","""","""","""","""","""",1/27/2021 1:28,67.83.183.0,"Mozilla/5.0 (Windows NT 10.0; Win64; x64) AppleWebKit/537.36 (KHTML, like Gecko) Chrome/87.0.4280.141 Safari/537.36",WebKit,Chrome,87.0.4280.141,Windows,10
108,1,null,"""",image-keyboard-response,10,6218,0.0-10.0,jspsych/neutralFaces/BM27NES.JPG,"""",1,backwardMask,Test,null,100,"""","""","""","""","""","""","""",1/27/2021 1:28,67.83.183.0,"Mozilla/5.0 (Windows NT 10.0; Win64; x64) AppleWebKit/537.36 (KHTML, like Gecko) Chrome/87.0.4280.141 Safari/537.36",WebKit,Chrome,87.0.4280.141,Windows,10
108,1,null,"""",html-keyboard-response,11,7227,0.0-11.0,"<div style=""font-size:60px;"">+</div>","""",1,fixationBtwnNeutralMaskAndPrompt,Test,null,1000,"""","""","""","""","""","""","""",1/27/2021 1:28,67.83.183.0,"Mozilla/5.0 (Windows NT 10.0; Win64; x64) AppleWebKit/537.36 (KHTML, like Gecko) Chrome/87.0.4280.141 Safari/537.36",WebKit,Chrome,87.0.4280.141,Windows,10
108,1,null,"""",html-slider-response,12,7338,0.0-12.0,"<img src='jspsych/CFDfaces/CFD-WM-009-002-N.jpg' height=""250px"">,</br><b>Cameron</b>","""",1,ConfidenceQuery,Test,"""","""","""",50,null,0,CFD-WM-009-002-N.jpg,Cameron,0,1/27/2021 1:28,67.83.183.0,"Mozilla/5.0 (Windows NT 10.0; Win64; x64) AppleWebKit/537.36 (KHTML, like Gecko) Chrome/87.0.4280.141 Safari/537.36",WebKit,Chrome,87.0.4280.141,Windows,10
108,1,null,"""",html-keyboard-response,13,8348,0.0-13.0,"<div style=""font-size:60px;"">+</div>","""",2,ITI,Test,null,1000,"""","""","""","""","""","""","""",1/27/2021 1:28,67.83.183.0,"Mozilla/5.0 (Windows NT 10.0; Win64; x64) AppleWebKit/537.36 (KHTML, like Gecko) Chrome/87.0.4280.141 Safari/537.36",WebKit,Chrome,87.0.4280.141,Windows,10
108,1,null,"""",image-keyboard-response,14,8608,0.0-14.0,jspsych/scrambledNeutralFaces/scrambledBF23NES.JPG,"""",2,forwardMask,Test,null,250,n,"""","""","""","""","""","""",1/27/2021 1:28,67.83.183.0,"Mozilla/5.0 (Windows NT 10.0; Win64; x64) AppleWebKit/537.36 (KHTML, like Gecko) Chrome/87.0.4280.141 Safari/537.36",WebKit,Chrome,87.0.4280.141,Windows,10
108,1,null,"""",image-keyboard-response,15,8625,0.0-15.0,jspsych/neutralFaces/BF23NES.JPG,"""",2,Cue,Test,null,16,"""","""","""","""","""","""","""",1/27/2021 1:28,67.83.183.0,"Mozilla/5.0 (Windows NT 10.0; Win64; x64) AppleWebKit/537.36 (KHTML, like Gecko) Chrome/87.0.4280.141 Safari/537.36",WebKit,Chrome,87.0.4280.141,Windows,10
108,1,null,"""",image-keyboard-response,16,8727,0.0-16.0,jspsych/neutralFaces/BF24NES.JPG,"""",2,backwardMask,Test,null,100,"""","""","""","""","""","""","""",1/27/2021 1:28,67.83.183.0,"Mozilla/5.0 (Windows NT 10.0; Win64; x64) AppleWebKit/537.36 (KHTML, like Gecko) Chrome/87.0.4280.141 Safari/537.36",WebKit,Chrome,87.0.4280.141,Windows,10
108,1,null,"""",html-keyboard-response,17,9737,0.0-17.0,"<div style=""font-size:60px;"">+</div>","""",2,fixationBtwnNeutralMaskAndPrompt,Test,null,1000,"""","""","""","""","""","""","""",1/27/2021 1:28,67.83.183.0,"Mozilla/5.0 (Windows NT 10.0; Win64; x64) AppleWebKit/537.36 (KHTML, like Gecko) Chrome/87.0.4280.141 Safari/537.36",WebKit,Chrome,87.0.4280.141,Windows,10
108,1,null,"""",html-slider-response,18,9839,0.0-18.0,"<img src='jspsych/CFDfaces/CFD-WM-015-002-N.jpg' height=""250px"">,</br><b>Ryan</b>","""",2,ConfidenceQuery,Test,"""","""","""",50,null,0,CFD-WM-015-002-N.jpg,Ryan,0,1/27/2021 1:28,67.83.183.0,"Mozilla/5.0 (Windows NT 10.0; Win64; x64) AppleWebKit/537.36 (KHTML, like Gecko) Chrome/87.0.4280.141 Safari/537.36",WebKit,Chrome,87.0.4280.141,Windows,10
108,1,null,"""",html-keyboard-response,19,10847,0.0-19.0,"<div style=""font-size:60px;"">+</div>","""",3,ITI,Test,null,1000,"""","""","""","""","""","""","""",1/27/2021 1:28,67.83.183.0,"Mozilla/5.0 (Windows NT 10.0; Win64; x64) AppleWebKit/537.36 (KHTML, like Gecko) Chrome/87.0.4280.141 Safari/537.36",WebKit,Chrome,87.0.4280.141,Windows,10
108,1,null,"""",image-keyboard-response,20,11118,0.0-20.0,jspsych/scrambledNeutralFaces/scrambledBM09NES.JPG,"""",3,forwardMask,Test,null,250,n,"""","""","""","""","""","""",1/27/2021 1:28,67.83.183.0,"Mozilla/5.0 (Windows NT 10.0; Win64; x64) AppleWebKit/537.36 (KHTML, like Gecko) Chrome/87.0.4280.141 Safari/537.36",WebKit,Chrome,87.0.4280.141,Windows,10
108,1,null,"""",image-keyboard-response,21,11136,0.0-21.0,jspsych/neutralFaces/BM09NES.JPG,"""",3,Cue,Test,null,16,"""","""","""","""","""","""","""",1/27/2021 1:28,67.83.183.0,"Mozilla/5.0 (Windows NT 10.0; Win64; x64) AppleWebKit/537.36 (KHTML, like Gecko) Chrome/87.0.4280.141 Safari/537.36",WebKit,Chrome,87.0.4280.141,Windows,10
108,1,null,"""",image-keyboard-response,22,11248,0.0-22.0,jspsych/neutralFaces/BM08NES.JPG,"""",3,backwardMask,Test,null,100,"""","""","""","""","""","""","""",1/27/2021 1:28,67.83.183.0,"Mozilla/5.0 (Windows NT 10.0; Win64; x64) AppleWebKit/537.36 (KHTML, like Gecko) Chrome/87.0.4280.141 Safari/537.36",WebKit,Chrome,87.0.4280.141,Windows,10
108,1,null,"""",html-keyboard-response,23,12267,0.0-23.0,"<div style=""font-size:60px;"">+</div>","""",3,fixationBtwnNeutralMaskAndPrompt,Test,null,1000,"""","""","""","""","""","""","""",1/27/2021 1:28,67.83.183.0,"Mozilla/5.0 (Windows NT 10.0; Win64; x64) AppleWebKit/537.36 (KHTML, like Gecko) Chrome/87.0.4280.141 Safari/537.36",WebKit,Chrome,87.0.4280.141,Windows,10
108,1,null,"""",html-slider-response,24,12370,0.0-24.0,"<img src='jspsych/CFDfaces/CFD-BM-211-174-N.jpg' height=""250px"">,</br><b>Cody</b>","""",3,ConfidenceQuery,Test,"""","""","""",50,null,0,CFD-BM-211-174-N.jpg,Cody,0,1/27/2021 1:28,67.83.183.0,"Mozilla/5.0 (Windows NT 10.0; Win64; x64) AppleWebKit/537.36 (KHTML, like Gecko) Chrome/87.0.4280.141 Safari/537.36",WebKit,Chrome,87.0.4280.141,Windows,10
108,1,null,"""",html-keyboard-response,25,13377,0.0-25.0,"<div style=""font-size:60px;"">+</div>","""",4,ITI,Test,null,1000,"""","""","""","""","""","""","""",1/27/2021 1:28,67.83.183.0,"Mozilla/5.0 (Windows NT 10.0; Win64; x64) AppleWebKit/537.36 (KHTML, like Gecko) Chrome/87.0.4280.141 Safari/537.36",WebKit,Chrome,87.0.4280.141,Windows,10
108,1,null,"""",image-keyboard-response,26,13647,0.0-26.0,jspsych/scrambledDisgustFaces/scrambledBF03DIS.JPG,"""",4,forwardMask,Test,null,250,d,"""","""","""","""","""","""",1/27/2021 1:28,67.83.183.0,"Mozilla/5.0 (Windows NT 10.0; Win64; x64) AppleWebKit/537.36 (KHTML, like Gecko) Chrome/87.0.4280.141 Safari/537.36",WebKit,Chrome,87.0.4280.141,Windows,10
108,1,null,"""",image-keyboard-response,27,13665,0.0-27.0,jspsych/disgustFaces/BF03DIS.JPG,"""",4,Cue,Test,null,16,"""","""","""","""","""","""","""",1/27/2021 1:28,67.83.183.0,"Mozilla/5.0 (Windows NT 10.0; Win64; x64) AppleWebKit/537.36 (KHTML, like Gecko) Chrome/87.0.4280.141 Safari/537.36",WebKit,Chrome,87.0.4280.141,Windows,10
108,1,null,"""",image-keyboard-response,28,13778,0.0-28.0,jspsych/neutralFaces/BF19NES.JPG,"""",4,backwardMask,Test,null,100,"""","""","""","""","""","""","""",1/27/2021 1:28,67.83.183.0,"Mozilla/5.0 (Windows NT 10.0; Win64; x64) AppleWebKit/537.36 (KHTML, like Gecko) Chrome/87.0.4280.141 Safari/537.36",WebKit,Chrome,87.0.4280.141,Windows,10
108,1,null,"""",html-keyboard-response,29,14798,0.0-29.0,"<div style=""font-size:60px;"">+</div>","""",4,fixationBtwnNeutralMaskAndPrompt,Test,null,1000,"""","""","""","""","""","""","""",1/27/2021 1:28,67.83.183.0,"Mozilla/5.0 (Windows NT 10.0; Win64; x64) AppleWebKit/537.36 (KHTML, like Gecko) Chrome/87.0.4280.141 Safari/537.36",WebKit,Chrome,87.0.4280.141,Windows,10
108,1,null,"""",html-slider-response,30,14918,0.0-30.0,"<img src='jspsych/CFDfaces/CFD-AF-230-193-N.jpg' height=""250px"">,</br><b>Victoria</b>","""",4,ConfidenceQuery,Test,"""","""","""",50,null,0,CFD-AF-230-193-N.jpg,Victoria,0,1/27/2021 1:28,67.83.183.0,"Mozilla/5.0 (Windows NT 10.0; Win64; x64) AppleWebKit/537.36 (KHTML, like Gecko) Chrome/87.0.4280.141 Safari/537.36",WebKit,Chrome,87.0.4280.141,Windows,10
108,1,null,"""",html-keyboard-response,31,15919,0.0-31.0,"<div style=""font-size:60px;"">+</div>","""",5,ITI,Test,null,1000,"""","""","""","""","""","""","""",1/27/2021 1:28,67.83.183.0,"Mozilla/5.0 (Windows NT 10.0; Win64; x64) AppleWebKit/537.36 (KHTML, like Gecko) Chrome/87.0.4280.141 Safari/537.36",WebKit,Chrome,87.0.4280.141,Windows,10
108,1,null,"""",image-keyboard-response,32,16177,0.0-32.0,jspsych/scrambledNeutralFaces/scrambledBM10NES.JPG,"""",5,forwardMask,Test,null,250,n,"""","""","""","""","""","""",1/27/2021 1:28,67.83.183.0,"Mozilla/5.0 (Windows NT 10.0; Win64; x64) AppleWebKit/537.36 (KHTML, like Gecko) Chrome/87.0.4280.141 Safari/537.36",WebKit,Chrome,87.0.4280.141,Windows,10
108,1,null,"""",image-keyboard-response,33,16196,0.0-33.0,jspsych/neutralFaces/BM10NES.JPG,"""",5,Cue,Test,null,16,"""","""","""","""","""","""","""",1/27/2021 1:28,67.83.183.0,"Mozilla/5.0 (Windows NT 10.0; Win64; x64) AppleWebKit/537.36 (KHTML, like Gecko) Chrome/87.0.4280.141 Safari/537.36",WebKit,Chrome,87.0.4280.141,Windows,10
108,1,null,"""",image-keyboard-response,34,16307,0.0-34.0,jspsych/neutralFaces/BM06NES.JPG,"""",5,backwardMask,Test,null,100,"""","""","""","""","""","""","""",1/27/2021 1:28,67.83.183.0,"Mozilla/5.0 (Windows NT 10.0; Win64; x64) AppleWebKit/537.36 (KHTML, like Gecko) Chrome/87.0.4280.141 Safari/537.36",WebKit,Chrome,87.0.4280.141,Windows,10
108,1,null,"""",html-keyboard-response,35,17317,0.0-35.0,"<div style=""font-size:60px;"">+</div>","""",5,fixationBtwnNeutralMaskAndPrompt,Test,null,1000,"""","""","""","""","""","""","""",1/27/2021 1:28,67.83.183.0,"Mozilla/5.0 (Windows NT 10.0; Win64; x64) AppleWebKit/537.36 (KHTML, like Gecko) Chrome/87.0.4280.141 Safari/537.36",WebKit,Chrome,87.0.4280.141,Windows,10
108,1,null,"""",html-slider-response,36,17421,0.0-36.0,"<img src='jspsych/CFDfaces/CFD-BM-032-024-N.jpg' height=""250px"">,</br><b>Alexander</b>","""",5,ConfidenceQuery,Test,"""","""","""",50,null,1,CFD-BM-032-024-N.jpg,Alexander,0,1/27/2021 1:28,67.83.183.0,"Mozilla/5.0 (Windows NT 10.0; Win64; x64) AppleWebKit/537.36 (KHTML, like Gecko) Chrome/87.0.4280.141 Safari/537.36",WebKit,Chrome,87.0.4280.141,Windows,10
108,1,null,"""",html-keyboard-response,37,18437,0.0-37.0,"<div style=""font-size:60px;"">+</div>","""",6,ITI,Test,null,1000,"""","""","""","""","""","""","""",1/27/2021 1:28,67.83.183.0,"Mozilla/5.0 (Windows NT 10.0; Win64; x64) AppleWebKit/537.36 (KHTML, like Gecko) Chrome/87.0.4280.141 Safari/537.36",WebKit,Chrome,87.0.4280.141,Windows,10
108,1,null,"""",image-keyboard-response,38,18708,0.0-38.0,jspsych/scrambledNeutralFaces/scrambledBF02NES.JPG,"""",6,forwardMask,Test,null,250,n,"""","""","""","""","""","""",1/27/2021 1:28,67.83.183.0,"Mozilla/5.0 (Windows NT 10.0; Win64; x64) AppleWebKit/537.36 (KHTML, like Gecko) Chrome/87.0.4280.141 Safari/537.36",WebKit,Chrome,87.0.4280.141,Windows,10
108,1,null,"""",image-keyboard-response,39,18726,0.0-39.0,jspsych/neutralFaces/BF02NES.JPG,"""",6,Cue,Test,null,16,"""","""","""","""","""","""","""",1/27/2021 1:28,67.83.183.0,"Mozilla/5.0 (Windows NT 10.0; Win64; x64) AppleWebKit/537.36 (KHTML, like Gecko) Chrome/87.0.4280.141 Safari/537.36",WebKit,Chrome,87.0.4280.141,Windows,10
108,1,null,"""",image-keyboard-response,40,18838,0.0-40.0,jspsych/neutralFaces/BF28NES.JPG,"""",6,backwardMask,Test,null,100,"""","""","""","""","""","""","""",1/27/2021 1:28,67.83.183.0,"Mozilla/5.0 (Windows NT 10.0; Win64; x64) AppleWebKit/537.36 (KHTML, like Gecko) Chrome/87.0.4280.141 Safari/537.36",WebKit,Chrome,87.0.4280.141,Windows,10
108,1,null,"""",html-keyboard-response,41,19846,0.0-41.0,"<div style=""font-size:60px;"">+</div>","""",6,fixationBtwnNeutralMaskAndPrompt,Test,null,1000,"""","""","""","""","""","""","""",1/27/2021 1:28,67.83.183.0,"Mozilla/5.0 (Windows NT 10.0; Win64; x64) AppleWebKit/537.36 (KHTML, like Gecko) Chrome/87.0.4280.141 Safari/537.36",WebKit,Chrome,87.0.4280.141,Windows,10
108,1,null,"""",html-slider-response,42,19948,0.0-42.0,"<img src='jspsych/CFDfaces/CFD-LF-205-100-N.jpg' height=""250px"">,</br><b>Christine</b>","""",6,ConfidenceQuery,Test,"""","""","""",50,null,0,CFD-LF-205-100-N.jpg,Christine,0,1/27/2021 1:28,67.83.183.0,"Mozilla/5.0 (Windows NT 10.0; Win64; x64) AppleWebKit/537.36 (KHTML, like Gecko) Chrome/87.0.4280.141 Safari/537.36",WebKit,Chrome,87.0.4280.141,Windows,10
108,1,null,"""",html-keyboard-response,43,20968,0.0-43.0,"<div style=""font-size:60px;"">+</div>","""",7,ITI,Test,null,1000,"""","""","""","""","""","""","""",1/27/2021 1:28,67.83.183.0,"Mozilla/5.0 (Windows NT 10.0; Win64; x64) AppleWebKit/537.36 (KHTML, like Gecko) Chrome/87.0.4280.141 Safari/537.36",WebKit,Chrome,87.0.4280.141,Windows,10
108,1,null,"""",image-keyboard-response,44,21228,0.0-44.0,jspsych/scrambledNeutralFaces/scrambledAM31NES.JPG,"""",7,forwardMask,Test,null,250,n,"""","""","""","""","""","""",1/27/2021 1:28,67.83.183.0,"Mozilla/5.0 (Windows NT 10.0; Win64; x64) AppleWebKit/537.36 (KHTML, like Gecko) Chrome/87.0.4280.141 Safari/537.36",WebKit,Chrome,87.0.4280.141,Windows,10
108,1,null,"""",image-keyboard-response,45,21246,0.0-45.0,jspsych/neutralFaces/AM31NES.JPG,"""",7,Cue,Test,null,16,"""","""","""","""","""","""","""",1/27/2021 1:28,67.83.183.0,"Mozilla/5.0 (Windows NT 10.0; Win64; x64) AppleWebKit/537.36 (KHTML, like Gecko) Chrome/87.0.4280.141 Safari/537.36",WebKit,Chrome,87.0.4280.141,Windows,10
108,1,null,"""",image-keyboard-response,46,21367,0.0-46.0,jspsych/neutralFaces/BM35NES.JPG,"""",7,backwardMask,Test,null,100,"""","""","""","""","""","""","""",1/27/2021 1:28,67.83.183.0,"Mozilla/5.0 (Windows NT 10.0; Win64; x64) AppleWebKit/537.36 (KHTML, like Gecko) Chrome/87.0.4280.141 Safari/537.36",WebKit,Chrome,87.0.4280.141,Windows,10
108,1,null,"""",html-keyboard-response,47,22377,0.0-47.0,"<div style=""font-size:60px;"">+</div>","""",7,fixationBtwnNeutralMaskAndPrompt,Test,null,1000,"""","""","""","""","""","""","""",1/27/2021 1:28,67.83.183.0,"Mozilla/5.0 (Windows NT 10.0; Win64; x64) AppleWebKit/537.36 (KHTML, like Gecko) Chrome/87.0.4280.141 Safari/537.36",WebKit,Chrome,87.0.4280.141,Windows,10
108,1,null,"""",html-slider-response,48,22480,0.0-48.0,"<img src='jspsych/CFDfaces/CFD-BM-043-071-N.jpg' height=""250px"">,</br><b>George</b>","""",7,ConfidenceQuery,Test,"""","""","""",50,null,0,CFD-BM-043-071-N.jpg,George,0,1/27/2021 1:28,67.83.183.0,"Mozilla/5.0 (Windows NT 10.0; Win64; x64) AppleWebKit/537.36 (KHTML, like Gecko) Chrome/87.0.4280.141 Safari/537.36",WebKit,Chrome,87.0.4280.141,Windows,10
108,1,null,"""",html-keyboard-response,49,23497,0.0-49.0,"<div style=""font-size:60px;"">+</div>","""",8,ITI,Test,null,1000,"""","""","""","""","""","""","""",1/27/2021 1:28,67.83.183.0,"Mozilla/5.0 (Windows NT 10.0; Win64; x64) AppleWebKit/537.36 (KHTML, like Gecko) Chrome/87.0.4280.141 Safari/537.36",WebKit,Chrome,87.0.4280.141,Windows,10
108,1,null,"""",image-keyboard-response,50,23756,0.0-50.0,jspsych/scrambledNeutralFaces/scrambledAF25NES.JPG,"""",8,forwardMask,Test,null,250,n,"""","""","""","""","""","""",1/27/2021 1:28,67.83.183.0,"Mozilla/5.0 (Windows NT 10.0; Win64; x64) AppleWebKit/537.36 (KHTML, like Gecko) Chrome/87.0.4280.141 Safari/537.36",WebKit,Chrome,87.0.4280.141,Windows,10
108,1,null,"""",image-keyboard-response,51,23776,0.0-51.0,jspsych/neutralFaces/AF25NES.JPG,"""",8,Cue,Test,null,16,"""","""","""","""","""","""","""",1/27/2021 1:28,67.83.183.0,"Mozilla/5.0 (Windows NT 10.0; Win64; x64) AppleWebKit/537.36 (KHTML, like Gecko) Chrome/87.0.4280.141 Safari/537.36",WebKit,Chrome,87.0.4280.141,Windows,10
108,1,null,"""",image-keyboard-response,52,23879,0.0-52.0,jspsych/neutralFaces/AF32NES.JPG,"""",8,backwardMask,Test,null,100,"""","""","""","""","""","""","""",1/27/2021 1:28,67.83.183.0,"Mozilla/5.0 (Windows NT 10.0; Win64; x64) AppleWebKit/537.36 (KHTML, like Gecko) Chrome/87.0.4280.141 Safari/537.36",WebKit,Chrome,87.0.4280.141,Windows,10
108,1,null,"""",html-keyboard-response,53,24881,0.0-53.0,"<div style=""font-size:60px;"">+</div>","""",8,fixationBtwnNeutralMaskAndPrompt,Test,null,1000,"""","""","""","""","""","""","""",1/27/2021 1:28,67.83.183.0,"Mozilla/5.0 (Windows NT 10.0; Win64; x64) AppleWebKit/537.36 (KHTML, like Gecko) Chrome/87.0.4280.141 Safari/537.36",WebKit,Chrome,87.0.4280.141,Windows,10
108,1,null,"""",html-slider-response,54,24984,0.0-54.0,"<img src='jspsych/CFDfaces/CFD-AM-220-134-N.jpg' height=""250px"">,</br><b>Nicholas</b>","""",8,ConfidenceQuery,Test,"""","""","""",50,null,0,CFD-AM-220-134-N.jpg,Nicholas,0,1/27/2021 1:28,67.83.183.0,"Mozilla/5.0 (Windows NT 10.0; Win64; x64) AppleWebKit/537.36 (KHTML, like Gecko) Chrome/87.0.4280.141 Safari/537.36",WebKit,Chrome,87.0.4280.141,Windows,10
108,1,null,"""",html-keyboard-response,55,25986,0.0-55.0,"<div style=""font-size:60px;"">+</div>","""",9,ITI,Test,null,1000,"""","""","""","""","""","""","""",1/27/2021 1:28,67.83.183.0,"Mozilla/5.0 (Windows NT 10.0; Win64; x64) AppleWebKit/537.36 (KHTML, like Gecko) Chrome/87.0.4280.141 Safari/537.36",WebKit,Chrome,87.0.4280.141,Windows,10
108,1,null,"""",image-keyboard-response,56,26239,0.0-56.0,jspsych/scrambledNeutralFaces/scrambledBM33NES.JPG,"""",9,forwardMask,Test,null,250,n,"""","""","""","""","""","""",1/27/2021 1:28,67.83.183.0,"Mozilla/5.0 (Windows NT 10.0; Win64; x64) AppleWebKit/537.36 (KHTML, like Gecko) Chrome/87.0.4280.141 Safari/537.36",WebKit,Chrome,87.0.4280.141,Windows,10
108,1,null,"""",image-keyboard-response,57,26258,0.0-57.0,jspsych/neutralFaces/BM33NES.JPG,"""",9,Cue,Test,null,16,"""","""","""","""","""","""","""",1/27/2021 1:28,67.83.183.0,"Mozilla/5.0 (Windows NT 10.0; Win64; x64) AppleWebKit/537.36 (KHTML, like Gecko) Chrome/87.0.4280.141 Safari/537.36",WebKit,Chrome,87.0.4280.141,Windows,10
108,1,null,"""",image-keyboard-response,58,26360,0.0-58.0,jspsych/neutralFaces/AM30NES.JPG,"""",9,backwardMask,Test,null,100,"""","""","""","""","""","""","""",1/27/2021 1:28,67.83.183.0,"Mozilla/5.0 (Windows NT 10.0; Win64; x64) AppleWebKit/537.36 (KHTML, like Gecko) Chrome/87.0.4280.141 Safari/537.36",WebKit,Chrome,87.0.4280.141,Windows,10
108,1,null,"""",html-keyboard-response,59,27363,0.0-59.0,"<div style=""font-size:60px;"">+</div>","""",9,fixationBtwnNeutralMaskAndPrompt,Test,null,1000,"""","""","""","""","""","""","""",1/27/2021 1:28,67.83.183.0,"Mozilla/5.0 (Windows NT 10.0; Win64; x64) AppleWebKit/537.36 (KHTML, like Gecko) Chrome/87.0.4280.141 Safari/537.36",WebKit,Chrome,87.0.4280.141,Windows,10
108,1,null,"""",html-slider-response,60,27468,0.0-60.0,"<img src='jspsych/CFDfaces/CFD-LM-225-130-N.jpg' height=""250px"">,</br><b>David</b>","""",9,ConfidenceQuery,Test,"""","""","""",50,null,1,CFD-LM-225-130-N.jpg,David,0,1/27/2021 1:28,67.83.183.0,"Mozilla/5.0 (Windows NT 10.0; Win64; x64) AppleWebKit/537.36 (KHTML, like Gecko) Chrome/87.0.4280.141 Safari/537.36",WebKit,Chrome,87.0.4280.141,Windows,10
108,1,null,"""",html-keyboard-response,61,28469,0.0-61.0,"<div style=""font-size:60px;"">+</div>","""",10,ITI,Test,null,1000,"""","""","""","""","""","""","""",1/27/2021 1:28,67.83.183.0,"Mozilla/5.0 (Windows NT 10.0; Win64; x64) AppleWebKit/537.36 (KHTML, like Gecko) Chrome/87.0.4280.141 Safari/537.36",WebKit,Chrome,87.0.4280.141,Windows,10
108,1,null,"""",image-keyboard-response,62,28722,0.0-62.0,jspsych/scrambledDisgustFaces/scrambledAF27DIS.JPG,"""",10,forwardMask,Test,null,250,d,"""","""","""","""","""","""",1/27/2021 1:28,67.83.183.0,"Mozilla/5.0 (Windows NT 10.0; Win64; x64) AppleWebKit/537.36 (KHTML, like Gecko) Chrome/87.0.4280.141 Safari/537.36",WebKit,Chrome,87.0.4280.141,Windows,10
108,1,null,"""",image-keyboard-response,63,28741,0.0-63.0,jspsych/disgustFaces/AF27DIS.JPG,"""",10,Cue,Test,null,16,"""","""","""","""","""","""","""",1/27/2021 1:28,67.83.183.0,"Mozilla/5.0 (Windows NT 10.0; Win64; x64) AppleWebKit/537.36 (KHTML, like Gecko) Chrome/87.0.4280.141 Safari/537.36",WebKit,Chrome,87.0.4280.141,Windows,10
108,1,null,"""",image-keyboard-response,64,28843,0.0-64.0,jspsych/neutralFaces/BF33NES.JPG,"""",10,backwardMask,Test,null,100,"""","""","""","""","""","""","""",1/27/2021 1:28,67.83.183.0,"Mozilla/5.0 (Windows NT 10.0; Win64; x64) AppleWebKit/537.36 (KHTML, like Gecko) Chrome/87.0.4280.141 Safari/537.36",WebKit,Chrome,87.0.4280.141,Windows,10
108,1,null,"""",html-keyboard-response,65,29845,0.0-65.0,"<div style=""font-size:60px;"">+</div>","""",10,fixationBtwnNeutralMaskAndPrompt,Test,null,1000,"""","""","""","""","""","""","""",1/27/2021 1:28,67.83.183.0,"Mozilla/5.0 (Windows NT 10.0; Win64; x64) AppleWebKit/537.36 (KHTML, like Gecko) Chrome/87.0.4280.141 Safari/537.36",WebKit,Chrome,87.0.4280.141,Windows,10
108,1,null,"""",html-slider-response,66,29947,0.0-66.0,"<img src='jspsych/CFDfaces/CFD-AM-238-269-N.jpg' height=""250px"">,</br><b>Eric</b>","""",10,ConfidenceQuery,Test,"""","""","""",50,null,0,CFD-AM-238-269-N.jpg,Eric,0,1/27/2021 1:28,67.83.183.0,"Mozilla/5.0 (Windows NT 10.0; Win64; x64) AppleWebKit/537.36 (KHTML, like Gecko) Chrome/87.0.4280.141 Safari/537.36",WebKit,Chrome,87.0.4280.141,Windows,10
108,1,null,"""",html-keyboard-response,67,30949,0.0-67.0,"<div style=""font-size:60px;"">+</div>","""",11,ITI,Test,null,1000,"""","""","""","""","""","""","""",1/27/2021 1:28,67.83.183.0,"Mozilla/5.0 (Windows NT 10.0; Win64; x64) AppleWebKit/537.36 (KHTML, like Gecko) Chrome/87.0.4280.141 Safari/537.36",WebKit,Chrome,87.0.4280.141,Windows,10
108,1,null,"""",image-keyboard-response,68,31213,0.0-68.0,jspsych/scrambledNeutralFaces/scrambledBM04NES.JPG,"""",11,forwardMask,Test,null,250,n,"""","""","""","""","""","""",1/27/2021 1:28,67.83.183.0,"Mozilla/5.0 (Windows NT 10.0; Win64; x64) AppleWebKit/537.36 (KHTML, like Gecko) Chrome/87.0.4280.141 Safari/537.36",WebKit,Chrome,87.0.4280.141,Windows,10
108,1,null,"""",image-keyboard-response,69,31234,0.0-69.0,jspsych/neutralFaces/BM04NES.JPG,"""",11,Cue,Test,null,16,"""","""","""","""","""","""","""",1/27/2021 1:28,67.83.183.0,"Mozilla/5.0 (Windows NT 10.0; Win64; x64) AppleWebKit/537.36 (KHTML, like Gecko) Chrome/87.0.4280.141 Safari/537.36",WebKit,Chrome,87.0.4280.141,Windows,10
108,1,null,"""",image-keyboard-response,70,31335,0.0-70.0,jspsych/neutralFaces/AM32NES.JPG,"""",11,backwardMask,Test,null,100,"""","""","""","""","""","""","""",1/27/2021 1:28,67.83.183.0,"Mozilla/5.0 (Windows NT 10.0; Win64; x64) AppleWebKit/537.36 (KHTML, like Gecko) Chrome/87.0.4280.141 Safari/537.36",WebKit,Chrome,87.0.4280.141,Windows,10
108,1,null,"""",html-keyboard-response,71,32338,0.0-71.0,"<div style=""font-size:60px;"">+</div>","""",11,fixationBtwnNeutralMaskAndPrompt,Test,null,1000,"""","""","""","""","""","""","""",1/27/2021 1:28,67.83.183.0,"Mozilla/5.0 (Windows NT 10.0; Win64; x64) AppleWebKit/537.36 (KHTML, like Gecko) Chrome/87.0.4280.141 Safari/537.36",WebKit,Chrome,87.0.4280.141,Windows,10
108,1,null,"""",html-slider-response,72,32442,0.0-72.0,"<img src='jspsych/CFDfaces/CFD-BM-205-001-N.jpg' height=""250px"">,</br><b>Jordan</b>","""",11,ConfidenceQuery,Test,"""","""","""",50,null,0,CFD-BM-205-001-N.jpg,Jordan,0,1/27/2021 1:28,67.83.183.0,"Mozilla/5.0 (Windows NT 10.0; Win64; x64) AppleWebKit/537.36 (KHTML, like Gecko) Chrome/87.0.4280.141 Safari/537.36",WebKit,Chrome,87.0.4280.141,Windows,10
108,1,null,"""",html-keyboard-response,73,33444,0.0-73.0,"<div style=""font-size:60px;"">+</div>","""",12,ITI,Test,null,1000,"""","""","""","""","""","""","""",1/27/2021 1:28,67.83.183.0,"Mozilla/5.0 (Windows NT 10.0; Win64; x64) AppleWebKit/537.36 (KHTML, like Gecko) Chrome/87.0.4280.141 Safari/537.36",WebKit,Chrome,87.0.4280.141,Windows,10
108,1,null,"""",image-keyboard-response,74,33697,0.0-74.0,jspsych/scrambledDisgustFaces/scrambledBF16DIS.JPG,"""",12,forwardMask,Test,null,250,d,"""","""","""","""","""","""",1/27/2021 1:28,67.83.183.0,"Mozilla/5.0 (Windows NT 10.0; Win64; x64) AppleWebKit/537.36 (KHTML, like Gecko) Chrome/87.0.4280.141 Safari/537.36",WebKit,Chrome,87.0.4280.141,Windows,10
108,1,null,"""",image-keyboard-response,75,33717,0.0-75.0,jspsych/disgustFaces/BF16DIS.JPG,"""",12,Cue,Test,null,16,"""","""","""","""","""","""","""",1/27/2021 1:28,67.83.183.0,"Mozilla/5.0 (Windows NT 10.0; Win64; x64) AppleWebKit/537.36 (KHTML, like Gecko) Chrome/87.0.4280.141 Safari/537.36",WebKit,Chrome,87.0.4280.141,Windows,10
108,1,null,"""",image-keyboard-response,76,33819,0.0-76.0,jspsych/neutralFaces/AF28NES.JPG,"""",12,backwardMask,Test,null,100,"""","""","""","""","""","""","""",1/27/2021 1:28,67.83.183.0,"Mozilla/5.0 (Windows NT 10.0; Win64; x64) AppleWebKit/537.36 (KHTML, like Gecko) Chrome/87.0.4280.141 Safari/537.36",WebKit,Chrome,87.0.4280.141,Windows,10
108,1,null,"""",html-keyboard-response,77,34821,0.0-77.0,"<div style=""font-size:60px;"">+</div>","""",12,fixationBtwnNeutralMaskAndPrompt,Test,null,1000,"""","""","""","""","""","""","""",1/27/2021 1:28,67.83.183.0,"Mozilla/5.0 (Windows NT 10.0; Win64; x64) AppleWebKit/537.36 (KHTML, like Gecko) Chrome/87.0.4280.141 Safari/537.36",WebKit,Chrome,87.0.4280.141,Windows,10
108,1,null,"""",html-slider-response,78,34924,0.0-78.0,"<img src='jspsych/CFDfaces/CFD-BF-001-025-N.jpg' height=""250px"">,</br><b>Kelsey</b>","""",12,ConfidenceQuery,Test,"""","""","""",50,null,1,CFD-BF-001-025-N.jpg,Kelsey,0,1/27/2021 1:28,67.83.183.0,"Mozilla/5.0 (Windows NT 10.0; Win64; x64) AppleWebKit/537.36 (KHTML, like Gecko) Chrome/87.0.4280.141 Safari/537.36",WebKit,Chrome,87.0.4280.141,Windows,10
108,1,null,"""",html-keyboard-response,79,35925,0.0-79.0,"<div style=""font-size:60px;"">+</div>","""",13,ITI,Test,null,1000,"""","""","""","""","""","""","""",1/27/2021 1:28,67.83.183.0,"Mozilla/5.0 (Windows NT 10.0; Win64; x64) AppleWebKit/537.36 (KHTML, like Gecko) Chrome/87.0.4280.141 Safari/537.36",WebKit,Chrome,87.0.4280.141,Windows,10
108,1,null,"""",image-keyboard-response,80,36177,0.0-80.0,jspsych/scrambledNeutralFaces/scrambledAM26NES.JPG,"""",13,forwardMask,Test,null,250,n,"""","""","""","""","""","""",1/27/2021 1:28,67.83.183.0,"Mozilla/5.0 (Windows NT 10.0; Win64; x64) AppleWebKit/537.36 (KHTML, like Gecko) Chrome/87.0.4280.141 Safari/537.36",WebKit,Chrome,87.0.4280.141,Windows,10
108,1,null,"""",image-keyboard-response,81,36195,0.0-81.0,jspsych/neutralFaces/AM26NES.JPG,"""",13,Cue,Test,null,16,"""","""","""","""","""","""","""",1/27/2021 1:28,67.83.183.0,"Mozilla/5.0 (Windows NT 10.0; Win64; x64) AppleWebKit/537.36 (KHTML, like Gecko) Chrome/87.0.4280.141 Safari/537.36",WebKit,Chrome,87.0.4280.141,Windows,10
108,1,null,"""",image-keyboard-response,82,36297,0.0-82.0,jspsych/neutralFaces/BM10NES.JPG,"""",13,backwardMask,Test,null,100,"""","""","""","""","""","""","""",1/27/2021 1:28,67.83.183.0,"Mozilla/5.0 (Windows NT 10.0; Win64; x64) AppleWebKit/537.36 (KHTML, like Gecko) Chrome/87.0.4280.141 Safari/537.36",WebKit,Chrome,87.0.4280.141,Windows,10
108,1,null,"""",html-keyboard-response,83,37298,0.0-83.0,"<div style=""font-size:60px;"">+</div>","""",13,fixationBtwnNeutralMaskAndPrompt,Test,null,1000,"""","""","""","""","""","""","""",1/27/2021 1:28,67.83.183.0,"Mozilla/5.0 (Windows NT 10.0; Win64; x64) AppleWebKit/537.36 (KHTML, like Gecko) Chrome/87.0.4280.141 Safari/537.36",WebKit,Chrome,87.0.4280.141,Windows,10
108,1,null,"""",html-slider-response,84,37403,0.0-84.0,"<img src='jspsych/CFDfaces/CFD-LF-230-203-N.jpg' height=""250px"">,</br><b>Rebecca</b>","""",13,ConfidenceQuery,Test,"""","""","""",50,null,0,CFD-LF-230-203-N.jpg,Rebecca,0,1/27/2021 1:28,67.83.183.0,"Mozilla/5.0 (Windows NT 10.0; Win64; x64) AppleWebKit/537.36 (KHTML, like Gecko) Chrome/87.0.4280.141 Safari/537.36",WebKit,Chrome,87.0.4280.141,Windows,10
108,1,null,"""",html-keyboard-response,85,38404,0.0-85.0,"<div style=""font-size:60px;"">+</div>","""",14,ITI,Test,null,1000,"""","""","""","""","""","""","""",1/27/2021 1:28,67.83.183.0,"Mozilla/5.0 (Windows NT 10.0; Win64; x64) AppleWebKit/537.36 (KHTML, like Gecko) Chrome/87.0.4280.141 Safari/537.36",WebKit,Chrome,87.0.4280.141,Windows,10
108,1,null,"""",image-keyboard-response,86,38658,0.0-86.0,jspsych/scrambledDisgustFaces/scrambledBF21DIS.JPG,"""",14,forwardMask,Test,null,250,d,"""","""","""","""","""","""",1/27/2021 1:28,67.83.183.0,"Mozilla/5.0 (Windows NT 10.0; Win64; x64) AppleWebKit/537.36 (KHTML, like Gecko) Chrome/87.0.4280.141 Safari/537.36",WebKit,Chrome,87.0.4280.141,Windows,10
108,1,null,"""",image-keyboard-response,87,38676,0.0-87.0,jspsych/disgustFaces/BF21DIS.JPG,"""",14,Cue,Test,null,16,"""","""","""","""","""","""","""",1/27/2021 1:28,67.83.183.0,"Mozilla/5.0 (Windows NT 10.0; Win64; x64) AppleWebKit/537.36 (KHTML, like Gecko) Chrome/87.0.4280.141 Safari/537.36",WebKit,Chrome,87.0.4280.141,Windows,10
108,1,null,"""",image-keyboard-response,88,38778,0.0-88.0,jspsych/neutralFaces/AF26NES.JPG,"""",14,backwardMask,Test,null,100,"""","""","""","""","""","""","""",1/27/2021 1:28,67.83.183.0,"Mozilla/5.0 (Windows NT 10.0; Win64; x64) AppleWebKit/537.36 (KHTML, like Gecko) Chrome/87.0.4280.141 Safari/537.36",WebKit,Chrome,87.0.4280.141,Windows,10
108,1,null,"""",html-keyboard-response,89,39779,0.0-89.0,"<div style=""font-size:60px;"">+</div>","""",14,fixationBtwnNeutralMaskAndPrompt,Test,null,1000,"""","""","""","""","""","""","""",1/27/2021 1:28,67.83.183.0,"Mozilla/5.0 (Windows NT 10.0; Win64; x64) AppleWebKit/537.36 (KHTML, like Gecko) Chrome/87.0.4280.141 Safari/537.36",WebKit,Chrome,87.0.4280.141,Windows,10
108,1,null,"""",html-slider-response,90,39882,0.0-90.0,"<img src='jspsych/CFDfaces/CFD-BF-021-013-N.jpg' height=""250px"">,</br><b>Allison</b>","""",14,ConfidenceQuery,Test,"""","""","""",50,null,1,CFD-BF-021-013-N.jpg,Allison,0,1/27/2021 1:28,67.83.183.0,"Mozilla/5.0 (Windows NT 10.0; Win64; x64) AppleWebKit/537.36 (KHTML, like Gecko) Chrome/87.0.4280.141 Safari/537.36",WebKit,Chrome,87.0.4280.141,Windows,10
108,1,null,"""",html-keyboard-response,91,40884,0.0-91.0,"<div style=""font-size:60px;"">+</div>","""",15,ITI,Test,null,1000,"""","""","""","""","""","""","""",1/27/2021 1:28,67.83.183.0,"Mozilla/5.0 (Windows NT 10.0; Win64; x64) AppleWebKit/537.36 (KHTML, like Gecko) Chrome/87.0.4280.141 Safari/537.36",WebKit,Chrome,87.0.4280.141,Windows,10
108,1,null,"""",image-keyboard-response,92,41139,0.0-92.0,jspsych/scrambledNeutralFaces/scrambledAM25NES.JPG,"""",15,forwardMask,Test,null,250,n,"""","""","""","""","""","""",1/27/2021 1:28,67.83.183.0,"Mozilla/5.0 (Windows NT 10.0; Win64; x64) AppleWebKit/537.36 (KHTML, like Gecko) Chrome/87.0.4280.141 Safari/537.36",WebKit,Chrome,87.0.4280.141,Windows,10
108,1,null,"""",image-keyboard-response,93,41156,0.0-93.0,jspsych/neutralFaces/AM25NES.JPG,"""",15,Cue,Test,null,16,"""","""","""","""","""","""","""",1/27/2021 1:28,67.83.183.0,"Mozilla/5.0 (Windows NT 10.0; Win64; x64) AppleWebKit/537.36 (KHTML, like Gecko) Chrome/87.0.4280.141 Safari/537.36",WebKit,Chrome,87.0.4280.141,Windows,10
108,1,null,"""",image-keyboard-response,94,41258,0.0-94.0,jspsych/neutralFaces/AM13NES.JPG,"""",15,backwardMask,Test,null,100,"""","""","""","""","""","""","""",1/27/2021 1:28,67.83.183.0,"Mozilla/5.0 (Windows NT 10.0; Win64; x64) AppleWebKit/537.36 (KHTML, like Gecko) Chrome/87.0.4280.141 Safari/537.36",WebKit,Chrome,87.0.4280.141,Windows,10
108,1,null,"""",html-keyboard-response,95,42260,0.0-95.0,"<div style=""font-size:60px;"">+</div>","""",15,fixationBtwnNeutralMaskAndPrompt,Test,null,1000,"""","""","""","""","""","""","""",1/27/2021 1:28,67.83.183.0,"Mozilla/5.0 (Windows NT 10.0; Win64; x64) AppleWebKit/537.36 (KHTML, like Gecko) Chrome/87.0.4280.141 Safari/537.36",WebKit,Chrome,87.0.4280.141,Windows,10
108,1,null,"""",html-slider-response,96,42363,0.0-96.0,"<img src='jspsych/CFDfaces/CFD-AF-235-170-N.jpg' height=""250px"">,</br><b>Christina</b>","""",15,ConfidenceQuery,Test,"""","""","""",50,null,0,CFD-AF-235-170-N.jpg,Christina,0,1/27/2021 1:28,67.83.183.0,"Mozilla/5.0 (Windows NT 10.0; Win64; x64) AppleWebKit/537.36 (KHTML, like Gecko) Chrome/87.0.4280.141 Safari/537.36",WebKit,Chrome,87.0.4280.141,Windows,10
108,1,null,"""",html-keyboard-response,97,43365,0.0-97.0,"<div style=""font-size:60px;"">+</div>","""",16,ITI,Test,null,1000,"""","""","""","""","""","""","""",1/27/2021 1:28,67.83.183.0,"Mozilla/5.0 (Windows NT 10.0; Win64; x64) AppleWebKit/537.36 (KHTML, like Gecko) Chrome/87.0.4280.141 Safari/537.36",WebKit,Chrome,87.0.4280.141,Windows,10
108,1,null,"""",image-keyboard-response,98,43618,0.0-98.0,jspsych/scrambledDisgustFaces/scrambledAF35DIS.JPG,"""",16,forwardMask,Test,null,250,d,"""","""","""","""","""","""",1/27/2021 1:28,67.83.183.0,"Mozilla/5.0 (Windows NT 10.0; Win64; x64) AppleWebKit/537.36 (KHTML, like Gecko) Chrome/87.0.4280.141 Safari/537.36",WebKit,Chrome,87.0.4280.141,Windows,10
108,1,null,"""",image-keyboard-response,99,43640,0.0-99.0,jspsych/disgustFaces/AF35DIS.JPG,"""",16,Cue,Test,null,16,"""","""","""","""","""","""","""",1/27/2021 1:28,67.83.183.0,"Mozilla/5.0 (Windows NT 10.0; Win64; x64) AppleWebKit/537.36 (KHTML, like Gecko) Chrome/87.0.4280.141 Safari/537.36",WebKit,Chrome,87.0.4280.141,Windows,10
108,1,null,"""",image-keyboard-response,100,43742,0.0-100.0,jspsych/neutralFaces/AF10NES.JPG,"""",16,backwardMask,Test,null,100,"""","""","""","""","""","""","""",1/27/2021 1:28,67.83.183.0,"Mozilla/5.0 (Windows NT 10.0; Win64; x64) AppleWebKit/537.36 (KHTML, like Gecko) Chrome/87.0.4280.141 Safari/537.36",WebKit,Chrome,87.0.4280.141,Windows,10
108,1,null,"""",html-keyboard-response,101,44744,0.0-101.0,"<div style=""font-size:60px;"">+</div>","""",16,fixationBtwnNeutralMaskAndPrompt,Test,null,1000,"""","""","""","""","""","""","""",1/27/2021 1:28,67.83.183.0,"Mozilla/5.0 (Windows NT 10.0; Win64; x64) AppleWebKit/537.36 (KHTML, like Gecko) Chrome/87.0.4280.141 Safari/537.36",WebKit,Chrome,87.0.4280.141,Windows,10
108,1,null,"""",html-slider-response,102,44846,0.0-102.0,"<img src='jspsych/CFDfaces/CFD-BM-026-002-N.jpg' height=""250px"">,</br><b>Nathan</b>","""",16,ConfidenceQuery,Test,"""","""","""",50,null,0,CFD-BM-026-002-N.jpg,Nathan,0,1/27/2021 1:28,67.83.183.0,"Mozilla/5.0 (Windows NT 10.0; Win64; x64) AppleWebKit/537.36 (KHTML, like Gecko) Chrome/87.0.4280.141 Safari/537.36",WebKit,Chrome,87.0.4280.141,Windows,10
108,1,null,"""",html-keyboard-response,103,45848,0.0-103.0,"<div style=""font-size:60px;"">+</div>","""",17,ITI,Test,null,1000,"""","""","""","""","""","""","""",1/27/2021 1:28,67.83.183.0,"Mozilla/5.0 (Windows NT 10.0; Win64; x64) AppleWebKit/537.36 (KHTML, like Gecko) Chrome/87.0.4280.141 Safari/537.36",WebKit,Chrome,87.0.4280.141,Windows,10
108,1,null,"""",image-keyboard-response,104,46101,0.0-104.0,jspsych/scrambledDisgustFaces/scrambledAM30DIS.JPG,"""",17,forwardMask,Test,null,250,d,"""","""","""","""","""","""",1/27/2021 1:28,67.83.183.0,"Mozilla/5.0 (Windows NT 10.0; Win64; x64) AppleWebKit/537.36 (KHTML, like Gecko) Chrome/87.0.4280.141 Safari/537.36",WebKit,Chrome,87.0.4280.141,Windows,10
108,1,null,"""",image-keyboard-response,105,46119,0.0-105.0,jspsych/disgustFaces/AM30DIS.JPG,"""",17,Cue,Test,null,16,"""","""","""","""","""","""","""",1/27/2021 1:28,67.83.183.0,"Mozilla/5.0 (Windows NT 10.0; Win64; x64) AppleWebKit/537.36 (KHTML, like Gecko) Chrome/87.0.4280.141 Safari/537.36",WebKit,Chrome,87.0.4280.141,Windows,10
108,1,null,"""",image-keyboard-response,106,46221,0.0-106.0,jspsych/neutralFaces/BM24NES.JPG,"""",17,backwardMask,Test,null,100,"""","""","""","""","""","""","""",1/27/2021 1:28,67.83.183.0,"Mozilla/5.0 (Windows NT 10.0; Win64; x64) AppleWebKit/537.36 (KHTML, like Gecko) Chrome/87.0.4280.141 Safari/537.36",WebKit,Chrome,87.0.4280.141,Windows,10
108,1,null,"""",html-keyboard-response,107,47223,0.0-107.0,"<div style=""font-size:60px;"">+</div>","""",17,fixationBtwnNeutralMaskAndPrompt,Test,null,1000,"""","""","""","""","""","""","""",1/27/2021 1:28,67.83.183.0,"Mozilla/5.0 (Windows NT 10.0; Win64; x64) AppleWebKit/537.36 (KHTML, like Gecko) Chrome/87.0.4280.141 Safari/537.36",WebKit,Chrome,87.0.4280.141,Windows,10
108,1,null,"""",html-slider-response,108,47328,0.0-108.0,"<img src='jspsych/CFDfaces/CFD-BF-221-223-N.jpg' height=""250px"">,</br><b>Crystal</b>","""",17,ConfidenceQuery,Test,"""","""","""",50,null,0,CFD-BF-221-223-N.jpg,Crystal,0,1/27/2021 1:28,67.83.183.0,"Mozilla/5.0 (Windows NT 10.0; Win64; x64) AppleWebKit/537.36 (KHTML, like Gecko) Chrome/87.0.4280.141 Safari/537.36",WebKit,Chrome,87.0.4280.141,Windows,10
108,1,null,"""",html-keyboard-response,109,48330,0.0-109.0,"<div style=""font-size:60px;"">+</div>","""",18,ITI,Test,null,1000,"""","""","""","""","""","""","""",1/27/2021 1:28,67.83.183.0,"Mozilla/5.0 (Windows NT 10.0; Win64; x64) AppleWebKit/537.36 (KHTML, like Gecko) Chrome/87.0.4280.141 Safari/537.36",WebKit,Chrome,87.0.4280.141,Windows,10
108,1,null,"""",image-keyboard-response,110,48583,0.0-110.0,jspsych/scrambledDisgustFaces/scrambledAF15DIS.JPG,"""",18,forwardMask,Test,null,250,d,"""","""","""","""","""","""",1/27/2021 1:28,67.83.183.0,"Mozilla/5.0 (Windows NT 10.0; Win64; x64) AppleWebKit/537.36 (KHTML, like Gecko) Chrome/87.0.4280.141 Safari/537.36",WebKit,Chrome,87.0.4280.141,Windows,10
108,1,null,"""",image-keyboard-response,111,48601,0.0-111.0,jspsych/disgustFaces/AF15DIS.JPG,"""",18,Cue,Test,null,16,"""","""","""","""","""","""","""",1/27/2021 1:28,67.83.183.0,"Mozilla/5.0 (Windows NT 10.0; Win64; x64) AppleWebKit/537.36 (KHTML, like Gecko) Chrome/87.0.4280.141 Safari/537.36",WebKit,Chrome,87.0.4280.141,Windows,10
108,1,null,"""",image-keyboard-response,112,48703,0.0-112.0,jspsych/neutralFaces/BF30NES.JPG,"""",18,backwardMask,Test,null,100,"""","""","""","""","""","""","""",1/27/2021 1:28,67.83.183.0,"Mozilla/5.0 (Windows NT 10.0; Win64; x64) AppleWebKit/537.36 (KHTML, like Gecko) Chrome/87.0.4280.141 Safari/537.36",WebKit,Chrome,87.0.4280.141,Windows,10
108,1,null,"""",html-keyboard-response,113,49705,0.0-113.0,"<div style=""font-size:60px;"">+</div>","""",18,fixationBtwnNeutralMaskAndPrompt,Test,null,1000,"""","""","""","""","""","""","""",1/27/2021 1:28,67.83.183.0,"Mozilla/5.0 (Windows NT 10.0; Win64; x64) AppleWebKit/537.36 (KHTML, like Gecko) Chrome/87.0.4280.141 Safari/537.36",WebKit,Chrome,87.0.4280.141,Windows,10
108,1,null,"""",html-slider-response,114,49808,0.0-114.0,"<img src='jspsych/CFDfaces/CFD-AF-203-077-N.jpg' height=""250px"">,</br><b>Amy</b>","""",18,ConfidenceQuery,Test,"""","""","""",50,null,1,CFD-AF-203-077-N.jpg,Amy,0,1/27/2021 1:28,67.83.183.0,"Mozilla/5.0 (Windows NT 10.0; Win64; x64) AppleWebKit/537.36 (KHTML, like Gecko) Chrome/87.0.4280.141 Safari/537.36",WebKit,Chrome,87.0.4280.141,Windows,10
108,1,null,"""",html-keyboard-response,115,50809,0.0-115.0,"<div style=""font-size:60px;"">+</div>","""",19,ITI,Test,null,1000,"""","""","""","""","""","""","""",1/27/2021 1:28,67.83.183.0,"Mozilla/5.0 (Windows NT 10.0; Win64; x64) AppleWebKit/537.36 (KHTML, like Gecko) Chrome/87.0.4280.141 Safari/537.36",WebKit,Chrome,87.0.4280.141,Windows,10
108,1,null,"""",image-keyboard-response,116,51065,0.0-116.0,jspsych/scrambledNeutralFaces/scrambledBM32NES.JPG,"""",19,forwardMask,Test,null,250,n,"""","""","""","""","""","""",1/27/2021 1:28,67.83.183.0,"Mozilla/5.0 (Windows NT 10.0; Win64; x64) AppleWebKit/537.36 (KHTML, like Gecko) Chrome/87.0.4280.141 Safari/537.36",WebKit,Chrome,87.0.4280.141,Windows,10
108,1,null,"""",image-keyboard-response,117,51082,0.0-117.0,jspsych/neutralFaces/BM32NES.JPG,"""",19,Cue,Test,null,16,"""","""","""","""","""","""","""",1/27/2021 1:28,67.83.183.0,"Mozilla/5.0 (Windows NT 10.0; Win64; x64) AppleWebKit/537.36 (KHTML, like Gecko) Chrome/87.0.4280.141 Safari/537.36",WebKit,Chrome,87.0.4280.141,Windows,10
108,1,null,"""",image-keyboard-response,118,51184,0.0-118.0,jspsych/neutralFaces/BM04NES.JPG,"""",19,backwardMask,Test,null,100,"""","""","""","""","""","""","""",1/27/2021 1:28,67.83.183.0,"Mozilla/5.0 (Windows NT 10.0; Win64; x64) AppleWebKit/537.36 (KHTML, like Gecko) Chrome/87.0.4280.141 Safari/537.36",WebKit,Chrome,87.0.4280.141,Windows,10
108,1,null,"""",html-keyboard-response,119,52186,0.0-119.0,"<div style=""font-size:60px;"">+</div>","""",19,fixationBtwnNeutralMaskAndPrompt,Test,null,1000,"""","""","""","""","""","""","""",1/27/2021 1:28,67.83.183.0,"Mozilla/5.0 (Windows NT 10.0; Win64; x64) AppleWebKit/537.36 (KHTML, like Gecko) Chrome/87.0.4280.141 Safari/537.36",WebKit,Chrome,87.0.4280.141,Windows,10
108,1,null,"""",html-slider-response,120,52289,0.0-120.0,"<img src='jspsych/CFDfaces/CFD-LM-234-176-N.jpg' height=""250px"">,</br><b>Shawn</b>","""",19,ConfidenceQuery,Test,"""","""","""",50,null,1,CFD-LM-234-176-N.jpg,Shawn,0,1/27/2021 1:28,67.83.183.0,"Mozilla/5.0 (Windows NT 10.0; Win64; x64) AppleWebKit/537.36 (KHTML, like Gecko) Chrome/87.0.4280.141 Safari/537.36",WebKit,Chrome,87.0.4280.141,Windows,10
108,1,null,"""",html-keyboard-response,121,53291,0.0-121.0,"<div style=""font-size:60px;"">+</div>","""",20,ITI,Test,null,1000,"""","""","""","""","""","""","""",1/27/2021 1:28,67.83.183.0,"Mozilla/5.0 (Windows NT 10.0; Win64; x64) AppleWebKit/537.36 (KHTML, like Gecko) Chrome/87.0.4280.141 Safari/537.36",WebKit,Chrome,87.0.4280.141,Windows,10
108,1,null,"""",image-keyboard-response,122,53544,0.0-122.0,jspsych/scrambledDisgustFaces/scrambledAF27DIS.JPG,"""",20,forwardMask,Test,null,250,d,"""","""","""","""","""","""",1/27/2021 1:28,67.83.183.0,"Mozilla/5.0 (Windows NT 10.0; Win64; x64) AppleWebKit/537.36 (KHTML, like Gecko) Chrome/87.0.4280.141 Safari/537.36",WebKit,Chrome,87.0.4280.141,Windows,10
108,1,null,"""",image-keyboard-response,123,53566,0.0-123.0,jspsych/disgustFaces/AF27DIS.JPG,"""",20,Cue,Test,null,16,"""","""","""","""","""","""","""",1/27/2021 1:28,67.83.183.0,"Mozilla/5.0 (Windows NT 10.0; Win64; x64) AppleWebKit/537.36 (KHTML, like Gecko) Chrome/87.0.4280.141 Safari/537.36",WebKit,Chrome,87.0.4280.141,Windows,10
108,1,null,"""",image-keyboard-response,124,53668,0.0-124.0,jspsych/neutralFaces/AF10NES.JPG,"""",20,backwardMask,Test,null,100,"""","""","""","""","""","""","""",1/27/2021 1:28,67.83.183.0,"Mozilla/5.0 (Windows NT 10.0; Win64; x64) AppleWebKit/537.36 (KHTML, like Gecko) Chrome/87.0.4280.141 Safari/537.36",WebKit,Chrome,87.0.4280.141,Windows,10
108,1,null,"""",html-keyboard-response,125,54671,0.0-125.0,"<div style=""font-size:60px;"">+</div>","""",20,fixationBtwnNeutralMaskAndPrompt,Test,null,1000,"""","""","""","""","""","""","""",1/27/2021 1:28,67.83.183.0,"Mozilla/5.0 (Windows NT 10.0; Win64; x64) AppleWebKit/537.36 (KHTML, like Gecko) Chrome/87.0.4280.141 Safari/537.36",WebKit,Chrome,87.0.4280.141,Windows,10
108,1,null,"""",html-slider-response,126,54774,0.0-126.0,"<img src='jspsych/CFDfaces/CFD-LF-200-058-N.jpg' height=""250px"">,</br><b>Danielle</b>","""",20,ConfidenceQuery,Test,"""","""","""",50,null,1,CFD-LF-200-058-N.jpg,Danielle,0,1/27/2021 1:28,67.83.183.0,"Mozilla/5.0 (Windows NT 10.0; Win64; x64) AppleWebKit/537.36 (KHTML, like Gecko) Chrome/87.0.4280.141 Safari/537.36",WebKit,Chrome,87.0.4280.141,Windows,10
108,1,null,"""",html-keyboard-response,127,55775,0.0-127.0,"<div style=""font-size:60px;"">+</div>","""",21,ITI,Test,null,1000,"""","""","""","""","""","""","""",1/27/2021 1:28,67.83.183.0,"Mozilla/5.0 (Windows NT 10.0; Win64; x64) AppleWebKit/537.36 (KHTML, like Gecko) Chrome/87.0.4280.141 Safari/537.36",WebKit,Chrome,87.0.4280.141,Windows,10
108,1,null,"""",image-keyboard-response,128,56029,0.0-128.0,jspsych/scrambledNeutralFaces/scrambledBM06NES.JPG,"""",21,forwardMask,Test,null,250,n,"""","""","""","""","""","""",1/27/2021 1:28,67.83.183.0,"Mozilla/5.0 (Windows NT 10.0; Win64; x64) AppleWebKit/537.36 (KHTML, like Gecko) Chrome/87.0.4280.141 Safari/537.36",WebKit,Chrome,87.0.4280.141,Windows,10
108,1,null,"""",image-keyboard-response,129,56059,0.0-129.0,jspsych/neutralFaces/BM06NES.JPG,"""",21,Cue,Test,null,16,"""","""","""","""","""","""","""",1/27/2021 1:28,67.83.183.0,"Mozilla/5.0 (Windows NT 10.0; Win64; x64) AppleWebKit/537.36 (KHTML, like Gecko) Chrome/87.0.4280.141 Safari/537.36",WebKit,Chrome,87.0.4280.141,Windows,10
108,1,null,"""",image-keyboard-response,130,56161,0.0-130.0,jspsych/neutralFaces/BM33NES.JPG,"""",21,backwardMask,Test,null,100,"""","""","""","""","""","""","""",1/27/2021 1:28,67.83.183.0,"Mozilla/5.0 (Windows NT 10.0; Win64; x64) AppleWebKit/537.36 (KHTML, like Gecko) Chrome/87.0.4280.141 Safari/537.36",WebKit,Chrome,87.0.4280.141,Windows,10
108,1,null,"""",html-keyboard-response,131,57164,0.0-131.0,"<div style=""font-size:60px;"">+</div>","""",21,fixationBtwnNeutralMaskAndPrompt,Test,null,1000,"""","""","""","""","""","""","""",1/27/2021 1:28,67.83.183.0,"Mozilla/5.0 (Windows NT 10.0; Win64; x64) AppleWebKit/537.36 (KHTML, like Gecko) Chrome/87.0.4280.141 Safari/537.36",WebKit,Chrome,87.0.4280.141,Windows,10
108,1,null,"""",html-slider-response,132,57270,0.0-132.0,"<img src='jspsych/CFDfaces/CFD-AF-233-190-N.jpg' height=""250px"">,</br><b>Vanessa</b>","""",21,ConfidenceQuery,Test,"""","""","""",50,null,1,CFD-AF-233-190-N.jpg,Vanessa,0,1/27/2021 1:28,67.83.183.0,"Mozilla/5.0 (Windows NT 10.0; Win64; x64) AppleWebKit/537.36 (KHTML, like Gecko) Chrome/87.0.4280.141 Safari/537.36",WebKit,Chrome,87.0.4280.141,Windows,10
108,1,null,"""",html-keyboard-response,133,58272,0.0-133.0,"<div style=""font-size:60px;"">+</div>","""",22,ITI,Test,null,1000,"""","""","""","""","""","""","""",1/27/2021 1:28,67.83.183.0,"Mozilla/5.0 (Windows NT 10.0; Win64; x64) AppleWebKit/537.36 (KHTML, like Gecko) Chrome/87.0.4280.141 Safari/537.36",WebKit,Chrome,87.0.4280.141,Windows,10
108,1,null,"""",image-keyboard-response,134,58524,0.0-134.0,jspsych/scrambledNeutralFaces/scrambledAF19NES.JPG,"""",22,forwardMask,Test,null,250,n,"""","""","""","""","""","""",1/27/2021 1:28,67.83.183.0,"Mozilla/5.0 (Windows NT 10.0; Win64; x64) AppleWebKit/537.36 (KHTML, like Gecko) Chrome/87.0.4280.141 Safari/537.36",WebKit,Chrome,87.0.4280.141,Windows,10
108,1,null,"""",image-keyboard-response,135,58543,0.0-135.0,jspsych/neutralFaces/AF19NES.JPG,"""",22,Cue,Test,null,16,"""","""","""","""","""","""","""",1/27/2021 1:28,67.83.183.0,"Mozilla/5.0 (Windows NT 10.0; Win64; x64) AppleWebKit/537.36 (KHTML, like Gecko) Chrome/87.0.4280.141 Safari/537.36",WebKit,Chrome,87.0.4280.141,Windows,10
108,1,null,"""",image-keyboard-response,136,58645,0.0-136.0,jspsych/neutralFaces/BF33NES.JPG,"""",22,backwardMask,Test,null,100,"""","""","""","""","""","""","""",1/27/2021 1:28,67.83.183.0,"Mozilla/5.0 (Windows NT 10.0; Win64; x64) AppleWebKit/537.36 (KHTML, like Gecko) Chrome/87.0.4280.141 Safari/537.36",WebKit,Chrome,87.0.4280.141,Windows,10
108,1,null,"""",html-keyboard-response,137,59647,0.0-137.0,"<div style=""font-size:60px;"">+</div>","""",22,fixationBtwnNeutralMaskAndPrompt,Test,null,1000,"""","""","""","""","""","""","""",1/27/2021 1:28,67.83.183.0,"Mozilla/5.0 (Windows NT 10.0; Win64; x64) AppleWebKit/537.36 (KHTML, like Gecko) Chrome/87.0.4280.141 Safari/537.36",WebKit,Chrome,87.0.4280.141,Windows,10
108,1,null,"""",html-slider-response,138,59750,0.0-138.0,"<img src='jspsych/CFDfaces/CFD-WM-006-002-N.jpg' height=""250px"">,</br><b>Luis</b>","""",22,ConfidenceQuery,Test,"""","""","""",50,null,1,CFD-WM-006-002-N.jpg,Luis,0,1/27/2021 1:28,67.83.183.0,"Mozilla/5.0 (Windows NT 10.0; Win64; x64) AppleWebKit/537.36 (KHTML, like Gecko) Chrome/87.0.4280.141 Safari/537.36",WebKit,Chrome,87.0.4280.141,Windows,10
108,1,null,"""",html-keyboard-response,139,60752,0.0-139.0,"<div style=""font-size:60px;"">+</div>","""",23,ITI,Test,null,1000,"""","""","""","""","""","""","""",1/27/2021 1:28,67.83.183.0,"Mozilla/5.0 (Windows NT 10.0; Win64; x64) AppleWebKit/537.36 (KHTML, like Gecko) Chrome/87.0.4280.141 Safari/537.36",WebKit,Chrome,87.0.4280.141,Windows,10
108,1,null,"""",image-keyboard-response,140,61006,0.0-140.0,jspsych/scrambledDisgustFaces/scrambledAM12DIS.JPG,"""",23,forwardMask,Test,null,250,d,"""","""","""","""","""","""",1/27/2021 1:28,67.83.183.0,"Mozilla/5.0 (Windows NT 10.0; Win64; x64) AppleWebKit/537.36 (KHTML, like Gecko) Chrome/87.0.4280.141 Safari/537.36",WebKit,Chrome,87.0.4280.141,Windows,10
108,1,null,"""",image-keyboard-response,141,61024,0.0-141.0,jspsych/disgustFaces/AM12DIS.JPG,"""",23,Cue,Test,null,16,"""","""","""","""","""","""","""",1/27/2021 1:28,67.83.183.0,"Mozilla/5.0 (Windows NT 10.0; Win64; x64) AppleWebKit/537.36 (KHTML, like Gecko) Chrome/87.0.4280.141 Safari/537.36",WebKit,Chrome,87.0.4280.141,Windows,10
108,1,null,"""",image-keyboard-response,142,61125,0.0-142.0,jspsych/neutralFaces/AM25NES.JPG,"""",23,backwardMask,Test,null,100,"""","""","""","""","""","""","""",1/27/2021 1:28,67.83.183.0,"Mozilla/5.0 (Windows NT 10.0; Win64; x64) AppleWebKit/537.36 (KHTML, like Gecko) Chrome/87.0.4280.141 Safari/537.36",WebKit,Chrome,87.0.4280.141,Windows,10
108,1,null,"""",html-keyboard-response,143,62128,0.0-143.0,"<div style=""font-size:60px;"">+</div>","""",23,fixationBtwnNeutralMaskAndPrompt,Test,null,1000,"""","""","""","""","""","""","""",1/27/2021 1:28,67.83.183.0,"Mozilla/5.0 (Windows NT 10.0; Win64; x64) AppleWebKit/537.36 (KHTML, like Gecko) Chrome/87.0.4280.141 Safari/537.36",WebKit,Chrome,87.0.4280.141,Windows,10
108,1,null,"""",html-slider-response,144,62230,0.0-144.0,"<img src='jspsych/CFDfaces/CFD-WF-017-003-N.jpg' height=""250px"">,</br><b>Jenna</b>","""",23,ConfidenceQuery,Test,"""","""","""",50,null,0,CFD-WF-017-003-N.jpg,Jenna,0,1/27/2021 1:28,67.83.183.0,"Mozilla/5.0 (Windows NT 10.0; Win64; x64) AppleWebKit/537.36 (KHTML, like Gecko) Chrome/87.0.4280.141 Safari/537.36",WebKit,Chrome,87.0.4280.141,Windows,10
108,1,null,"""",html-keyboard-response,145,63232,0.0-145.0,"<div style=""font-size:60px;"">+</div>","""",24,ITI,Test,null,1000,"""","""","""","""","""","""","""",1/27/2021 1:28,67.83.183.0,"Mozilla/5.0 (Windows NT 10.0; Win64; x64) AppleWebKit/537.36 (KHTML, like Gecko) Chrome/87.0.4280.141 Safari/537.36",WebKit,Chrome,87.0.4280.141,Windows,10
108,1,null,"""",image-keyboard-response,146,63487,0.0-146.0,jspsych/scrambledDisgustFaces/scrambledBF04DIS.JPG,"""",24,forwardMask,Test,null,250,d,"""","""","""","""","""","""",1/27/2021 1:28,67.83.183.0,"Mozilla/5.0 (Windows NT 10.0; Win64; x64) AppleWebKit/537.36 (KHTML, like Gecko) Chrome/87.0.4280.141 Safari/537.36",WebKit,Chrome,87.0.4280.141,Windows,10
108,1,null,"""",image-keyboard-response,147,63509,0.0-147.0,jspsych/disgustFaces/BF04DIS.JPG,"""",24,Cue,Test,null,16,"""","""","""","""","""","""","""",1/27/2021 1:28,67.83.183.0,"Mozilla/5.0 (Windows NT 10.0; Win64; x64) AppleWebKit/537.36 (KHTML, like Gecko) Chrome/87.0.4280.141 Safari/537.36",WebKit,Chrome,87.0.4280.141,Windows,10
108,1,null,"""",image-keyboard-response,148,63612,0.0-148.0,jspsych/neutralFaces/AF08NES.JPG,"""",24,backwardMask,Test,null,100,"""","""","""","""","""","""","""",1/27/2021 1:28,67.83.183.0,"Mozilla/5.0 (Windows NT 10.0; Win64; x64) AppleWebKit/537.36 (KHTML, like Gecko) Chrome/87.0.4280.141 Safari/537.36",WebKit,Chrome,87.0.4280.141,Windows,10
108,1,null,"""",html-keyboard-response,149,64614,0.0-149.0,"<div style=""font-size:60px;"">+</div>","""",24,fixationBtwnNeutralMaskAndPrompt,Test,null,1000,"""","""","""","""","""","""","""",1/27/2021 1:28,67.83.183.0,"Mozilla/5.0 (Windows NT 10.0; Win64; x64) AppleWebKit/537.36 (KHTML, like Gecko) Chrome/87.0.4280.141 Safari/537.36",WebKit,Chrome,87.0.4280.141,Windows,10
108,1,null,"""",html-slider-response,150,64718,0.0-150.0,"<img src='jspsych/CFDfaces/CFD-AF-239-171-N.jpg' height=""250px"">,</br><b>Amanda</b>","""",24,ConfidenceQuery,Test,"""","""","""",50,null,0,CFD-AF-239-171-N.jpg,Amanda,0,1/27/2021 1:28,67.83.183.0,"Mozilla/5.0 (Windows NT 10.0; Win64; x64) AppleWebKit/537.36 (KHTML, like Gecko) Chrome/87.0.4280.141 Safari/537.36",WebKit,Chrome,87.0.4280.141,Windows,10
108,1,null,"""",html-keyboard-response,151,65722,0.0-151.0,"<div style=""font-size:60px;"">+</div>","""",25,ITI,Test,null,1000,"""","""","""","""","""","""","""",1/27/2021 1:28,67.83.183.0,"Mozilla/5.0 (Windows NT 10.0; Win64; x64) AppleWebKit/537.36 (KHTML, like Gecko) Chrome/87.0.4280.141 Safari/537.36",WebKit,Chrome,87.0.4280.141,Windows,10
108,1,null,"""",image-keyboard-response,152,65974,0.0-152.0,jspsych/scrambledDisgustFaces/scrambledBM19DIS.JPG,"""",25,forwardMask,Test,null,250,d,"""","""","""","""","""","""",1/27/2021 1:28,67.83.183.0,"Mozilla/5.0 (Windows NT 10.0; Win64; x64) AppleWebKit/537.36 (KHTML, like Gecko) Chrome/87.0.4280.141 Safari/537.36",WebKit,Chrome,87.0.4280.141,Windows,10
108,1,null,"""",image-keyboard-response,153,65993,0.0-153.0,jspsych/disgustFaces/BM20DIS.JPG,"""",25,Cue,Test,null,16,"""","""","""","""","""","""","""",1/27/2021 1:28,67.83.183.0,"Mozilla/5.0 (Windows NT 10.0; Win64; x64) AppleWebKit/537.36 (KHTML, like Gecko) Chrome/87.0.4280.141 Safari/537.36",WebKit,Chrome,87.0.4280.141,Windows,10
108,1,null,"""",image-keyboard-response,154,66094,0.0-154.0,jspsych/neutralFaces/BM01NES.JPG,"""",25,backwardMask,Test,null,100,"""","""","""","""","""","""","""",1/27/2021 1:28,67.83.183.0,"Mozilla/5.0 (Windows NT 10.0; Win64; x64) AppleWebKit/537.36 (KHTML, like Gecko) Chrome/87.0.4280.141 Safari/537.36",WebKit,Chrome,87.0.4280.141,Windows,10
108,1,null,"""",html-keyboard-response,155,67096,0.0-155.0,"<div style=""font-size:60px;"">+</div>","""",25,fixationBtwnNeutralMaskAndPrompt,Test,null,1000,"""","""","""","""","""","""","""",1/27/2021 1:28,67.83.183.0,"Mozilla/5.0 (Windows NT 10.0; Win64; x64) AppleWebKit/537.36 (KHTML, like Gecko) Chrome/87.0.4280.141 Safari/537.36",WebKit,Chrome,87.0.4280.141,Windows,10
108,1,null,"""",html-slider-response,156,67203,0.0-156.0,"<img src='jspsych/CFDfaces/CFD-WM-011-002-N.jpg' height=""250px"">,</br><b>Sean</b>","""",25,ConfidenceQuery,Test,"""","""","""",50,null,1,CFD-WM-011-002-N.jpg,Sean,0,1/27/2021 1:28,67.83.183.0,"Mozilla/5.0 (Windows NT 10.0; Win64; x64) AppleWebKit/537.36 (KHTML, like Gecko) Chrome/87.0.4280.141 Safari/537.36",WebKit,Chrome,87.0.4280.141,Windows,10
108,1,null,"""",html-keyboard-response,157,68205,0.0-157.0,"<div style=""font-size:60px;"">+</div>","""",26,ITI,Test,null,1000,"""","""","""","""","""","""","""",1/27/2021 1:28,67.83.183.0,"Mozilla/5.0 (Windows NT 10.0; Win64; x64) AppleWebKit/537.36 (KHTML, like Gecko) Chrome/87.0.4280.141 Safari/537.36",WebKit,Chrome,87.0.4280.141,Windows,10
108,1,null,"""",image-keyboard-response,158,68459,0.0-158.0,jspsych/scrambledDisgustFaces/scrambledAF30DIS.JPG,"""",26,forwardMask,Test,null,250,d,"""","""","""","""","""","""",1/27/2021 1:28,67.83.183.0,"Mozilla/5.0 (Windows NT 10.0; Win64; x64) AppleWebKit/537.36 (KHTML, like Gecko) Chrome/87.0.4280.141 Safari/537.36",WebKit,Chrome,87.0.4280.141,Windows,10
108,1,null,"""",image-keyboard-response,159,68478,0.0-159.0,jspsych/disgustFaces/AF30DIS.JPG,"""",26,Cue,Test,null,16,"""","""","""","""","""","""","""",1/27/2021 1:28,67.83.183.0,"Mozilla/5.0 (Windows NT 10.0; Win64; x64) AppleWebKit/537.36 (KHTML, like Gecko) Chrome/87.0.4280.141 Safari/537.36",WebKit,Chrome,87.0.4280.141,Windows,10
108,1,null,"""",image-keyboard-response,160,68580,0.0-160.0,jspsych/neutralFaces/AF25NES.JPG,"""",26,backwardMask,Test,null,100,"""","""","""","""","""","""","""",1/27/2021 1:28,67.83.183.0,"Mozilla/5.0 (Windows NT 10.0; Win64; x64) AppleWebKit/537.36 (KHTML, like Gecko) Chrome/87.0.4280.141 Safari/537.36",WebKit,Chrome,87.0.4280.141,Windows,10
108,1,null,"""",html-keyboard-response,161,69582,0.0-161.0,"<div style=""font-size:60px;"">+</div>","""",26,fixationBtwnNeutralMaskAndPrompt,Test,null,1000,"""","""","""","""","""","""","""",1/27/2021 1:28,67.83.183.0,"Mozilla/5.0 (Windows NT 10.0; Win64; x64) AppleWebKit/537.36 (KHTML, like Gecko) Chrome/87.0.4280.141 Safari/537.36",WebKit,Chrome,87.0.4280.141,Windows,10
108,1,null,"""",html-slider-response,162,69685,0.0-162.0,"<img src='jspsych/CFDfaces/CFD-AM-214-168-N.jpg' height=""250px"">,</br><b>Richard</b>","""",26,ConfidenceQuery,Test,"""","""","""",50,null,1,CFD-AM-214-168-N.jpg,Richard,0,1/27/2021 1:28,67.83.183.0,"Mozilla/5.0 (Windows NT 10.0; Win64; x64) AppleWebKit/537.36 (KHTML, like Gecko) Chrome/87.0.4280.141 Safari/537.36",WebKit,Chrome,87.0.4280.141,Windows,10
108,1,null,"""",html-keyboard-response,163,70687,0.0-163.0,"<div style=""font-size:60px;"">+</div>","""",27,ITI,Test,null,1000,"""","""","""","""","""","""","""",1/27/2021 1:28,67.83.183.0,"Mozilla/5.0 (Windows NT 10.0; Win64; x64) AppleWebKit/537.36 (KHTML, like Gecko) Chrome/87.0.4280.141 Safari/537.36",WebKit,Chrome,87.0.4280.141,Windows,10
108,1,null,"""",image-keyboard-response,164,70943,0.0-164.0,jspsych/scrambledDisgustFaces/scrambledAM17DIS.JPG,"""",27,forwardMask,Test,null,250,d,"""","""","""","""","""","""",1/27/2021 1:28,67.83.183.0,"Mozilla/5.0 (Windows NT 10.0; Win64; x64) AppleWebKit/537.36 (KHTML, like Gecko) Chrome/87.0.4280.141 Safari/537.36",WebKit,Chrome,87.0.4280.141,Windows,10
108,1,null,"""",image-keyboard-response,165,70961,0.0-165.0,jspsych/disgustFaces/AM17DIS.JPG,"""",27,Cue,Test,null,16,"""","""","""","""","""","""","""",1/27/2021 1:28,67.83.183.0,"Mozilla/5.0 (Windows NT 10.0; Win64; x64) AppleWebKit/537.36 (KHTML, like Gecko) Chrome/87.0.4280.141 Safari/537.36",WebKit,Chrome,87.0.4280.141,Windows,10
108,1,null,"""",image-keyboard-response,166,71064,0.0-166.0,jspsych/neutralFaces/AM21NES.JPG,"""",27,backwardMask,Test,null,100,"""","""","""","""","""","""","""",1/27/2021 1:28,67.83.183.0,"Mozilla/5.0 (Windows NT 10.0; Win64; x64) AppleWebKit/537.36 (KHTML, like Gecko) Chrome/87.0.4280.141 Safari/537.36",WebKit,Chrome,87.0.4280.141,Windows,10
108,1,null,"""",html-keyboard-response,167,72067,0.0-167.0,"<div style=""font-size:60px;"">+</div>","""",27,fixationBtwnNeutralMaskAndPrompt,Test,null,1000,"""","""","""","""","""","""","""",1/27/2021 1:28,67.83.183.0,"Mozilla/5.0 (Windows NT 10.0; Win64; x64) AppleWebKit/537.36 (KHTML, like Gecko) Chrome/87.0.4280.141 Safari/537.36",WebKit,Chrome,87.0.4280.141,Windows,10
108,1,null,"""",html-slider-response,168,72169,0.0-168.0,"<img src='jspsych/CFDfaces/CFD-LF-239-148-N.jpg' height=""250px"">,</br><b>Erin</b>","""",27,ConfidenceQuery,Test,"""","""","""",50,null,0,CFD-LF-239-148-N.jpg,Erin,0,1/27/2021 1:28,67.83.183.0,"Mozilla/5.0 (Windows NT 10.0; Win64; x64) AppleWebKit/537.36 (KHTML, like Gecko) Chrome/87.0.4280.141 Safari/537.36",WebKit,Chrome,87.0.4280.141,Windows,10
108,1,null,"""",html-keyboard-response,169,73171,0.0-169.0,"<div style=""font-size:60px;"">+</div>","""",28,ITI,Test,null,1000,"""","""","""","""","""","""","""",1/27/2021 1:28,67.83.183.0,"Mozilla/5.0 (Windows NT 10.0; Win64; x64) AppleWebKit/537.36 (KHTML, like Gecko) Chrome/87.0.4280.141 Safari/537.36",WebKit,Chrome,87.0.4280.141,Windows,10
108,1,null,"""",image-keyboard-response,170,73424,0.0-170.0,jspsych/scrambledNeutralFaces/scrambledBF11NES.JPG,"""",28,forwardMask,Test,null,250,n,"""","""","""","""","""","""",1/27/2021 1:28,67.83.183.0,"Mozilla/5.0 (Windows NT 10.0; Win64; x64) AppleWebKit/537.36 (KHTML, like Gecko) Chrome/87.0.4280.141 Safari/537.36",WebKit,Chrome,87.0.4280.141,Windows,10
108,1,null,"""",image-keyboard-response,171,73444,0.0-171.0,jspsych/neutralFaces/BF11NES.JPG,"""",28,Cue,Test,null,16,"""","""","""","""","""","""","""",1/27/2021 1:28,67.83.183.0,"Mozilla/5.0 (Windows NT 10.0; Win64; x64) AppleWebKit/537.36 (KHTML, like Gecko) Chrome/87.0.4280.141 Safari/537.36",WebKit,Chrome,87.0.4280.141,Windows,10
108,1,null,"""",image-keyboard-response,172,73546,0.0-172.0,jspsych/neutralFaces/BF32NES.JPG,"""",28,backwardMask,Test,null,100,"""","""","""","""","""","""","""",1/27/2021 1:28,67.83.183.0,"Mozilla/5.0 (Windows NT 10.0; Win64; x64) AppleWebKit/537.36 (KHTML, like Gecko) Chrome/87.0.4280.141 Safari/537.36",WebKit,Chrome,87.0.4280.141,Windows,10
108,1,null,"""",html-keyboard-response,173,74549,0.0-173.0,"<div style=""font-size:60px;"">+</div>","""",28,fixationBtwnNeutralMaskAndPrompt,Test,null,1000,"""","""","""","""","""","""","""",1/27/2021 1:28,67.83.183.0,"Mozilla/5.0 (Windows NT 10.0; Win64; x64) AppleWebKit/537.36 (KHTML, like Gecko) Chrome/87.0.4280.141 Safari/537.36",WebKit,Chrome,87.0.4280.141,Windows,10
108,1,null,"""",html-slider-response,174,74652,0.0-174.0,"<img src='jspsych/CFDfaces/CFD-LM-233-171-N.jpg' height=""250px"">,</br><b>Christopher</b>","""",28,ConfidenceQuery,Test,"""","""","""",50,null,0,CFD-LM-233-171-N.jpg,Christopher,0,1/27/2021 1:28,67.83.183.0,"Mozilla/5.0 (Windows NT 10.0; Win64; x64) AppleWebKit/537.36 (KHTML, like Gecko) Chrome/87.0.4280.141 Safari/537.36",WebKit,Chrome,87.0.4280.141,Windows,10
108,1,null,"""",html-keyboard-response,175,75654,0.0-175.0,"<div style=""font-size:60px;"">+</div>","""",29,ITI,Test,null,1000,"""","""","""","""","""","""","""",1/27/2021 1:28,67.83.183.0,"Mozilla/5.0 (Windows NT 10.0; Win64; x64) AppleWebKit/537.36 (KHTML, like Gecko) Chrome/87.0.4280.141 Safari/537.36",WebKit,Chrome,87.0.4280.141,Windows,10
108,1,null,"""",image-keyboard-response,176,75906,0.0-176.0,jspsych/scrambledNeutralFaces/scrambledBM26NES.JPG,"""",29,forwardMask,Test,null,250,n,"""","""","""","""","""","""",1/27/2021 1:28,67.83.183.0,"Mozilla/5.0 (Windows NT 10.0; Win64; x64) AppleWebKit/537.36 (KHTML, like Gecko) Chrome/87.0.4280.141 Safari/537.36",WebKit,Chrome,87.0.4280.141,Windows,10
108,1,null,"""",image-keyboard-response,177,75924,0.0-177.0,jspsych/neutralFaces/BM26NES.JPG,"""",29,Cue,Test,null,16,"""","""","""","""","""","""","""",1/27/2021 1:28,67.83.183.0,"Mozilla/5.0 (Windows NT 10.0; Win64; x64) AppleWebKit/537.36 (KHTML, like Gecko) Chrome/87.0.4280.141 Safari/537.36",WebKit,Chrome,87.0.4280.141,Windows,10
108,1,null,"""",image-keyboard-response,178,76025,0.0-178.0,jspsych/neutralFaces/BM30NES.JPG,"""",29,backwardMask,Test,null,100,"""","""","""","""","""","""","""",1/27/2021 1:28,67.83.183.0,"Mozilla/5.0 (Windows NT 10.0; Win64; x64) AppleWebKit/537.36 (KHTML, like Gecko) Chrome/87.0.4280.141 Safari/537.36",WebKit,Chrome,87.0.4280.141,Windows,10
108,1,null,"""",html-keyboard-response,179,77027,0.0-179.0,"<div style=""font-size:60px;"">+</div>","""",29,fixationBtwnNeutralMaskAndPrompt,Test,null,1000,"""","""","""","""","""","""","""",1/27/2021 1:28,67.83.183.0,"Mozilla/5.0 (Windows NT 10.0; Win64; x64) AppleWebKit/537.36 (KHTML, like Gecko) Chrome/87.0.4280.141 Safari/537.36",WebKit,Chrome,87.0.4280.141,Windows,10
108,1,null,"""",html-slider-response,180,77132,0.0-180.0,"<img src='jspsych/CFDfaces/CFD-AM-246-184-N.jpg' height=""250px"">,</br><b>Brandon</b>","""",29,ConfidenceQuery,Test,"""","""","""",50,null,1,CFD-AM-246-184-N.jpg,Brandon,0,1/27/2021 1:28,67.83.183.0,"Mozilla/5.0 (Windows NT 10.0; Win64; x64) AppleWebKit/537.36 (KHTML, like Gecko) Chrome/87.0.4280.141 Safari/537.36",WebKit,Chrome,87.0.4280.141,Windows,10
108,1,null,"""",html-keyboard-response,181,78134,0.0-181.0,"<div style=""font-size:60px;"">+</div>","""",30,ITI,Test,null,1000,"""","""","""","""","""","""","""",1/27/2021 1:28,67.83.183.0,"Mozilla/5.0 (Windows NT 10.0; Win64; x64) AppleWebKit/537.36 (KHTML, like Gecko) Chrome/87.0.4280.141 Safari/537.36",WebKit,Chrome,87.0.4280.141,Windows,10
108,1,null,"""",image-keyboard-response,182,78387,0.0-182.0,jspsych/scrambledDisgustFaces/scrambledAF09DIS.JPG,"""",30,forwardMask,Test,null,250,d,"""","""","""","""","""","""",1/27/2021 1:28,67.83.183.0,"Mozilla/5.0 (Windows NT 10.0; Win64; x64) AppleWebKit/537.36 (KHTML, like Gecko) Chrome/87.0.4280.141 Safari/537.36",WebKit,Chrome,87.0.4280.141,Windows,10
108,1,null,"""",image-keyboard-response,183,78405,0.0-183.0,jspsych/disgustFaces/AF09DIS.JPG,"""",30,Cue,Test,null,16,"""","""","""","""","""","""","""",1/27/2021 1:28,67.83.183.0,"Mozilla/5.0 (Windows NT 10.0; Win64; x64) AppleWebKit/537.36 (KHTML, like Gecko) Chrome/87.0.4280.141 Safari/537.36",WebKit,Chrome,87.0.4280.141,Windows,10
108,1,null,"""",image-keyboard-response,184,78506,0.0-184.0,jspsych/neutralFaces/AF12NES.JPG,"""",30,backwardMask,Test,null,100,"""","""","""","""","""","""","""",1/27/2021 1:28,67.83.183.0,"Mozilla/5.0 (Windows NT 10.0; Win64; x64) AppleWebKit/537.36 (KHTML, like Gecko) Chrome/87.0.4280.141 Safari/537.36",WebKit,Chrome,87.0.4280.141,Windows,10
108,1,null,"""",html-keyboard-response,185,79509,0.0-185.0,"<div style=""font-size:60px;"">+</div>","""",30,fixationBtwnNeutralMaskAndPrompt,Test,null,1000,"""","""","""","""","""","""","""",1/27/2021 1:28,67.83.183.0,"Mozilla/5.0 (Windows NT 10.0; Win64; x64) AppleWebKit/537.36 (KHTML, like Gecko) Chrome/87.0.4280.141 Safari/537.36",WebKit,Chrome,87.0.4280.141,Windows,10
108,1,null,"""",html-slider-response,186,79611,0.0-186.0,"<img src='jspsych/CFDfaces/CFD-AF-228-173-N.jpg' height=""250px"">,</br><b>Stephanie</b>","""",30,ConfidenceQuery,Test,"""","""","""",50,null,1,CFD-AF-228-173-N.jpg,Stephanie,0,1/27/2021 1:28,67.83.183.0,"Mozilla/5.0 (Windows NT 10.0; Win64; x64) AppleWebKit/537.36 (KHTML, like Gecko) Chrome/87.0.4280.141 Safari/537.36",WebKit,Chrome,87.0.4280.141,Windows,10
108,1,null,"""",html-keyboard-response,187,80614,0.0-187.0,"<div style=""font-size:60px;"">+</div>","""",31,ITI,Test,null,1000,"""","""","""","""","""","""","""",1/27/2021 1:28,67.83.183.0,"Mozilla/5.0 (Windows NT 10.0; Win64; x64) AppleWebKit/537.36 (KHTML, like Gecko) Chrome/87.0.4280.141 Safari/537.36",WebKit,Chrome,87.0.4280.141,Windows,10
108,1,null,"""",image-keyboard-response,188,80868,0.0-188.0,jspsych/scrambledNeutralFaces/scrambledAM14NES.JPG,"""",31,forwardMask,Test,null,250,n,"""","""","""","""","""","""",1/27/2021 1:28,67.83.183.0,"Mozilla/5.0 (Windows NT 10.0; Win64; x64) AppleWebKit/537.36 (KHTML, like Gecko) Chrome/87.0.4280.141 Safari/537.36",WebKit,Chrome,87.0.4280.141,Windows,10
108,1,null,"""",image-keyboard-response,189,80887,0.0-189.0,jspsych/neutralFaces/AM14NES.JPG,"""",31,Cue,Test,null,16,"""","""","""","""","""","""","""",1/27/2021 1:28,67.83.183.0,"Mozilla/5.0 (Windows NT 10.0; Win64; x64) AppleWebKit/537.36 (KHTML, like Gecko) Chrome/87.0.4280.141 Safari/537.36",WebKit,Chrome,87.0.4280.141,Windows,10
108,1,null,"""",image-keyboard-response,190,80990,0.0-190.0,jspsych/neutralFaces/BM34NES.JPG,"""",31,backwardMask,Test,null,100,"""","""","""","""","""","""","""",1/27/2021 1:28,67.83.183.0,"Mozilla/5.0 (Windows NT 10.0; Win64; x64) AppleWebKit/537.36 (KHTML, like Gecko) Chrome/87.0.4280.141 Safari/537.36",WebKit,Chrome,87.0.4280.141,Windows,10
108,1,null,"""",html-keyboard-response,191,81992,0.0-191.0,"<div style=""font-size:60px;"">+</div>","""",31,fixationBtwnNeutralMaskAndPrompt,Test,null,1000,"""","""","""","""","""","""","""",1/27/2021 1:28,67.83.183.0,"Mozilla/5.0 (Windows NT 10.0; Win64; x64) AppleWebKit/537.36 (KHTML, like Gecko) Chrome/87.0.4280.141 Safari/537.36",WebKit,Chrome,87.0.4280.141,Windows,10
108,1,null,"""",html-slider-response,192,82095,0.0-192.0,"<img src='jspsych/CFDfaces/CFD-BF-226-119-N.jpg' height=""250px"">,</br><b>Natalie</b>","""",31,ConfidenceQuery,Test,"""","""","""",50,null,0,CFD-BF-226-119-N.jpg,Natalie,0,1/27/2021 1:28,67.83.183.0,"Mozilla/5.0 (Windows NT 10.0; Win64; x64) AppleWebKit/537.36 (KHTML, like Gecko) Chrome/87.0.4280.141 Safari/537.36",WebKit,Chrome,87.0.4280.141,Windows,10
108,1,null,"""",html-keyboard-response,193,83097,0.0-193.0,"<div style=""font-size:60px;"">+</div>","""",32,ITI,Test,null,1000,"""","""","""","""","""","""","""",1/27/2021 1:28,67.83.183.0,"Mozilla/5.0 (Windows NT 10.0; Win64; x64) AppleWebKit/537.36 (KHTML, like Gecko) Chrome/87.0.4280.141 Safari/537.36",WebKit,Chrome,87.0.4280.141,Windows,10
108,1,null,"""",image-keyboard-response,194,83350,0.0-194.0,jspsych/scrambledNeutralFaces/scrambledBF19NES.JPG,"""",32,forwardMask,Test,null,250,n,"""","""","""","""","""","""",1/27/2021 1:28,67.83.183.0,"Mozilla/5.0 (Windows NT 10.0; Win64; x64) AppleWebKit/537.36 (KHTML, like Gecko) Chrome/87.0.4280.141 Safari/537.36",WebKit,Chrome,87.0.4280.141,Windows,10
108,1,null,"""",image-keyboard-response,195,83372,0.0-195.0,jspsych/neutralFaces/BF19NES.JPG,"""",32,Cue,Test,null,16,"""","""","""","""","""","""","""",1/27/2021 1:28,67.83.183.0,"Mozilla/5.0 (Windows NT 10.0; Win64; x64) AppleWebKit/537.36 (KHTML, like Gecko) Chrome/87.0.4280.141 Safari/537.36",WebKit,Chrome,87.0.4280.141,Windows,10
108,1,null,"""",image-keyboard-response,196,83475,0.0-196.0,jspsych/neutralFaces/BF31NES.JPG,"""",32,backwardMask,Test,null,100,"""","""","""","""","""","""","""",1/27/2021 1:28,67.83.183.0,"Mozilla/5.0 (Windows NT 10.0; Win64; x64) AppleWebKit/537.36 (KHTML, like Gecko) Chrome/87.0.4280.141 Safari/537.36",WebKit,Chrome,87.0.4280.141,Windows,10
108,1,null,"""",html-keyboard-response,197,84477,0.0-197.0,"<div style=""font-size:60px;"">+</div>","""",32,fixationBtwnNeutralMaskAndPrompt,Test,null,1000,"""","""","""","""","""","""","""",1/27/2021 1:28,67.83.183.0,"Mozilla/5.0 (Windows NT 10.0; Win64; x64) AppleWebKit/537.36 (KHTML, like Gecko) Chrome/87.0.4280.141 Safari/537.36",WebKit,Chrome,87.0.4280.141,Windows,10
108,1,null,"""",html-slider-response,198,84580,0.0-198.0,"<img src='jspsych/CFDfaces/CFD-BF-201-080-N.jpg' height=""250px"">,</br><b>Kelly</b>","""",32,ConfidenceQuery,Test,"""","""","""",50,null,0,CFD-BF-201-080-N.jpg,Kelly,0,1/27/2021 1:28,67.83.183.0,"Mozilla/5.0 (Windows NT 10.0; Win64; x64) AppleWebKit/537.36 (KHTML, like Gecko) Chrome/87.0.4280.141 Safari/537.36",WebKit,Chrome,87.0.4280.141,Windows,10
108,1,null,"""",html-keyboard-response,199,85582,0.0-199.0,"<div style=""font-size:60px;"">+</div>","""",33,ITI,Test,null,1000,"""","""","""","""","""","""","""",1/27/2021 1:28,67.83.183.0,"Mozilla/5.0 (Windows NT 10.0; Win64; x64) AppleWebKit/537.36 (KHTML, like Gecko) Chrome/87.0.4280.141 Safari/537.36",WebKit,Chrome,87.0.4280.141,Windows,10
108,1,null,"""",image-keyboard-response,200,85847,0.0-200.0,jspsych/scrambledDisgustFaces/scrambledAM33DIS.JPG,"""",33,forwardMask,Test,null,250,d,"""","""","""","""","""","""",1/27/2021 1:28,67.83.183.0,"Mozilla/5.0 (Windows NT 10.0; Win64; x64) AppleWebKit/537.36 (KHTML, like Gecko) Chrome/87.0.4280.141 Safari/537.36",WebKit,Chrome,87.0.4280.141,Windows,10
108,1,null,"""",image-keyboard-response,201,85867,0.0-201.0,jspsych/disgustFaces/AM33DIS.JPG,"""",33,Cue,Test,null,16,"""","""","""","""","""","""","""",1/27/2021 1:28,67.83.183.0,"Mozilla/5.0 (Windows NT 10.0; Win64; x64) AppleWebKit/537.36 (KHTML, like Gecko) Chrome/87.0.4280.141 Safari/537.36",WebKit,Chrome,87.0.4280.141,Windows,10
108,1,null,"""",image-keyboard-response,202,85970,0.0-202.0,jspsych/neutralFaces/AM07NES.JPG,"""",33,backwardMask,Test,null,100,"""","""","""","""","""","""","""",1/27/2021 1:28,67.83.183.0,"Mozilla/5.0 (Windows NT 10.0; Win64; x64) AppleWebKit/537.36 (KHTML, like Gecko) Chrome/87.0.4280.141 Safari/537.36",WebKit,Chrome,87.0.4280.141,Windows,10
108,1,null,"""",html-keyboard-response,203,86972,0.0-203.0,"<div style=""font-size:60px;"">+</div>","""",33,fixationBtwnNeutralMaskAndPrompt,Test,null,1000,"""","""","""","""","""","""","""",1/27/2021 1:28,67.83.183.0,"Mozilla/5.0 (Windows NT 10.0; Win64; x64) AppleWebKit/537.36 (KHTML, like Gecko) Chrome/87.0.4280.141 Safari/537.36",WebKit,Chrome,87.0.4280.141,Windows,10
108,1,null,"""",html-slider-response,204,87080,0.0-204.0,"<img src='jspsych/CFDfaces/CFD-LM-246-087-N.jpg' height=""250px"">,</br><b>Tyler</b>","""",33,ConfidenceQuery,Test,"""","""","""",50,null,1,CFD-LM-246-087-N.jpg,Tyler,0,1/27/2021 1:28,67.83.183.0,"Mozilla/5.0 (Windows NT 10.0; Win64; x64) AppleWebKit/537.36 (KHTML, like Gecko) Chrome/87.0.4280.141 Safari/537.36",WebKit,Chrome,87.0.4280.141,Windows,10
108,1,null,"""",html-keyboard-response,205,88082,0.0-205.0,"<div style=""font-size:60px;"">+</div>","""",34,ITI,Test,null,1000,"""","""","""","""","""","""","""",1/27/2021 1:28,67.83.183.0,"Mozilla/5.0 (Windows NT 10.0; Win64; x64) AppleWebKit/537.36 (KHTML, like Gecko) Chrome/87.0.4280.141 Safari/537.36",WebKit,Chrome,87.0.4280.141,Windows,10
108,1,null,"""",image-keyboard-response,206,88336,0.0-206.0,jspsych/scrambledDisgustFaces/scrambledAF12DIS.JPG,"""",34,forwardMask,Test,null,250,d,"""","""","""","""","""","""",1/27/2021 1:28,67.83.183.0,"Mozilla/5.0 (Windows NT 10.0; Win64; x64) AppleWebKit/537.36 (KHTML, like Gecko) Chrome/87.0.4280.141 Safari/537.36",WebKit,Chrome,87.0.4280.141,Windows,10
108,1,null,"""",image-keyboard-response,207,88355,0.0-207.0,jspsych/disgustFaces/AF12DIS.JPG,"""",34,Cue,Test,null,16,"""","""","""","""","""","""","""",1/27/2021 1:28,67.83.183.0,"Mozilla/5.0 (Windows NT 10.0; Win64; x64) AppleWebKit/537.36 (KHTML, like Gecko) Chrome/87.0.4280.141 Safari/537.36",WebKit,Chrome,87.0.4280.141,Windows,10
108,1,null,"""",image-keyboard-response,208,88457,0.0-208.0,jspsych/neutralFaces/BF10NES.JPG,"""",34,backwardMask,Test,null,100,"""","""","""","""","""","""","""",1/27/2021 1:28,67.83.183.0,"Mozilla/5.0 (Windows NT 10.0; Win64; x64) AppleWebKit/537.36 (KHTML, like Gecko) Chrome/87.0.4280.141 Safari/537.36",WebKit,Chrome,87.0.4280.141,Windows,10
108,1,null,"""",html-keyboard-response,209,89459,0.0-209.0,"<div style=""font-size:60px;"">+</div>","""",34,fixationBtwnNeutralMaskAndPrompt,Test,null,1000,"""","""","""","""","""","""","""",1/27/2021 1:28,67.83.183.0,"Mozilla/5.0 (Windows NT 10.0; Win64; x64) AppleWebKit/537.36 (KHTML, like Gecko) Chrome/87.0.4280.141 Safari/537.36",WebKit,Chrome,87.0.4280.141,Windows,10
108,1,null,"""",html-slider-response,210,89562,0.0-210.0,"<img src='jspsych/CFDfaces/CFD-BF-039-031-N.jpg' height=""250px"">,</br><b>Kristen</b>","""",34,ConfidenceQuery,Test,"""","""","""",50,null,0,CFD-BF-039-031-N.jpg,Kristen,0,1/27/2021 1:28,67.83.183.0,"Mozilla/5.0 (Windows NT 10.0; Win64; x64) AppleWebKit/537.36 (KHTML, like Gecko) Chrome/87.0.4280.141 Safari/537.36",WebKit,Chrome,87.0.4280.141,Windows,10
108,1,null,"""",html-keyboard-response,211,90565,0.0-211.0,"<div style=""font-size:60px;"">+</div>","""",35,ITI,Test,null,1000,"""","""","""","""","""","""","""",1/27/2021 1:28,67.83.183.0,"Mozilla/5.0 (Windows NT 10.0; Win64; x64) AppleWebKit/537.36 (KHTML, like Gecko) Chrome/87.0.4280.141 Safari/537.36",WebKit,Chrome,87.0.4280.141,Windows,10
108,1,null,"""",image-keyboard-response,212,90825,0.0-212.0,jspsych/scrambledNeutralFaces/scrambledBM35NES.JPG,"""",35,forwardMask,Test,null,250,n,"""","""","""","""","""","""",1/27/2021 1:28,67.83.183.0,"Mozilla/5.0 (Windows NT 10.0; Win64; x64) AppleWebKit/537.36 (KHTML, like Gecko) Chrome/87.0.4280.141 Safari/537.36",WebKit,Chrome,87.0.4280.141,Windows,10
108,1,null,"""",image-keyboard-response,213,90843,0.0-213.0,jspsych/neutralFaces/BM35NES.JPG,"""",35,Cue,Test,null,16,"""","""","""","""","""","""","""",1/27/2021 1:28,67.83.183.0,"Mozilla/5.0 (Windows NT 10.0; Win64; x64) AppleWebKit/537.36 (KHTML, like Gecko) Chrome/87.0.4280.141 Safari/537.36",WebKit,Chrome,87.0.4280.141,Windows,10
108,1,null,"""",image-keyboard-response,214,90946,0.0-214.0,jspsych/neutralFaces/AM17NES.JPG,"""",35,backwardMask,Test,null,100,"""","""","""","""","""","""","""",1/27/2021 1:28,67.83.183.0,"Mozilla/5.0 (Windows NT 10.0; Win64; x64) AppleWebKit/537.36 (KHTML, like Gecko) Chrome/87.0.4280.141 Safari/537.36",WebKit,Chrome,87.0.4280.141,Windows,10
108,1,null,"""",html-keyboard-response,215,91948,0.0-215.0,"<div style=""font-size:60px;"">+</div>","""",35,fixationBtwnNeutralMaskAndPrompt,Test,null,1000,"""","""","""","""","""","""","""",1/27/2021 1:28,67.83.183.0,"Mozilla/5.0 (Windows NT 10.0; Win64; x64) AppleWebKit/537.36 (KHTML, like Gecko) Chrome/87.0.4280.141 Safari/537.36",WebKit,Chrome,87.0.4280.141,Windows,10
108,1,null,"""",html-slider-response,216,92051,0.0-216.0,"<img src='jspsych/CFDfaces/CFD-LF-232-199-N.jpg' height=""250px"">,</br><b>Lindsay</b>","""",35,ConfidenceQuery,Test,"""","""","""",50,null,0,CFD-LF-232-199-N.jpg,Lindsay,0,1/27/2021 1:28,67.83.183.0,"Mozilla/5.0 (Windows NT 10.0; Win64; x64) AppleWebKit/537.36 (KHTML, like Gecko) Chrome/87.0.4280.141 Safari/537.36",WebKit,Chrome,87.0.4280.141,Windows,10
108,1,null,"""",html-keyboard-response,217,93053,0.0-217.0,"<div style=""font-size:60px;"">+</div>","""",36,ITI,Test,null,1000,"""","""","""","""","""","""","""",1/27/2021 1:28,67.83.183.0,"Mozilla/5.0 (Windows NT 10.0; Win64; x64) AppleWebKit/537.36 (KHTML, like Gecko) Chrome/87.0.4280.141 Safari/537.36",WebKit,Chrome,87.0.4280.141,Windows,10
108,1,null,"""",image-keyboard-response,218,93305,0.0-218.0,jspsych/scrambledDisgustFaces/scrambledBF12DIS.JPG,"""",36,forwardMask,Test,null,250,d,"""","""","""","""","""","""",1/27/2021 1:28,67.83.183.0,"Mozilla/5.0 (Windows NT 10.0; Win64; x64) AppleWebKit/537.36 (KHTML, like Gecko) Chrome/87.0.4280.141 Safari/537.36",WebKit,Chrome,87.0.4280.141,Windows,10
108,1,null,"""",image-keyboard-response,219,93329,0.0-219.0,jspsych/disgustFaces/BF12DIS.JPG,"""",36,Cue,Test,null,16,"""","""","""","""","""","""","""",1/27/2021 1:28,67.83.183.0,"Mozilla/5.0 (Windows NT 10.0; Win64; x64) AppleWebKit/537.36 (KHTML, like Gecko) Chrome/87.0.4280.141 Safari/537.36",WebKit,Chrome,87.0.4280.141,Windows,10
108,1,null,"""",image-keyboard-response,220,93431,0.0-220.0,jspsych/neutralFaces/BF34NES.JPG,"""",36,backwardMask,Test,null,100,"""","""","""","""","""","""","""",1/27/2021 1:28,67.83.183.0,"Mozilla/5.0 (Windows NT 10.0; Win64; x64) AppleWebKit/537.36 (KHTML, like Gecko) Chrome/87.0.4280.141 Safari/537.36",WebKit,Chrome,87.0.4280.141,Windows,10
108,1,null,"""",html-keyboard-response,221,94433,0.0-221.0,"<div style=""font-size:60px;"">+</div>","""",36,fixationBtwnNeutralMaskAndPrompt,Test,null,1000,"""","""","""","""","""","""","""",1/27/2021 1:28,67.83.183.0,"Mozilla/5.0 (Windows NT 10.0; Win64; x64) AppleWebKit/537.36 (KHTML, like Gecko) Chrome/87.0.4280.141 Safari/537.36",WebKit,Chrome,87.0.4280.141,Windows,10
108,1,null,"""",html-slider-response,222,94535,0.0-222.0,"<img src='jspsych/CFDfaces/CFD-LM-217-162-N.jpg' height=""250px"">,</br><b>Thomas</b>","""",36,ConfidenceQuery,Test,"""","""","""",50,null,1,CFD-LM-217-162-N.jpg,Thomas,0,1/27/2021 1:28,67.83.183.0,"Mozilla/5.0 (Windows NT 10.0; Win64; x64) AppleWebKit/537.36 (KHTML, like Gecko) Chrome/87.0.4280.141 Safari/537.36",WebKit,Chrome,87.0.4280.141,Windows,10
108,1,null,"""",html-keyboard-response,223,95536,0.0-223.0,"<div style=""font-size:60px;"">+</div>","""",37,ITI,Test,null,1000,"""","""","""","""","""","""","""",1/27/2021 1:28,67.83.183.0,"Mozilla/5.0 (Windows NT 10.0; Win64; x64) AppleWebKit/537.36 (KHTML, like Gecko) Chrome/87.0.4280.141 Safari/537.36",WebKit,Chrome,87.0.4280.141,Windows,10
108,1,null,"""",image-keyboard-response,224,95789,0.0-224.0,jspsych/scrambledNeutralFaces/scrambledAM26NES.JPG,"""",37,forwardMask,Test,null,250,n,"""","""","""","""","""","""",1/27/2021 1:28,67.83.183.0,"Mozilla/5.0 (Windows NT 10.0; Win64; x64) AppleWebKit/537.36 (KHTML, like Gecko) Chrome/87.0.4280.141 Safari/537.36",WebKit,Chrome,87.0.4280.141,Windows,10
108,1,null,"""",image-keyboard-response,225,95808,0.0-225.0,jspsych/neutralFaces/AM26NES.JPG,"""",37,Cue,Test,null,16,"""","""","""","""","""","""","""",1/27/2021 1:28,67.83.183.0,"Mozilla/5.0 (Windows NT 10.0; Win64; x64) AppleWebKit/537.36 (KHTML, like Gecko) Chrome/87.0.4280.141 Safari/537.36",WebKit,Chrome,87.0.4280.141,Windows,10
108,1,null,"""",image-keyboard-response,226,95910,0.0-226.0,jspsych/neutralFaces/BM22NES.JPG,"""",37,backwardMask,Test,null,100,"""","""","""","""","""","""","""",1/27/2021 1:28,67.83.183.0,"Mozilla/5.0 (Windows NT 10.0; Win64; x64) AppleWebKit/537.36 (KHTML, like Gecko) Chrome/87.0.4280.141 Safari/537.36",WebKit,Chrome,87.0.4280.141,Windows,10
108,1,null,"""",html-keyboard-response,227,96912,0.0-227.0,"<div style=""font-size:60px;"">+</div>","""",37,fixationBtwnNeutralMaskAndPrompt,Test,null,1000,"""","""","""","""","""","""","""",1/27/2021 1:28,67.83.183.0,"Mozilla/5.0 (Windows NT 10.0; Win64; x64) AppleWebKit/537.36 (KHTML, like Gecko) Chrome/87.0.4280.141 Safari/537.36",WebKit,Chrome,87.0.4280.141,Windows,10
108,1,null,"""",html-slider-response,228,97017,0.0-228.0,"<img src='jspsych/CFDfaces/CFD-WM-017-002-N.jpg' height=""250px"">,</br><b>Dustin</b>","""",37,ConfidenceQuery,Test,"""","""","""",50,null,1,CFD-WM-017-002-N.jpg,Dustin,0,1/27/2021 1:28,67.83.183.0,"Mozilla/5.0 (Windows NT 10.0; Win64; x64) AppleWebKit/537.36 (KHTML, like Gecko) Chrome/87.0.4280.141 Safari/537.36",WebKit,Chrome,87.0.4280.141,Windows,10
108,1,null,"""",html-keyboard-response,229,98019,0.0-229.0,"<div style=""font-size:60px;"">+</div>","""",38,ITI,Test,null,1000,"""","""","""","""","""","""","""",1/27/2021 1:28,67.83.183.0,"Mozilla/5.0 (Windows NT 10.0; Win64; x64) AppleWebKit/537.36 (KHTML, like Gecko) Chrome/87.0.4280.141 Safari/537.36",WebKit,Chrome,87.0.4280.141,Windows,10
108,1,null,"""",image-keyboard-response,230,98271,0.0-230.0,jspsych/scrambledDisgustFaces/scrambledAF21DIS.JPG,"""",38,forwardMask,Test,null,250,d,"""","""","""","""","""","""",1/27/2021 1:28,67.83.183.0,"Mozilla/5.0 (Windows NT 10.0; Win64; x64) AppleWebKit/537.36 (KHTML, like Gecko) Chrome/87.0.4280.141 Safari/537.36",WebKit,Chrome,87.0.4280.141,Windows,10
108,1,null,"""",image-keyboard-response,231,98290,0.0-231.0,jspsych/disgustFaces/AF21DIS.JPG,"""",38,Cue,Test,null,16,"""","""","""","""","""","""","""",1/27/2021 1:28,67.83.183.0,"Mozilla/5.0 (Windows NT 10.0; Win64; x64) AppleWebKit/537.36 (KHTML, like Gecko) Chrome/87.0.4280.141 Safari/537.36",WebKit,Chrome,87.0.4280.141,Windows,10
108,1,null,"""",image-keyboard-response,232,98392,0.0-232.0,jspsych/neutralFaces/AF32NES.JPG,"""",38,backwardMask,Test,null,100,"""","""","""","""","""","""","""",1/27/2021 1:28,67.83.183.0,"Mozilla/5.0 (Windows NT 10.0; Win64; x64) AppleWebKit/537.36 (KHTML, like Gecko) Chrome/87.0.4280.141 Safari/537.36",WebKit,Chrome,87.0.4280.141,Windows,10
108,1,null,"""",html-keyboard-response,233,99394,0.0-233.0,"<div style=""font-size:60px;"">+</div>","""",38,fixationBtwnNeutralMaskAndPrompt,Test,null,1000,"""","""","""","""","""","""","""",1/27/2021 1:28,67.83.183.0,"Mozilla/5.0 (Windows NT 10.0; Win64; x64) AppleWebKit/537.36 (KHTML, like Gecko) Chrome/87.0.4280.141 Safari/537.36",WebKit,Chrome,87.0.4280.141,Windows,10
108,1,null,"""",html-slider-response,234,99497,0.0-234.0,"<img src='jspsych/CFDfaces/CFD-AF-243-170-N.jpg' height=""250px"">,</br><b>Maria</b>","""",38,ConfidenceQuery,Test,"""","""","""",50,null,0,CFD-AF-243-170-N.jpg,Maria,0,1/27/2021 1:28,67.83.183.0,"Mozilla/5.0 (Windows NT 10.0; Win64; x64) AppleWebKit/537.36 (KHTML, like Gecko) Chrome/87.0.4280.141 Safari/537.36",WebKit,Chrome,87.0.4280.141,Windows,10
108,1,null,"""",html-keyboard-response,235,100498,0.0-235.0,"<div style=""font-size:60px;"">+</div>","""",39,ITI,Test,null,1000,"""","""","""","""","""","""","""",1/27/2021 1:28,67.83.183.0,"Mozilla/5.0 (Windows NT 10.0; Win64; x64) AppleWebKit/537.36 (KHTML, like Gecko) Chrome/87.0.4280.141 Safari/537.36",WebKit,Chrome,87.0.4280.141,Windows,10
108,1,null,"""",image-keyboard-response,236,100754,0.0-236.0,jspsych/scrambledDisgustFaces/scrambledBM05DIS.JPG,"""",39,forwardMask,Test,null,250,d,"""","""","""","""","""","""",1/27/2021 1:28,67.83.183.0,"Mozilla/5.0 (Windows NT 10.0; Win64; x64) AppleWebKit/537.36 (KHTML, like Gecko) Chrome/87.0.4280.141 Safari/537.36",WebKit,Chrome,87.0.4280.141,Windows,10
108,1,null,"""",image-keyboard-response,237,100773,0.0-237.0,jspsych/disgustFaces/BM06DIS.JPG,"""",39,Cue,Test,null,16,"""","""","""","""","""","""","""",1/27/2021 1:28,67.83.183.0,"Mozilla/5.0 (Windows NT 10.0; Win64; x64) AppleWebKit/537.36 (KHTML, like Gecko) Chrome/87.0.4280.141 Safari/537.36",WebKit,Chrome,87.0.4280.141,Windows,10
108,1,null,"""",image-keyboard-response,238,100875,0.0-238.0,jspsych/neutralFaces/AM08NES.JPG,"""",39,backwardMask,Test,null,100,"""","""","""","""","""","""","""",1/27/2021 1:28,67.83.183.0,"Mozilla/5.0 (Windows NT 10.0; Win64; x64) AppleWebKit/537.36 (KHTML, like Gecko) Chrome/87.0.4280.141 Safari/537.36",WebKit,Chrome,87.0.4280.141,Windows,10
108,1,null,"""",html-keyboard-response,239,101877,0.0-239.0,"<div style=""font-size:60px;"">+</div>","""",39,fixationBtwnNeutralMaskAndPrompt,Test,null,1000,"""","""","""","""","""","""","""",1/27/2021 1:28,67.83.183.0,"Mozilla/5.0 (Windows NT 10.0; Win64; x64) AppleWebKit/537.36 (KHTML, like Gecko) Chrome/87.0.4280.141 Safari/537.36",WebKit,Chrome,87.0.4280.141,Windows,10
108,1,null,"""",html-slider-response,240,101979,0.0-240.0,"<img src='jspsych/CFDfaces/CFD-AM-212-050-N.jpg' height=""250px"">,</br><b>Christian</b>","""",39,ConfidenceQuery,Test,"""","""","""",50,null,1,CFD-AM-212-050-N.jpg,Christian,0,1/27/2021 1:28,67.83.183.0,"Mozilla/5.0 (Windows NT 10.0; Win64; x64) AppleWebKit/537.36 (KHTML, like Gecko) Chrome/87.0.4280.141 Safari/537.36",WebKit,Chrome,87.0.4280.141,Windows,10
108,1,null,"""",html-keyboard-response,241,102981,0.0-241.0,"<div style=""font-size:60px;"">+</div>","""",40,ITI,Test,null,1000,"""","""","""","""","""","""","""",1/27/2021 1:28,67.83.183.0,"Mozilla/5.0 (Windows NT 10.0; Win64; x64) AppleWebKit/537.36 (KHTML, like Gecko) Chrome/87.0.4280.141 Safari/537.36",WebKit,Chrome,87.0.4280.141,Windows,10
108,1,null,"""",image-keyboard-response,242,103234,0.0-242.0,jspsych/scrambledNeutralFaces/scrambledBF35NES.JPG,"""",40,forwardMask,Test,null,250,n,"""","""","""","""","""","""",1/27/2021 1:28,67.83.183.0,"Mozilla/5.0 (Windows NT 10.0; Win64; x64) AppleWebKit/537.36 (KHTML, like Gecko) Chrome/87.0.4280.141 Safari/537.36",WebKit,Chrome,87.0.4280.141,Windows,10
108,1,null,"""",image-keyboard-response,243,103259,0.0-243.0,jspsych/neutralFaces/BF35NES.JPG,"""",40,Cue,Test,null,16,"""","""","""","""","""","""","""",1/27/2021 1:28,67.83.183.0,"Mozilla/5.0 (Windows NT 10.0; Win64; x64) AppleWebKit/537.36 (KHTML, like Gecko) Chrome/87.0.4280.141 Safari/537.36",WebKit,Chrome,87.0.4280.141,Windows,10
108,1,null,"""",image-keyboard-response,244,103361,0.0-244.0,jspsych/neutralFaces/AF10NES.JPG,"""",40,backwardMask,Test,null,100,"""","""","""","""","""","""","""",1/27/2021 1:28,67.83.183.0,"Mozilla/5.0 (Windows NT 10.0; Win64; x64) AppleWebKit/537.36 (KHTML, like Gecko) Chrome/87.0.4280.141 Safari/537.36",WebKit,Chrome,87.0.4280.141,Windows,10
108,1,null,"""",html-keyboard-response,245,104363,0.0-245.0,"<div style=""font-size:60px;"">+</div>","""",40,fixationBtwnNeutralMaskAndPrompt,Test,null,1000,"""","""","""","""","""","""","""",1/27/2021 1:28,67.83.183.0,"Mozilla/5.0 (Windows NT 10.0; Win64; x64) AppleWebKit/537.36 (KHTML, like Gecko) Chrome/87.0.4280.141 Safari/537.36",WebKit,Chrome,87.0.4280.141,Windows,10
108,1,null,"""",html-slider-response,246,104466,0.0-246.0,"<img src='jspsych/CFDfaces/CFD-AF-215-70-N.jpg' height=""250px"">,</br><b>Kayla</b>","""",40,ConfidenceQuery,Test,"""","""","""",50,null,1,CFD-AF-215-70-N.jpg,Kayla,0,1/27/2021 1:28,67.83.183.0,"Mozilla/5.0 (Windows NT 10.0; Win64; x64) AppleWebKit/537.36 (KHTML, like Gecko) Chrome/87.0.4280.141 Safari/537.36",WebKit,Chrome,87.0.4280.141,Windows,10
108,1,null,"""",html-keyboard-response,247,105467,0.0-247.0,"<div style=""font-size:60px;"">+</div>","""",41,ITI,Test,null,1000,"""","""","""","""","""","""","""",1/27/2021 1:28,67.83.183.0,"Mozilla/5.0 (Windows NT 10.0; Win64; x64) AppleWebKit/537.36 (KHTML, like Gecko) Chrome/87.0.4280.141 Safari/537.36",WebKit,Chrome,87.0.4280.141,Windows,10
108,1,null,"""",image-keyboard-response,248,105720,0.0-248.0,jspsych/scrambledNeutralFaces/scrambledAM03NES.JPG,"""",41,forwardMask,Test,null,250,n,"""","""","""","""","""","""",1/27/2021 1:28,67.83.183.0,"Mozilla/5.0 (Windows NT 10.0; Win64; x64) AppleWebKit/537.36 (KHTML, like Gecko) Chrome/87.0.4280.141 Safari/537.36",WebKit,Chrome,87.0.4280.141,Windows,10
108,1,null,"""",image-keyboard-response,249,105738,0.0-249.0,jspsych/neutralFaces/AM03NES.JPG,"""",41,Cue,Test,null,16,"""","""","""","""","""","""","""",1/27/2021 1:28,67.83.183.0,"Mozilla/5.0 (Windows NT 10.0; Win64; x64) AppleWebKit/537.36 (KHTML, like Gecko) Chrome/87.0.4280.141 Safari/537.36",WebKit,Chrome,87.0.4280.141,Windows,10
108,1,null,"""",image-keyboard-response,250,105841,0.0-250.0,jspsych/neutralFaces/AM15NES.JPG,"""",41,backwardMask,Test,null,100,"""","""","""","""","""","""","""",1/27/2021 1:28,67.83.183.0,"Mozilla/5.0 (Windows NT 10.0; Win64; x64) AppleWebKit/537.36 (KHTML, like Gecko) Chrome/87.0.4280.141 Safari/537.36",WebKit,Chrome,87.0.4280.141,Windows,10
108,1,null,"""",html-keyboard-response,251,106843,0.0-251.0,"<div style=""font-size:60px;"">+</div>","""",41,fixationBtwnNeutralMaskAndPrompt,Test,null,1000,"""","""","""","""","""","""","""",1/27/2021 1:28,67.83.183.0,"Mozilla/5.0 (Windows NT 10.0; Win64; x64) AppleWebKit/537.36 (KHTML, like Gecko) Chrome/87.0.4280.141 Safari/537.36",WebKit,Chrome,87.0.4280.141,Windows,10
108,1,null,"""",html-slider-response,252,106949,0.0-252.0,"<img src='jspsych/CFDfaces/CFD-AF-220-107-N.jpg' height=""250px"">,</br><b>Elizabeth</b>","""",41,ConfidenceQuery,Test,"""","""","""",50,null,0,CFD-AF-220-107-N.jpg,Elizabeth,0,1/27/2021 1:28,67.83.183.0,"Mozilla/5.0 (Windows NT 10.0; Win64; x64) AppleWebKit/537.36 (KHTML, like Gecko) Chrome/87.0.4280.141 Safari/537.36",WebKit,Chrome,87.0.4280.141,Windows,10
108,1,null,"""",html-keyboard-response,253,107951,0.0-253.0,"<div style=""font-size:60px;"">+</div>","""",42,ITI,Test,null,1000,"""","""","""","""","""","""","""",1/27/2021 1:28,67.83.183.0,"Mozilla/5.0 (Windows NT 10.0; Win64; x64) AppleWebKit/537.36 (KHTML, like Gecko) Chrome/87.0.4280.141 Safari/537.36",WebKit,Chrome,87.0.4280.141,Windows,10
108,1,null,"""",image-keyboard-response,254,108204,0.0-254.0,jspsych/scrambledDisgustFaces/scrambledBF07DIS.JPG,"""",42,forwardMask,Test,null,250,d,"""","""","""","""","""","""",1/27/2021 1:28,67.83.183.0,"Mozilla/5.0 (Windows NT 10.0; Win64; x64) AppleWebKit/537.36 (KHTML, like Gecko) Chrome/87.0.4280.141 Safari/537.36",WebKit,Chrome,87.0.4280.141,Windows,10
108,1,null,"""",image-keyboard-response,255,108222,0.0-255.0,jspsych/disgustFaces/BF07DIS.JPG,"""",42,Cue,Test,null,16,"""","""","""","""","""","""","""",1/27/2021 1:28,67.83.183.0,"Mozilla/5.0 (Windows NT 10.0; Win64; x64) AppleWebKit/537.36 (KHTML, like Gecko) Chrome/87.0.4280.141 Safari/537.36",WebKit,Chrome,87.0.4280.141,Windows,10
108,1,null,"""",image-keyboard-response,256,108324,0.0-256.0,jspsych/neutralFaces/AF08NES.JPG,"""",42,backwardMask,Test,null,100,"""","""","""","""","""","""","""",1/27/2021 1:28,67.83.183.0,"Mozilla/5.0 (Windows NT 10.0; Win64; x64) AppleWebKit/537.36 (KHTML, like Gecko) Chrome/87.0.4280.141 Safari/537.36",WebKit,Chrome,87.0.4280.141,Windows,10
108,1,null,"""",html-keyboard-response,257,109326,0.0-257.0,"<div style=""font-size:60px;"">+</div>","""",42,fixationBtwnNeutralMaskAndPrompt,Test,null,1000,"""","""","""","""","""","""","""",1/27/2021 1:28,67.83.183.0,"Mozilla/5.0 (Windows NT 10.0; Win64; x64) AppleWebKit/537.36 (KHTML, like Gecko) Chrome/87.0.4280.141 Safari/537.36",WebKit,Chrome,87.0.4280.141,Windows,10
108,1,null,"""",html-slider-response,258,109429,0.0-258.0,"<img src='jspsych/CFDfaces/CFD-BF-218-207-N.jpg' height=""250px"">,</br><b>Katie</b>","""",42,ConfidenceQuery,Test,"""","""","""",50,null,1,CFD-BF-218-207-N.jpg,Katie,0,1/27/2021 1:28,67.83.183.0,"Mozilla/5.0 (Windows NT 10.0; Win64; x64) AppleWebKit/537.36 (KHTML, like Gecko) Chrome/87.0.4280.141 Safari/537.36",WebKit,Chrome,87.0.4280.141,Windows,10
108,1,null,"""",html-keyboard-response,259,110431,0.0-259.0,"<div style=""font-size:60px;"">+</div>","""",43,ITI,Test,null,1000,"""","""","""","""","""","""","""",1/27/2021 1:28,67.83.183.0,"Mozilla/5.0 (Windows NT 10.0; Win64; x64) AppleWebKit/537.36 (KHTML, like Gecko) Chrome/87.0.4280.141 Safari/537.36",WebKit,Chrome,87.0.4280.141,Windows,10
108,1,null,"""",image-keyboard-response,260,110690,0.0-260.0,jspsych/scrambledDisgustFaces/scrambledBM05DIS.JPG,"""",43,forwardMask,Test,null,250,d,"""","""","""","""","""","""",1/27/2021 1:28,67.83.183.0,"Mozilla/5.0 (Windows NT 10.0; Win64; x64) AppleWebKit/537.36 (KHTML, like Gecko) Chrome/87.0.4280.141 Safari/537.36",WebKit,Chrome,87.0.4280.141,Windows,10
108,1,null,"""",image-keyboard-response,261,110709,0.0-261.0,jspsych/disgustFaces/BM06DIS.JPG,"""",43,Cue,Test,null,16,"""","""","""","""","""","""","""",1/27/2021 1:28,67.83.183.0,"Mozilla/5.0 (Windows NT 10.0; Win64; x64) AppleWebKit/537.36 (KHTML, like Gecko) Chrome/87.0.4280.141 Safari/537.36",WebKit,Chrome,87.0.4280.141,Windows,10
108,1,null,"""",image-keyboard-response,262,110811,0.0-262.0,jspsych/neutralFaces/BM25NES.JPG,"""",43,backwardMask,Test,null,100,"""","""","""","""","""","""","""",1/27/2021 1:28,67.83.183.0,"Mozilla/5.0 (Windows NT 10.0; Win64; x64) AppleWebKit/537.36 (KHTML, like Gecko) Chrome/87.0.4280.141 Safari/537.36",WebKit,Chrome,87.0.4280.141,Windows,10
108,1,null,"""",html-keyboard-response,263,111812,0.0-263.0,"<div style=""font-size:60px;"">+</div>","""",43,fixationBtwnNeutralMaskAndPrompt,Test,null,1000,"""","""","""","""","""","""","""",1/27/2021 1:28,67.83.183.0,"Mozilla/5.0 (Windows NT 10.0; Win64; x64) AppleWebKit/537.36 (KHTML, like Gecko) Chrome/87.0.4280.141 Safari/537.36",WebKit,Chrome,87.0.4280.141,Windows,10
108,1,null,"""",html-slider-response,264,111916,0.0-264.0,"<img src='jspsych/CFDfaces/CFD-LM-223-175-N.jpg' height=""250px"">,</br><b>Aaron</b>","""",43,ConfidenceQuery,Test,"""","""","""",50,null,1,CFD-LM-223-175-N.jpg,Aaron,0,1/27/2021 1:28,67.83.183.0,"Mozilla/5.0 (Windows NT 10.0; Win64; x64) AppleWebKit/537.36 (KHTML, like Gecko) Chrome/87.0.4280.141 Safari/537.36",WebKit,Chrome,87.0.4280.141,Windows,10
108,1,null,"""",html-keyboard-response,265,112918,0.0-265.0,"<div style=""font-size:60px;"">+</div>","""",44,ITI,Test,null,1000,"""","""","""","""","""","""","""",1/27/2021 1:28,67.83.183.0,"Mozilla/5.0 (Windows NT 10.0; Win64; x64) AppleWebKit/537.36 (KHTML, like Gecko) Chrome/87.0.4280.141 Safari/537.36",WebKit,Chrome,87.0.4280.141,Windows,10
108,1,null,"""",image-keyboard-response,266,113172,0.0-266.0,jspsych/scrambledNeutralFaces/scrambledAF34NES.JPG,"""",44,forwardMask,Test,null,250,n,"""","""","""","""","""","""",1/27/2021 1:28,67.83.183.0,"Mozilla/5.0 (Windows NT 10.0; Win64; x64) AppleWebKit/537.36 (KHTML, like Gecko) Chrome/87.0.4280.141 Safari/537.36",WebKit,Chrome,87.0.4280.141,Windows,10
108,1,null,"""",image-keyboard-response,267,113197,0.0-267.0,jspsych/neutralFaces/AF34NES.JPG,"""",44,Cue,Test,null,16,"""","""","""","""","""","""","""",1/27/2021 1:28,67.83.183.0,"Mozilla/5.0 (Windows NT 10.0; Win64; x64) AppleWebKit/537.36 (KHTML, like Gecko) Chrome/87.0.4280.141 Safari/537.36",WebKit,Chrome,87.0.4280.141,Windows,10
108,1,null,"""",image-keyboard-response,268,113299,0.0-268.0,jspsych/neutralFaces/AF04NES.JPG,"""",44,backwardMask,Test,null,100,"""","""","""","""","""","""","""",1/27/2021 1:28,67.83.183.0,"Mozilla/5.0 (Windows NT 10.0; Win64; x64) AppleWebKit/537.36 (KHTML, like Gecko) Chrome/87.0.4280.141 Safari/537.36",WebKit,Chrome,87.0.4280.141,Windows,10
108,1,null,"""",html-keyboard-response,269,114301,0.0-269.0,"<div style=""font-size:60px;"">+</div>","""",44,fixationBtwnNeutralMaskAndPrompt,Test,null,1000,"""","""","""","""","""","""","""",1/27/2021 1:28,67.83.183.0,"Mozilla/5.0 (Windows NT 10.0; Win64; x64) AppleWebKit/537.36 (KHTML, like Gecko) Chrome/87.0.4280.141 Safari/537.36",WebKit,Chrome,87.0.4280.141,Windows,10
108,1,null,"""",html-slider-response,270,114404,0.0-270.0,"<img src='jspsych/CFDfaces/CFD-BM-017-021-N.jpg' height=""250px"">,</br><b>Charles</b>","""",44,ConfidenceQuery,Test,"""","""","""",50,null,1,CFD-BM-017-021-N.jpg,Charles,0,1/27/2021 1:28,67.83.183.0,"Mozilla/5.0 (Windows NT 10.0; Win64; x64) AppleWebKit/537.36 (KHTML, like Gecko) Chrome/87.0.4280.141 Safari/537.36",WebKit,Chrome,87.0.4280.141,Windows,10
108,1,null,"""",html-keyboard-response,271,115405,0.0-271.0,"<div style=""font-size:60px;"">+</div>","""",45,ITI,Test,null,1000,"""","""","""","""","""","""","""",1/27/2021 1:28,67.83.183.0,"Mozilla/5.0 (Windows NT 10.0; Win64; x64) AppleWebKit/537.36 (KHTML, like Gecko) Chrome/87.0.4280.141 Safari/537.36",WebKit,Chrome,87.0.4280.141,Windows,10
108,1,null,"""",image-keyboard-response,272,115658,0.0-272.0,jspsych/scrambledDisgustFaces/scrambledBM31DIS.JPG,"""",45,forwardMask,Test,null,250,d,"""","""","""","""","""","""",1/27/2021 1:28,67.83.183.0,"Mozilla/5.0 (Windows NT 10.0; Win64; x64) AppleWebKit/537.36 (KHTML, like Gecko) Chrome/87.0.4280.141 Safari/537.36",WebKit,Chrome,87.0.4280.141,Windows,10
108,1,null,"""",image-keyboard-response,273,115677,0.0-273.0,jspsych/disgustFaces/BM32DIS.JPG,"""",45,Cue,Test,null,16,"""","""","""","""","""","""","""",1/27/2021 1:28,67.83.183.0,"Mozilla/5.0 (Windows NT 10.0; Win64; x64) AppleWebKit/537.36 (KHTML, like Gecko) Chrome/87.0.4280.141 Safari/537.36",WebKit,Chrome,87.0.4280.141,Windows,10
108,1,null,"""",image-keyboard-response,274,115778,0.0-274.0,jspsych/neutralFaces/BM12NES.JPG,"""",45,backwardMask,Test,null,100,"""","""","""","""","""","""","""",1/27/2021 1:28,67.83.183.0,"Mozilla/5.0 (Windows NT 10.0; Win64; x64) AppleWebKit/537.36 (KHTML, like Gecko) Chrome/87.0.4280.141 Safari/537.36",WebKit,Chrome,87.0.4280.141,Windows,10
