run_id,condition,rt,responses,trial_type,trial_index,time_elapsed,internal_node_id,question_order,stimulus,button_pressed,iTrial,Phase,ExperimentPhase,key_press,StimulusDurationSetting,CharacterResponse,correctResponse,Face,Name,rearranged,didSubjectEnterRearranged,slider_start,response,Block,recorded_at,ip,user_agent,device,browser,browser_version,platform,platform_version
1,1,4348,"{""Q0"":""Sameer""}",survey-text,0,4355,0.0-0.0,"""","""","""","""","""","""","""","""","""","""","""","""","""","""","""","""","""",5/3/2021 3:03,67.83.183.0,Mozilla/5.0 (Windows NT 10.0; Win64; x64; rv:87.0) Gecko/20100101 Firefox/87.0,,Firefox,87,Windows,10
1,1,2261,"{""Q0"":""26""}",survey-text,1,6631,0.0-1.0,"""","""","""","""","""","""","""","""","""","""","""","""","""","""","""","""","""",5/3/2021 3:03,67.83.183.0,Mozilla/5.0 (Windows NT 10.0; Win64; x64; rv:87.0) Gecko/20100101 Firefox/87.0,,Firefox,87,Windows,10
1,1,5897,"{""Q0"":""male"",""Q1"":""Hispanic/Latino"",""Q2"":""Asian""}",survey-multi-choice,2,12533,0.0-2.0,"[0,1,2]","""","""","""","""","""","""","""","""","""","""","""","""","""","""","""","""",5/3/2021 3:03,67.83.183.0,Mozilla/5.0 (Windows NT 10.0; Win64; x64; rv:87.0) Gecko/20100101 Firefox/87.0,,Firefox,87,Windows,10
1,1,2551,"""",image-button-response,3,15176,0.0-3.0,"""",directionsMemoryAssociation1.JPG,0,1,IntroDirections1,break,"""","""","""","""","""","""","""","""","""","""","""",5/3/2021 3:03,67.83.183.0,Mozilla/5.0 (Windows NT 10.0; Win64; x64; rv:87.0) Gecko/20100101 Firefox/87.0,,Firefox,87,Windows,10
1,1,603,"""",image-button-response,4,15792,0.0-4.0,"""",directionsMemoryAssociation2.JPG,0,1,IntroDirections2,break,"""","""","""","""","""","""","""","""","""","""","""",5/3/2021 3:03,67.83.183.0,Mozilla/5.0 (Windows NT 10.0; Win64; x64; rv:87.0) Gecko/20100101 Firefox/87.0,,Firefox,87,Windows,10
1,1,null,"""",html-keyboard-response,5,16795,0.0-5.0,"""","<img src='jspsych/CFDfaces/CFD-BF-201-080-N.jpg' height=""250px"">,</br><b>Katelyn</b>","""",1,IntactFace,Practice,null,1000,"""","""","""","""","""","""","""","""","""",5/3/2021 3:03,67.83.183.0,Mozilla/5.0 (Windows NT 10.0; Win64; x64; rv:87.0) Gecko/20100101 Firefox/87.0,,Firefox,87,Windows,10
1,1,null,"""",html-keyboard-response,6,17306,0.0-6.0,"""","<div style=""font-size:60px;"">+</div>","""",1,ITI,Practice,null,5,"""","""","""","""","""","""","""","""","""",5/3/2021 3:03,67.83.183.0,Mozilla/5.0 (Windows NT 10.0; Win64; x64; rv:87.0) Gecko/20100101 Firefox/87.0,,Firefox,87,Windows,10
1,1,510,"""",html-keyboard-response,7,18322,0.0-7.0,"""","<img src='jspsych/CFDfaces/CFD-BF-009-002-N.jpg' height=""250px"">,</br><b>Cassandra</b>","""",2,IntactFace,Practice,70,1000,f,"""","""","""","""","""","""","""","""",5/3/2021 3:03,67.83.183.0,Mozilla/5.0 (Windows NT 10.0; Win64; x64; rv:87.0) Gecko/20100101 Firefox/87.0,,Firefox,87,Windows,10
1,1,null,"""",html-keyboard-response,8,18832,0.0-8.0,"""","<div style=""font-size:60px;"">+</div>","""",2,ITI,Practice,null,5,"""","""","""","""","""","""","""","""","""",5/3/2021 3:03,67.83.183.0,Mozilla/5.0 (Windows NT 10.0; Win64; x64; rv:87.0) Gecko/20100101 Firefox/87.0,,Firefox,87,Windows,10
1,1,452,"""",html-keyboard-response,9,19836,0.0-9.0,"""","<img src='jspsych/CFDfaces/CFD-LF-243-175-N.jpg' height=""250px"">,</br><b>Shannon</b>","""",3,IntactFace,Practice,70,1000,f,"""","""","""","""","""","""","""","""",5/3/2021 3:03,67.83.183.0,Mozilla/5.0 (Windows NT 10.0; Win64; x64; rv:87.0) Gecko/20100101 Firefox/87.0,,Firefox,87,Windows,10
1,1,null,"""",html-keyboard-response,10,20342,0.0-10.0,"""","<div style=""font-size:60px;"">+</div>","""",3,ITI,Practice,null,5,"""","""","""","""","""","""","""","""","""",5/3/2021 3:03,67.83.183.0,Mozilla/5.0 (Windows NT 10.0; Win64; x64; rv:87.0) Gecko/20100101 Firefox/87.0,,Firefox,87,Windows,10
1,1,305,"""",html-keyboard-response,11,21348,0.0-11.0,"""","<img src='jspsych/CFDfaces/CFD-AM-202-079-N.jpg' height=""250px"">,</br><b>Carlos</b>","""",4,IntactFace,Practice,70,1000,f,"""","""","""","""","""","""","""","""",5/3/2021 3:03,67.83.183.0,Mozilla/5.0 (Windows NT 10.0; Win64; x64; rv:87.0) Gecko/20100101 Firefox/87.0,,Firefox,87,Windows,10
1,1,null,"""",html-keyboard-response,12,21851,0.0-12.0,"""","<div style=""font-size:60px;"">+</div>","""",4,ITI,Practice,null,5,"""","""","""","""","""","""","""","""","""",5/3/2021 3:03,67.83.183.0,Mozilla/5.0 (Windows NT 10.0; Win64; x64; rv:87.0) Gecko/20100101 Firefox/87.0,,Firefox,87,Windows,10
1,1,null,"""",html-keyboard-response,13,22867,0.0-13.0,"""","<img src='jspsych/CFDfaces/CFD-WM-041-021-N.jpg' height=""250px"">,</br><b>Patrick</b>","""",5,IntactFace,Practice,null,1000,"""","""","""","""","""","""","""","""","""",5/3/2021 3:03,67.83.183.0,Mozilla/5.0 (Windows NT 10.0; Win64; x64; rv:87.0) Gecko/20100101 Firefox/87.0,,Firefox,87,Windows,10
1,1,null,"""",html-keyboard-response,14,23383,0.0-14.0,"""","<div style=""font-size:60px;"">+</div>","""",5,ITI,Practice,null,5,"""","""","""","""","""","""","""","""","""",5/3/2021 3:03,67.83.183.0,Mozilla/5.0 (Windows NT 10.0; Win64; x64; rv:87.0) Gecko/20100101 Firefox/87.0,,Firefox,87,Windows,10
1,1,null,"""",html-keyboard-response,15,24402,0.0-15.0,"""","<img src='jspsych/CFDfaces/CFD-AM-214-168-N.jpg' height=""250px"">,</br><b>Samuel</b>","""",6,IntactFace,Practice,null,1000,"""","""","""","""","""","""","""","""","""",5/3/2021 3:03,67.83.183.0,Mozilla/5.0 (Windows NT 10.0; Win64; x64; rv:87.0) Gecko/20100101 Firefox/87.0,,Firefox,87,Windows,10
1,1,null,"""",html-keyboard-response,16,24912,0.0-16.0,"""","<div style=""font-size:60px;"">+</div>","""",6,ITI,Practice,null,5,"""","""","""","""","""","""","""","""","""",5/3/2021 3:03,67.83.183.0,Mozilla/5.0 (Windows NT 10.0; Win64; x64; rv:87.0) Gecko/20100101 Firefox/87.0,,Firefox,87,Windows,10
1,1,null,"""",html-keyboard-response,17,25922,0.0-17.0,"""","<img src='jspsych/CFDfaces/CFD-WF-202-056-N.jpg' height=""250px"">,</br><b>Tara</b>","""",7,IntactFace,Practice,null,1000,"""","""","""","""","""","""","""","""","""",5/3/2021 3:03,67.83.183.0,Mozilla/5.0 (Windows NT 10.0; Win64; x64; rv:87.0) Gecko/20100101 Firefox/87.0,,Firefox,87,Windows,10
1,1,null,"""",html-keyboard-response,18,26430,0.0-18.0,"""","<div style=""font-size:60px;"">+</div>","""",7,ITI,Practice,null,5,"""","""","""","""","""","""","""","""","""",5/3/2021 3:03,67.83.183.0,Mozilla/5.0 (Windows NT 10.0; Win64; x64; rv:87.0) Gecko/20100101 Firefox/87.0,,Firefox,87,Windows,10
1,1,null,"""",html-keyboard-response,19,27445,0.0-19.0,"""","<img src='jspsych/CFDfaces/CFD-AM-242-176-N.jpg' height=""250px"">,</br><b>Marcus</b>","""",8,IntactFace,Practice,null,1000,"""","""","""","""","""","""","""","""","""",5/3/2021 3:03,67.83.183.0,Mozilla/5.0 (Windows NT 10.0; Win64; x64; rv:87.0) Gecko/20100101 Firefox/87.0,,Firefox,87,Windows,10
1,1,null,"""",html-keyboard-response,20,27951,0.0-20.0,"""","<div style=""font-size:60px;"">+</div>","""",8,ITI,Practice,null,5,"""","""","""","""","""","""","""","""","""",5/3/2021 3:03,67.83.183.0,Mozilla/5.0 (Windows NT 10.0; Win64; x64; rv:87.0) Gecko/20100101 Firefox/87.0,,Firefox,87,Windows,10
1,1,2711,"""",image-button-response,21,30671,0.0-21.0,"""",directionsForTest.JPG,0,1,directionsForTest,break,"""","""","""","""","""","""","""","""","""","""","""",5/3/2021 3:03,67.83.183.0,Mozilla/5.0 (Windows NT 10.0; Win64; x64; rv:87.0) Gecko/20100101 Firefox/87.0,,Firefox,87,Windows,10
1,1,866,"""",image-button-response,22,31548,0.0-22.0,"""",directionsForTest2.JPG,0,1,directionsForTest2,break,"""","""","""","""","""","""","""","""","""","""","""",5/3/2021 3:03,67.83.183.0,Mozilla/5.0 (Windows NT 10.0; Win64; x64; rv:87.0) Gecko/20100101 Firefox/87.0,,Firefox,87,Windows,10
1,1,null,"""",html-keyboard-response,23,31560,0.0-23.0,"""","<div style=""font-size:60px;"">+</div>","""",1,ITI,Practice,null,5,"""","""","""","""","""","""","""","""","""",5/3/2021 3:03,67.83.183.0,Mozilla/5.0 (Windows NT 10.0; Win64; x64; rv:87.0) Gecko/20100101 Firefox/87.0,,Firefox,87,Windows,10
1,1,null,"""",image-keyboard-response,24,31668,0.0-24.0,"""",jspsych/scrambledDisgustFaces/scrambledAM05DIS.JPG,"""",1,forwardMask,Practice,null,100,"""",d,"""","""","""","""","""","""","""",5/3/2021 3:03,67.83.183.0,Mozilla/5.0 (Windows NT 10.0; Win64; x64; rv:87.0) Gecko/20100101 Firefox/87.0,,Firefox,87,Windows,10
1,1,null,"""",image-keyboard-response,25,33672,0.0-25.0,"""",jspsych/disgustFaces/AM05DIS.JPG,"""",1,Cue,Practice,null,2000,"""","""","""","""","""","""","""","""","""",5/3/2021 3:03,67.83.183.0,Mozilla/5.0 (Windows NT 10.0; Win64; x64; rv:87.0) Gecko/20100101 Firefox/87.0,,Firefox,87,Windows,10
1,1,null,"""",image-keyboard-response,26,33781,0.0-26.0,"""",jspsych/neutralFaces/BM03NES.JPG,"""",1,backwardMask,Practice,null,100,"""","""","""","""","""","""","""","""","""",5/3/2021 3:03,67.83.183.0,Mozilla/5.0 (Windows NT 10.0; Win64; x64; rv:87.0) Gecko/20100101 Firefox/87.0,,Firefox,87,Windows,10
1,1,null,"""",html-keyboard-response,27,33984,0.0-27.0,"""","<div style=""font-size:60px;"">+</div>","""",1,fixationBtwnNeutralMaskAndPrompt,Practice,null,200,"""","""","""","""","""","""","""","""","""",5/3/2021 3:03,67.83.183.0,Mozilla/5.0 (Windows NT 10.0; Win64; x64; rv:87.0) Gecko/20100101 Firefox/87.0,,Firefox,87,Windows,10
1,1,2451,"""",html-button-response,28,36438,0.0-28.0,"""","<img src='jspsych/CFDfaces/CFD-BF-201-080-N.jpg'height=""250px""></br><b>Cassandra</b>",0,1,IntactOrRearranged,Practice,"""","""","""","""",CFD-BF-201-080-N.jpg,Cassandra,1,0,"""","""","""",5/3/2021 3:03,67.83.183.0,Mozilla/5.0 (Windows NT 10.0; Win64; x64; rv:87.0) Gecko/20100101 Firefox/87.0,,Firefox,87,Windows,10
1,1,1297,"""",html-slider-response,29,37772,0.0-29.0,"""","<img src='jspsych/CFDfaces/CFD-BF-201-080-N.jpg'height=""250px""></br><b>Cassandra</b>","""",1,ConfidenceQuery,Practice,"""","""","""","""",CFD-LM-219-295-N.jpg,Jacob,1,"""",0,0,"""",5/3/2021 3:03,67.83.183.0,Mozilla/5.0 (Windows NT 10.0; Win64; x64; rv:87.0) Gecko/20100101 Firefox/87.0,,Firefox,87,Windows,10
1,1,1711,"""",html-button-response,30,39484,0.0-30.0,"""",You are Incorrect. You called a Rearranged Pair Intact,0,1,feedback,Practice,"""","""","""","""","""","""","""","""","""","""","""",5/3/2021 3:03,67.83.183.0,Mozilla/5.0 (Windows NT 10.0; Win64; x64; rv:87.0) Gecko/20100101 Firefox/87.0,,Firefox,87,Windows,10
1,1,null,"""",html-keyboard-response,31,39498,0.0-31.0,"""","<div style=""font-size:60px;"">+</div>","""",2,ITI,Practice,null,5,"""","""","""","""","""","""","""","""","""",5/3/2021 3:03,67.83.183.0,Mozilla/5.0 (Windows NT 10.0; Win64; x64; rv:87.0) Gecko/20100101 Firefox/87.0,,Firefox,87,Windows,10
1,1,null,"""",image-keyboard-response,32,39610,0.0-32.0,"""",jspsych/scrambledNeutralFaces/scrambledBM08NES.JPG,"""",2,forwardMask,Practice,null,100,"""",n,"""","""","""","""","""","""","""",5/3/2021 3:03,67.83.183.0,Mozilla/5.0 (Windows NT 10.0; Win64; x64; rv:87.0) Gecko/20100101 Firefox/87.0,,Firefox,87,Windows,10
1,1,null,"""",image-keyboard-response,33,41632,0.0-33.0,"""",jspsych/neutralFaces/BM08NES.JPG,"""",2,Cue,Practice,null,2000,"""","""","""","""","""","""","""","""","""",5/3/2021 3:03,67.83.183.0,Mozilla/5.0 (Windows NT 10.0; Win64; x64; rv:87.0) Gecko/20100101 Firefox/87.0,,Firefox,87,Windows,10
1,1,null,"""",image-keyboard-response,34,41747,0.0-34.0,"""",jspsych/neutralFaces/AM14NES.JPG,"""",2,backwardMask,Practice,null,100,"""","""","""","""","""","""","""","""","""",5/3/2021 3:03,67.83.183.0,Mozilla/5.0 (Windows NT 10.0; Win64; x64; rv:87.0) Gecko/20100101 Firefox/87.0,,Firefox,87,Windows,10
1,1,null,"""",html-keyboard-response,35,41955,0.0-35.0,"""","<div style=""font-size:60px;"">+</div>","""",2,fixationBtwnNeutralMaskAndPrompt,Practice,null,200,"""","""","""","""","""","""","""","""","""",5/3/2021 3:03,67.83.183.0,Mozilla/5.0 (Windows NT 10.0; Win64; x64; rv:87.0) Gecko/20100101 Firefox/87.0,,Firefox,87,Windows,10
1,1,1758,"""",html-button-response,36,43714,0.0-36.0,"""","<img src='jspsych/CFDfaces/CFD-WF-202-056-N.jpg'height=""250px""></br><b>Tara</b>",1,2,IntactOrRearranged,Practice,"""","""","""","""",CFD-WF-202-056-N.jpg,Tara,0,1,"""","""","""",5/3/2021 3:03,67.83.183.0,Mozilla/5.0 (Windows NT 10.0; Win64; x64; rv:87.0) Gecko/20100101 Firefox/87.0,,Firefox,87,Windows,10
1,1,1113,"""",html-slider-response,37,44832,0.0-37.0,"""","<img src='jspsych/CFDfaces/CFD-WF-202-056-N.jpg'height=""250px""></br><b>Tara</b>","""",2,ConfidenceQuery,Practice,"""","""","""","""",CFD-LM-219-295-N.jpg,Jacob,0,"""",0,0,"""",5/3/2021 3:03,67.83.183.0,Mozilla/5.0 (Windows NT 10.0; Win64; x64; rv:87.0) Gecko/20100101 Firefox/87.0,,Firefox,87,Windows,10
1,1,1224,"""",html-button-response,38,46059,0.0-38.0,"""",You are Incorrect. You Called an Intact Pair Rearranged,0,2,feedback,Practice,"""","""","""","""","""","""","""","""","""","""","""",5/3/2021 3:03,67.83.183.0,Mozilla/5.0 (Windows NT 10.0; Win64; x64; rv:87.0) Gecko/20100101 Firefox/87.0,,Firefox,87,Windows,10
1,1,null,"""",html-keyboard-response,39,46070,0.0-39.0,"""","<div style=""font-size:60px;"">+</div>","""",3,ITI,Practice,null,5,"""","""","""","""","""","""","""","""","""",5/3/2021 3:03,67.83.183.0,Mozilla/5.0 (Windows NT 10.0; Win64; x64; rv:87.0) Gecko/20100101 Firefox/87.0,,Firefox,87,Windows,10
1,1,null,"""",image-keyboard-response,40,46176,0.0-40.0,"""",jspsych/scrambledNeutralFaces/scrambledBM06NES.JPG,"""",3,forwardMask,Practice,null,100,"""",n,"""","""","""","""","""","""","""",5/3/2021 3:03,67.83.183.0,Mozilla/5.0 (Windows NT 10.0; Win64; x64; rv:87.0) Gecko/20100101 Firefox/87.0,,Firefox,87,Windows,10
1,1,null,"""",image-keyboard-response,41,48182,0.0-41.0,"""",jspsych/neutralFaces/BM06NES.JPG,"""",3,Cue,Practice,null,2000,"""","""","""","""","""","""","""","""","""",5/3/2021 3:03,67.83.183.0,Mozilla/5.0 (Windows NT 10.0; Win64; x64; rv:87.0) Gecko/20100101 Firefox/87.0,,Firefox,87,Windows,10
1,1,null,"""",image-keyboard-response,42,48293,0.0-42.0,"""",jspsych/neutralFaces/BM21NES.JPG,"""",3,backwardMask,Practice,null,100,"""","""","""","""","""","""","""","""","""",5/3/2021 3:03,67.83.183.0,Mozilla/5.0 (Windows NT 10.0; Win64; x64; rv:87.0) Gecko/20100101 Firefox/87.0,,Firefox,87,Windows,10
1,1,null,"""",html-keyboard-response,43,48499,0.0-43.0,"""","<div style=""font-size:60px;"">+</div>","""",3,fixationBtwnNeutralMaskAndPrompt,Practice,null,200,"""","""","""","""","""","""","""","""","""",5/3/2021 3:03,67.83.183.0,Mozilla/5.0 (Windows NT 10.0; Win64; x64; rv:87.0) Gecko/20100101 Firefox/87.0,,Firefox,87,Windows,10
1,1,1344,"""",html-button-response,44,49845,0.0-44.0,"""","<img src='jspsych/CFDfaces/CFD-WM-041-021-N.jpg'height=""250px""></br><b>Patrick</b>",1,3,IntactOrRearranged,Practice,"""","""","""","""",CFD-WM-041-021-N.jpg,Patrick,0,1,"""","""","""",5/3/2021 3:03,67.83.183.0,Mozilla/5.0 (Windows NT 10.0; Win64; x64; rv:87.0) Gecko/20100101 Firefox/87.0,,Firefox,87,Windows,10
1,1,957,"""",html-slider-response,45,50808,0.0-45.0,"""","<img src='jspsych/CFDfaces/CFD-WM-041-021-N.jpg'height=""250px""></br><b>Patrick</b>","""",3,ConfidenceQuery,Practice,"""","""","""","""",CFD-LM-219-295-N.jpg,Jacob,0,"""",0,0,"""",5/3/2021 3:03,67.83.183.0,Mozilla/5.0 (Windows NT 10.0; Win64; x64; rv:87.0) Gecko/20100101 Firefox/87.0,,Firefox,87,Windows,10
1,1,1295,"""",html-button-response,46,52107,0.0-46.0,"""",You are Incorrect. You Called an Intact Pair Rearranged,0,3,feedback,Practice,"""","""","""","""","""","""","""","""","""","""","""",5/3/2021 3:03,67.83.183.0,Mozilla/5.0 (Windows NT 10.0; Win64; x64; rv:87.0) Gecko/20100101 Firefox/87.0,,Firefox,87,Windows,10
1,1,null,"""",html-keyboard-response,47,52123,0.0-47.0,"""","<div style=""font-size:60px;"">+</div>","""",4,ITI,Practice,null,5,"""","""","""","""","""","""","""","""","""",5/3/2021 3:03,67.83.183.0,Mozilla/5.0 (Windows NT 10.0; Win64; x64; rv:87.0) Gecko/20100101 Firefox/87.0,,Firefox,87,Windows,10
1,1,null,"""",image-keyboard-response,48,52238,0.0-48.0,"""",jspsych/scrambledNeutralFaces/scrambledBM06NES.JPG,"""",4,forwardMask,Practice,null,100,"""",n,"""","""","""","""","""","""","""",5/3/2021 3:03,67.83.183.0,Mozilla/5.0 (Windows NT 10.0; Win64; x64; rv:87.0) Gecko/20100101 Firefox/87.0,,Firefox,87,Windows,10
1,1,null,"""",image-keyboard-response,49,54252,0.0-49.0,"""",jspsych/neutralFaces/BM06NES.JPG,"""",4,Cue,Practice,null,2000,"""","""","""","""","""","""","""","""","""",5/3/2021 3:03,67.83.183.0,Mozilla/5.0 (Windows NT 10.0; Win64; x64; rv:87.0) Gecko/20100101 Firefox/87.0,,Firefox,87,Windows,10
1,1,null,"""",image-keyboard-response,50,54369,0.0-50.0,"""",jspsych/neutralFaces/AM22NES.JPG,"""",4,backwardMask,Practice,null,100,"""","""","""","""","""","""","""","""","""",5/3/2021 3:03,67.83.183.0,Mozilla/5.0 (Windows NT 10.0; Win64; x64; rv:87.0) Gecko/20100101 Firefox/87.0,,Firefox,87,Windows,10
1,1,null,"""",html-keyboard-response,51,54573,0.0-51.0,"""","<div style=""font-size:60px;"">+</div>","""",4,fixationBtwnNeutralMaskAndPrompt,Practice,null,200,"""","""","""","""","""","""","""","""","""",5/3/2021 3:03,67.83.183.0,Mozilla/5.0 (Windows NT 10.0; Win64; x64; rv:87.0) Gecko/20100101 Firefox/87.0,,Firefox,87,Windows,10
1,1,911,"""",html-button-response,52,55486,0.0-52.0,"""","<img src='jspsych/CFDfaces/CFD-BF-009-002-N.jpg'height=""250px""></br><b>Katelyn</b>",1,4,IntactOrRearranged,Practice,"""","""","""","""",CFD-BF-009-002-N.jpg,Katelyn,1,1,"""","""","""",5/3/2021 3:03,67.83.183.0,Mozilla/5.0 (Windows NT 10.0; Win64; x64; rv:87.0) Gecko/20100101 Firefox/87.0,,Firefox,87,Windows,10
1,1,1252,"""",html-slider-response,53,56751,0.0-53.0,"""","<img src='jspsych/CFDfaces/CFD-BF-009-002-N.jpg'height=""250px""></br><b>Katelyn</b>","""",4,ConfidenceQuery,Practice,"""","""","""","""",CFD-LM-219-295-N.jpg,Jacob,1,"""",0,0,"""",5/3/2021 3:03,67.83.183.0,Mozilla/5.0 (Windows NT 10.0; Win64; x64; rv:87.0) Gecko/20100101 Firefox/87.0,,Firefox,87,Windows,10
1,1,898,"""",html-button-response,54,57652,0.0-54.0,"""",You are Correct. You Called A Rearranged Pair Rearranged,0,4,feedback,Practice,"""","""","""","""","""","""","""","""","""","""","""",5/3/2021 3:03,67.83.183.0,Mozilla/5.0 (Windows NT 10.0; Win64; x64; rv:87.0) Gecko/20100101 Firefox/87.0,,Firefox,87,Windows,10
1,1,null,"""",html-keyboard-response,55,57666,0.0-55.0,"""","<div style=""font-size:60px;"">+</div>","""",5,ITI,Practice,null,5,"""","""","""","""","""","""","""","""","""",5/3/2021 3:03,67.83.183.0,Mozilla/5.0 (Windows NT 10.0; Win64; x64; rv:87.0) Gecko/20100101 Firefox/87.0,,Firefox,87,Windows,10
1,1,null,"""",image-keyboard-response,56,57782,0.0-56.0,"""",jspsych/scrambledDisgustFaces/scrambledAM06DIS.JPG,"""",5,forwardMask,Practice,null,100,"""",d,"""","""","""","""","""","""","""",5/3/2021 3:03,67.83.183.0,Mozilla/5.0 (Windows NT 10.0; Win64; x64; rv:87.0) Gecko/20100101 Firefox/87.0,,Firefox,87,Windows,10
1,1,null,"""",image-keyboard-response,57,59791,0.0-57.0,"""",jspsych/disgustFaces/AM06DIS.JPG,"""",5,Cue,Practice,null,2000,"""","""","""","""","""","""","""","""","""",5/3/2021 3:03,67.83.183.0,Mozilla/5.0 (Windows NT 10.0; Win64; x64; rv:87.0) Gecko/20100101 Firefox/87.0,,Firefox,87,Windows,10
1,1,null,"""",image-keyboard-response,58,59910,0.0-58.0,"""",jspsych/neutralFaces/BM25NES.JPG,"""",5,backwardMask,Practice,null,100,"""","""","""","""","""","""","""","""","""",5/3/2021 3:03,67.83.183.0,Mozilla/5.0 (Windows NT 10.0; Win64; x64; rv:87.0) Gecko/20100101 Firefox/87.0,,Firefox,87,Windows,10
1,1,null,"""",html-keyboard-response,59,60117,0.0-59.0,"""","<div style=""font-size:60px;"">+</div>","""",5,fixationBtwnNeutralMaskAndPrompt,Practice,null,200,"""","""","""","""","""","""","""","""","""",5/3/2021 3:03,67.83.183.0,Mozilla/5.0 (Windows NT 10.0; Win64; x64; rv:87.0) Gecko/20100101 Firefox/87.0,,Firefox,87,Windows,10
1,1,995,"""",html-button-response,60,61115,0.0-60.0,"""","<img src='jspsych/CFDfaces/CFD-AM-242-176-N.jpg'height=""250px""></br><b>Carlos</b>",0,5,IntactOrRearranged,Practice,"""","""","""","""",CFD-AM-242-176-N.jpg,Carlos,1,0,"""","""","""",5/3/2021 3:03,67.83.183.0,Mozilla/5.0 (Windows NT 10.0; Win64; x64; rv:87.0) Gecko/20100101 Firefox/87.0,,Firefox,87,Windows,10
1,1,997,"""",html-slider-response,61,62115,0.0-61.0,"""","<img src='jspsych/CFDfaces/CFD-AM-242-176-N.jpg'height=""250px""></br><b>Carlos</b>","""",5,ConfidenceQuery,Practice,"""","""","""","""",CFD-LM-219-295-N.jpg,Jacob,1,"""",0,0,"""",5/3/2021 3:03,67.83.183.0,Mozilla/5.0 (Windows NT 10.0; Win64; x64; rv:87.0) Gecko/20100101 Firefox/87.0,,Firefox,87,Windows,10
1,1,1126,"""",html-button-response,62,63244,0.0-62.0,"""",You are Incorrect. You called a Rearranged Pair Intact,0,5,feedback,Practice,"""","""","""","""","""","""","""","""","""","""","""",5/3/2021 3:03,67.83.183.0,Mozilla/5.0 (Windows NT 10.0; Win64; x64; rv:87.0) Gecko/20100101 Firefox/87.0,,Firefox,87,Windows,10
1,1,null,"""",html-keyboard-response,63,63251,0.0-63.0,"""","<div style=""font-size:60px;"">+</div>","""",6,ITI,Practice,null,5,"""","""","""","""","""","""","""","""","""",5/3/2021 3:03,67.83.183.0,Mozilla/5.0 (Windows NT 10.0; Win64; x64; rv:87.0) Gecko/20100101 Firefox/87.0,,Firefox,87,Windows,10
1,1,null,"""",image-keyboard-response,64,63360,0.0-64.0,"""",jspsych/scrambledNeutralFaces/scrambledAF25NES.JPG,"""",6,forwardMask,Practice,null,100,"""",n,"""","""","""","""","""","""","""",5/3/2021 3:03,67.83.183.0,Mozilla/5.0 (Windows NT 10.0; Win64; x64; rv:87.0) Gecko/20100101 Firefox/87.0,,Firefox,87,Windows,10
1,1,null,"""",image-keyboard-response,65,65372,0.0-65.0,"""",jspsych/neutralFaces/AF25NES.JPG,"""",6,Cue,Practice,null,2000,"""","""","""","""","""","""","""","""","""",5/3/2021 3:03,67.83.183.0,Mozilla/5.0 (Windows NT 10.0; Win64; x64; rv:87.0) Gecko/20100101 Firefox/87.0,,Firefox,87,Windows,10
1,1,null,"""",image-keyboard-response,66,65492,0.0-66.0,"""",jspsych/neutralFaces/AF14NES.JPG,"""",6,backwardMask,Practice,null,100,"""","""","""","""","""","""","""","""","""",5/3/2021 3:03,67.83.183.0,Mozilla/5.0 (Windows NT 10.0; Win64; x64; rv:87.0) Gecko/20100101 Firefox/87.0,,Firefox,87,Windows,10
1,1,null,"""",html-keyboard-response,67,65708,0.0-67.0,"""","<div style=""font-size:60px;"">+</div>","""",6,fixationBtwnNeutralMaskAndPrompt,Practice,null,200,"""","""","""","""","""","""","""","""","""",5/3/2021 3:03,67.83.183.0,Mozilla/5.0 (Windows NT 10.0; Win64; x64; rv:87.0) Gecko/20100101 Firefox/87.0,,Firefox,87,Windows,10
1,1,2282,"""",html-button-response,68,67992,0.0-68.0,"""","<img src='jspsych/CFDfaces/CFD-AM-214-168-N.jpg'height=""250px""></br><b>Samuel</b>",1,6,IntactOrRearranged,Practice,"""","""","""","""",CFD-AM-214-168-N.jpg,Samuel,0,1,"""","""","""",5/3/2021 3:03,67.83.183.0,Mozilla/5.0 (Windows NT 10.0; Win64; x64; rv:87.0) Gecko/20100101 Firefox/87.0,,Firefox,87,Windows,10
1,1,1994,"""",html-slider-response,69,69989,0.0-69.0,"""","<img src='jspsych/CFDfaces/CFD-AM-214-168-N.jpg'height=""250px""></br><b>Samuel</b>","""",6,ConfidenceQuery,Practice,"""","""","""","""",CFD-LM-219-295-N.jpg,Jacob,0,"""",0,0,"""",5/3/2021 3:03,67.83.183.0,Mozilla/5.0 (Windows NT 10.0; Win64; x64; rv:87.0) Gecko/20100101 Firefox/87.0,,Firefox,87,Windows,10
1,1,1373,"""",html-button-response,70,71365,0.0-70.0,"""",You are Incorrect. You Called an Intact Pair Rearranged,0,6,feedback,Practice,"""","""","""","""","""","""","""","""","""","""","""",5/3/2021 3:03,67.83.183.0,Mozilla/5.0 (Windows NT 10.0; Win64; x64; rv:87.0) Gecko/20100101 Firefox/87.0,,Firefox,87,Windows,10
1,1,null,"""",html-keyboard-response,71,71381,0.0-71.0,"""","<div style=""font-size:60px;"">+</div>","""",7,ITI,Practice,null,5,"""","""","""","""","""","""","""","""","""",5/3/2021 3:03,67.83.183.0,Mozilla/5.0 (Windows NT 10.0; Win64; x64; rv:87.0) Gecko/20100101 Firefox/87.0,,Firefox,87,Windows,10
1,1,null,"""",image-keyboard-response,72,71485,0.0-72.0,"""",jspsych/scrambledNeutralFaces/scrambledBF07NES.JPG,"""",7,forwardMask,Practice,null,100,"""",n,"""","""","""","""","""","""","""",5/3/2021 3:03,67.83.183.0,Mozilla/5.0 (Windows NT 10.0; Win64; x64; rv:87.0) Gecko/20100101 Firefox/87.0,,Firefox,87,Windows,10
1,1,null,"""",image-keyboard-response,73,73498,0.0-73.0,"""",jspsych/neutralFaces/BF07NES.JPG,"""",7,Cue,Practice,null,2000,"""","""","""","""","""","""","""","""","""",5/3/2021 3:03,67.83.183.0,Mozilla/5.0 (Windows NT 10.0; Win64; x64; rv:87.0) Gecko/20100101 Firefox/87.0,,Firefox,87,Windows,10
1,1,null,"""",image-keyboard-response,74,73612,0.0-74.0,"""",jspsych/neutralFaces/AF10NES.JPG,"""",7,backwardMask,Practice,null,100,"""","""","""","""","""","""","""","""","""",5/3/2021 3:03,67.83.183.0,Mozilla/5.0 (Windows NT 10.0; Win64; x64; rv:87.0) Gecko/20100101 Firefox/87.0,,Firefox,87,Windows,10
1,1,null,"""",html-keyboard-response,75,73817,0.0-75.0,"""","<div style=""font-size:60px;"">+</div>","""",7,fixationBtwnNeutralMaskAndPrompt,Practice,null,200,"""","""","""","""","""","""","""","""","""",5/3/2021 3:03,67.83.183.0,Mozilla/5.0 (Windows NT 10.0; Win64; x64; rv:87.0) Gecko/20100101 Firefox/87.0,,Firefox,87,Windows,10
1,1,2797,"""",html-button-response,76,76616,0.0-76.0,"""","<img src='jspsych/CFDfaces/CFD-LF-243-175-N.jpg'height=""250px""></br><b>Shannon</b>",0,7,IntactOrRearranged,Practice,"""","""","""","""",CFD-LF-243-175-N.jpg,Shannon,0,0,"""","""","""",5/3/2021 3:03,67.83.183.0,Mozilla/5.0 (Windows NT 10.0; Win64; x64; rv:87.0) Gecko/20100101 Firefox/87.0,,Firefox,87,Windows,10
1,1,1312,"""",html-slider-response,77,77931,0.0-77.0,"""","<img src='jspsych/CFDfaces/CFD-LF-243-175-N.jpg'height=""250px""></br><b>Shannon</b>","""",7,ConfidenceQuery,Practice,"""","""","""","""",CFD-LM-219-295-N.jpg,Jacob,0,"""",0,0,"""",5/3/2021 3:03,67.83.183.0,Mozilla/5.0 (Windows NT 10.0; Win64; x64; rv:87.0) Gecko/20100101 Firefox/87.0,,Firefox,87,Windows,10
1,1,1474,"""",html-button-response,78,79413,0.0-78.0,"""",You are Correct. You called an Intact Pair Intact,0,7,feedback,Practice,"""","""","""","""","""","""","""","""","""","""","""",5/3/2021 3:03,67.83.183.0,Mozilla/5.0 (Windows NT 10.0; Win64; x64; rv:87.0) Gecko/20100101 Firefox/87.0,,Firefox,87,Windows,10
1,1,null,"""",html-keyboard-response,79,79429,0.0-79.0,"""","<div style=""font-size:60px;"">+</div>","""",8,ITI,Practice,null,5,"""","""","""","""","""","""","""","""","""",5/3/2021 3:03,67.83.183.0,Mozilla/5.0 (Windows NT 10.0; Win64; x64; rv:87.0) Gecko/20100101 Firefox/87.0,,Firefox,87,Windows,10
1,1,null,"""",image-keyboard-response,80,79542,0.0-80.0,"""",jspsych/scrambledDisgustFaces/scrambledAM08DIS.JPG,"""",8,forwardMask,Practice,null,100,"""",d,"""","""","""","""","""","""","""",5/3/2021 3:03,67.83.183.0,Mozilla/5.0 (Windows NT 10.0; Win64; x64; rv:87.0) Gecko/20100101 Firefox/87.0,,Firefox,87,Windows,10
1,1,null,"""",image-keyboard-response,81,81559,0.0-81.0,"""",jspsych/disgustFaces/AM08DIS.JPG,"""",8,Cue,Practice,null,2000,"""","""","""","""","""","""","""","""","""",5/3/2021 3:03,67.83.183.0,Mozilla/5.0 (Windows NT 10.0; Win64; x64; rv:87.0) Gecko/20100101 Firefox/87.0,,Firefox,87,Windows,10
1,1,null,"""",image-keyboard-response,82,81674,0.0-82.0,"""",jspsych/neutralFaces/BM11NES.JPG,"""",8,backwardMask,Practice,null,100,"""","""","""","""","""","""","""","""","""",5/3/2021 3:03,67.83.183.0,Mozilla/5.0 (Windows NT 10.0; Win64; x64; rv:87.0) Gecko/20100101 Firefox/87.0,,Firefox,87,Windows,10
1,1,null,"""",html-keyboard-response,83,81882,0.0-83.0,"""","<div style=""font-size:60px;"">+</div>","""",8,fixationBtwnNeutralMaskAndPrompt,Practice,null,200,"""","""","""","""","""","""","""","""","""",5/3/2021 3:03,67.83.183.0,Mozilla/5.0 (Windows NT 10.0; Win64; x64; rv:87.0) Gecko/20100101 Firefox/87.0,,Firefox,87,Windows,10
1,1,2702,"""",html-button-response,84,84585,0.0-84.0,"""","<img src='jspsych/CFDfaces/CFD-AM-202-079-N.jpg'height=""250px""></br><b>Marcus</b>",0,8,IntactOrRearranged,Practice,"""","""","""","""",CFD-AM-202-079-N.jpg,Marcus,1,0,"""","""","""",5/3/2021 3:03,67.83.183.0,Mozilla/5.0 (Windows NT 10.0; Win64; x64; rv:87.0) Gecko/20100101 Firefox/87.0,,Firefox,87,Windows,10
1,1,1098,"""",html-slider-response,85,85692,0.0-85.0,"""","<img src='jspsych/CFDfaces/CFD-AM-202-079-N.jpg'height=""250px""></br><b>Marcus</b>","""",8,ConfidenceQuery,Practice,"""","""","""","""",CFD-LM-219-295-N.jpg,Jacob,1,"""",0,0,"""",5/3/2021 3:03,67.83.183.0,Mozilla/5.0 (Windows NT 10.0; Win64; x64; rv:87.0) Gecko/20100101 Firefox/87.0,,Firefox,87,Windows,10
1,1,1105,"""",html-button-response,86,86801,0.0-86.0,"""",You are Incorrect. You called a Rearranged Pair Intact,0,8,feedback,Practice,"""","""","""","""","""","""","""","""","""","""","""",5/3/2021 3:03,67.83.183.0,Mozilla/5.0 (Windows NT 10.0; Win64; x64; rv:87.0) Gecko/20100101 Firefox/87.0,,Firefox,87,Windows,10
1,1,2258,"""",image-button-response,87,89072,0.0-87.0,"""",directionsMemoryAssociation3.JPG,0,128,DirectionsBeforeActualTEst,Break,"""","""","""","""","""","""","""","""","""","""","""",5/3/2021 3:03,67.83.183.0,Mozilla/5.0 (Windows NT 10.0; Win64; x64; rv:87.0) Gecko/20100101 Firefox/87.0,,Firefox,87,Windows,10
1,1,1079,"""",image-button-response,88,90154,0.0-88.0,"""",directionsForTest2.JPG,0,1,directionsForTest2,break,"""","""","""","""","""","""","""","""","""","""","""",5/3/2021 3:03,67.83.183.0,Mozilla/5.0 (Windows NT 10.0; Win64; x64; rv:87.0) Gecko/20100101 Firefox/87.0,,Firefox,87,Windows,10
1,1,1794,"""",html-button-response,89,91954,0.0-89.0,"""","<p>You will be asked to memorize and then recall four sets of face-name pairs. </p> <p> Each set will have 32 pairs. </p> <p>After the fourth set, there will be a brief follow-up experiment (<40 min alltogether)</p>",0,"""","""","""","""","""","""","""","""","""","""","""","""","""","""",5/3/2021 3:03,67.83.183.0,Mozilla/5.0 (Windows NT 10.0; Win64; x64; rv:87.0) Gecko/20100101 Firefox/87.0,,Firefox,87,Windows,10
1,1,null,"""",html-keyboard-response,90,92958,0.0-90.0,"""","<img src='jspsych/CFDfaces/CFD-LF-232-199-N.jpg' height=""250px""></br><b>Kimberly</b>","""",256,IntactFace,Memorization,null,1000,"""","""",CFD-AF-226-251-N.jpg,Jenna,0,"""","""","""",1,5/3/2021 3:03,67.83.183.0,Mozilla/5.0 (Windows NT 10.0; Win64; x64; rv:87.0) Gecko/20100101 Firefox/87.0,,Firefox,87,Windows,10
1,1,null,"""",html-keyboard-response,91,93471,0.0-91.0,"""","<div style=""font-size:60px;"">+</div>","""",256,fixation,Memorization,null,500,"""","""","""","""","""","""","""","""",1,5/3/2021 3:03,67.83.183.0,Mozilla/5.0 (Windows NT 10.0; Win64; x64; rv:87.0) Gecko/20100101 Firefox/87.0,,Firefox,87,Windows,10
1,1,null,"""",html-keyboard-response,92,94480,0.0-92.0,"""","<img src='jspsych/CFDfaces/CFD-BF-221-223-N.jpg' height=""250px""></br><b>Christina</b>","""",256,IntactFace,Memorization,null,1000,"""","""",CFD-AF-200-228-N.jpg,Jordan,0,"""","""","""",1,5/3/2021 3:03,67.83.183.0,Mozilla/5.0 (Windows NT 10.0; Win64; x64; rv:87.0) Gecko/20100101 Firefox/87.0,,Firefox,87,Windows,10
1,1,null,"""",html-keyboard-response,93,94982,0.0-93.0,"""","<div style=""font-size:60px;"">+</div>","""",256,fixation,Memorization,null,500,"""","""","""","""","""","""","""","""",1,5/3/2021 3:03,67.83.183.0,Mozilla/5.0 (Windows NT 10.0; Win64; x64; rv:87.0) Gecko/20100101 Firefox/87.0,,Firefox,87,Windows,10
1,1,null,"""",html-keyboard-response,94,95984,0.0-94.0,"""","<img src='jspsych/CFDfaces/CFD-WM-213-076-N.jpg' height=""250px""></br><b>Brandon</b>","""",256,IntactFace,Memorization,null,1000,"""","""",CFD-LM-219-295-N.jpg,Jacob,0,"""","""","""",1,5/3/2021 3:03,67.83.183.0,Mozilla/5.0 (Windows NT 10.0; Win64; x64; rv:87.0) Gecko/20100101 Firefox/87.0,,Firefox,87,Windows,10
1,1,null,"""",html-keyboard-response,95,96495,0.0-95.0,"""","<div style=""font-size:60px;"">+</div>","""",256,fixation,Memorization,null,500,"""","""","""","""","""","""","""","""",1,5/3/2021 3:03,67.83.183.0,Mozilla/5.0 (Windows NT 10.0; Win64; x64; rv:87.0) Gecko/20100101 Firefox/87.0,,Firefox,87,Windows,10
1,1,null,"""",html-keyboard-response,96,97501,0.0-96.0,"""","<img src='jspsych/CFDfaces/CFD-WF-019-005-N.jpg' height=""250px""></br><b>Ashley</b>","""",256,IntactFace,Memorization,null,1000,"""","""",CFD-LF-213-079-N.jpg,Melissa,0,"""","""","""",1,5/3/2021 3:03,67.83.183.0,Mozilla/5.0 (Windows NT 10.0; Win64; x64; rv:87.0) Gecko/20100101 Firefox/87.0,,Firefox,87,Windows,10
1,1,null,"""",html-keyboard-response,97,98010,0.0-97.0,"""","<div style=""font-size:60px;"">+</div>","""",256,fixation,Memorization,null,500,"""","""","""","""","""","""","""","""",1,5/3/2021 3:03,67.83.183.0,Mozilla/5.0 (Windows NT 10.0; Win64; x64; rv:87.0) Gecko/20100101 Firefox/87.0,,Firefox,87,Windows,10
1,1,null,"""",html-keyboard-response,98,99022,0.0-98.0,"""","<img src='jspsych/CFDfaces/CFD-WM-011-002-N.jpg' height=""250px""></br><b>Eric</b>","""",256,IntactFace,Memorization,null,1000,"""","""",CFD-BM-026-002-N.jpg,Mark,0,"""","""","""",1,5/3/2021 3:03,67.83.183.0,Mozilla/5.0 (Windows NT 10.0; Win64; x64; rv:87.0) Gecko/20100101 Firefox/87.0,,Firefox,87,Windows,10
1,1,null,"""",html-keyboard-response,99,99525,0.0-99.0,"""","<div style=""font-size:60px;"">+</div>","""",256,fixation,Memorization,null,500,"""","""","""","""","""","""","""","""",1,5/3/2021 3:03,67.83.183.0,Mozilla/5.0 (Windows NT 10.0; Win64; x64; rv:87.0) Gecko/20100101 Firefox/87.0,,Firefox,87,Windows,10
1,1,null,"""",html-keyboard-response,100,100543,0.0-100.0,"""","<img src='jspsych/CFDfaces/CFD-LF-204-133-N.jpg' height=""250px""></br><b>Brittany</b>","""",256,IntactFace,Memorization,null,1000,"""","""",CFD-BM-205-001-N.jpg,Kenneth,0,"""","""","""",1,5/3/2021 3:03,67.83.183.0,Mozilla/5.0 (Windows NT 10.0; Win64; x64; rv:87.0) Gecko/20100101 Firefox/87.0,,Firefox,87,Windows,10
1,1,null,"""",html-keyboard-response,101,101048,0.0-101.0,"""","<div style=""font-size:60px;"">+</div>","""",256,fixation,Memorization,null,500,"""","""","""","""","""","""","""","""",1,5/3/2021 3:03,67.83.183.0,Mozilla/5.0 (Windows NT 10.0; Win64; x64; rv:87.0) Gecko/20100101 Firefox/87.0,,Firefox,87,Windows,10
1,1,null,"""",html-keyboard-response,102,102053,0.0-102.0,"""","<img src='jspsych/CFDfaces/CFD-LM-252-076-N.jpg' height=""250px""></br><b>Robert</b>","""",256,IntactFace,Memorization,null,1000,"""","""",CFD-BF-222-240-N.jpg,Jasmine,0,"""","""","""",1,5/3/2021 3:03,67.83.183.0,Mozilla/5.0 (Windows NT 10.0; Win64; x64; rv:87.0) Gecko/20100101 Firefox/87.0,,Firefox,87,Windows,10
1,1,null,"""",html-keyboard-response,103,102568,0.0-103.0,"""","<div style=""font-size:60px;"">+</div>","""",256,fixation,Memorization,null,500,"""","""","""","""","""","""","""","""",1,5/3/2021 3:03,67.83.183.0,Mozilla/5.0 (Windows NT 10.0; Win64; x64; rv:87.0) Gecko/20100101 Firefox/87.0,,Firefox,87,Windows,10
1,1,null,"""",html-keyboard-response,104,103573,0.0-104.0,"""","<img src='jspsych/CFDfaces/CFD-LM-213-061-N.jpg' height=""250px""></br><b>Christian</b>","""",256,IntactFace,Memorization,null,1000,"""","""",CFD-BM-207-024-N.jpg,Ryan,0,"""","""","""",1,5/3/2021 3:03,67.83.183.0,Mozilla/5.0 (Windows NT 10.0; Win64; x64; rv:87.0) Gecko/20100101 Firefox/87.0,,Firefox,87,Windows,10
1,1,null,"""",html-keyboard-response,105,104079,0.0-105.0,"""","<div style=""font-size:60px;"">+</div>","""",256,fixation,Memorization,null,500,"""","""","""","""","""","""","""","""",1,5/3/2021 3:03,67.83.183.0,Mozilla/5.0 (Windows NT 10.0; Win64; x64; rv:87.0) Gecko/20100101 Firefox/87.0,,Firefox,87,Windows,10
1,1,null,"""",html-keyboard-response,106,105086,0.0-106.0,"""","<img src='jspsych/CFDfaces/CFD-AF-220-107-N.jpg' height=""250px""></br><b>Stephanie</b>","""",256,IntactFace,Memorization,null,1000,"""","""",CFD-BF-047-003-N.jpg,Heather,0,"""","""","""",1,5/3/2021 3:03,67.83.183.0,Mozilla/5.0 (Windows NT 10.0; Win64; x64; rv:87.0) Gecko/20100101 Firefox/87.0,,Firefox,87,Windows,10
1,1,null,"""",html-keyboard-response,107,105591,0.0-107.0,"""","<div style=""font-size:60px;"">+</div>","""",256,fixation,Memorization,null,500,"""","""","""","""","""","""","""","""",1,5/3/2021 3:03,67.83.183.0,Mozilla/5.0 (Windows NT 10.0; Win64; x64; rv:87.0) Gecko/20100101 Firefox/87.0,,Firefox,87,Windows,10
1,1,null,"""",html-keyboard-response,108,106696,0.0-108.0,"""","<img src='jspsych/CFDfaces/CFD-LF-239-148-N.jpg' height=""250px""></br><b>Meghan</b>","""",256,IntactFace,Memorization,null,1000,"""","""",CFD-WF-215-145-N.jpg,Sara,0,"""","""","""",1,5/3/2021 3:03,67.83.183.0,Mozilla/5.0 (Windows NT 10.0; Win64; x64; rv:87.0) Gecko/20100101 Firefox/87.0,,Firefox,87,Windows,10
1,1,null,"""",html-keyboard-response,109,107213,0.0-109.0,"""","<div style=""font-size:60px;"">+</div>","""",256,fixation,Memorization,null,500,"""","""","""","""","""","""","""","""",1,5/3/2021 3:03,67.83.183.0,Mozilla/5.0 (Windows NT 10.0; Win64; x64; rv:87.0) Gecko/20100101 Firefox/87.0,,Firefox,87,Windows,10
1,1,null,"""",html-keyboard-response,110,108269,0.0-110.0,"""","<img src='jspsych/CFDfaces/CFD-AF-235-170-N.jpg' height=""250px""></br><b>Kayla</b>","""",256,IntactFace,Memorization,null,1000,"""","""",CFD-LM-239-075-N.jpg,Sean,0,"""","""","""",1,5/3/2021 3:03,67.83.183.0,Mozilla/5.0 (Windows NT 10.0; Win64; x64; rv:87.0) Gecko/20100101 Firefox/87.0,,Firefox,87,Windows,10
1,1,null,"""",html-keyboard-response,111,108791,0.0-111.0,"""","<div style=""font-size:60px;"">+</div>","""",256,fixation,Memorization,null,500,"""","""","""","""","""","""","""","""",1,5/3/2021 3:03,67.83.183.0,Mozilla/5.0 (Windows NT 10.0; Win64; x64; rv:87.0) Gecko/20100101 Firefox/87.0,,Firefox,87,Windows,10
1,1,null,"""",html-keyboard-response,112,109794,0.0-112.0,"""","<img src='jspsych/CFDfaces/CFD-WM-216-061-N.jpg' height=""250px""></br><b>Gregory</b>","""",256,IntactFace,Memorization,null,1000,"""","""",CFD-AM-238-269-N.jpg,Dustin,0,"""","""","""",1,5/3/2021 3:03,67.83.183.0,Mozilla/5.0 (Windows NT 10.0; Win64; x64; rv:87.0) Gecko/20100101 Firefox/87.0,,Firefox,87,Windows,10
1,1,null,"""",html-keyboard-response,113,110299,0.0-113.0,"""","<div style=""font-size:60px;"">+</div>","""",256,fixation,Memorization,null,500,"""","""","""","""","""","""","""","""",1,5/3/2021 3:03,67.83.183.0,Mozilla/5.0 (Windows NT 10.0; Win64; x64; rv:87.0) Gecko/20100101 Firefox/87.0,,Firefox,87,Windows,10
1,1,null,"""",html-keyboard-response,114,111305,0.0-114.0,"""","<img src='jspsych/CFDfaces/CFD-AF-228-173-N.jpg' height=""250px""></br><b>Andrea</b>","""",256,IntactFace,Memorization,null,1000,"""","""",CFD-WM-237-052-N.jpg,Travis,0,"""","""","""",1,5/3/2021 3:03,67.83.183.0,Mozilla/5.0 (Windows NT 10.0; Win64; x64; rv:87.0) Gecko/20100101 Firefox/87.0,,Firefox,87,Windows,10
1,1,null,"""",html-keyboard-response,115,111813,0.0-115.0,"""","<div style=""font-size:60px;"">+</div>","""",256,fixation,Memorization,null,500,"""","""","""","""","""","""","""","""",1,5/3/2021 3:03,67.83.183.0,Mozilla/5.0 (Windows NT 10.0; Win64; x64; rv:87.0) Gecko/20100101 Firefox/87.0,,Firefox,87,Windows,10
1,1,null,"""",html-keyboard-response,116,112819,0.0-116.0,"""","<img src='jspsych/CFDfaces/CFD-WF-003-003-N.jpg' height=""250px""></br><b>Julie</b>","""",256,IntactFace,Memorization,null,1000,"""","""",CFD-WM-006-002-N.jpg,Cameron,0,"""","""","""",1,5/3/2021 3:03,67.83.183.0,Mozilla/5.0 (Windows NT 10.0; Win64; x64; rv:87.0) Gecko/20100101 Firefox/87.0,,Firefox,87,Windows,10
1,1,null,"""",html-keyboard-response,117,113335,0.0-117.0,"""","<div style=""font-size:60px;"">+</div>","""",256,fixation,Memorization,null,500,"""","""","""","""","""","""","""","""",1,5/3/2021 3:03,67.83.183.0,Mozilla/5.0 (Windows NT 10.0; Win64; x64; rv:87.0) Gecko/20100101 Firefox/87.0,,Firefox,87,Windows,10
1,1,null,"""",html-keyboard-response,118,114342,0.0-118.0,"""","<img src='jspsych/CFDfaces/CFD-WM-017-002-N.jpg' height=""250px""></br><b>Peter</b>","""",256,IntactFace,Memorization,null,1000,"""","""",CFD-AM-234-355-N.jpg,Jesse,0,"""","""","""",1,5/3/2021 3:03,67.83.183.0,Mozilla/5.0 (Windows NT 10.0; Win64; x64; rv:87.0) Gecko/20100101 Firefox/87.0,,Firefox,87,Windows,10
1,1,null,"""",html-keyboard-response,119,114859,0.0-119.0,"""","<div style=""font-size:60px;"">+</div>","""",256,fixation,Memorization,null,500,"""","""","""","""","""","""","""","""",1,5/3/2021 3:03,67.83.183.0,Mozilla/5.0 (Windows NT 10.0; Win64; x64; rv:87.0) Gecko/20100101 Firefox/87.0,,Firefox,87,Windows,10
1,1,null,"""",html-keyboard-response,120,115865,0.0-120.0,"""","<img src='jspsych/CFDfaces/CFD-LF-215-157-N.jpg' height=""250px""></br><b>Amanda</b>","""",256,IntactFace,Memorization,null,1000,"""","""",CFD-LF-230-203-N.jpg,Amy,0,"""","""","""",1,5/3/2021 3:03,67.83.183.0,Mozilla/5.0 (Windows NT 10.0; Win64; x64; rv:87.0) Gecko/20100101 Firefox/87.0,,Firefox,87,Windows,10
1,1,null,"""",html-keyboard-response,121,116372,0.0-121.0,"""","<div style=""font-size:60px;"">+</div>","""",256,fixation,Memorization,null,500,"""","""","""","""","""","""","""","""",1,5/3/2021 3:03,67.83.183.0,Mozilla/5.0 (Windows NT 10.0; Win64; x64; rv:87.0) Gecko/20100101 Firefox/87.0,,Firefox,87,Windows,10
1,1,null,"""",html-keyboard-response,122,117380,0.0-122.0,"""","<img src='jspsych/CFDfaces/CFD-LM-217-162-N.jpg' height=""250px""></br><b>Jeffrey</b>","""",256,IntactFace,Memorization,null,1000,"""","""",CFD-BF-008-001-N.jpg,Whitney,0,"""","""","""",1,5/3/2021 3:03,67.83.183.0,Mozilla/5.0 (Windows NT 10.0; Win64; x64; rv:87.0) Gecko/20100101 Firefox/87.0,,Firefox,87,Windows,10
1,1,null,"""",html-keyboard-response,123,117898,0.0-123.0,"""","<div style=""font-size:60px;"">+</div>","""",256,fixation,Memorization,null,500,"""","""","""","""","""","""","""","""",1,5/3/2021 3:03,67.83.183.0,Mozilla/5.0 (Windows NT 10.0; Win64; x64; rv:87.0) Gecko/20100101 Firefox/87.0,,Firefox,87,Windows,10
1,1,null,"""",html-keyboard-response,124,118905,0.0-124.0,"""","<img src='jspsych/CFDfaces/CFD-LF-205-100-N.jpg' height=""250px""></br><b>Elizabeth</b>","""",256,IntactFace,Memorization,null,1000,"""","""",CFD-AM-243-212-N.jpg,Steven,0,"""","""","""",1,5/3/2021 3:03,67.83.183.0,Mozilla/5.0 (Windows NT 10.0; Win64; x64; rv:87.0) Gecko/20100101 Firefox/87.0,,Firefox,87,Windows,10
1,1,null,"""",html-keyboard-response,125,119426,0.0-125.0,"""","<div style=""font-size:60px;"">+</div>","""",256,fixation,Memorization,null,500,"""","""","""","""","""","""","""","""",1,5/3/2021 3:03,67.83.183.0,Mozilla/5.0 (Windows NT 10.0; Win64; x64; rv:87.0) Gecko/20100101 Firefox/87.0,,Firefox,87,Windows,10
1,1,null,"""",html-keyboard-response,126,120430,0.0-126.0,"""","<img src='jspsych/CFDfaces/CFD-LM-234-176-N.jpg' height=""250px""></br><b>Nicholas</b>","""",256,IntactFace,Memorization,null,1000,"""","""",CFD-BM-002-013-N.jpg,Vincent,0,"""","""","""",1,5/3/2021 3:03,67.83.183.0,Mozilla/5.0 (Windows NT 10.0; Win64; x64; rv:87.0) Gecko/20100101 Firefox/87.0,,Firefox,87,Windows,10
1,1,null,"""",html-keyboard-response,127,120955,0.0-127.0,"""","<div style=""font-size:60px;"">+</div>","""",256,fixation,Memorization,null,500,"""","""","""","""","""","""","""","""",1,5/3/2021 3:03,67.83.183.0,Mozilla/5.0 (Windows NT 10.0; Win64; x64; rv:87.0) Gecko/20100101 Firefox/87.0,,Firefox,87,Windows,10
1,1,null,"""",html-keyboard-response,128,121957,0.0-128.0,"""","<img src='jspsych/CFDfaces/CFD-WM-034-030-N.jpg' height=""250px""></br><b>Juan</b>","""",256,IntactFace,Memorization,null,1000,"""","""",CFD-LF-201-035-N.jpg,Angela,0,"""","""","""",1,5/3/2021 3:03,67.83.183.0,Mozilla/5.0 (Windows NT 10.0; Win64; x64; rv:87.0) Gecko/20100101 Firefox/87.0,,Firefox,87,Windows,10
1,1,null,"""",html-keyboard-response,129,122459,0.0-129.0,"""","<div style=""font-size:60px;"">+</div>","""",256,fixation,Memorization,null,500,"""","""","""","""","""","""","""","""",1,5/3/2021 3:03,67.83.183.0,Mozilla/5.0 (Windows NT 10.0; Win64; x64; rv:87.0) Gecko/20100101 Firefox/87.0,,Firefox,87,Windows,10
1,1,null,"""",html-keyboard-response,130,123461,0.0-130.0,"""","<img src='jspsych/CFDfaces/CFD-AF-209-006-N.jpg' height=""250px""></br><b>Emily</b>","""",256,IntactFace,Memorization,null,1000,"""","""",CFD-BF-226-119-N.jpg,Erin,0,"""","""","""",1,5/3/2021 3:03,67.83.183.0,Mozilla/5.0 (Windows NT 10.0; Win64; x64; rv:87.0) Gecko/20100101 Firefox/87.0,,Firefox,87,Windows,10
1,1,null,"""",html-keyboard-response,131,123965,0.0-131.0,"""","<div style=""font-size:60px;"">+</div>","""",256,fixation,Memorization,null,500,"""","""","""","""","""","""","""","""",1,5/3/2021 3:03,67.83.183.0,Mozilla/5.0 (Windows NT 10.0; Win64; x64; rv:87.0) Gecko/20100101 Firefox/87.0,,Firefox,87,Windows,10
1,1,null,"""",html-keyboard-response,132,124968,0.0-132.0,"""","<img src='jspsych/CFDfaces/CFD-BM-011-016-N.jpg' height=""250px""></br><b>Brian</b>","""",256,IntactFace,Memorization,null,1000,"""","""",CFD-BF-016-017-N.jpg,Lauren,0,"""","""","""",1,5/3/2021 3:03,67.83.183.0,Mozilla/5.0 (Windows NT 10.0; Win64; x64; rv:87.0) Gecko/20100101 Firefox/87.0,,Firefox,87,Windows,10
1,1,null,"""",html-keyboard-response,133,125476,0.0-133.0,"""","<div style=""font-size:60px;"">+</div>","""",256,fixation,Memorization,null,500,"""","""","""","""","""","""","""","""",1,5/3/2021 3:03,67.83.183.0,Mozilla/5.0 (Windows NT 10.0; Win64; x64; rv:87.0) Gecko/20100101 Firefox/87.0,,Firefox,87,Windows,10
1,1,null,"""",html-keyboard-response,134,126484,0.0-134.0,"""","<img src='jspsych/CFDfaces/CFD-LF-210-220-N.jpg' height=""250px""></br><b>Michelle</b>","""",256,IntactFace,Memorization,null,1000,"""","""",CFD-LF-208-127-N.jpg,Lindsey,0,"""","""","""",1,5/3/2021 3:03,67.83.183.0,Mozilla/5.0 (Windows NT 10.0; Win64; x64; rv:87.0) Gecko/20100101 Firefox/87.0,,Firefox,87,Windows,10
1,1,null,"""",html-keyboard-response,135,126997,0.0-135.0,"""","<div style=""font-size:60px;"">+</div>","""",256,fixation,Memorization,null,500,"""","""","""","""","""","""","""","""",1,5/3/2021 3:03,67.83.183.0,Mozilla/5.0 (Windows NT 10.0; Win64; x64; rv:87.0) Gecko/20100101 Firefox/87.0,,Firefox,87,Windows,10
1,1,null,"""",html-keyboard-response,136,128003,0.0-136.0,"""","<img src='jspsych/CFDfaces/CFD-WF-207-014-N.jpg' height=""250px""></br><b>Vanessa</b>","""",256,IntactFace,Memorization,null,1000,"""","""",CFD-LM-201-057-N.jpg,Justin,0,"""","""","""",1,5/3/2021 3:03,67.83.183.0,Mozilla/5.0 (Windows NT 10.0; Win64; x64; rv:87.0) Gecko/20100101 Firefox/87.0,,Firefox,87,Windows,10
1,1,null,"""",html-keyboard-response,137,128521,0.0-137.0,"""","<div style=""font-size:60px;"">+</div>","""",256,fixation,Memorization,null,500,"""","""","""","""","""","""","""","""",1,5/3/2021 3:03,67.83.183.0,Mozilla/5.0 (Windows NT 10.0; Win64; x64; rv:87.0) Gecko/20100101 Firefox/87.0,,Firefox,87,Windows,10
1,1,null,"""",html-keyboard-response,138,129526,0.0-138.0,"""","<img src='jspsych/CFDfaces/CFD-WM-215-041-N.jpg' height=""250px""></br><b>Ian</b>","""",256,IntactFace,Memorization,null,1000,"""","""",CFD-WF-024-003-N.jpg,Tiffany,0,"""","""","""",1,5/3/2021 3:03,67.83.183.0,Mozilla/5.0 (Windows NT 10.0; Win64; x64; rv:87.0) Gecko/20100101 Firefox/87.0,,Firefox,87,Windows,10
1,1,null,"""",html-keyboard-response,139,130042,0.0-139.0,"""","<div style=""font-size:60px;"">+</div>","""",256,fixation,Memorization,null,500,"""","""","""","""","""","""","""","""",1,5/3/2021 3:03,67.83.183.0,Mozilla/5.0 (Windows NT 10.0; Win64; x64; rv:87.0) Gecko/20100101 Firefox/87.0,,Firefox,87,Windows,10
1,1,null,"""",html-keyboard-response,140,131044,0.0-140.0,"""","<img src='jspsych/CFDfaces/CFD-WF-023-003-N.jpg' height=""250px""></br><b>Victoria</b>","""",256,IntactFace,Memorization,null,1000,"""","""",CFD-BM-203-001-N.jpg,Timothy,0,"""","""","""",1,5/3/2021 3:03,67.83.183.0,Mozilla/5.0 (Windows NT 10.0; Win64; x64; rv:87.0) Gecko/20100101 Firefox/87.0,,Firefox,87,Windows,10
1,1,null,"""",html-keyboard-response,141,131551,0.0-141.0,"""","<div style=""font-size:60px;"">+</div>","""",256,fixation,Memorization,null,500,"""","""","""","""","""","""","""","""",1,5/3/2021 3:03,67.83.183.0,Mozilla/5.0 (Windows NT 10.0; Win64; x64; rv:87.0) Gecko/20100101 Firefox/87.0,,Firefox,87,Windows,10
1,1,null,"""",html-keyboard-response,142,132562,0.0-142.0,"""","<img src='jspsych/CFDfaces/CFD-BM-039-029-N.jpg' height=""250px""></br><b>Jason</b>","""",256,IntactFace,Memorization,null,1000,"""","""",CFD-AM-248-104-N.jpg,Luis,0,"""","""","""",1,5/3/2021 3:03,67.83.183.0,Mozilla/5.0 (Windows NT 10.0; Win64; x64; rv:87.0) Gecko/20100101 Firefox/87.0,,Firefox,87,Windows,10
1,1,null,"""",html-keyboard-response,143,133082,0.0-143.0,"""","<div style=""font-size:60px;"">+</div>","""",256,fixation,Memorization,null,500,"""","""","""","""","""","""","""","""",1,5/3/2021 3:03,67.83.183.0,Mozilla/5.0 (Windows NT 10.0; Win64; x64; rv:87.0) Gecko/20100101 Firefox/87.0,,Firefox,87,Windows,10
1,1,null,"""",html-keyboard-response,144,134099,0.0-144.0,"""","<img src='jspsych/CFDfaces/CFD-WM-232-070-N.jpg' height=""250px""></br><b>Daniel</b>","""",256,IntactFace,Memorization,null,1000,"""","""",CFD-AF-239-171-N.jpg,Laura,0,"""","""","""",1,5/3/2021 3:03,67.83.183.0,Mozilla/5.0 (Windows NT 10.0; Win64; x64; rv:87.0) Gecko/20100101 Firefox/87.0,,Firefox,87,Windows,10
1,1,null,"""",html-keyboard-response,145,134609,0.0-145.0,"""","<div style=""font-size:60px;"">+</div>","""",256,fixation,Memorization,null,500,"""","""","""","""","""","""","""","""",1,5/3/2021 3:03,67.83.183.0,Mozilla/5.0 (Windows NT 10.0; Win64; x64; rv:87.0) Gecko/20100101 Firefox/87.0,,Firefox,87,Windows,10
1,1,null,"""",html-keyboard-response,146,135616,0.0-146.0,"""","<img src='jspsych/CFDfaces/CFD-WM-212-097-N.jpg' height=""250px""></br><b>Richard</b>","""",256,IntactFace,Memorization,null,1000,"""","""",CFD-WF-038-021-N.jpg,Taylor,0,"""","""","""",1,5/3/2021 3:03,67.83.183.0,Mozilla/5.0 (Windows NT 10.0; Win64; x64; rv:87.0) Gecko/20100101 Firefox/87.0,,Firefox,87,Windows,10
1,1,null,"""",html-keyboard-response,147,136128,0.0-147.0,"""","<div style=""font-size:60px;"">+</div>","""",256,fixation,Memorization,null,500,"""","""","""","""","""","""","""","""",1,5/3/2021 3:03,67.83.183.0,Mozilla/5.0 (Windows NT 10.0; Win64; x64; rv:87.0) Gecko/20100101 Firefox/87.0,,Firefox,87,Windows,10
1,1,null,"""",html-keyboard-response,148,137132,0.0-148.0,"""","<img src='jspsych/CFDfaces/CFD-WM-015-002-N.jpg' height=""250px""></br><b>Joshua</b>","""",256,IntactFace,Memorization,null,1000,"""","""",CFD-BF-005-001-N.jpg,Rebecca,0,"""","""","""",1,5/3/2021 3:03,67.83.183.0,Mozilla/5.0 (Windows NT 10.0; Win64; x64; rv:87.0) Gecko/20100101 Firefox/87.0,,Firefox,87,Windows,10
1,1,null,"""",html-keyboard-response,149,137645,0.0-149.0,"""","<div style=""font-size:60px;"">+</div>","""",256,fixation,Memorization,null,500,"""","""","""","""","""","""","""","""",1,5/3/2021 3:03,67.83.183.0,Mozilla/5.0 (Windows NT 10.0; Win64; x64; rv:87.0) Gecko/20100101 Firefox/87.0,,Firefox,87,Windows,10
1,1,null,"""",html-keyboard-response,150,138646,0.0-150.0,"""","<img src='jspsych/CFDfaces/CFD-WF-220-101-N.jpg' height=""250px""></br><b>Samantha</b>","""",256,IntactFace,Memorization,null,1000,"""","""",CFD-LM-223-175-N.jpg,Austin,0,"""","""","""",1,5/3/2021 3:03,67.83.183.0,Mozilla/5.0 (Windows NT 10.0; Win64; x64; rv:87.0) Gecko/20100101 Firefox/87.0,,Firefox,87,Windows,10
1,1,null,"""",html-keyboard-response,151,139251,0.0-151.0,"""","<div style=""font-size:60px;"">+</div>","""",256,fixation,Memorization,null,500,"""","""","""","""","""","""","""","""",1,5/3/2021 3:03,67.83.183.0,Mozilla/5.0 (Windows NT 10.0; Win64; x64; rv:87.0) Gecko/20100101 Firefox/87.0,,Firefox,87,Windows,10
1,1,null,"""",html-keyboard-response,152,140266,0.0-152.0,"""","<img src='jspsych/CFDfaces/CFD-BM-208-065-N.jpg' height=""250px""></br><b>James</b>","""",256,IntactFace,Memorization,null,1000,"""","""",CFD-AM-231-136-N.jpg,Jeremy,0,"""","""","""",1,5/3/2021 3:03,67.83.183.0,Mozilla/5.0 (Windows NT 10.0; Win64; x64; rv:87.0) Gecko/20100101 Firefox/87.0,,Firefox,87,Windows,10
1,1,null,"""",html-keyboard-response,153,140771,0.0-153.0,"""","<div style=""font-size:60px;"">+</div>","""",256,fixation,Memorization,null,500,"""","""","""","""","""","""","""","""",1,5/3/2021 3:03,67.83.183.0,Mozilla/5.0 (Windows NT 10.0; Win64; x64; rv:87.0) Gecko/20100101 Firefox/87.0,,Firefox,87,Windows,10
1,1,41389,"""",html-keyboard-response,154,182163,0.0-154.0,"""",Press Any Key to Begin Memory Test,"""",1,welcomeScreen,Break,182,"""","""","""","""","""","""","""","""","""",1,5/3/2021 3:03,67.83.183.0,Mozilla/5.0 (Windows NT 10.0; Win64; x64; rv:87.0) Gecko/20100101 Firefox/87.0,,Firefox,87,Windows,10
1,1,null,"""",html-keyboard-response,155,182204,0.0-155.0,"""","<div style=""font-size:60px;"">+</div>","""",256,ITI,Test,null,5,"""","""","""","""","""","""","""","""",1,5/3/2021 3:03,67.83.183.0,Mozilla/5.0 (Windows NT 10.0; Win64; x64; rv:87.0) Gecko/20100101 Firefox/87.0,,Firefox,87,Windows,10
1,1,null,"""",image-keyboard-response,156,182330,0.0-156.0,"""",jspsych/scrambledDisgustFaces/scrambledAM05DIS.JPG,"""",256,forwardMask,Test,null,100,"""",d,"""","""","""","""","""","""",1,5/3/2021 3:03,67.83.183.0,Mozilla/5.0 (Windows NT 10.0; Win64; x64; rv:87.0) Gecko/20100101 Firefox/87.0,,Firefox,87,Windows,10
1,1,null,"""",image-keyboard-response,157,184343,0.0-157.0,"""",jspsych/disgustFaces/AM05DIS.JPG,"""",256,Cue,Test,null,2000,"""","""","""","""","""","""","""","""",1,5/3/2021 3:03,67.83.183.0,Mozilla/5.0 (Windows NT 10.0; Win64; x64; rv:87.0) Gecko/20100101 Firefox/87.0,,Firefox,87,Windows,10
1,1,null,"""",image-keyboard-response,158,184459,0.0-158.0,"""",jspsych/neutralFaces/BM03NES.JPG,"""",256,backwardMask,Test,null,100,"""","""","""","""","""","""","""","""",1,5/3/2021 3:03,67.83.183.0,Mozilla/5.0 (Windows NT 10.0; Win64; x64; rv:87.0) Gecko/20100101 Firefox/87.0,,Firefox,87,Windows,10
1,1,null,"""",html-keyboard-response,159,184674,0.0-159.0,"""","<div style=""font-size:60px;"">+</div>","""",256,fixationBtwnNeutralMaskAndPrompt,Test,null,200,"""","""","""","""","""","""","""","""",1,5/3/2021 3:03,67.83.183.0,Mozilla/5.0 (Windows NT 10.0; Win64; x64; rv:87.0) Gecko/20100101 Firefox/87.0,,Firefox,87,Windows,10
1,1,1349,"""",html-button-response,160,186027,0.0-160.0,"""","<img src='jspsych/CFDfaces/CFD-WF-023-003-N.jpg' height=""250px"">,</br><b>Ashley</b>",1,256,IntactOrRearranged,Test,"""","""","""","""",CFD-AF-200-228-N.jpg,Jenna,1,1,"""","""",1,5/3/2021 3:03,67.83.183.0,Mozilla/5.0 (Windows NT 10.0; Win64; x64; rv:87.0) Gecko/20100101 Firefox/87.0,,Firefox,87,Windows,10
1,1,1124,"""",html-slider-response,161,187159,0.0-161.0,"""","<img src='jspsych/CFDfaces/CFD-WF-023-003-N.jpg' height=""250px"">,</br><b>Ashley</b>","""",256,ConfidenceQuery,Test,"""","""","""","""",CFD-AF-200-228-N.jpg,Jenna,1,"""",0,0,1,5/3/2021 3:03,67.83.183.0,Mozilla/5.0 (Windows NT 10.0; Win64; x64; rv:87.0) Gecko/20100101 Firefox/87.0,,Firefox,87,Windows,10
1,1,null,"""",html-keyboard-response,162,187174,0.0-162.0,"""","<div style=""font-size:60px;"">+</div>","""",256,ITI,Test,null,5,"""","""","""","""","""","""","""","""",1,5/3/2021 3:03,67.83.183.0,Mozilla/5.0 (Windows NT 10.0; Win64; x64; rv:87.0) Gecko/20100101 Firefox/87.0,,Firefox,87,Windows,10
1,1,null,"""",image-keyboard-response,163,187288,0.0-163.0,"""",jspsych/scrambledNeutralFaces/scrambledBM08NES.JPG,"""",256,forwardMask,Test,null,100,"""",n,"""","""","""","""","""","""",1,5/3/2021 3:03,67.83.183.0,Mozilla/5.0 (Windows NT 10.0; Win64; x64; rv:87.0) Gecko/20100101 Firefox/87.0,,Firefox,87,Windows,10
1,1,null,"""",image-keyboard-response,164,189303,0.0-164.0,"""",jspsych/neutralFaces/BM08NES.JPG,"""",256,Cue,Test,null,2000,"""","""","""","""","""","""","""","""",1,5/3/2021 3:03,67.83.183.0,Mozilla/5.0 (Windows NT 10.0; Win64; x64; rv:87.0) Gecko/20100101 Firefox/87.0,,Firefox,87,Windows,10
1,1,null,"""",image-keyboard-response,165,189435,0.0-165.0,"""",jspsych/neutralFaces/AM14NES.JPG,"""",256,backwardMask,Test,null,100,"""","""","""","""","""","""","""","""",1,5/3/2021 3:03,67.83.183.0,Mozilla/5.0 (Windows NT 10.0; Win64; x64; rv:87.0) Gecko/20100101 Firefox/87.0,,Firefox,87,Windows,10
1,1,null,"""",html-keyboard-response,166,189652,0.0-166.0,"""","<div style=""font-size:60px;"">+</div>","""",256,fixationBtwnNeutralMaskAndPrompt,Test,null,200,"""","""","""","""","""","""","""","""",1,5/3/2021 3:03,67.83.183.0,Mozilla/5.0 (Windows NT 10.0; Win64; x64; rv:87.0) Gecko/20100101 Firefox/87.0,,Firefox,87,Windows,10
1,1,2027,"""",html-button-response,167,191683,0.0-167.0,"""","<img src='jspsych/CFDfaces/CFD-BM-208-065-N.jpg' height=""250px"">,</br><b>Jeffrey</b>",0,256,IntactOrRearranged,Test,"""","""","""","""",CFD-AM-238-269-N.jpg,Dustin,1,0,"""","""",1,5/3/2021 3:03,67.83.183.0,Mozilla/5.0 (Windows NT 10.0; Win64; x64; rv:87.0) Gecko/20100101 Firefox/87.0,,Firefox,87,Windows,10
1,1,1306,"""",html-slider-response,168,192993,0.0-168.0,"""","<img src='jspsych/CFDfaces/CFD-BM-208-065-N.jpg' height=""250px"">,</br><b>Jeffrey</b>","""",256,ConfidenceQuery,Test,"""","""","""","""",CFD-AM-238-269-N.jpg,Dustin,1,"""",0,0,1,5/3/2021 3:03,67.83.183.0,Mozilla/5.0 (Windows NT 10.0; Win64; x64; rv:87.0) Gecko/20100101 Firefox/87.0,,Firefox,87,Windows,10
1,1,null,"""",html-keyboard-response,169,193011,0.0-169.0,"""","<div style=""font-size:60px;"">+</div>","""",256,ITI,Test,null,5,"""","""","""","""","""","""","""","""",1,5/3/2021 3:03,67.83.183.0,Mozilla/5.0 (Windows NT 10.0; Win64; x64; rv:87.0) Gecko/20100101 Firefox/87.0,,Firefox,87,Windows,10
1,1,null,"""",image-keyboard-response,170,193121,0.0-170.0,"""",jspsych/scrambledNeutralFaces/scrambledBM06NES.JPG,"""",256,forwardMask,Test,null,100,"""",n,"""","""","""","""","""","""",1,5/3/2021 3:03,67.83.183.0,Mozilla/5.0 (Windows NT 10.0; Win64; x64; rv:87.0) Gecko/20100101 Firefox/87.0,,Firefox,87,Windows,10
1,1,null,"""",image-keyboard-response,171,195134,0.0-171.0,"""",jspsych/neutralFaces/BM06NES.JPG,"""",256,Cue,Test,null,2000,"""","""","""","""","""","""","""","""",1,5/3/2021 3:03,67.83.183.0,Mozilla/5.0 (Windows NT 10.0; Win64; x64; rv:87.0) Gecko/20100101 Firefox/87.0,,Firefox,87,Windows,10
1,1,null,"""",image-keyboard-response,172,195260,0.0-172.0,"""",jspsych/neutralFaces/BM21NES.JPG,"""",256,backwardMask,Test,null,100,"""","""","""","""","""","""","""","""",1,5/3/2021 3:03,67.83.183.0,Mozilla/5.0 (Windows NT 10.0; Win64; x64; rv:87.0) Gecko/20100101 Firefox/87.0,,Firefox,87,Windows,10
1,1,null,"""",html-keyboard-response,173,195464,0.0-173.0,"""","<div style=""font-size:60px;"">+</div>","""",256,fixationBtwnNeutralMaskAndPrompt,Test,null,200,"""","""","""","""","""","""","""","""",1,5/3/2021 3:03,67.83.183.0,Mozilla/5.0 (Windows NT 10.0; Win64; x64; rv:87.0) Gecko/20100101 Firefox/87.0,,Firefox,87,Windows,10
1,1,1048,"""",html-button-response,174,196514,0.0-174.0,"""","<img src='jspsych/CFDfaces/CFD-WM-212-097-N.jpg' height=""250px"">,</br><b>Christian</b>",0,256,IntactOrRearranged,Test,"""","""","""","""",CFD-LM-223-175-N.jpg,Mark,1,0,"""","""",1,5/3/2021 3:03,67.83.183.0,Mozilla/5.0 (Windows NT 10.0; Win64; x64; rv:87.0) Gecko/20100101 Firefox/87.0,,Firefox,87,Windows,10
1,1,1028,"""",html-slider-response,175,197547,0.0-175.0,"""","<img src='jspsych/CFDfaces/CFD-WM-212-097-N.jpg' height=""250px"">,</br><b>Christian</b>","""",256,ConfidenceQuery,Test,"""","""","""","""",CFD-LM-223-175-N.jpg,Mark,1,"""",0,0,1,5/3/2021 3:03,67.83.183.0,Mozilla/5.0 (Windows NT 10.0; Win64; x64; rv:87.0) Gecko/20100101 Firefox/87.0,,Firefox,87,Windows,10
1,1,null,"""",html-keyboard-response,176,197565,0.0-176.0,"""","<div style=""font-size:60px;"">+</div>","""",256,ITI,Test,null,5,"""","""","""","""","""","""","""","""",1,5/3/2021 3:03,67.83.183.0,Mozilla/5.0 (Windows NT 10.0; Win64; x64; rv:87.0) Gecko/20100101 Firefox/87.0,,Firefox,87,Windows,10
1,1,null,"""",image-keyboard-response,177,197679,0.0-177.0,"""",jspsych/scrambledNeutralFaces/scrambledBM06NES.JPG,"""",256,forwardMask,Test,null,100,"""",n,"""","""","""","""","""","""",1,5/3/2021 3:03,67.83.183.0,Mozilla/5.0 (Windows NT 10.0; Win64; x64; rv:87.0) Gecko/20100101 Firefox/87.0,,Firefox,87,Windows,10
1,1,null,"""",image-keyboard-response,178,199681,0.0-178.0,"""",jspsych/neutralFaces/BM06NES.JPG,"""",256,Cue,Test,null,2000,"""","""","""","""","""","""","""","""",1,5/3/2021 3:03,67.83.183.0,Mozilla/5.0 (Windows NT 10.0; Win64; x64; rv:87.0) Gecko/20100101 Firefox/87.0,,Firefox,87,Windows,10
1,1,null,"""",image-keyboard-response,179,199791,0.0-179.0,"""",jspsych/neutralFaces/AM22NES.JPG,"""",256,backwardMask,Test,null,100,"""","""","""","""","""","""","""","""",1,5/3/2021 3:03,67.83.183.0,Mozilla/5.0 (Windows NT 10.0; Win64; x64; rv:87.0) Gecko/20100101 Firefox/87.0,,Firefox,87,Windows,10
1,1,null,"""",html-keyboard-response,180,199999,0.0-180.0,"""","<div style=""font-size:60px;"">+</div>","""",256,fixationBtwnNeutralMaskAndPrompt,Test,null,200,"""","""","""","""","""","""","""","""",1,5/3/2021 3:03,67.83.183.0,Mozilla/5.0 (Windows NT 10.0; Win64; x64; rv:87.0) Gecko/20100101 Firefox/87.0,,Firefox,87,Windows,10
1,1,894,"""",html-button-response,181,200894,0.0-181.0,"""","<img src='jspsych/CFDfaces/CFD-LF-205-100-N.jpg' height=""250px"">,</br><b>Kimberly</b>",0,256,IntactOrRearranged,Test,"""","""","""","""",CFD-BF-005-001-N.jpg,Rebecca,1,0,"""","""",1,5/3/2021 3:03,67.83.183.0,Mozilla/5.0 (Windows NT 10.0; Win64; x64; rv:87.0) Gecko/20100101 Firefox/87.0,,Firefox,87,Windows,10
1,1,1000,"""",html-slider-response,182,201905,0.0-182.0,"""","<img src='jspsych/CFDfaces/CFD-LF-205-100-N.jpg' height=""250px"">,</br><b>Kimberly</b>","""",256,ConfidenceQuery,Test,"""","""","""","""",CFD-BF-005-001-N.jpg,Rebecca,1,"""",0,0,1,5/3/2021 3:03,67.83.183.0,Mozilla/5.0 (Windows NT 10.0; Win64; x64; rv:87.0) Gecko/20100101 Firefox/87.0,,Firefox,87,Windows,10
1,1,null,"""",html-keyboard-response,183,201915,0.0-183.0,"""","<div style=""font-size:60px;"">+</div>","""",256,ITI,Test,null,5,"""","""","""","""","""","""","""","""",1,5/3/2021 3:03,67.83.183.0,Mozilla/5.0 (Windows NT 10.0; Win64; x64; rv:87.0) Gecko/20100101 Firefox/87.0,,Firefox,87,Windows,10
1,1,null,"""",image-keyboard-response,184,202017,0.0-184.0,"""",jspsych/scrambledDisgustFaces/scrambledAM06DIS.JPG,"""",256,forwardMask,Test,null,100,"""",d,"""","""","""","""","""","""",1,5/3/2021 3:03,67.83.183.0,Mozilla/5.0 (Windows NT 10.0; Win64; x64; rv:87.0) Gecko/20100101 Firefox/87.0,,Firefox,87,Windows,10
1,1,null,"""",image-keyboard-response,185,204040,0.0-185.0,"""",jspsych/disgustFaces/AM06DIS.JPG,"""",256,Cue,Test,null,2000,"""","""","""","""","""","""","""","""",1,5/3/2021 3:03,67.83.183.0,Mozilla/5.0 (Windows NT 10.0; Win64; x64; rv:87.0) Gecko/20100101 Firefox/87.0,,Firefox,87,Windows,10
1,1,null,"""",image-keyboard-response,186,204154,0.0-186.0,"""",jspsych/neutralFaces/BM25NES.JPG,"""",256,backwardMask,Test,null,100,"""","""","""","""","""","""","""","""",1,5/3/2021 3:03,67.83.183.0,Mozilla/5.0 (Windows NT 10.0; Win64; x64; rv:87.0) Gecko/20100101 Firefox/87.0,,Firefox,87,Windows,10
1,1,null,"""",html-keyboard-response,187,204369,0.0-187.0,"""","<div style=""font-size:60px;"">+</div>","""",256,fixationBtwnNeutralMaskAndPrompt,Test,null,200,"""","""","""","""","""","""","""","""",1,5/3/2021 3:03,67.83.183.0,Mozilla/5.0 (Windows NT 10.0; Win64; x64; rv:87.0) Gecko/20100101 Firefox/87.0,,Firefox,87,Windows,10
1,1,832,"""",html-button-response,188,205205,0.0-188.0,"""","<img src='jspsych/CFDfaces/CFD-LF-204-133-N.jpg' height=""250px"">,</br><b>Brittany</b>",1,256,IntactOrRearranged,Test,"""","""","""","""",CFD-BF-047-003-N.jpg,Heather,0,1,"""","""",1,5/3/2021 3:03,67.83.183.0,Mozilla/5.0 (Windows NT 10.0; Win64; x64; rv:87.0) Gecko/20100101 Firefox/87.0,,Firefox,87,Windows,10
1,1,1480,"""",html-slider-response,189,206689,0.0-189.0,"""","<img src='jspsych/CFDfaces/CFD-LF-204-133-N.jpg' height=""250px"">,</br><b>Brittany</b>","""",256,ConfidenceQuery,Test,"""","""","""","""",CFD-BF-047-003-N.jpg,Heather,0,"""",0,0,1,5/3/2021 3:03,67.83.183.0,Mozilla/5.0 (Windows NT 10.0; Win64; x64; rv:87.0) Gecko/20100101 Firefox/87.0,,Firefox,87,Windows,10
1,1,null,"""",html-keyboard-response,190,206704,0.0-190.0,"""","<div style=""font-size:60px;"">+</div>","""",256,ITI,Test,null,5,"""","""","""","""","""","""","""","""",1,5/3/2021 3:03,67.83.183.0,Mozilla/5.0 (Windows NT 10.0; Win64; x64; rv:87.0) Gecko/20100101 Firefox/87.0,,Firefox,87,Windows,10
1,1,null,"""",image-keyboard-response,191,206820,0.0-191.0,"""",jspsych/scrambledNeutralFaces/scrambledAF25NES.JPG,"""",256,forwardMask,Test,null,100,"""",n,"""","""","""","""","""","""",1,5/3/2021 3:03,67.83.183.0,Mozilla/5.0 (Windows NT 10.0; Win64; x64; rv:87.0) Gecko/20100101 Firefox/87.0,,Firefox,87,Windows,10
1,1,null,"""",image-keyboard-response,192,208852,0.0-192.0,"""",jspsych/neutralFaces/AF25NES.JPG,"""",256,Cue,Test,null,2000,"""","""","""","""","""","""","""","""",1,5/3/2021 3:03,67.83.183.0,Mozilla/5.0 (Windows NT 10.0; Win64; x64; rv:87.0) Gecko/20100101 Firefox/87.0,,Firefox,87,Windows,10
1,1,null,"""",image-keyboard-response,193,208968,0.0-193.0,"""",jspsych/neutralFaces/AF14NES.JPG,"""",256,backwardMask,Test,null,100,"""","""","""","""","""","""","""","""",1,5/3/2021 3:03,67.83.183.0,Mozilla/5.0 (Windows NT 10.0; Win64; x64; rv:87.0) Gecko/20100101 Firefox/87.0,,Firefox,87,Windows,10
1,1,null,"""",html-keyboard-response,194,209183,0.0-194.0,"""","<div style=""font-size:60px;"">+</div>","""",256,fixationBtwnNeutralMaskAndPrompt,Test,null,200,"""","""","""","""","""","""","""","""",1,5/3/2021 3:03,67.83.183.0,Mozilla/5.0 (Windows NT 10.0; Win64; x64; rv:87.0) Gecko/20100101 Firefox/87.0,,Firefox,87,Windows,10
1,1,1216,"""",html-button-response,195,210402,0.0-195.0,"""","<img src='jspsych/CFDfaces/CFD-LM-213-061-N.jpg' height=""250px"">,</br><b>Joshua</b>",0,256,IntactOrRearranged,Test,"""","""","""","""",CFD-LM-239-075-N.jpg,Sean,1,0,"""","""",1,5/3/2021 3:03,67.83.183.0,Mozilla/5.0 (Windows NT 10.0; Win64; x64; rv:87.0) Gecko/20100101 Firefox/87.0,,Firefox,87,Windows,10
1,1,1079,"""",html-slider-response,196,211484,0.0-196.0,"""","<img src='jspsych/CFDfaces/CFD-LM-213-061-N.jpg' height=""250px"">,</br><b>Joshua</b>","""",256,ConfidenceQuery,Test,"""","""","""","""",CFD-LM-239-075-N.jpg,Sean,1,"""",0,0,1,5/3/2021 3:03,67.83.183.0,Mozilla/5.0 (Windows NT 10.0; Win64; x64; rv:87.0) Gecko/20100101 Firefox/87.0,,Firefox,87,Windows,10
1,1,null,"""",html-keyboard-response,197,211501,0.0-197.0,"""","<div style=""font-size:60px;"">+</div>","""",256,ITI,Test,null,5,"""","""","""","""","""","""","""","""",1,5/3/2021 3:03,67.83.183.0,Mozilla/5.0 (Windows NT 10.0; Win64; x64; rv:87.0) Gecko/20100101 Firefox/87.0,,Firefox,87,Windows,10
1,1,null,"""",image-keyboard-response,198,211615,0.0-198.0,"""",jspsych/scrambledNeutralFaces/scrambledBF07NES.JPG,"""",256,forwardMask,Test,null,100,"""",n,"""","""","""","""","""","""",1,5/3/2021 3:03,67.83.183.0,Mozilla/5.0 (Windows NT 10.0; Win64; x64; rv:87.0) Gecko/20100101 Firefox/87.0,,Firefox,87,Windows,10
1,1,null,"""",image-keyboard-response,199,213632,0.0-199.0,"""",jspsych/neutralFaces/BF07NES.JPG,"""",256,Cue,Test,null,2000,"""","""","""","""","""","""","""","""",1,5/3/2021 3:03,67.83.183.0,Mozilla/5.0 (Windows NT 10.0; Win64; x64; rv:87.0) Gecko/20100101 Firefox/87.0,,Firefox,87,Windows,10
1,1,null,"""",image-keyboard-response,200,213763,0.0-200.0,"""",jspsych/neutralFaces/AF10NES.JPG,"""",256,backwardMask,Test,null,100,"""","""","""","""","""","""","""","""",1,5/3/2021 3:03,67.83.183.0,Mozilla/5.0 (Windows NT 10.0; Win64; x64; rv:87.0) Gecko/20100101 Firefox/87.0,,Firefox,87,Windows,10
1,1,null,"""",html-keyboard-response,201,213980,0.0-201.0,"""","<div style=""font-size:60px;"">+</div>","""",256,fixationBtwnNeutralMaskAndPrompt,Test,null,200,"""","""","""","""","""","""","""","""",1,5/3/2021 3:03,67.83.183.0,Mozilla/5.0 (Windows NT 10.0; Win64; x64; rv:87.0) Gecko/20100101 Firefox/87.0,,Firefox,87,Windows,10
1,1,2494,"""",html-button-response,202,216475,0.0-202.0,"""","<img src='jspsych/CFDfaces/CFD-WF-207-014-N.jpg' height=""250px"">,</br><b>Vanessa</b>",0,256,IntactOrRearranged,Test,"""","""","""","""",CFD-WM-006-002-N.jpg,Timothy,0,0,"""","""",1,5/3/2021 3:03,67.83.183.0,Mozilla/5.0 (Windows NT 10.0; Win64; x64; rv:87.0) Gecko/20100101 Firefox/87.0,,Firefox,87,Windows,10
1,1,942,"""",html-slider-response,203,217422,0.0-203.0,"""","<img src='jspsych/CFDfaces/CFD-WF-207-014-N.jpg' height=""250px"">,</br><b>Vanessa</b>","""",256,ConfidenceQuery,Test,"""","""","""","""",CFD-WM-006-002-N.jpg,Timothy,0,"""",0,0,1,5/3/2021 3:03,67.83.183.0,Mozilla/5.0 (Windows NT 10.0; Win64; x64; rv:87.0) Gecko/20100101 Firefox/87.0,,Firefox,87,Windows,10
1,1,null,"""",html-keyboard-response,204,217431,0.0-204.0,"""","<div style=""font-size:60px;"">+</div>","""",256,ITI,Test,null,5,"""","""","""","""","""","""","""","""",1,5/3/2021 3:03,67.83.183.0,Mozilla/5.0 (Windows NT 10.0; Win64; x64; rv:87.0) Gecko/20100101 Firefox/87.0,,Firefox,87,Windows,10
1,1,null,"""",image-keyboard-response,205,217542,0.0-205.0,"""",jspsych/scrambledDisgustFaces/scrambledAM08DIS.JPG,"""",256,forwardMask,Test,null,100,"""",d,"""","""","""","""","""","""",1,5/3/2021 3:03,67.83.183.0,Mozilla/5.0 (Windows NT 10.0; Win64; x64; rv:87.0) Gecko/20100101 Firefox/87.0,,Firefox,87,Windows,10
1,1,null,"""",image-keyboard-response,206,219555,0.0-206.0,"""",jspsych/disgustFaces/AM08DIS.JPG,"""",256,Cue,Test,null,2000,"""","""","""","""","""","""","""","""",1,5/3/2021 3:03,67.83.183.0,Mozilla/5.0 (Windows NT 10.0; Win64; x64; rv:87.0) Gecko/20100101 Firefox/87.0,,Firefox,87,Windows,10
1,1,null,"""",image-keyboard-response,207,219667,0.0-207.0,"""",jspsych/neutralFaces/BM11NES.JPG,"""",256,backwardMask,Test,null,100,"""","""","""","""","""","""","""","""",1,5/3/2021 3:03,67.83.183.0,Mozilla/5.0 (Windows NT 10.0; Win64; x64; rv:87.0) Gecko/20100101 Firefox/87.0,,Firefox,87,Windows,10
1,1,null,"""",html-keyboard-response,208,219882,0.0-208.0,"""","<div style=""font-size:60px;"">+</div>","""",256,fixationBtwnNeutralMaskAndPrompt,Test,null,200,"""","""","""","""","""","""","""","""",1,5/3/2021 3:03,67.83.183.0,Mozilla/5.0 (Windows NT 10.0; Win64; x64; rv:87.0) Gecko/20100101 Firefox/87.0,,Firefox,87,Windows,10
1,1,909,"""",html-button-response,209,220793,0.0-209.0,"""","<img src='jspsych/CFDfaces/CFD-LM-234-176-N.jpg' height=""250px"">,</br><b>Nicholas</b>",1,256,IntactOrRearranged,Test,"""","""","""","""",CFD-AM-243-212-N.jpg,Steven,0,1,"""","""",1,5/3/2021 3:03,67.83.183.0,Mozilla/5.0 (Windows NT 10.0; Win64; x64; rv:87.0) Gecko/20100101 Firefox/87.0,,Firefox,87,Windows,10
1,1,1727,"""",html-slider-response,210,222523,0.0-210.0,"""","<img src='jspsych/CFDfaces/CFD-LM-234-176-N.jpg' height=""250px"">,</br><b>Nicholas</b>","""",256,ConfidenceQuery,Test,"""","""","""","""",CFD-AM-243-212-N.jpg,Steven,0,"""",0,0,1,5/3/2021 3:03,67.83.183.0,Mozilla/5.0 (Windows NT 10.0; Win64; x64; rv:87.0) Gecko/20100101 Firefox/87.0,,Firefox,87,Windows,10
1,1,null,"""",html-keyboard-response,211,222538,0.0-211.0,"""","<div style=""font-size:60px;"">+</div>","""",256,ITI,Test,null,5,"""","""","""","""","""","""","""","""",1,5/3/2021 3:03,67.83.183.0,Mozilla/5.0 (Windows NT 10.0; Win64; x64; rv:87.0) Gecko/20100101 Firefox/87.0,,Firefox,87,Windows,10
1,1,null,"""",image-keyboard-response,212,222645,0.0-212.0,"""",jspsych/scrambledDisgustFaces/scrambledAF07DIS.JPG,"""",256,forwardMask,Test,null,100,"""",d,"""","""","""","""","""","""",1,5/3/2021 3:03,67.83.183.0,Mozilla/5.0 (Windows NT 10.0; Win64; x64; rv:87.0) Gecko/20100101 Firefox/87.0,,Firefox,87,Windows,10
1,1,null,"""",image-keyboard-response,213,224653,0.0-213.0,"""",jspsych/disgustFaces/AF07DIS.JPG,"""",256,Cue,Test,null,2000,"""","""","""","""","""","""","""","""",1,5/3/2021 3:03,67.83.183.0,Mozilla/5.0 (Windows NT 10.0; Win64; x64; rv:87.0) Gecko/20100101 Firefox/87.0,,Firefox,87,Windows,10
1,1,null,"""",image-keyboard-response,214,224764,0.0-214.0,"""",jspsych/neutralFaces/AF16NES.JPG,"""",256,backwardMask,Test,null,100,"""","""","""","""","""","""","""","""",1,5/3/2021 3:03,67.83.183.0,Mozilla/5.0 (Windows NT 10.0; Win64; x64; rv:87.0) Gecko/20100101 Firefox/87.0,,Firefox,87,Windows,10
1,1,null,"""",html-keyboard-response,215,224969,0.0-215.0,"""","<div style=""font-size:60px;"">+</div>","""",256,fixationBtwnNeutralMaskAndPrompt,Test,null,200,"""","""","""","""","""","""","""","""",1,5/3/2021 3:03,67.83.183.0,Mozilla/5.0 (Windows NT 10.0; Win64; x64; rv:87.0) Gecko/20100101 Firefox/87.0,,Firefox,87,Windows,10
1,1,1914,"""",html-button-response,216,226885,0.0-216.0,"""","<img src='jspsych/CFDfaces/CFD-LM-217-162-N.jpg' height=""250px"">,</br><b>Richard</b>",1,256,IntactOrRearranged,Test,"""","""","""","""",CFD-AF-239-171-N.jpg,Sara,1,1,"""","""",1,5/3/2021 3:03,67.83.183.0,Mozilla/5.0 (Windows NT 10.0; Win64; x64; rv:87.0) Gecko/20100101 Firefox/87.0,,Firefox,87,Windows,10
1,1,1139,"""",html-slider-response,217,228034,0.0-217.0,"""","<img src='jspsych/CFDfaces/CFD-LM-217-162-N.jpg' height=""250px"">,</br><b>Richard</b>","""",256,ConfidenceQuery,Test,"""","""","""","""",CFD-AF-239-171-N.jpg,Sara,1,"""",0,0,1,5/3/2021 3:03,67.83.183.0,Mozilla/5.0 (Windows NT 10.0; Win64; x64; rv:87.0) Gecko/20100101 Firefox/87.0,,Firefox,87,Windows,10
1,1,null,"""",html-keyboard-response,218,228051,0.0-218.0,"""","<div style=""font-size:60px;"">+</div>","""",256,ITI,Test,null,5,"""","""","""","""","""","""","""","""",1,5/3/2021 3:03,67.83.183.0,Mozilla/5.0 (Windows NT 10.0; Win64; x64; rv:87.0) Gecko/20100101 Firefox/87.0,,Firefox,87,Windows,10
1,1,null,"""",image-keyboard-response,219,228165,0.0-219.0,"""",jspsych/scrambledNeutralFaces/scrambledAM03NES.JPG,"""",256,forwardMask,Test,null,100,"""",n,"""","""","""","""","""","""",1,5/3/2021 3:03,67.83.183.0,Mozilla/5.0 (Windows NT 10.0; Win64; x64; rv:87.0) Gecko/20100101 Firefox/87.0,,Firefox,87,Windows,10
1,1,null,"""",image-keyboard-response,220,230173,0.0-220.0,"""",jspsych/neutralFaces/AM03NES.JPG,"""",256,Cue,Test,null,2000,"""","""","""","""","""","""","""","""",1,5/3/2021 3:03,67.83.183.0,Mozilla/5.0 (Windows NT 10.0; Win64; x64; rv:87.0) Gecko/20100101 Firefox/87.0,,Firefox,87,Windows,10
1,1,null,"""",image-keyboard-response,221,230280,0.0-221.0,"""",jspsych/neutralFaces/AM22NES.JPG,"""",256,backwardMask,Test,null,100,"""","""","""","""","""","""","""","""",1,5/3/2021 3:03,67.83.183.0,Mozilla/5.0 (Windows NT 10.0; Win64; x64; rv:87.0) Gecko/20100101 Firefox/87.0,,Firefox,87,Windows,10
1,1,null,"""",html-keyboard-response,222,230493,0.0-222.0,"""","<div style=""font-size:60px;"">+</div>","""",256,fixationBtwnNeutralMaskAndPrompt,Test,null,200,"""","""","""","""","""","""","""","""",1,5/3/2021 3:03,67.83.183.0,Mozilla/5.0 (Windows NT 10.0; Win64; x64; rv:87.0) Gecko/20100101 Firefox/87.0,,Firefox,87,Windows,10
1,1,1620,"""",html-button-response,223,232114,0.0-223.0,"""","<img src='jspsych/CFDfaces/CFD-LF-232-199-N.jpg' height=""250px"">,</br><b>Emily</b>",0,256,IntactOrRearranged,Test,"""","""","""","""",CFD-LF-213-079-N.jpg,Melissa,1,0,"""","""",1,5/3/2021 3:03,67.83.183.0,Mozilla/5.0 (Windows NT 10.0; Win64; x64; rv:87.0) Gecko/20100101 Firefox/87.0,,Firefox,87,Windows,10
1,1,1062,"""",html-slider-response,224,233180,0.0-224.0,"""","<img src='jspsych/CFDfaces/CFD-LF-232-199-N.jpg' height=""250px"">,</br><b>Emily</b>","""",256,ConfidenceQuery,Test,"""","""","""","""",CFD-LF-213-079-N.jpg,Melissa,1,"""",0,0,1,5/3/2021 3:03,67.83.183.0,Mozilla/5.0 (Windows NT 10.0; Win64; x64; rv:87.0) Gecko/20100101 Firefox/87.0,,Firefox,87,Windows,10
1,1,null,"""",html-keyboard-response,225,233211,0.0-225.0,"""","<div style=""font-size:60px;"">+</div>","""",256,ITI,Test,null,5,"""","""","""","""","""","""","""","""",1,5/3/2021 3:03,67.83.183.0,Mozilla/5.0 (Windows NT 10.0; Win64; x64; rv:87.0) Gecko/20100101 Firefox/87.0,,Firefox,87,Windows,10
1,1,null,"""",image-keyboard-response,226,233326,0.0-226.0,"""",jspsych/scrambledDisgustFaces/scrambledAM18DIS.JPG,"""",256,forwardMask,Test,null,100,"""",d,"""","""","""","""","""","""",1,5/3/2021 3:03,67.83.183.0,Mozilla/5.0 (Windows NT 10.0; Win64; x64; rv:87.0) Gecko/20100101 Firefox/87.0,,Firefox,87,Windows,10
1,1,null,"""",image-keyboard-response,227,235333,0.0-227.0,"""",jspsych/disgustFaces/AM18DIS.JPG,"""",256,Cue,Test,null,2000,"""","""","""","""","""","""","""","""",1,5/3/2021 3:03,67.83.183.0,Mozilla/5.0 (Windows NT 10.0; Win64; x64; rv:87.0) Gecko/20100101 Firefox/87.0,,Firefox,87,Windows,10
1,1,null,"""",image-keyboard-response,228,235452,0.0-228.0,"""",jspsych/neutralFaces/AM32NES.JPG,"""",256,backwardMask,Test,null,100,"""","""","""","""","""","""","""","""",1,5/3/2021 3:03,67.83.183.0,Mozilla/5.0 (Windows NT 10.0; Win64; x64; rv:87.0) Gecko/20100101 Firefox/87.0,,Firefox,87,Windows,10
1,1,null,"""",html-keyboard-response,229,235659,0.0-229.0,"""","<div style=""font-size:60px;"">+</div>","""",256,fixationBtwnNeutralMaskAndPrompt,Test,null,200,"""","""","""","""","""","""","""","""",1,5/3/2021 3:03,67.83.183.0,Mozilla/5.0 (Windows NT 10.0; Win64; x64; rv:87.0) Gecko/20100101 Firefox/87.0,,Firefox,87,Windows,10
1,1,984,"""",html-button-response,230,236644,0.0-230.0,"""","<img src='jspsych/CFDfaces/CFD-AF-220-107-N.jpg' height=""250px"">,</br><b>Stephanie</b>",1,256,IntactOrRearranged,Test,"""","""","""","""",CFD-WF-038-021-N.jpg,Taylor,0,1,"""","""",1,5/3/2021 3:03,67.83.183.0,Mozilla/5.0 (Windows NT 10.0; Win64; x64; rv:87.0) Gecko/20100101 Firefox/87.0,,Firefox,87,Windows,10
1,1,1004,"""",html-slider-response,231,237650,0.0-231.0,"""","<img src='jspsych/CFDfaces/CFD-AF-220-107-N.jpg' height=""250px"">,</br><b>Stephanie</b>","""",256,ConfidenceQuery,Test,"""","""","""","""",CFD-WF-038-021-N.jpg,Taylor,0,"""",0,0,1,5/3/2021 3:03,67.83.183.0,Mozilla/5.0 (Windows NT 10.0; Win64; x64; rv:87.0) Gecko/20100101 Firefox/87.0,,Firefox,87,Windows,10
1,1,null,"""",html-keyboard-response,232,237660,0.0-232.0,"""","<div style=""font-size:60px;"">+</div>","""",256,ITI,Test,null,5,"""","""","""","""","""","""","""","""",1,5/3/2021 3:03,67.83.183.0,Mozilla/5.0 (Windows NT 10.0; Win64; x64; rv:87.0) Gecko/20100101 Firefox/87.0,,Firefox,87,Windows,10
1,1,null,"""",image-keyboard-response,233,237772,0.0-233.0,"""",jspsych/scrambledNeutralFaces/scrambledAM23NES.JPG,"""",256,forwardMask,Test,null,100,"""",n,"""","""","""","""","""","""",1,5/3/2021 3:03,67.83.183.0,Mozilla/5.0 (Windows NT 10.0; Win64; x64; rv:87.0) Gecko/20100101 Firefox/87.0,,Firefox,87,Windows,10
1,1,null,"""",image-keyboard-response,234,239783,0.0-234.0,"""",jspsych/neutralFaces/AM23NES.JPG,"""",256,Cue,Test,null,2000,"""","""","""","""","""","""","""","""",1,5/3/2021 3:03,67.83.183.0,Mozilla/5.0 (Windows NT 10.0; Win64; x64; rv:87.0) Gecko/20100101 Firefox/87.0,,Firefox,87,Windows,10
1,1,null,"""",image-keyboard-response,235,239905,0.0-235.0,"""",jspsych/neutralFaces/AM06NES.JPG,"""",256,backwardMask,Test,null,100,"""","""","""","""","""","""","""","""",1,5/3/2021 3:03,67.83.183.0,Mozilla/5.0 (Windows NT 10.0; Win64; x64; rv:87.0) Gecko/20100101 Firefox/87.0,,Firefox,87,Windows,10
1,1,null,"""",html-keyboard-response,236,240118,0.0-236.0,"""","<div style=""font-size:60px;"">+</div>","""",256,fixationBtwnNeutralMaskAndPrompt,Test,null,200,"""","""","""","""","""","""","""","""",1,5/3/2021 3:03,67.83.183.0,Mozilla/5.0 (Windows NT 10.0; Win64; x64; rv:87.0) Gecko/20100101 Firefox/87.0,,Firefox,87,Windows,10
1,1,919,"""",html-button-response,237,241039,0.0-237.0,"""","<img src='jspsych/CFDfaces/CFD-BM-039-029-N.jpg' height=""250px"">,</br><b>Jason</b>",0,256,IntactOrRearranged,Test,"""","""","""","""",CFD-BF-222-240-N.jpg,Angela,0,0,"""","""",1,5/3/2021 3:03,67.83.183.0,Mozilla/5.0 (Windows NT 10.0; Win64; x64; rv:87.0) Gecko/20100101 Firefox/87.0,,Firefox,87,Windows,10
1,1,1193,"""",html-slider-response,238,242236,0.0-238.0,"""","<img src='jspsych/CFDfaces/CFD-BM-039-029-N.jpg' height=""250px"">,</br><b>Jason</b>","""",256,ConfidenceQuery,Test,"""","""","""","""",CFD-BF-222-240-N.jpg,Angela,0,"""",0,0,1,5/3/2021 3:03,67.83.183.0,Mozilla/5.0 (Windows NT 10.0; Win64; x64; rv:87.0) Gecko/20100101 Firefox/87.0,,Firefox,87,Windows,10
1,1,null,"""",html-keyboard-response,239,242250,0.0-239.0,"""","<div style=""font-size:60px;"">+</div>","""",256,ITI,Test,null,5,"""","""","""","""","""","""","""","""",1,5/3/2021 3:03,67.83.183.0,Mozilla/5.0 (Windows NT 10.0; Win64; x64; rv:87.0) Gecko/20100101 Firefox/87.0,,Firefox,87,Windows,10
1,1,null,"""",image-keyboard-response,240,242367,0.0-240.0,"""",jspsych/scrambledDisgustFaces/scrambledBM15DIS.JPG,"""",256,forwardMask,Test,null,100,"""",d,"""","""","""","""","""","""",1,5/3/2021 3:03,67.83.183.0,Mozilla/5.0 (Windows NT 10.0; Win64; x64; rv:87.0) Gecko/20100101 Firefox/87.0,,Firefox,87,Windows,10
1,1,null,"""",image-keyboard-response,241,244382,0.0-241.0,"""",jspsych/disgustFaces/BM16DIS.JPG,"""",256,Cue,Test,null,2000,"""","""","""","""","""","""","""","""",1,5/3/2021 3:03,67.83.183.0,Mozilla/5.0 (Windows NT 10.0; Win64; x64; rv:87.0) Gecko/20100101 Firefox/87.0,,Firefox,87,Windows,10
1,1,null,"""",image-keyboard-response,242,244495,0.0-242.0,"""",jspsych/neutralFaces/AM35NES.JPG,"""",256,backwardMask,Test,null,100,"""","""","""","""","""","""","""","""",1,5/3/2021 3:03,67.83.183.0,Mozilla/5.0 (Windows NT 10.0; Win64; x64; rv:87.0) Gecko/20100101 Firefox/87.0,,Firefox,87,Windows,10
1,1,null,"""",html-keyboard-response,243,244700,0.0-243.0,"""","<div style=""font-size:60px;"">+</div>","""",256,fixationBtwnNeutralMaskAndPrompt,Test,null,200,"""","""","""","""","""","""","""","""",1,5/3/2021 3:03,67.83.183.0,Mozilla/5.0 (Windows NT 10.0; Win64; x64; rv:87.0) Gecko/20100101 Firefox/87.0,,Firefox,87,Windows,10
1,1,850,"""",html-button-response,244,245551,0.0-244.0,"""","<img src='jspsych/CFDfaces/CFD-WM-232-070-N.jpg' height=""250px"">,</br><b>James</b>",1,256,IntactOrRearranged,Test,"""","""","""","""",CFD-BF-008-001-N.jpg,Whitney,1,1,"""","""",1,5/3/2021 3:03,67.83.183.0,Mozilla/5.0 (Windows NT 10.0; Win64; x64; rv:87.0) Gecko/20100101 Firefox/87.0,,Firefox,87,Windows,10
1,1,1100,"""",html-slider-response,245,246664,0.0-245.0,"""","<img src='jspsych/CFDfaces/CFD-WM-232-070-N.jpg' height=""250px"">,</br><b>James</b>","""",256,ConfidenceQuery,Test,"""","""","""","""",CFD-BF-008-001-N.jpg,Whitney,1,"""",0,0,1,5/3/2021 3:03,67.83.183.0,Mozilla/5.0 (Windows NT 10.0; Win64; x64; rv:87.0) Gecko/20100101 Firefox/87.0,,Firefox,87,Windows,10
1,1,null,"""",html-keyboard-response,246,246680,0.0-246.0,"""","<div style=""font-size:60px;"">+</div>","""",256,ITI,Test,null,5,"""","""","""","""","""","""","""","""",1,5/3/2021 3:03,67.83.183.0,Mozilla/5.0 (Windows NT 10.0; Win64; x64; rv:87.0) Gecko/20100101 Firefox/87.0,,Firefox,87,Windows,10
1,1,null,"""",image-keyboard-response,247,246792,0.0-247.0,"""",jspsych/scrambledNeutralFaces/scrambledBF16NES.JPG,"""",256,forwardMask,Test,null,100,"""",n,"""","""","""","""","""","""",1,5/3/2021 3:03,67.83.183.0,Mozilla/5.0 (Windows NT 10.0; Win64; x64; rv:87.0) Gecko/20100101 Firefox/87.0,,Firefox,87,Windows,10
1,1,null,"""",image-keyboard-response,248,248802,0.0-248.0,"""",jspsych/neutralFaces/BF16NES.JPG,"""",256,Cue,Test,null,2000,"""","""","""","""","""","""","""","""",1,5/3/2021 3:03,67.83.183.0,Mozilla/5.0 (Windows NT 10.0; Win64; x64; rv:87.0) Gecko/20100101 Firefox/87.0,,Firefox,87,Windows,10
1,1,null,"""",image-keyboard-response,249,248912,0.0-249.0,"""",jspsych/neutralFaces/AF02NES.JPG,"""",256,backwardMask,Test,null,100,"""","""","""","""","""","""","""","""",1,5/3/2021 3:03,67.83.183.0,Mozilla/5.0 (Windows NT 10.0; Win64; x64; rv:87.0) Gecko/20100101 Firefox/87.0,,Firefox,87,Windows,10
1,1,null,"""",html-keyboard-response,250,249128,0.0-250.0,"""","<div style=""font-size:60px;"">+</div>","""",256,fixationBtwnNeutralMaskAndPrompt,Test,null,200,"""","""","""","""","""","""","""","""",1,5/3/2021 3:03,67.83.183.0,Mozilla/5.0 (Windows NT 10.0; Win64; x64; rv:87.0) Gecko/20100101 Firefox/87.0,,Firefox,87,Windows,10
1,1,865,"""",html-button-response,251,249994,0.0-251.0,"""","<img src='jspsych/CFDfaces/CFD-AF-235-170-N.jpg' height=""250px"">,</br><b>Kayla</b>",0,256,IntactOrRearranged,Test,"""","""","""","""",CFD-BM-207-024-N.jpg,Cameron,0,0,"""","""",1,5/3/2021 3:03,67.83.183.0,Mozilla/5.0 (Windows NT 10.0; Win64; x64; rv:87.0) Gecko/20100101 Firefox/87.0,,Firefox,87,Windows,10
1,1,1416,"""",html-slider-response,252,251414,0.0-252.0,"""","<img src='jspsych/CFDfaces/CFD-AF-235-170-N.jpg' height=""250px"">,</br><b>Kayla</b>","""",256,ConfidenceQuery,Test,"""","""","""","""",CFD-BM-207-024-N.jpg,Cameron,0,"""",0,0,1,5/3/2021 3:03,67.83.183.0,Mozilla/5.0 (Windows NT 10.0; Win64; x64; rv:87.0) Gecko/20100101 Firefox/87.0,,Firefox,87,Windows,10
1,1,null,"""",html-keyboard-response,253,251432,0.0-253.0,"""","<div style=""font-size:60px;"">+</div>","""",256,ITI,Test,null,5,"""","""","""","""","""","""","""","""",1,5/3/2021 3:03,67.83.183.0,Mozilla/5.0 (Windows NT 10.0; Win64; x64; rv:87.0) Gecko/20100101 Firefox/87.0,,Firefox,87,Windows,10
1,1,null,"""",image-keyboard-response,254,251542,0.0-254.0,"""",jspsych/scrambledNeutralFaces/scrambledAF21NES.JPG,"""",256,forwardMask,Test,null,100,"""",n,"""","""","""","""","""","""",1,5/3/2021 3:03,67.83.183.0,Mozilla/5.0 (Windows NT 10.0; Win64; x64; rv:87.0) Gecko/20100101 Firefox/87.0,,Firefox,87,Windows,10
1,1,null,"""",image-keyboard-response,255,253558,0.0-255.0,"""",jspsych/neutralFaces/AF21NES.JPG,"""",256,Cue,Test,null,2000,"""","""","""","""","""","""","""","""",1,5/3/2021 3:03,67.83.183.0,Mozilla/5.0 (Windows NT 10.0; Win64; x64; rv:87.0) Gecko/20100101 Firefox/87.0,,Firefox,87,Windows,10
1,1,null,"""",image-keyboard-response,256,253673,0.0-256.0,"""",jspsych/neutralFaces/BF33NES.JPG,"""",256,backwardMask,Test,null,100,"""","""","""","""","""","""","""","""",1,5/3/2021 3:03,67.83.183.0,Mozilla/5.0 (Windows NT 10.0; Win64; x64; rv:87.0) Gecko/20100101 Firefox/87.0,,Firefox,87,Windows,10
1,1,null,"""",html-keyboard-response,257,253874,0.0-257.0,"""","<div style=""font-size:60px;"">+</div>","""",256,fixationBtwnNeutralMaskAndPrompt,Test,null,200,"""","""","""","""","""","""","""","""",1,5/3/2021 3:03,67.83.183.0,Mozilla/5.0 (Windows NT 10.0; Win64; x64; rv:87.0) Gecko/20100101 Firefox/87.0,,Firefox,87,Windows,10
1,1,1067,"""",html-button-response,258,254944,0.0-258.0,"""","<img src='jspsych/CFDfaces/CFD-AF-209-006-N.jpg' height=""250px"">,</br><b>Andrea</b>",0,256,IntactOrRearranged,Test,"""","""","""","""",CFD-WM-237-052-N.jpg,Travis,1,0,"""","""",1,5/3/2021 3:03,67.83.183.0,Mozilla/5.0 (Windows NT 10.0; Win64; x64; rv:87.0) Gecko/20100101 Firefox/87.0,,Firefox,87,Windows,10
1,1,1078,"""",html-slider-response,259,256024,0.0-259.0,"""","<img src='jspsych/CFDfaces/CFD-AF-209-006-N.jpg' height=""250px"">,</br><b>Andrea</b>","""",256,ConfidenceQuery,Test,"""","""","""","""",CFD-WM-237-052-N.jpg,Travis,1,"""",0,0,1,5/3/2021 3:03,67.83.183.0,Mozilla/5.0 (Windows NT 10.0; Win64; x64; rv:87.0) Gecko/20100101 Firefox/87.0,,Firefox,87,Windows,10
1,1,null,"""",html-keyboard-response,260,256040,0.0-260.0,"""","<div style=""font-size:60px;"">+</div>","""",256,ITI,Test,null,5,"""","""","""","""","""","""","""","""",1,5/3/2021 3:03,67.83.183.0,Mozilla/5.0 (Windows NT 10.0; Win64; x64; rv:87.0) Gecko/20100101 Firefox/87.0,,Firefox,87,Windows,10
1,1,null,"""",image-keyboard-response,261,256155,0.0-261.0,"""",jspsych/scrambledDisgustFaces/scrambledBF17DIS.JPG,"""",256,forwardMask,Test,null,100,"""",d,"""","""","""","""","""","""",1,5/3/2021 3:03,67.83.183.0,Mozilla/5.0 (Windows NT 10.0; Win64; x64; rv:87.0) Gecko/20100101 Firefox/87.0,,Firefox,87,Windows,10
1,1,null,"""",image-keyboard-response,262,258165,0.0-262.0,"""",jspsych/disgustFaces/BF17DIS.JPG,"""",256,Cue,Test,null,2000,"""","""","""","""","""","""","""","""",1,5/3/2021 3:03,67.83.183.0,Mozilla/5.0 (Windows NT 10.0; Win64; x64; rv:87.0) Gecko/20100101 Firefox/87.0,,Firefox,87,Windows,10
1,1,null,"""",image-keyboard-response,263,258277,0.0-263.0,"""",jspsych/neutralFaces/AF02NES.JPG,"""",256,backwardMask,Test,null,100,"""","""","""","""","""","""","""","""",1,5/3/2021 3:03,67.83.183.0,Mozilla/5.0 (Windows NT 10.0; Win64; x64; rv:87.0) Gecko/20100101 Firefox/87.0,,Firefox,87,Windows,10
1,1,null,"""",html-keyboard-response,264,258481,0.0-264.0,"""","<div style=""font-size:60px;"">+</div>","""",256,fixationBtwnNeutralMaskAndPrompt,Test,null,200,"""","""","""","""","""","""","""","""",1,5/3/2021 3:03,67.83.183.0,Mozilla/5.0 (Windows NT 10.0; Win64; x64; rv:87.0) Gecko/20100101 Firefox/87.0,,Firefox,87,Windows,10
1,1,872,"""",html-button-response,265,259354,0.0-265.0,"""","<img src='jspsych/CFDfaces/CFD-LM-252-076-N.jpg' height=""250px"">,</br><b>Robert</b>",1,256,IntactOrRearranged,Test,"""","""","""","""",CFD-LF-201-035-N.jpg,Erin,0,1,"""","""",1,5/3/2021 3:03,67.83.183.0,Mozilla/5.0 (Windows NT 10.0; Win64; x64; rv:87.0) Gecko/20100101 Firefox/87.0,,Firefox,87,Windows,10
1,1,1268,"""",html-slider-response,266,260627,0.0-266.0,"""","<img src='jspsych/CFDfaces/CFD-LM-252-076-N.jpg' height=""250px"">,</br><b>Robert</b>","""",256,ConfidenceQuery,Test,"""","""","""","""",CFD-LF-201-035-N.jpg,Erin,0,"""",0,0,1,5/3/2021 3:03,67.83.183.0,Mozilla/5.0 (Windows NT 10.0; Win64; x64; rv:87.0) Gecko/20100101 Firefox/87.0,,Firefox,87,Windows,10
1,1,null,"""",html-keyboard-response,267,260635,0.0-267.0,"""","<div style=""font-size:60px;"">+</div>","""",256,ITI,Test,null,5,"""","""","""","""","""","""","""","""",1,5/3/2021 3:03,67.83.183.0,Mozilla/5.0 (Windows NT 10.0; Win64; x64; rv:87.0) Gecko/20100101 Firefox/87.0,,Firefox,87,Windows,10
1,1,null,"""",image-keyboard-response,268,260741,0.0-268.0,"""",jspsych/scrambledDisgustFaces/scrambledBF13DIS.JPG,"""",256,forwardMask,Test,null,100,"""",d,"""","""","""","""","""","""",1,5/3/2021 3:03,67.83.183.0,Mozilla/5.0 (Windows NT 10.0; Win64; x64; rv:87.0) Gecko/20100101 Firefox/87.0,,Firefox,87,Windows,10
1,1,null,"""",image-keyboard-response,269,262754,0.0-269.0,"""",jspsych/disgustFaces/BF13DIS.JPG,"""",256,Cue,Test,null,2000,"""","""","""","""","""","""","""","""",1,5/3/2021 3:03,67.83.183.0,Mozilla/5.0 (Windows NT 10.0; Win64; x64; rv:87.0) Gecko/20100101 Firefox/87.0,,Firefox,87,Windows,10
1,1,null,"""",image-keyboard-response,270,262864,0.0-270.0,"""",jspsych/neutralFaces/AF15NES.JPG,"""",256,backwardMask,Test,null,100,"""","""","""","""","""","""","""","""",1,5/3/2021 3:03,67.83.183.0,Mozilla/5.0 (Windows NT 10.0; Win64; x64; rv:87.0) Gecko/20100101 Firefox/87.0,,Firefox,87,Windows,10
1,1,null,"""",html-keyboard-response,271,263082,0.0-271.0,"""","<div style=""font-size:60px;"">+</div>","""",256,fixationBtwnNeutralMaskAndPrompt,Test,null,200,"""","""","""","""","""","""","""","""",1,5/3/2021 3:03,67.83.183.0,Mozilla/5.0 (Windows NT 10.0; Win64; x64; rv:87.0) Gecko/20100101 Firefox/87.0,,Firefox,87,Windows,10
1,1,866,"""",html-button-response,272,263951,0.0-272.0,"""","<img src='jspsych/CFDfaces/CFD-WM-216-061-N.jpg' height=""250px"">,</br><b>Daniel</b>",1,256,IntactOrRearranged,Test,"""","""","""","""",CFD-BF-016-017-N.jpg,Jordan,1,1,"""","""",1,5/3/2021 3:03,67.83.183.0,Mozilla/5.0 (Windows NT 10.0; Win64; x64; rv:87.0) Gecko/20100101 Firefox/87.0,,Firefox,87,Windows,10
1,1,1145,"""",html-slider-response,273,265110,0.0-273.0,"""","<img src='jspsych/CFDfaces/CFD-WM-216-061-N.jpg' height=""250px"">,</br><b>Daniel</b>","""",256,ConfidenceQuery,Test,"""","""","""","""",CFD-BF-016-017-N.jpg,Jordan,1,"""",0,0,1,5/3/2021 3:03,67.83.183.0,Mozilla/5.0 (Windows NT 10.0; Win64; x64; rv:87.0) Gecko/20100101 Firefox/87.0,,Firefox,87,Windows,10
1,1,null,"""",html-keyboard-response,274,265123,0.0-274.0,"""","<div style=""font-size:60px;"">+</div>","""",256,ITI,Test,null,5,"""","""","""","""","""","""","""","""",1,5/3/2021 3:03,67.83.183.0,Mozilla/5.0 (Windows NT 10.0; Win64; x64; rv:87.0) Gecko/20100101 Firefox/87.0,,Firefox,87,Windows,10
1,1,null,"""",image-keyboard-response,275,265229,0.0-275.0,"""",jspsych/scrambledNeutralFaces/scrambledAF21NES.JPG,"""",256,forwardMask,Test,null,100,"""",n,"""","""","""","""","""","""",1,5/3/2021 3:03,67.83.183.0,Mozilla/5.0 (Windows NT 10.0; Win64; x64; rv:87.0) Gecko/20100101 Firefox/87.0,,Firefox,87,Windows,10
1,1,null,"""",image-keyboard-response,276,267240,0.0-276.0,"""",jspsych/neutralFaces/AF21NES.JPG,"""",256,Cue,Test,null,2000,"""","""","""","""","""","""","""","""",1,5/3/2021 3:03,67.83.183.0,Mozilla/5.0 (Windows NT 10.0; Win64; x64; rv:87.0) Gecko/20100101 Firefox/87.0,,Firefox,87,Windows,10
1,1,null,"""",image-keyboard-response,277,267361,0.0-277.0,"""",jspsych/neutralFaces/BF10NES.JPG,"""",256,backwardMask,Test,null,100,"""","""","""","""","""","""","""","""",1,5/3/2021 3:03,67.83.183.0,Mozilla/5.0 (Windows NT 10.0; Win64; x64; rv:87.0) Gecko/20100101 Firefox/87.0,,Firefox,87,Windows,10
1,1,null,"""",html-keyboard-response,278,267564,0.0-278.0,"""","<div style=""font-size:60px;"">+</div>","""",256,fixationBtwnNeutralMaskAndPrompt,Test,null,200,"""","""","""","""","""","""","""","""",1,5/3/2021 3:03,67.83.183.0,Mozilla/5.0 (Windows NT 10.0; Win64; x64; rv:87.0) Gecko/20100101 Firefox/87.0,,Firefox,87,Windows,10
1,1,1032,"""",html-button-response,279,268598,0.0-279.0,"""","<img src='jspsych/CFDfaces/CFD-WM-034-030-N.jpg' height=""250px"">,</br><b>Juan</b>",0,256,IntactOrRearranged,Test,"""","""","""","""",CFD-LM-201-057-N.jpg,Justin,0,0,"""","""",1,5/3/2021 3:03,67.83.183.0,Mozilla/5.0 (Windows NT 10.0; Win64; x64; rv:87.0) Gecko/20100101 Firefox/87.0,,Firefox,87,Windows,10
1,1,1281,"""",html-slider-response,280,269883,0.0-280.0,"""","<img src='jspsych/CFDfaces/CFD-WM-034-030-N.jpg' height=""250px"">,</br><b>Juan</b>","""",256,ConfidenceQuery,Test,"""","""","""","""",CFD-LM-201-057-N.jpg,Justin,0,"""",0,0,1,5/3/2021 3:03,67.83.183.0,Mozilla/5.0 (Windows NT 10.0; Win64; x64; rv:87.0) Gecko/20100101 Firefox/87.0,,Firefox,87,Windows,10
1,1,null,"""",html-keyboard-response,281,269905,0.0-281.0,"""","<div style=""font-size:60px;"">+</div>","""",256,ITI,Test,null,5,"""","""","""","""","""","""","""","""",1,5/3/2021 3:03,67.83.183.0,Mozilla/5.0 (Windows NT 10.0; Win64; x64; rv:87.0) Gecko/20100101 Firefox/87.0,,Firefox,87,Windows,10
1,1,null,"""",image-keyboard-response,282,270024,0.0-282.0,"""",jspsych/scrambledNeutralFaces/scrambledAM14NES.JPG,"""",256,forwardMask,Test,null,100,"""",n,"""","""","""","""","""","""",1,5/3/2021 3:03,67.83.183.0,Mozilla/5.0 (Windows NT 10.0; Win64; x64; rv:87.0) Gecko/20100101 Firefox/87.0,,Firefox,87,Windows,10
1,1,null,"""",image-keyboard-response,283,272031,0.0-283.0,"""",jspsych/neutralFaces/AM14NES.JPG,"""",256,Cue,Test,null,2000,"""","""","""","""","""","""","""","""",1,5/3/2021 3:03,67.83.183.0,Mozilla/5.0 (Windows NT 10.0; Win64; x64; rv:87.0) Gecko/20100101 Firefox/87.0,,Firefox,87,Windows,10
1,1,null,"""",image-keyboard-response,284,272139,0.0-284.0,"""",jspsych/neutralFaces/AM17NES.JPG,"""",256,backwardMask,Test,null,100,"""","""","""","""","""","""","""","""",1,5/3/2021 3:03,67.83.183.0,Mozilla/5.0 (Windows NT 10.0; Win64; x64; rv:87.0) Gecko/20100101 Firefox/87.0,,Firefox,87,Windows,10
1,1,null,"""",html-keyboard-response,285,272352,0.0-285.0,"""","<div style=""font-size:60px;"">+</div>","""",256,fixationBtwnNeutralMaskAndPrompt,Test,null,200,"""","""","""","""","""","""","""","""",1,5/3/2021 3:03,67.83.183.0,Mozilla/5.0 (Windows NT 10.0; Win64; x64; rv:87.0) Gecko/20100101 Firefox/87.0,,Firefox,87,Windows,10
1,1,844,"""",html-button-response,286,273199,0.0-286.0,"""","<img src='jspsych/CFDfaces/CFD-AF-228-173-N.jpg' height=""250px"">,</br><b>Amanda</b>",0,256,IntactOrRearranged,Test,"""","""","""","""",CFD-BM-026-002-N.jpg,Jesse,1,0,"""","""",1,5/3/2021 3:03,67.83.183.0,Mozilla/5.0 (Windows NT 10.0; Win64; x64; rv:87.0) Gecko/20100101 Firefox/87.0,,Firefox,87,Windows,10
1,1,888,"""",html-slider-response,287,274089,0.0-287.0,"""","<img src='jspsych/CFDfaces/CFD-AF-228-173-N.jpg' height=""250px"">,</br><b>Amanda</b>","""",256,ConfidenceQuery,Test,"""","""","""","""",CFD-BM-026-002-N.jpg,Jesse,1,"""",0,0,1,5/3/2021 3:03,67.83.183.0,Mozilla/5.0 (Windows NT 10.0; Win64; x64; rv:87.0) Gecko/20100101 Firefox/87.0,,Firefox,87,Windows,10
1,1,null,"""",html-keyboard-response,288,274103,0.0-288.0,"""","<div style=""font-size:60px;"">+</div>","""",256,ITI,Test,null,5,"""","""","""","""","""","""","""","""",1,5/3/2021 3:03,67.83.183.0,Mozilla/5.0 (Windows NT 10.0; Win64; x64; rv:87.0) Gecko/20100101 Firefox/87.0,,Firefox,87,Windows,10
1,1,null,"""",image-keyboard-response,289,274221,0.0-289.0,"""",jspsych/scrambledDisgustFaces/scrambledAF10DIS.JPG,"""",256,forwardMask,Test,null,100,"""",d,"""","""","""","""","""","""",1,5/3/2021 3:03,67.83.183.0,Mozilla/5.0 (Windows NT 10.0; Win64; x64; rv:87.0) Gecko/20100101 Firefox/87.0,,Firefox,87,Windows,10
1,1,null,"""",image-keyboard-response,290,276230,0.0-290.0,"""",jspsych/disgustFaces/AF10DIS.JPG,"""",256,Cue,Test,null,2000,"""","""","""","""","""","""","""","""",1,5/3/2021 3:03,67.83.183.0,Mozilla/5.0 (Windows NT 10.0; Win64; x64; rv:87.0) Gecko/20100101 Firefox/87.0,,Firefox,87,Windows,10
1,1,null,"""",image-keyboard-response,291,276357,0.0-291.0,"""",jspsych/neutralFaces/AF30NES.JPG,"""",256,backwardMask,Test,null,100,"""","""","""","""","""","""","""","""",1,5/3/2021 3:03,67.83.183.0,Mozilla/5.0 (Windows NT 10.0; Win64; x64; rv:87.0) Gecko/20100101 Firefox/87.0,,Firefox,87,Windows,10
1,1,null,"""",html-keyboard-response,292,276564,0.0-292.0,"""","<div style=""font-size:60px;"">+</div>","""",256,fixationBtwnNeutralMaskAndPrompt,Test,null,200,"""","""","""","""","""","""","""","""",1,5/3/2021 3:03,67.83.183.0,Mozilla/5.0 (Windows NT 10.0; Win64; x64; rv:87.0) Gecko/20100101 Firefox/87.0,,Firefox,87,Windows,10
1,1,918,"""",html-button-response,293,277485,0.0-293.0,"""","<img src='jspsych/CFDfaces/CFD-WF-220-101-N.jpg' height=""250px"">,</br><b>Samantha</b>",1,256,IntactOrRearranged,Test,"""","""","""","""",CFD-LF-230-203-N.jpg,Amy,0,1,"""","""",1,5/3/2021 3:03,67.83.183.0,Mozilla/5.0 (Windows NT 10.0; Win64; x64; rv:87.0) Gecko/20100101 Firefox/87.0,,Firefox,87,Windows,10
1,1,905,"""",html-slider-response,294,278394,0.0-294.0,"""","<img src='jspsych/CFDfaces/CFD-WF-220-101-N.jpg' height=""250px"">,</br><b>Samantha</b>","""",256,ConfidenceQuery,Test,"""","""","""","""",CFD-LF-230-203-N.jpg,Amy,0,"""",0,0,1,5/3/2021 3:03,67.83.183.0,Mozilla/5.0 (Windows NT 10.0; Win64; x64; rv:87.0) Gecko/20100101 Firefox/87.0,,Firefox,87,Windows,10
1,1,null,"""",html-keyboard-response,295,278411,0.0-295.0,"""","<div style=""font-size:60px;"">+</div>","""",256,ITI,Test,null,5,"""","""","""","""","""","""","""","""",1,5/3/2021 3:03,67.83.183.0,Mozilla/5.0 (Windows NT 10.0; Win64; x64; rv:87.0) Gecko/20100101 Firefox/87.0,,Firefox,87,Windows,10
1,1,null,"""",image-keyboard-response,296,278523,0.0-296.0,"""",jspsych/scrambledNeutralFaces/scrambledBM26NES.JPG,"""",256,forwardMask,Test,null,100,"""",n,"""","""","""","""","""","""",1,5/3/2021 3:03,67.83.183.0,Mozilla/5.0 (Windows NT 10.0; Win64; x64; rv:87.0) Gecko/20100101 Firefox/87.0,,Firefox,87,Windows,10
1,1,null,"""",image-keyboard-response,297,280531,0.0-297.0,"""",jspsych/neutralFaces/BM26NES.JPG,"""",256,Cue,Test,null,2000,"""","""","""","""","""","""","""","""",1,5/3/2021 3:03,67.83.183.0,Mozilla/5.0 (Windows NT 10.0; Win64; x64; rv:87.0) Gecko/20100101 Firefox/87.0,,Firefox,87,Windows,10
1,1,null,"""",image-keyboard-response,298,280639,0.0-298.0,"""",jspsych/neutralFaces/BM08NES.JPG,"""",256,backwardMask,Test,null,100,"""","""","""","""","""","""","""","""",1,5/3/2021 3:03,67.83.183.0,Mozilla/5.0 (Windows NT 10.0; Win64; x64; rv:87.0) Gecko/20100101 Firefox/87.0,,Firefox,87,Windows,10
1,1,null,"""",html-keyboard-response,299,280841,0.0-299.0,"""","<div style=""font-size:60px;"">+</div>","""",256,fixationBtwnNeutralMaskAndPrompt,Test,null,200,"""","""","""","""","""","""","""","""",1,5/3/2021 3:03,67.83.183.0,Mozilla/5.0 (Windows NT 10.0; Win64; x64; rv:87.0) Gecko/20100101 Firefox/87.0,,Firefox,87,Windows,10
1,1,1390,"""",html-button-response,300,282233,0.0-300.0,"""","<img src='jspsych/CFDfaces/CFD-WF-019-005-N.jpg' height=""250px"">,</br><b>Elizabeth</b>",0,256,IntactOrRearranged,Test,"""","""","""","""",CFD-AM-248-104-N.jpg,Luis,1,0,"""","""",1,5/3/2021 3:03,67.83.183.0,Mozilla/5.0 (Windows NT 10.0; Win64; x64; rv:87.0) Gecko/20100101 Firefox/87.0,,Firefox,87,Windows,10
