run_id,condition,rt,responses,trial_type,trial_index,time_elapsed,internal_node_id,stimulus,button_pressed,key_press,StimulusDurationSetting,iTrial,Phase,correctResponse,CharacterResponse,recorded_at,ip,user_agent,device,browser,browser_version,platform,platform_version
1,1,18732.925,"{""Q0"":""A221T10MJY10O6""}",survey-text,0,18769,0.0-0.0,"""","""","""","""","""","""","""","""",11/11/2020 20:27,136.34.173.155,"Mozilla/5.0 (Windows NT 6.3; Win64; x64) AppleWebKit/537.36 (KHTML, like Gecko) Chrome/86.0.4240.75 Safari/537.36",WebKit,Chrome,86.0.4240.75,Windows,6.3
1,1,138291.875,"""",image-button-response,1,157086,0.0-1.0,directions.JPG,0,"""","""","""","""","""","""",11/11/2020 20:27,136.34.173.155,"Mozilla/5.0 (Windows NT 6.3; Win64; x64) AppleWebKit/537.36 (KHTML, like Gecko) Chrome/86.0.4240.75 Safari/537.36",WebKit,Chrome,86.0.4240.75,Windows,6.3
1,1,23893.4,"""",video-button-response,2,180997,0.0-2.0,"""",0,"""","""","""","""","""","""",11/11/2020 20:27,136.34.173.155,"Mozilla/5.0 (Windows NT 6.3; Win64; x64) AppleWebKit/537.36 (KHTML, like Gecko) Chrome/86.0.4240.75 Safari/537.36",WebKit,Chrome,86.0.4240.75,Windows,6.3
1,1,null,"""",html-keyboard-response,3,182011,0.0-3.0,"<div style=""font-size:60px;"">+</div>","""",null,1000,1,ITI,"""","""",11/11/2020 20:27,136.34.173.155,"Mozilla/5.0 (Windows NT 6.3; Win64; x64) AppleWebKit/537.36 (KHTML, like Gecko) Chrome/86.0.4240.75 Safari/537.36",WebKit,Chrome,86.0.4240.75,Windows,6.3
1,1,null,"""",image-keyboard-response,4,182273,0.0-4.0,jspsych/scrambledNeutralFaces/scrambledAM17NES.JPG,"""",null,250,1,forwardMask,n,"""",11/11/2020 20:27,136.34.173.155,"Mozilla/5.0 (Windows NT 6.3; Win64; x64) AppleWebKit/537.36 (KHTML, like Gecko) Chrome/86.0.4240.75 Safari/537.36",WebKit,Chrome,86.0.4240.75,Windows,6.3
1,1,null,"""",image-keyboard-response,5,182342,0.0-5.0,jspsych/neutralFaces/AM17NES.JPG,"""",null,49,1,Cue,"""","""",11/11/2020 20:27,136.34.173.155,"Mozilla/5.0 (Windows NT 6.3; Win64; x64) AppleWebKit/537.36 (KHTML, like Gecko) Chrome/86.0.4240.75 Safari/537.36",WebKit,Chrome,86.0.4240.75,Windows,6.3
1,1,null,"""",image-keyboard-response,6,182450,0.0-6.0,jspsych/neutralFaces/AM02NES.JPG,"""",null,100,1,backwardMask,"""","""",11/11/2020 20:27,136.34.173.155,"Mozilla/5.0 (Windows NT 6.3; Win64; x64) AppleWebKit/537.36 (KHTML, like Gecko) Chrome/86.0.4240.75 Safari/537.36",WebKit,Chrome,86.0.4240.75,Windows,6.3
1,1,null,"""",html-keyboard-response,7,182657,0.0-7.0,"<div style=""font-size:60px;"">+</div>","""",null,200,1,fixationBtwnNeutralMaskAndPrompt,"""","""",11/11/2020 20:27,136.34.173.155,"Mozilla/5.0 (Windows NT 6.3; Win64; x64) AppleWebKit/537.36 (KHTML, like Gecko) Chrome/86.0.4240.75 Safari/537.36",WebKit,Chrome,86.0.4240.75,Windows,6.3
1,1,1350.465,"""",html-keyboard-response,8,184015,0.0-8.0,"<p> What was the emotion of the hidden face? <br> Press, <b>d</b> for <i>disgust face</i> or <b>n</b> for <i>neutral face</i></p>","""",78,"""",1,Query,"""",n,11/11/2020 20:27,136.34.173.155,"Mozilla/5.0 (Windows NT 6.3; Win64; x64) AppleWebKit/537.36 (KHTML, like Gecko) Chrome/86.0.4240.75 Safari/537.36",WebKit,Chrome,86.0.4240.75,Windows,6.3
1,1,null,"""",html-keyboard-response,9,185024,0.0-9.0,"<div style=""font-size:60px;"">+</div>","""",null,1000,2,ITI,"""","""",11/11/2020 20:27,136.34.173.155,"Mozilla/5.0 (Windows NT 6.3; Win64; x64) AppleWebKit/537.36 (KHTML, like Gecko) Chrome/86.0.4240.75 Safari/537.36",WebKit,Chrome,86.0.4240.75,Windows,6.3
1,1,null,"""",image-keyboard-response,10,185339,0.0-10.0,jspsych/scrambledDisgustFaces/scrambledAF30DIS.JPG,"""",null,250,2,forwardMask,d,"""",11/11/2020 20:27,136.34.173.155,"Mozilla/5.0 (Windows NT 6.3; Win64; x64) AppleWebKit/537.36 (KHTML, like Gecko) Chrome/86.0.4240.75 Safari/537.36",WebKit,Chrome,86.0.4240.75,Windows,6.3
1,1,null,"""",image-keyboard-response,11,185395,0.0-11.0,jspsych/disgustFaces/AF30DIS.JPG,"""",null,49,2,Cue,"""","""",11/11/2020 20:27,136.34.173.155,"Mozilla/5.0 (Windows NT 6.3; Win64; x64) AppleWebKit/537.36 (KHTML, like Gecko) Chrome/86.0.4240.75 Safari/537.36",WebKit,Chrome,86.0.4240.75,Windows,6.3
1,1,null,"""",image-keyboard-response,12,185499,0.0-12.0,jspsych/neutralFaces/BF16NES.JPG,"""",null,100,2,backwardMask,"""","""",11/11/2020 20:27,136.34.173.155,"Mozilla/5.0 (Windows NT 6.3; Win64; x64) AppleWebKit/537.36 (KHTML, like Gecko) Chrome/86.0.4240.75 Safari/537.36",WebKit,Chrome,86.0.4240.75,Windows,6.3
1,1,null,"""",html-keyboard-response,13,185704,0.0-13.0,"<div style=""font-size:60px;"">+</div>","""",null,200,2,fixationBtwnNeutralMaskAndPrompt,"""","""",11/11/2020 20:27,136.34.173.155,"Mozilla/5.0 (Windows NT 6.3; Win64; x64) AppleWebKit/537.36 (KHTML, like Gecko) Chrome/86.0.4240.75 Safari/537.36",WebKit,Chrome,86.0.4240.75,Windows,6.3
1,1,839.785,"""",html-keyboard-response,14,186551,0.0-14.0,"<p> What was the emotion of the hidden face? <br> Press, <b>d</b> for <i>disgust face</i> or <b>n</b> for <i>neutral face</i></p>","""",78,"""",2,Query,"""",n,11/11/2020 20:27,136.34.173.155,"Mozilla/5.0 (Windows NT 6.3; Win64; x64) AppleWebKit/537.36 (KHTML, like Gecko) Chrome/86.0.4240.75 Safari/537.36",WebKit,Chrome,86.0.4240.75,Windows,6.3
1,1,null,"""",html-keyboard-response,15,187557,0.0-15.0,"<div style=""font-size:60px;"">+</div>","""",null,1000,3,ITI,"""","""",11/11/2020 20:27,136.34.173.155,"Mozilla/5.0 (Windows NT 6.3; Win64; x64) AppleWebKit/537.36 (KHTML, like Gecko) Chrome/86.0.4240.75 Safari/537.36",WebKit,Chrome,86.0.4240.75,Windows,6.3
1,1,null,"""",image-keyboard-response,16,187815,0.0-16.0,jspsych/scrambledNeutralFaces/scrambledBF07NES.JPG,"""",null,250,3,forwardMask,n,"""",11/11/2020 20:27,136.34.173.155,"Mozilla/5.0 (Windows NT 6.3; Win64; x64) AppleWebKit/537.36 (KHTML, like Gecko) Chrome/86.0.4240.75 Safari/537.36",WebKit,Chrome,86.0.4240.75,Windows,6.3
1,1,null,"""",image-keyboard-response,17,187902,0.0-17.0,jspsych/neutralFaces/BF07NES.JPG,"""",null,66,3,Cue,"""","""",11/11/2020 20:27,136.34.173.155,"Mozilla/5.0 (Windows NT 6.3; Win64; x64) AppleWebKit/537.36 (KHTML, like Gecko) Chrome/86.0.4240.75 Safari/537.36",WebKit,Chrome,86.0.4240.75,Windows,6.3
1,1,null,"""",image-keyboard-response,18,188005,0.0-18.0,jspsych/neutralFaces/BF01NES.JPG,"""",null,100,3,backwardMask,"""","""",11/11/2020 20:27,136.34.173.155,"Mozilla/5.0 (Windows NT 6.3; Win64; x64) AppleWebKit/537.36 (KHTML, like Gecko) Chrome/86.0.4240.75 Safari/537.36",WebKit,Chrome,86.0.4240.75,Windows,6.3
1,1,null,"""",html-keyboard-response,19,188236,0.0-19.0,"<div style=""font-size:60px;"">+</div>","""",null,200,3,fixationBtwnNeutralMaskAndPrompt,"""","""",11/11/2020 20:27,136.34.173.155,"Mozilla/5.0 (Windows NT 6.3; Win64; x64) AppleWebKit/537.36 (KHTML, like Gecko) Chrome/86.0.4240.75 Safari/537.36",WebKit,Chrome,86.0.4240.75,Windows,6.3
1,1,660.255,"""",html-keyboard-response,20,188906,0.0-20.0,"<p> What was the emotion of the hidden face? <br> Press, <b>d</b> for <i>disgust face</i> or <b>n</b> for <i>neutral face</i></p>","""",78,"""",3,Query,"""",n,11/11/2020 20:27,136.34.173.155,"Mozilla/5.0 (Windows NT 6.3; Win64; x64) AppleWebKit/537.36 (KHTML, like Gecko) Chrome/86.0.4240.75 Safari/537.36",WebKit,Chrome,86.0.4240.75,Windows,6.3
1,1,null,"""",html-keyboard-response,21,189916,0.0-21.0,"<div style=""font-size:60px;"">+</div>","""",null,1000,4,ITI,"""","""",11/11/2020 20:27,136.34.173.155,"Mozilla/5.0 (Windows NT 6.3; Win64; x64) AppleWebKit/537.36 (KHTML, like Gecko) Chrome/86.0.4240.75 Safari/537.36",WebKit,Chrome,86.0.4240.75,Windows,6.3
1,1,null,"""",image-keyboard-response,22,190174,0.0-22.0,jspsych/scrambledDisgustFaces/scrambledAM08DIS.JPG,"""",null,250,4,forwardMask,d,"""",11/11/2020 20:27,136.34.173.155,"Mozilla/5.0 (Windows NT 6.3; Win64; x64) AppleWebKit/537.36 (KHTML, like Gecko) Chrome/86.0.4240.75 Safari/537.36",WebKit,Chrome,86.0.4240.75,Windows,6.3
1,1,null,"""",image-keyboard-response,23,190214,0.0-23.0,jspsych/disgustFaces/AM08DIS.JPG,"""",null,33,4,Cue,"""","""",11/11/2020 20:27,136.34.173.155,"Mozilla/5.0 (Windows NT 6.3; Win64; x64) AppleWebKit/537.36 (KHTML, like Gecko) Chrome/86.0.4240.75 Safari/537.36",WebKit,Chrome,86.0.4240.75,Windows,6.3
1,1,null,"""",image-keyboard-response,24,190319,0.0-24.0,jspsych/neutralFaces/BM35NES.JPG,"""",null,100,4,backwardMask,"""","""",11/11/2020 20:27,136.34.173.155,"Mozilla/5.0 (Windows NT 6.3; Win64; x64) AppleWebKit/537.36 (KHTML, like Gecko) Chrome/86.0.4240.75 Safari/537.36",WebKit,Chrome,86.0.4240.75,Windows,6.3
1,1,null,"""",html-keyboard-response,25,190523,0.0-25.0,"<div style=""font-size:60px;"">+</div>","""",null,200,4,fixationBtwnNeutralMaskAndPrompt,"""","""",11/11/2020 20:27,136.34.173.155,"Mozilla/5.0 (Windows NT 6.3; Win64; x64) AppleWebKit/537.36 (KHTML, like Gecko) Chrome/86.0.4240.75 Safari/537.36",WebKit,Chrome,86.0.4240.75,Windows,6.3
1,1,588.2,"""",html-keyboard-response,26,191117,0.0-26.0,"<p> What was the emotion of the hidden face? <br> Press, <b>d</b> for <i>disgust face</i> or <b>n</b> for <i>neutral face</i></p>","""",78,"""",4,Query,"""",n,11/11/2020 20:27,136.34.173.155,"Mozilla/5.0 (Windows NT 6.3; Win64; x64) AppleWebKit/537.36 (KHTML, like Gecko) Chrome/86.0.4240.75 Safari/537.36",WebKit,Chrome,86.0.4240.75,Windows,6.3
1,1,null,"""",html-keyboard-response,27,192136,0.0-27.0,"<div style=""font-size:60px;"">+</div>","""",null,1000,5,ITI,"""","""",11/11/2020 20:27,136.34.173.155,"Mozilla/5.0 (Windows NT 6.3; Win64; x64) AppleWebKit/537.36 (KHTML, like Gecko) Chrome/86.0.4240.75 Safari/537.36",WebKit,Chrome,86.0.4240.75,Windows,6.3
1,1,null,"""",image-keyboard-response,28,192394,0.0-28.0,jspsych/scrambledNeutralFaces/scrambledAF11NES.JPG,"""",null,250,5,forwardMask,n,"""",11/11/2020 20:27,136.34.173.155,"Mozilla/5.0 (Windows NT 6.3; Win64; x64) AppleWebKit/537.36 (KHTML, like Gecko) Chrome/86.0.4240.75 Safari/537.36",WebKit,Chrome,86.0.4240.75,Windows,6.3
1,1,null,"""",image-keyboard-response,29,192416,0.0-29.0,jspsych/neutralFaces/AF11NES.JPG,"""",null,16,5,Cue,"""","""",11/11/2020 20:27,136.34.173.155,"Mozilla/5.0 (Windows NT 6.3; Win64; x64) AppleWebKit/537.36 (KHTML, like Gecko) Chrome/86.0.4240.75 Safari/537.36",WebKit,Chrome,86.0.4240.75,Windows,6.3
1,1,null,"""",image-keyboard-response,30,192521,0.0-30.0,jspsych/neutralFaces/AM32NES.JPG,"""",null,100,5,backwardMask,"""","""",11/11/2020 20:27,136.34.173.155,"Mozilla/5.0 (Windows NT 6.3; Win64; x64) AppleWebKit/537.36 (KHTML, like Gecko) Chrome/86.0.4240.75 Safari/537.36",WebKit,Chrome,86.0.4240.75,Windows,6.3
1,1,null,"""",html-keyboard-response,31,192727,0.0-31.0,"<div style=""font-size:60px;"">+</div>","""",null,200,5,fixationBtwnNeutralMaskAndPrompt,"""","""",11/11/2020 20:27,136.34.173.155,"Mozilla/5.0 (Windows NT 6.3; Win64; x64) AppleWebKit/537.36 (KHTML, like Gecko) Chrome/86.0.4240.75 Safari/537.36",WebKit,Chrome,86.0.4240.75,Windows,6.3
1,1,566.785,"""",html-keyboard-response,32,193298,0.0-32.0,"<p> What was the emotion of the hidden face? <br> Press, <b>d</b> for <i>disgust face</i> or <b>n</b> for <i>neutral face</i></p>","""",78,"""",5,Query,"""",n,11/11/2020 20:27,136.34.173.155,"Mozilla/5.0 (Windows NT 6.3; Win64; x64) AppleWebKit/537.36 (KHTML, like Gecko) Chrome/86.0.4240.75 Safari/537.36",WebKit,Chrome,86.0.4240.75,Windows,6.3
1,1,null,"""",html-keyboard-response,33,194304,0.0-33.0,"<div style=""font-size:60px;"">+</div>","""",null,1000,6,ITI,"""","""",11/11/2020 20:27,136.34.173.155,"Mozilla/5.0 (Windows NT 6.3; Win64; x64) AppleWebKit/537.36 (KHTML, like Gecko) Chrome/86.0.4240.75 Safari/537.36",WebKit,Chrome,86.0.4240.75,Windows,6.3
1,1,null,"""",image-keyboard-response,34,194584,0.0-34.0,jspsych/scrambledNeutralFaces/scrambledBM13NES.JPG,"""",null,250,6,forwardMask,n,"""",11/11/2020 20:27,136.34.173.155,"Mozilla/5.0 (Windows NT 6.3; Win64; x64) AppleWebKit/537.36 (KHTML, like Gecko) Chrome/86.0.4240.75 Safari/537.36",WebKit,Chrome,86.0.4240.75,Windows,6.3
1,1,null,"""",image-keyboard-response,35,194672,0.0-35.0,jspsych/neutralFaces/BM13NES.JPG,"""",null,82,6,Cue,"""","""",11/11/2020 20:27,136.34.173.155,"Mozilla/5.0 (Windows NT 6.3; Win64; x64) AppleWebKit/537.36 (KHTML, like Gecko) Chrome/86.0.4240.75 Safari/537.36",WebKit,Chrome,86.0.4240.75,Windows,6.3
1,1,null,"""",image-keyboard-response,36,194778,0.0-36.0,jspsych/neutralFaces/AF19NES.JPG,"""",null,100,6,backwardMask,"""","""",11/11/2020 20:27,136.34.173.155,"Mozilla/5.0 (Windows NT 6.3; Win64; x64) AppleWebKit/537.36 (KHTML, like Gecko) Chrome/86.0.4240.75 Safari/537.36",WebKit,Chrome,86.0.4240.75,Windows,6.3
1,1,null,"""",html-keyboard-response,37,194983,0.0-37.0,"<div style=""font-size:60px;"">+</div>","""",null,200,6,fixationBtwnNeutralMaskAndPrompt,"""","""",11/11/2020 20:27,136.34.173.155,"Mozilla/5.0 (Windows NT 6.3; Win64; x64) AppleWebKit/537.36 (KHTML, like Gecko) Chrome/86.0.4240.75 Safari/537.36",WebKit,Chrome,86.0.4240.75,Windows,6.3
1,1,936.7,"""",html-keyboard-response,38,195926,0.0-38.0,"<p> What was the emotion of the hidden face? <br> Press, <b>d</b> for <i>disgust face</i> or <b>n</b> for <i>neutral face</i></p>","""",78,"""",6,Query,"""",n,11/11/2020 20:27,136.34.173.155,"Mozilla/5.0 (Windows NT 6.3; Win64; x64) AppleWebKit/537.36 (KHTML, like Gecko) Chrome/86.0.4240.75 Safari/537.36",WebKit,Chrome,86.0.4240.75,Windows,6.3
1,1,null,"""",html-keyboard-response,39,196932,0.0-39.0,"<div style=""font-size:60px;"">+</div>","""",null,1000,7,ITI,"""","""",11/11/2020 20:27,136.34.173.155,"Mozilla/5.0 (Windows NT 6.3; Win64; x64) AppleWebKit/537.36 (KHTML, like Gecko) Chrome/86.0.4240.75 Safari/537.36",WebKit,Chrome,86.0.4240.75,Windows,6.3
1,1,null,"""",image-keyboard-response,40,197187,0.0-40.0,jspsych/scrambledNeutralFaces/scrambledBM02NES.JPG,"""",null,250,7,forwardMask,n,"""",11/11/2020 20:27,136.34.173.155,"Mozilla/5.0 (Windows NT 6.3; Win64; x64) AppleWebKit/537.36 (KHTML, like Gecko) Chrome/86.0.4240.75 Safari/537.36",WebKit,Chrome,86.0.4240.75,Windows,6.3
1,1,null,"""",image-keyboard-response,41,197245,0.0-41.0,jspsych/neutralFaces/BM02NES.JPG,"""",null,33,7,Cue,"""","""",11/11/2020 20:27,136.34.173.155,"Mozilla/5.0 (Windows NT 6.3; Win64; x64) AppleWebKit/537.36 (KHTML, like Gecko) Chrome/86.0.4240.75 Safari/537.36",WebKit,Chrome,86.0.4240.75,Windows,6.3
1,1,null,"""",image-keyboard-response,42,197351,0.0-42.0,jspsych/neutralFaces/BF17NES.JPG,"""",null,100,7,backwardMask,"""","""",11/11/2020 20:27,136.34.173.155,"Mozilla/5.0 (Windows NT 6.3; Win64; x64) AppleWebKit/537.36 (KHTML, like Gecko) Chrome/86.0.4240.75 Safari/537.36",WebKit,Chrome,86.0.4240.75,Windows,6.3
1,1,null,"""",html-keyboard-response,43,197556,0.0-43.0,"<div style=""font-size:60px;"">+</div>","""",null,200,7,fixationBtwnNeutralMaskAndPrompt,"""","""",11/11/2020 20:27,136.34.173.155,"Mozilla/5.0 (Windows NT 6.3; Win64; x64) AppleWebKit/537.36 (KHTML, like Gecko) Chrome/86.0.4240.75 Safari/537.36",WebKit,Chrome,86.0.4240.75,Windows,6.3
1,1,749.045,"""",html-keyboard-response,44,198310,0.0-44.0,"<p> What was the emotion of the hidden face? <br> Press, <b>d</b> for <i>disgust face</i> or <b>n</b> for <i>neutral face</i></p>","""",78,"""",7,Query,"""",n,11/11/2020 20:27,136.34.173.155,"Mozilla/5.0 (Windows NT 6.3; Win64; x64) AppleWebKit/537.36 (KHTML, like Gecko) Chrome/86.0.4240.75 Safari/537.36",WebKit,Chrome,86.0.4240.75,Windows,6.3
1,1,null,"""",html-keyboard-response,45,199314,0.0-45.0,"<div style=""font-size:60px;"">+</div>","""",null,1000,8,ITI,"""","""",11/11/2020 20:27,136.34.173.155,"Mozilla/5.0 (Windows NT 6.3; Win64; x64) AppleWebKit/537.36 (KHTML, like Gecko) Chrome/86.0.4240.75 Safari/537.36",WebKit,Chrome,86.0.4240.75,Windows,6.3
1,1,null,"""",image-keyboard-response,46,199571,0.0-46.0,jspsych/scrambledDisgustFaces/scrambledBF24DIS.JPG,"""",null,250,8,forwardMask,d,"""",11/11/2020 20:27,136.34.173.155,"Mozilla/5.0 (Windows NT 6.3; Win64; x64) AppleWebKit/537.36 (KHTML, like Gecko) Chrome/86.0.4240.75 Safari/537.36",WebKit,Chrome,86.0.4240.75,Windows,6.3
1,1,null,"""",image-keyboard-response,47,199680,0.0-47.0,jspsych/disgustFaces/BF24DIS.JPG,"""",null,104,8,Cue,"""","""",11/11/2020 20:27,136.34.173.155,"Mozilla/5.0 (Windows NT 6.3; Win64; x64) AppleWebKit/537.36 (KHTML, like Gecko) Chrome/86.0.4240.75 Safari/537.36",WebKit,Chrome,86.0.4240.75,Windows,6.3
1,1,null,"""",image-keyboard-response,48,199786,0.0-48.0,jspsych/neutralFaces/AF21NES.JPG,"""",null,100,8,backwardMask,"""","""",11/11/2020 20:27,136.34.173.155,"Mozilla/5.0 (Windows NT 6.3; Win64; x64) AppleWebKit/537.36 (KHTML, like Gecko) Chrome/86.0.4240.75 Safari/537.36",WebKit,Chrome,86.0.4240.75,Windows,6.3
1,1,null,"""",html-keyboard-response,49,199992,0.0-49.0,"<div style=""font-size:60px;"">+</div>","""",null,200,8,fixationBtwnNeutralMaskAndPrompt,"""","""",11/11/2020 20:27,136.34.173.155,"Mozilla/5.0 (Windows NT 6.3; Win64; x64) AppleWebKit/537.36 (KHTML, like Gecko) Chrome/86.0.4240.75 Safari/537.36",WebKit,Chrome,86.0.4240.75,Windows,6.3
1,1,355.01,"""",html-keyboard-response,50,200352,0.0-50.0,"<p> What was the emotion of the hidden face? <br> Press, <b>d</b> for <i>disgust face</i> or <b>n</b> for <i>neutral face</i></p>","""",68,"""",8,Query,"""",d,11/11/2020 20:27,136.34.173.155,"Mozilla/5.0 (Windows NT 6.3; Win64; x64) AppleWebKit/537.36 (KHTML, like Gecko) Chrome/86.0.4240.75 Safari/537.36",WebKit,Chrome,86.0.4240.75,Windows,6.3
1,1,null,"""",html-keyboard-response,51,201357,0.0-51.0,"<div style=""font-size:60px;"">+</div>","""",null,1000,9,ITI,"""","""",11/11/2020 20:27,136.34.173.155,"Mozilla/5.0 (Windows NT 6.3; Win64; x64) AppleWebKit/537.36 (KHTML, like Gecko) Chrome/86.0.4240.75 Safari/537.36",WebKit,Chrome,86.0.4240.75,Windows,6.3
1,1,null,"""",image-keyboard-response,52,201636,0.0-52.0,jspsych/scrambledDisgustFaces/scrambledBM04DIS.JPG,"""",null,250,9,forwardMask,d,"""",11/11/2020 20:27,136.34.173.155,"Mozilla/5.0 (Windows NT 6.3; Win64; x64) AppleWebKit/537.36 (KHTML, like Gecko) Chrome/86.0.4240.75 Safari/537.36",WebKit,Chrome,86.0.4240.75,Windows,6.3
1,1,null,"""",image-keyboard-response,53,201692,0.0-53.0,jspsych/disgustFaces/BM04DIS.JPG,"""",null,33,9,Cue,"""","""",11/11/2020 20:27,136.34.173.155,"Mozilla/5.0 (Windows NT 6.3; Win64; x64) AppleWebKit/537.36 (KHTML, like Gecko) Chrome/86.0.4240.75 Safari/537.36",WebKit,Chrome,86.0.4240.75,Windows,6.3
1,1,null,"""",image-keyboard-response,54,201797,0.0-54.0,jspsych/neutralFaces/AF03NES.JPG,"""",null,100,9,backwardMask,"""","""",11/11/2020 20:27,136.34.173.155,"Mozilla/5.0 (Windows NT 6.3; Win64; x64) AppleWebKit/537.36 (KHTML, like Gecko) Chrome/86.0.4240.75 Safari/537.36",WebKit,Chrome,86.0.4240.75,Windows,6.3
1,1,null,"""",html-keyboard-response,55,202002,0.0-55.0,"<div style=""font-size:60px;"">+</div>","""",null,200,9,fixationBtwnNeutralMaskAndPrompt,"""","""",11/11/2020 20:27,136.34.173.155,"Mozilla/5.0 (Windows NT 6.3; Win64; x64) AppleWebKit/537.36 (KHTML, like Gecko) Chrome/86.0.4240.75 Safari/537.36",WebKit,Chrome,86.0.4240.75,Windows,6.3
1,1,502.655,"""",html-keyboard-response,56,202510,0.0-56.0,"<p> What was the emotion of the hidden face? <br> Press, <b>d</b> for <i>disgust face</i> or <b>n</b> for <i>neutral face</i></p>","""",78,"""",9,Query,"""",n,11/11/2020 20:27,136.34.173.155,"Mozilla/5.0 (Windows NT 6.3; Win64; x64) AppleWebKit/537.36 (KHTML, like Gecko) Chrome/86.0.4240.75 Safari/537.36",WebKit,Chrome,86.0.4240.75,Windows,6.3
1,1,null,"""",html-keyboard-response,57,203516,0.0-57.0,"<div style=""font-size:60px;"">+</div>","""",null,1000,10,ITI,"""","""",11/11/2020 20:27,136.34.173.155,"Mozilla/5.0 (Windows NT 6.3; Win64; x64) AppleWebKit/537.36 (KHTML, like Gecko) Chrome/86.0.4240.75 Safari/537.36",WebKit,Chrome,86.0.4240.75,Windows,6.3
1,1,null,"""",image-keyboard-response,58,203773,0.0-58.0,jspsych/scrambledDisgustFaces/scrambledAF27DIS.JPG,"""",null,250,10,forwardMask,d,"""",11/11/2020 20:27,136.34.173.155,"Mozilla/5.0 (Windows NT 6.3; Win64; x64) AppleWebKit/537.36 (KHTML, like Gecko) Chrome/86.0.4240.75 Safari/537.36",WebKit,Chrome,86.0.4240.75,Windows,6.3
1,1,null,"""",image-keyboard-response,59,203827,0.0-59.0,jspsych/disgustFaces/AF27DIS.JPG,"""",null,49,10,Cue,"""","""",11/11/2020 20:27,136.34.173.155,"Mozilla/5.0 (Windows NT 6.3; Win64; x64) AppleWebKit/537.36 (KHTML, like Gecko) Chrome/86.0.4240.75 Safari/537.36",WebKit,Chrome,86.0.4240.75,Windows,6.3
1,1,null,"""",image-keyboard-response,60,203932,0.0-60.0,jspsych/neutralFaces/BF26NES.JPG,"""",null,100,10,backwardMask,"""","""",11/11/2020 20:27,136.34.173.155,"Mozilla/5.0 (Windows NT 6.3; Win64; x64) AppleWebKit/537.36 (KHTML, like Gecko) Chrome/86.0.4240.75 Safari/537.36",WebKit,Chrome,86.0.4240.75,Windows,6.3
1,1,null,"""",html-keyboard-response,61,204137,0.0-61.0,"<div style=""font-size:60px;"">+</div>","""",null,200,10,fixationBtwnNeutralMaskAndPrompt,"""","""",11/11/2020 20:27,136.34.173.155,"Mozilla/5.0 (Windows NT 6.3; Win64; x64) AppleWebKit/537.36 (KHTML, like Gecko) Chrome/86.0.4240.75 Safari/537.36",WebKit,Chrome,86.0.4240.75,Windows,6.3
1,1,599.1,"""",html-keyboard-response,62,204741,0.0-62.0,"<p> What was the emotion of the hidden face? <br> Press, <b>d</b> for <i>disgust face</i> or <b>n</b> for <i>neutral face</i></p>","""",78,"""",10,Query,"""",n,11/11/2020 20:27,136.34.173.155,"Mozilla/5.0 (Windows NT 6.3; Win64; x64) AppleWebKit/537.36 (KHTML, like Gecko) Chrome/86.0.4240.75 Safari/537.36",WebKit,Chrome,86.0.4240.75,Windows,6.3
1,1,null,"""",html-keyboard-response,63,205747,0.0-63.0,"<div style=""font-size:60px;"">+</div>","""",null,1000,11,ITI,"""","""",11/11/2020 20:27,136.34.173.155,"Mozilla/5.0 (Windows NT 6.3; Win64; x64) AppleWebKit/537.36 (KHTML, like Gecko) Chrome/86.0.4240.75 Safari/537.36",WebKit,Chrome,86.0.4240.75,Windows,6.3
1,1,null,"""",image-keyboard-response,64,206029,0.0-64.0,jspsych/scrambledDisgustFaces/scrambledBM09DIS.JPG,"""",null,250,11,forwardMask,d,"""",11/11/2020 20:27,136.34.173.155,"Mozilla/5.0 (Windows NT 6.3; Win64; x64) AppleWebKit/537.36 (KHTML, like Gecko) Chrome/86.0.4240.75 Safari/537.36",WebKit,Chrome,86.0.4240.75,Windows,6.3
1,1,null,"""",image-keyboard-response,65,206118,0.0-65.0,jspsych/disgustFaces/BM09DIS.JPG,"""",null,82,11,Cue,"""","""",11/11/2020 20:27,136.34.173.155,"Mozilla/5.0 (Windows NT 6.3; Win64; x64) AppleWebKit/537.36 (KHTML, like Gecko) Chrome/86.0.4240.75 Safari/537.36",WebKit,Chrome,86.0.4240.75,Windows,6.3
1,1,null,"""",image-keyboard-response,66,206225,0.0-66.0,jspsych/neutralFaces/AF05NES.JPG,"""",null,100,11,backwardMask,"""","""",11/11/2020 20:27,136.34.173.155,"Mozilla/5.0 (Windows NT 6.3; Win64; x64) AppleWebKit/537.36 (KHTML, like Gecko) Chrome/86.0.4240.75 Safari/537.36",WebKit,Chrome,86.0.4240.75,Windows,6.3
1,1,null,"""",html-keyboard-response,67,206430,0.0-67.0,"<div style=""font-size:60px;"">+</div>","""",null,200,11,fixationBtwnNeutralMaskAndPrompt,"""","""",11/11/2020 20:27,136.34.173.155,"Mozilla/5.0 (Windows NT 6.3; Win64; x64) AppleWebKit/537.36 (KHTML, like Gecko) Chrome/86.0.4240.75 Safari/537.36",WebKit,Chrome,86.0.4240.75,Windows,6.3
1,1,609.25,"""",html-keyboard-response,68,207043,0.0-68.0,"<p> What was the emotion of the hidden face? <br> Press, <b>d</b> for <i>disgust face</i> or <b>n</b> for <i>neutral face</i></p>","""",78,"""",11,Query,"""",n,11/11/2020 20:27,136.34.173.155,"Mozilla/5.0 (Windows NT 6.3; Win64; x64) AppleWebKit/537.36 (KHTML, like Gecko) Chrome/86.0.4240.75 Safari/537.36",WebKit,Chrome,86.0.4240.75,Windows,6.3
1,1,null,"""",html-keyboard-response,69,208064,0.0-69.0,"<div style=""font-size:60px;"">+</div>","""",null,1000,12,ITI,"""","""",11/11/2020 20:27,136.34.173.155,"Mozilla/5.0 (Windows NT 6.3; Win64; x64) AppleWebKit/537.36 (KHTML, like Gecko) Chrome/86.0.4240.75 Safari/537.36",WebKit,Chrome,86.0.4240.75,Windows,6.3
1,1,null,"""",image-keyboard-response,70,208321,0.0-70.0,jspsych/scrambledDisgustFaces/scrambledAF22DIS.JPG,"""",null,250,12,forwardMask,d,"""",11/11/2020 20:27,136.34.173.155,"Mozilla/5.0 (Windows NT 6.3; Win64; x64) AppleWebKit/537.36 (KHTML, like Gecko) Chrome/86.0.4240.75 Safari/537.36",WebKit,Chrome,86.0.4240.75,Windows,6.3
1,1,null,"""",image-keyboard-response,71,208343,0.0-71.0,jspsych/disgustFaces/AF22DIS.JPG,"""",null,16,12,Cue,"""","""",11/11/2020 20:27,136.34.173.155,"Mozilla/5.0 (Windows NT 6.3; Win64; x64) AppleWebKit/537.36 (KHTML, like Gecko) Chrome/86.0.4240.75 Safari/537.36",WebKit,Chrome,86.0.4240.75,Windows,6.3
1,1,null,"""",image-keyboard-response,72,208449,0.0-72.0,jspsych/neutralFaces/BM02NES.JPG,"""",null,100,12,backwardMask,"""","""",11/11/2020 20:27,136.34.173.155,"Mozilla/5.0 (Windows NT 6.3; Win64; x64) AppleWebKit/537.36 (KHTML, like Gecko) Chrome/86.0.4240.75 Safari/537.36",WebKit,Chrome,86.0.4240.75,Windows,6.3
1,1,null,"""",html-keyboard-response,73,208655,0.0-73.0,"<div style=""font-size:60px;"">+</div>","""",null,200,12,fixationBtwnNeutralMaskAndPrompt,"""","""",11/11/2020 20:27,136.34.173.155,"Mozilla/5.0 (Windows NT 6.3; Win64; x64) AppleWebKit/537.36 (KHTML, like Gecko) Chrome/86.0.4240.75 Safari/537.36",WebKit,Chrome,86.0.4240.75,Windows,6.3
1,1,805.005,"""",html-keyboard-response,74,209464,0.0-74.0,"<p> What was the emotion of the hidden face? <br> Press, <b>d</b> for <i>disgust face</i> or <b>n</b> for <i>neutral face</i></p>","""",78,"""",12,Query,"""",n,11/11/2020 20:27,136.34.173.155,"Mozilla/5.0 (Windows NT 6.3; Win64; x64) AppleWebKit/537.36 (KHTML, like Gecko) Chrome/86.0.4240.75 Safari/537.36",WebKit,Chrome,86.0.4240.75,Windows,6.3
1,1,null,"""",html-keyboard-response,75,210496,0.0-75.0,"<div style=""font-size:60px;"">+</div>","""",null,1000,13,ITI,"""","""",11/11/2020 20:27,136.34.173.155,"Mozilla/5.0 (Windows NT 6.3; Win64; x64) AppleWebKit/537.36 (KHTML, like Gecko) Chrome/86.0.4240.75 Safari/537.36",WebKit,Chrome,86.0.4240.75,Windows,6.3
1,1,null,"""",image-keyboard-response,76,210753,0.0-76.0,jspsych/scrambledDisgustFaces/scrambledBF16DIS.JPG,"""",null,250,13,forwardMask,d,"""",11/11/2020 20:27,136.34.173.155,"Mozilla/5.0 (Windows NT 6.3; Win64; x64) AppleWebKit/537.36 (KHTML, like Gecko) Chrome/86.0.4240.75 Safari/537.36",WebKit,Chrome,86.0.4240.75,Windows,6.3
1,1,null,"""",image-keyboard-response,77,210863,0.0-77.0,jspsych/disgustFaces/BF16DIS.JPG,"""",null,104,13,Cue,"""","""",11/11/2020 20:27,136.34.173.155,"Mozilla/5.0 (Windows NT 6.3; Win64; x64) AppleWebKit/537.36 (KHTML, like Gecko) Chrome/86.0.4240.75 Safari/537.36",WebKit,Chrome,86.0.4240.75,Windows,6.3
1,1,null,"""",image-keyboard-response,78,210969,0.0-78.0,jspsych/neutralFaces/BM11NES.JPG,"""",null,100,13,backwardMask,"""","""",11/11/2020 20:27,136.34.173.155,"Mozilla/5.0 (Windows NT 6.3; Win64; x64) AppleWebKit/537.36 (KHTML, like Gecko) Chrome/86.0.4240.75 Safari/537.36",WebKit,Chrome,86.0.4240.75,Windows,6.3
1,1,null,"""",html-keyboard-response,79,211173,0.0-79.0,"<div style=""font-size:60px;"">+</div>","""",null,200,13,fixationBtwnNeutralMaskAndPrompt,"""","""",11/11/2020 20:27,136.34.173.155,"Mozilla/5.0 (Windows NT 6.3; Win64; x64) AppleWebKit/537.36 (KHTML, like Gecko) Chrome/86.0.4240.75 Safari/537.36",WebKit,Chrome,86.0.4240.75,Windows,6.3
1,1,314.44,"""",html-keyboard-response,80,211492,0.0-80.0,"<p> What was the emotion of the hidden face? <br> Press, <b>d</b> for <i>disgust face</i> or <b>n</b> for <i>neutral face</i></p>","""",68,"""",13,Query,"""",d,11/11/2020 20:27,136.34.173.155,"Mozilla/5.0 (Windows NT 6.3; Win64; x64) AppleWebKit/537.36 (KHTML, like Gecko) Chrome/86.0.4240.75 Safari/537.36",WebKit,Chrome,86.0.4240.75,Windows,6.3
1,1,null,"""",html-keyboard-response,81,212497,0.0-81.0,"<div style=""font-size:60px;"">+</div>","""",null,1000,14,ITI,"""","""",11/11/2020 20:27,136.34.173.155,"Mozilla/5.0 (Windows NT 6.3; Win64; x64) AppleWebKit/537.36 (KHTML, like Gecko) Chrome/86.0.4240.75 Safari/537.36",WebKit,Chrome,86.0.4240.75,Windows,6.3
1,1,null,"""",image-keyboard-response,82,212771,0.0-82.0,jspsych/scrambledDisgustFaces/scrambledAM14DIS.JPG,"""",null,250,14,forwardMask,d,"""",11/11/2020 20:27,136.34.173.155,"Mozilla/5.0 (Windows NT 6.3; Win64; x64) AppleWebKit/537.36 (KHTML, like Gecko) Chrome/86.0.4240.75 Safari/537.36",WebKit,Chrome,86.0.4240.75,Windows,6.3
1,1,null,"""",image-keyboard-response,83,212917,0.0-83.0,jspsych/disgustFaces/AM14DIS.JPG,"""",null,136,14,Cue,"""","""",11/11/2020 20:27,136.34.173.155,"Mozilla/5.0 (Windows NT 6.3; Win64; x64) AppleWebKit/537.36 (KHTML, like Gecko) Chrome/86.0.4240.75 Safari/537.36",WebKit,Chrome,86.0.4240.75,Windows,6.3
1,1,null,"""",image-keyboard-response,84,213026,0.0-84.0,jspsych/neutralFaces/BF19NES.JPG,"""",null,100,14,backwardMask,"""","""",11/11/2020 20:27,136.34.173.155,"Mozilla/5.0 (Windows NT 6.3; Win64; x64) AppleWebKit/537.36 (KHTML, like Gecko) Chrome/86.0.4240.75 Safari/537.36",WebKit,Chrome,86.0.4240.75,Windows,6.3
1,1,null,"""",html-keyboard-response,85,213230,0.0-85.0,"<div style=""font-size:60px;"">+</div>","""",null,200,14,fixationBtwnNeutralMaskAndPrompt,"""","""",11/11/2020 20:27,136.34.173.155,"Mozilla/5.0 (Windows NT 6.3; Win64; x64) AppleWebKit/537.36 (KHTML, like Gecko) Chrome/86.0.4240.75 Safari/537.36",WebKit,Chrome,86.0.4240.75,Windows,6.3
1,1,480.89,"""",html-keyboard-response,86,213716,0.0-86.0,"<p> What was the emotion of the hidden face? <br> Press, <b>d</b> for <i>disgust face</i> or <b>n</b> for <i>neutral face</i></p>","""",68,"""",14,Query,"""",d,11/11/2020 20:27,136.34.173.155,"Mozilla/5.0 (Windows NT 6.3; Win64; x64) AppleWebKit/537.36 (KHTML, like Gecko) Chrome/86.0.4240.75 Safari/537.36",WebKit,Chrome,86.0.4240.75,Windows,6.3
1,1,null,"""",html-keyboard-response,87,214721,0.0-87.0,"<div style=""font-size:60px;"">+</div>","""",null,1000,15,ITI,"""","""",11/11/2020 20:27,136.34.173.155,"Mozilla/5.0 (Windows NT 6.3; Win64; x64) AppleWebKit/537.36 (KHTML, like Gecko) Chrome/86.0.4240.75 Safari/537.36",WebKit,Chrome,86.0.4240.75,Windows,6.3
1,1,null,"""",image-keyboard-response,88,214978,0.0-88.0,jspsych/scrambledNeutralFaces/scrambledAM21NES.JPG,"""",null,250,15,forwardMask,n,"""",11/11/2020 20:27,136.34.173.155,"Mozilla/5.0 (Windows NT 6.3; Win64; x64) AppleWebKit/537.36 (KHTML, like Gecko) Chrome/86.0.4240.75 Safari/537.36",WebKit,Chrome,86.0.4240.75,Windows,6.3
1,1,null,"""",image-keyboard-response,89,215065,0.0-89.0,jspsych/neutralFaces/AM21NES.JPG,"""",null,82,15,Cue,"""","""",11/11/2020 20:27,136.34.173.155,"Mozilla/5.0 (Windows NT 6.3; Win64; x64) AppleWebKit/537.36 (KHTML, like Gecko) Chrome/86.0.4240.75 Safari/537.36",WebKit,Chrome,86.0.4240.75,Windows,6.3
1,1,null,"""",image-keyboard-response,90,215169,0.0-90.0,jspsych/neutralFaces/AM08NES.JPG,"""",null,100,15,backwardMask,"""","""",11/11/2020 20:27,136.34.173.155,"Mozilla/5.0 (Windows NT 6.3; Win64; x64) AppleWebKit/537.36 (KHTML, like Gecko) Chrome/86.0.4240.75 Safari/537.36",WebKit,Chrome,86.0.4240.75,Windows,6.3
1,1,null,"""",html-keyboard-response,91,215375,0.0-91.0,"<div style=""font-size:60px;"">+</div>","""",null,200,15,fixationBtwnNeutralMaskAndPrompt,"""","""",11/11/2020 20:27,136.34.173.155,"Mozilla/5.0 (Windows NT 6.3; Win64; x64) AppleWebKit/537.36 (KHTML, like Gecko) Chrome/86.0.4240.75 Safari/537.36",WebKit,Chrome,86.0.4240.75,Windows,6.3
1,1,447.235,"""",html-keyboard-response,92,215827,0.0-92.0,"<p> What was the emotion of the hidden face? <br> Press, <b>d</b> for <i>disgust face</i> or <b>n</b> for <i>neutral face</i></p>","""",78,"""",15,Query,"""",n,11/11/2020 20:27,136.34.173.155,"Mozilla/5.0 (Windows NT 6.3; Win64; x64) AppleWebKit/537.36 (KHTML, like Gecko) Chrome/86.0.4240.75 Safari/537.36",WebKit,Chrome,86.0.4240.75,Windows,6.3
1,1,null,"""",html-keyboard-response,93,216847,0.0-93.0,"<div style=""font-size:60px;"">+</div>","""",null,1000,16,ITI,"""","""",11/11/2020 20:27,136.34.173.155,"Mozilla/5.0 (Windows NT 6.3; Win64; x64) AppleWebKit/537.36 (KHTML, like Gecko) Chrome/86.0.4240.75 Safari/537.36",WebKit,Chrome,86.0.4240.75,Windows,6.3
1,1,null,"""",image-keyboard-response,94,217104,0.0-94.0,jspsych/scrambledDisgustFaces/scrambledAM28DIS.JPG,"""",null,250,16,forwardMask,d,"""",11/11/2020 20:27,136.34.173.155,"Mozilla/5.0 (Windows NT 6.3; Win64; x64) AppleWebKit/537.36 (KHTML, like Gecko) Chrome/86.0.4240.75 Safari/537.36",WebKit,Chrome,86.0.4240.75,Windows,6.3
1,1,null,"""",image-keyboard-response,95,217214,0.0-95.0,jspsych/disgustFaces/AM28DIS.JPG,"""",null,104,16,Cue,"""","""",11/11/2020 20:27,136.34.173.155,"Mozilla/5.0 (Windows NT 6.3; Win64; x64) AppleWebKit/537.36 (KHTML, like Gecko) Chrome/86.0.4240.75 Safari/537.36",WebKit,Chrome,86.0.4240.75,Windows,6.3
1,1,null,"""",image-keyboard-response,96,217320,0.0-96.0,jspsych/neutralFaces/BM03NES.JPG,"""",null,100,16,backwardMask,"""","""",11/11/2020 20:27,136.34.173.155,"Mozilla/5.0 (Windows NT 6.3; Win64; x64) AppleWebKit/537.36 (KHTML, like Gecko) Chrome/86.0.4240.75 Safari/537.36",WebKit,Chrome,86.0.4240.75,Windows,6.3
1,1,null,"""",html-keyboard-response,97,217523,0.0-97.0,"<div style=""font-size:60px;"">+</div>","""",null,200,16,fixationBtwnNeutralMaskAndPrompt,"""","""",11/11/2020 20:27,136.34.173.155,"Mozilla/5.0 (Windows NT 6.3; Win64; x64) AppleWebKit/537.36 (KHTML, like Gecko) Chrome/86.0.4240.75 Safari/537.36",WebKit,Chrome,86.0.4240.75,Windows,6.3
1,1,510.615,"""",html-keyboard-response,98,218039,0.0-98.0,"<p> What was the emotion of the hidden face? <br> Press, <b>d</b> for <i>disgust face</i> or <b>n</b> for <i>neutral face</i></p>","""",68,"""",16,Query,"""",d,11/11/2020 20:27,136.34.173.155,"Mozilla/5.0 (Windows NT 6.3; Win64; x64) AppleWebKit/537.36 (KHTML, like Gecko) Chrome/86.0.4240.75 Safari/537.36",WebKit,Chrome,86.0.4240.75,Windows,6.3
1,1,null,"""",html-keyboard-response,99,219044,0.0-99.0,"<div style=""font-size:60px;"">+</div>","""",null,1000,17,ITI,"""","""",11/11/2020 20:27,136.34.173.155,"Mozilla/5.0 (Windows NT 6.3; Win64; x64) AppleWebKit/537.36 (KHTML, like Gecko) Chrome/86.0.4240.75 Safari/537.36",WebKit,Chrome,86.0.4240.75,Windows,6.3
1,1,null,"""",image-keyboard-response,100,219299,0.0-100.0,jspsych/scrambledDisgustFaces/scrambledAM18DIS.JPG,"""",null,250,17,forwardMask,d,"""",11/11/2020 20:27,136.34.173.155,"Mozilla/5.0 (Windows NT 6.3; Win64; x64) AppleWebKit/537.36 (KHTML, like Gecko) Chrome/86.0.4240.75 Safari/537.36",WebKit,Chrome,86.0.4240.75,Windows,6.3
1,1,null,"""",image-keyboard-response,101,219395,0.0-101.0,jspsych/disgustFaces/AM18DIS.JPG,"""",null,82,17,Cue,"""","""",11/11/2020 20:27,136.34.173.155,"Mozilla/5.0 (Windows NT 6.3; Win64; x64) AppleWebKit/537.36 (KHTML, like Gecko) Chrome/86.0.4240.75 Safari/537.36",WebKit,Chrome,86.0.4240.75,Windows,6.3
1,1,null,"""",image-keyboard-response,102,219502,0.0-102.0,jspsych/neutralFaces/BM07NES.JPG,"""",null,100,17,backwardMask,"""","""",11/11/2020 20:27,136.34.173.155,"Mozilla/5.0 (Windows NT 6.3; Win64; x64) AppleWebKit/537.36 (KHTML, like Gecko) Chrome/86.0.4240.75 Safari/537.36",WebKit,Chrome,86.0.4240.75,Windows,6.3
1,1,null,"""",html-keyboard-response,103,219706,0.0-103.0,"<div style=""font-size:60px;"">+</div>","""",null,200,17,fixationBtwnNeutralMaskAndPrompt,"""","""",11/11/2020 20:27,136.34.173.155,"Mozilla/5.0 (Windows NT 6.3; Win64; x64) AppleWebKit/537.36 (KHTML, like Gecko) Chrome/86.0.4240.75 Safari/537.36",WebKit,Chrome,86.0.4240.75,Windows,6.3
1,1,587.145,"""",html-keyboard-response,104,220297,0.0-104.0,"<p> What was the emotion of the hidden face? <br> Press, <b>d</b> for <i>disgust face</i> or <b>n</b> for <i>neutral face</i></p>","""",68,"""",17,Query,"""",d,11/11/2020 20:27,136.34.173.155,"Mozilla/5.0 (Windows NT 6.3; Win64; x64) AppleWebKit/537.36 (KHTML, like Gecko) Chrome/86.0.4240.75 Safari/537.36",WebKit,Chrome,86.0.4240.75,Windows,6.3
1,1,null,"""",html-keyboard-response,105,221310,0.0-105.0,"<div style=""font-size:60px;"">+</div>","""",null,1000,18,ITI,"""","""",11/11/2020 20:27,136.34.173.155,"Mozilla/5.0 (Windows NT 6.3; Win64; x64) AppleWebKit/537.36 (KHTML, like Gecko) Chrome/86.0.4240.75 Safari/537.36",WebKit,Chrome,86.0.4240.75,Windows,6.3
1,1,null,"""",image-keyboard-response,106,221567,0.0-106.0,jspsych/scrambledNeutralFaces/scrambledBM01NES.JPG,"""",null,250,18,forwardMask,n,"""",11/11/2020 20:27,136.34.173.155,"Mozilla/5.0 (Windows NT 6.3; Win64; x64) AppleWebKit/537.36 (KHTML, like Gecko) Chrome/86.0.4240.75 Safari/537.36",WebKit,Chrome,86.0.4240.75,Windows,6.3
1,1,null,"""",image-keyboard-response,107,221677,0.0-107.0,jspsych/neutralFaces/BM01NES.JPG,"""",null,104,18,Cue,"""","""",11/11/2020 20:27,136.34.173.155,"Mozilla/5.0 (Windows NT 6.3; Win64; x64) AppleWebKit/537.36 (KHTML, like Gecko) Chrome/86.0.4240.75 Safari/537.36",WebKit,Chrome,86.0.4240.75,Windows,6.3
1,1,null,"""",image-keyboard-response,108,221783,0.0-108.0,jspsych/neutralFaces/AM28NES.JPG,"""",null,100,18,backwardMask,"""","""",11/11/2020 20:27,136.34.173.155,"Mozilla/5.0 (Windows NT 6.3; Win64; x64) AppleWebKit/537.36 (KHTML, like Gecko) Chrome/86.0.4240.75 Safari/537.36",WebKit,Chrome,86.0.4240.75,Windows,6.3
1,1,null,"""",html-keyboard-response,109,221988,0.0-109.0,"<div style=""font-size:60px;"">+</div>","""",null,200,18,fixationBtwnNeutralMaskAndPrompt,"""","""",11/11/2020 20:27,136.34.173.155,"Mozilla/5.0 (Windows NT 6.3; Win64; x64) AppleWebKit/537.36 (KHTML, like Gecko) Chrome/86.0.4240.75 Safari/537.36",WebKit,Chrome,86.0.4240.75,Windows,6.3
1,1,467.34,"""",html-keyboard-response,110,222482,0.0-110.0,"<p> What was the emotion of the hidden face? <br> Press, <b>d</b> for <i>disgust face</i> or <b>n</b> for <i>neutral face</i></p>","""",78,"""",18,Query,"""",n,11/11/2020 20:27,136.34.173.155,"Mozilla/5.0 (Windows NT 6.3; Win64; x64) AppleWebKit/537.36 (KHTML, like Gecko) Chrome/86.0.4240.75 Safari/537.36",WebKit,Chrome,86.0.4240.75,Windows,6.3
1,1,null,"""",html-keyboard-response,111,223487,0.0-111.0,"<div style=""font-size:60px;"">+</div>","""",null,1000,19,ITI,"""","""",11/11/2020 20:27,136.34.173.155,"Mozilla/5.0 (Windows NT 6.3; Win64; x64) AppleWebKit/537.36 (KHTML, like Gecko) Chrome/86.0.4240.75 Safari/537.36",WebKit,Chrome,86.0.4240.75,Windows,6.3
1,1,null,"""",image-keyboard-response,112,223745,0.0-112.0,jspsych/scrambledDisgustFaces/scrambledBM02DIS.JPG,"""",null,250,19,forwardMask,d,"""",11/11/2020 20:27,136.34.173.155,"Mozilla/5.0 (Windows NT 6.3; Win64; x64) AppleWebKit/537.36 (KHTML, like Gecko) Chrome/86.0.4240.75 Safari/537.36",WebKit,Chrome,86.0.4240.75,Windows,6.3
1,1,null,"""",image-keyboard-response,113,223888,0.0-113.0,jspsych/disgustFaces/BM02DIS.JPG,"""",null,136,19,Cue,"""","""",11/11/2020 20:27,136.34.173.155,"Mozilla/5.0 (Windows NT 6.3; Win64; x64) AppleWebKit/537.36 (KHTML, like Gecko) Chrome/86.0.4240.75 Safari/537.36",WebKit,Chrome,86.0.4240.75,Windows,6.3
1,1,null,"""",image-keyboard-response,114,223995,0.0-114.0,jspsych/neutralFaces/BF33NES.JPG,"""",null,100,19,backwardMask,"""","""",11/11/2020 20:27,136.34.173.155,"Mozilla/5.0 (Windows NT 6.3; Win64; x64) AppleWebKit/537.36 (KHTML, like Gecko) Chrome/86.0.4240.75 Safari/537.36",WebKit,Chrome,86.0.4240.75,Windows,6.3
1,1,null,"""",html-keyboard-response,115,224200,0.0-115.0,"<div style=""font-size:60px;"">+</div>","""",null,200,19,fixationBtwnNeutralMaskAndPrompt,"""","""",11/11/2020 20:27,136.34.173.155,"Mozilla/5.0 (Windows NT 6.3; Win64; x64) AppleWebKit/537.36 (KHTML, like Gecko) Chrome/86.0.4240.75 Safari/537.36",WebKit,Chrome,86.0.4240.75,Windows,6.3
1,1,503.645,"""",html-keyboard-response,116,224709,0.0-116.0,"<p> What was the emotion of the hidden face? <br> Press, <b>d</b> for <i>disgust face</i> or <b>n</b> for <i>neutral face</i></p>","""",68,"""",19,Query,"""",d,11/11/2020 20:27,136.34.173.155,"Mozilla/5.0 (Windows NT 6.3; Win64; x64) AppleWebKit/537.36 (KHTML, like Gecko) Chrome/86.0.4240.75 Safari/537.36",WebKit,Chrome,86.0.4240.75,Windows,6.3
1,1,null,"""",html-keyboard-response,117,225714,0.0-117.0,"<div style=""font-size:60px;"">+</div>","""",null,1000,20,ITI,"""","""",11/11/2020 20:27,136.34.173.155,"Mozilla/5.0 (Windows NT 6.3; Win64; x64) AppleWebKit/537.36 (KHTML, like Gecko) Chrome/86.0.4240.75 Safari/537.36",WebKit,Chrome,86.0.4240.75,Windows,6.3
1,1,null,"""",image-keyboard-response,118,225997,0.0-118.0,jspsych/scrambledNeutralFaces/scrambledAM13NES.JPG,"""",null,250,20,forwardMask,n,"""",11/11/2020 20:27,136.34.173.155,"Mozilla/5.0 (Windows NT 6.3; Win64; x64) AppleWebKit/537.36 (KHTML, like Gecko) Chrome/86.0.4240.75 Safari/537.36",WebKit,Chrome,86.0.4240.75,Windows,6.3
1,1,null,"""",image-keyboard-response,119,226085,0.0-119.0,jspsych/neutralFaces/AM13NES.JPG,"""",null,82,20,Cue,"""","""",11/11/2020 20:27,136.34.173.155,"Mozilla/5.0 (Windows NT 6.3; Win64; x64) AppleWebKit/537.36 (KHTML, like Gecko) Chrome/86.0.4240.75 Safari/537.36",WebKit,Chrome,86.0.4240.75,Windows,6.3
1,1,null,"""",image-keyboard-response,120,226192,0.0-120.0,jspsych/neutralFaces/BF11NES.JPG,"""",null,100,20,backwardMask,"""","""",11/11/2020 20:27,136.34.173.155,"Mozilla/5.0 (Windows NT 6.3; Win64; x64) AppleWebKit/537.36 (KHTML, like Gecko) Chrome/86.0.4240.75 Safari/537.36",WebKit,Chrome,86.0.4240.75,Windows,6.3
1,1,null,"""",html-keyboard-response,121,226397,0.0-121.0,"<div style=""font-size:60px;"">+</div>","""",null,200,20,fixationBtwnNeutralMaskAndPrompt,"""","""",11/11/2020 20:27,136.34.173.155,"Mozilla/5.0 (Windows NT 6.3; Win64; x64) AppleWebKit/537.36 (KHTML, like Gecko) Chrome/86.0.4240.75 Safari/537.36",WebKit,Chrome,86.0.4240.75,Windows,6.3
1,1,446.48,"""",html-keyboard-response,122,226848,0.0-122.0,"<p> What was the emotion of the hidden face? <br> Press, <b>d</b> for <i>disgust face</i> or <b>n</b> for <i>neutral face</i></p>","""",78,"""",20,Query,"""",n,11/11/2020 20:27,136.34.173.155,"Mozilla/5.0 (Windows NT 6.3; Win64; x64) AppleWebKit/537.36 (KHTML, like Gecko) Chrome/86.0.4240.75 Safari/537.36",WebKit,Chrome,86.0.4240.75,Windows,6.3
1,1,null,"""",html-keyboard-response,123,227854,0.0-123.0,"<div style=""font-size:60px;"">+</div>","""",null,1000,21,ITI,"""","""",11/11/2020 20:27,136.34.173.155,"Mozilla/5.0 (Windows NT 6.3; Win64; x64) AppleWebKit/537.36 (KHTML, like Gecko) Chrome/86.0.4240.75 Safari/537.36",WebKit,Chrome,86.0.4240.75,Windows,6.3
1,1,null,"""",image-keyboard-response,124,228114,0.0-124.0,jspsych/scrambledNeutralFaces/scrambledBM31NES.JPG,"""",null,250,21,forwardMask,n,"""",11/11/2020 20:27,136.34.173.155,"Mozilla/5.0 (Windows NT 6.3; Win64; x64) AppleWebKit/537.36 (KHTML, like Gecko) Chrome/86.0.4240.75 Safari/537.36",WebKit,Chrome,86.0.4240.75,Windows,6.3
1,1,null,"""",image-keyboard-response,125,228186,0.0-125.0,jspsych/neutralFaces/BM31NES.JPG,"""",null,66,21,Cue,"""","""",11/11/2020 20:27,136.34.173.155,"Mozilla/5.0 (Windows NT 6.3; Win64; x64) AppleWebKit/537.36 (KHTML, like Gecko) Chrome/86.0.4240.75 Safari/537.36",WebKit,Chrome,86.0.4240.75,Windows,6.3
1,1,null,"""",image-keyboard-response,126,228291,0.0-126.0,jspsych/neutralFaces/AF13NES.JPG,"""",null,100,21,backwardMask,"""","""",11/11/2020 20:27,136.34.173.155,"Mozilla/5.0 (Windows NT 6.3; Win64; x64) AppleWebKit/537.36 (KHTML, like Gecko) Chrome/86.0.4240.75 Safari/537.36",WebKit,Chrome,86.0.4240.75,Windows,6.3
1,1,null,"""",html-keyboard-response,127,228496,0.0-127.0,"<div style=""font-size:60px;"">+</div>","""",null,200,21,fixationBtwnNeutralMaskAndPrompt,"""","""",11/11/2020 20:27,136.34.173.155,"Mozilla/5.0 (Windows NT 6.3; Win64; x64) AppleWebKit/537.36 (KHTML, like Gecko) Chrome/86.0.4240.75 Safari/537.36",WebKit,Chrome,86.0.4240.75,Windows,6.3
1,1,583.825,"""",html-keyboard-response,128,229085,0.0-128.0,"<p> What was the emotion of the hidden face? <br> Press, <b>d</b> for <i>disgust face</i> or <b>n</b> for <i>neutral face</i></p>","""",78,"""",21,Query,"""",n,11/11/2020 20:27,136.34.173.155,"Mozilla/5.0 (Windows NT 6.3; Win64; x64) AppleWebKit/537.36 (KHTML, like Gecko) Chrome/86.0.4240.75 Safari/537.36",WebKit,Chrome,86.0.4240.75,Windows,6.3
1,1,null,"""",html-keyboard-response,129,230112,0.0-129.0,"<div style=""font-size:60px;"">+</div>","""",null,1000,22,ITI,"""","""",11/11/2020 20:27,136.34.173.155,"Mozilla/5.0 (Windows NT 6.3; Win64; x64) AppleWebKit/537.36 (KHTML, like Gecko) Chrome/86.0.4240.75 Safari/537.36",WebKit,Chrome,86.0.4240.75,Windows,6.3
1,1,null,"""",image-keyboard-response,130,230369,0.0-130.0,jspsych/scrambledNeutralFaces/scrambledBM06NES.JPG,"""",null,250,22,forwardMask,n,"""",11/11/2020 20:27,136.34.173.155,"Mozilla/5.0 (Windows NT 6.3; Win64; x64) AppleWebKit/537.36 (KHTML, like Gecko) Chrome/86.0.4240.75 Safari/537.36",WebKit,Chrome,86.0.4240.75,Windows,6.3
1,1,null,"""",image-keyboard-response,131,230391,0.0-131.0,jspsych/neutralFaces/BM06NES.JPG,"""",null,16,22,Cue,"""","""",11/11/2020 20:27,136.34.173.155,"Mozilla/5.0 (Windows NT 6.3; Win64; x64) AppleWebKit/537.36 (KHTML, like Gecko) Chrome/86.0.4240.75 Safari/537.36",WebKit,Chrome,86.0.4240.75,Windows,6.3
1,1,null,"""",image-keyboard-response,132,230497,0.0-132.0,jspsych/neutralFaces/AM07NES.JPG,"""",null,100,22,backwardMask,"""","""",11/11/2020 20:27,136.34.173.155,"Mozilla/5.0 (Windows NT 6.3; Win64; x64) AppleWebKit/537.36 (KHTML, like Gecko) Chrome/86.0.4240.75 Safari/537.36",WebKit,Chrome,86.0.4240.75,Windows,6.3
1,1,null,"""",html-keyboard-response,133,230701,0.0-133.0,"<div style=""font-size:60px;"">+</div>","""",null,200,22,fixationBtwnNeutralMaskAndPrompt,"""","""",11/11/2020 20:27,136.34.173.155,"Mozilla/5.0 (Windows NT 6.3; Win64; x64) AppleWebKit/537.36 (KHTML, like Gecko) Chrome/86.0.4240.75 Safari/537.36",WebKit,Chrome,86.0.4240.75,Windows,6.3
1,1,1176.825,"""",html-keyboard-response,134,231882,0.0-134.0,"<p> What was the emotion of the hidden face? <br> Press, <b>d</b> for <i>disgust face</i> or <b>n</b> for <i>neutral face</i></p>","""",78,"""",22,Query,"""",n,11/11/2020 20:27,136.34.173.155,"Mozilla/5.0 (Windows NT 6.3; Win64; x64) AppleWebKit/537.36 (KHTML, like Gecko) Chrome/86.0.4240.75 Safari/537.36",WebKit,Chrome,86.0.4240.75,Windows,6.3
1,1,null,"""",html-keyboard-response,135,232920,0.0-135.0,"<div style=""font-size:60px;"">+</div>","""",null,1000,23,ITI,"""","""",11/11/2020 20:27,136.34.173.155,"Mozilla/5.0 (Windows NT 6.3; Win64; x64) AppleWebKit/537.36 (KHTML, like Gecko) Chrome/86.0.4240.75 Safari/537.36",WebKit,Chrome,86.0.4240.75,Windows,6.3
1,1,null,"""",image-keyboard-response,136,233178,0.0-136.0,jspsych/scrambledDisgustFaces/scrambledBF10DIS.JPG,"""",null,250,23,forwardMask,d,"""",11/11/2020 20:27,136.34.173.155,"Mozilla/5.0 (Windows NT 6.3; Win64; x64) AppleWebKit/537.36 (KHTML, like Gecko) Chrome/86.0.4240.75 Safari/537.36",WebKit,Chrome,86.0.4240.75,Windows,6.3
1,1,null,"""",image-keyboard-response,137,233320,0.0-137.0,jspsych/disgustFaces/BF10DIS.JPG,"""",null,136,23,Cue,"""","""",11/11/2020 20:27,136.34.173.155,"Mozilla/5.0 (Windows NT 6.3; Win64; x64) AppleWebKit/537.36 (KHTML, like Gecko) Chrome/86.0.4240.75 Safari/537.36",WebKit,Chrome,86.0.4240.75,Windows,6.3
1,1,null,"""",image-keyboard-response,138,233427,0.0-138.0,jspsych/neutralFaces/AF02NES.JPG,"""",null,100,23,backwardMask,"""","""",11/11/2020 20:27,136.34.173.155,"Mozilla/5.0 (Windows NT 6.3; Win64; x64) AppleWebKit/537.36 (KHTML, like Gecko) Chrome/86.0.4240.75 Safari/537.36",WebKit,Chrome,86.0.4240.75,Windows,6.3
1,1,null,"""",html-keyboard-response,139,233633,0.0-139.0,"<div style=""font-size:60px;"">+</div>","""",null,200,23,fixationBtwnNeutralMaskAndPrompt,"""","""",11/11/2020 20:27,136.34.173.155,"Mozilla/5.0 (Windows NT 6.3; Win64; x64) AppleWebKit/537.36 (KHTML, like Gecko) Chrome/86.0.4240.75 Safari/537.36",WebKit,Chrome,86.0.4240.75,Windows,6.3
1,1,287.16,"""",html-keyboard-response,140,233925,0.0-140.0,"<p> What was the emotion of the hidden face? <br> Press, <b>d</b> for <i>disgust face</i> or <b>n</b> for <i>neutral face</i></p>","""",68,"""",23,Query,"""",d,11/11/2020 20:27,136.34.173.155,"Mozilla/5.0 (Windows NT 6.3; Win64; x64) AppleWebKit/537.36 (KHTML, like Gecko) Chrome/86.0.4240.75 Safari/537.36",WebKit,Chrome,86.0.4240.75,Windows,6.3
1,1,null,"""",html-keyboard-response,141,234931,0.0-141.0,"<div style=""font-size:60px;"">+</div>","""",null,1000,24,ITI,"""","""",11/11/2020 20:27,136.34.173.155,"Mozilla/5.0 (Windows NT 6.3; Win64; x64) AppleWebKit/537.36 (KHTML, like Gecko) Chrome/86.0.4240.75 Safari/537.36",WebKit,Chrome,86.0.4240.75,Windows,6.3
1,1,null,"""",image-keyboard-response,142,235188,0.0-142.0,jspsych/scrambledNeutralFaces/scrambledAM35NES.JPG,"""",null,250,24,forwardMask,n,"""",11/11/2020 20:27,136.34.173.155,"Mozilla/5.0 (Windows NT 6.3; Win64; x64) AppleWebKit/537.36 (KHTML, like Gecko) Chrome/86.0.4240.75 Safari/537.36",WebKit,Chrome,86.0.4240.75,Windows,6.3
1,1,null,"""",image-keyboard-response,143,235244,0.0-143.0,jspsych/neutralFaces/AM35NES.JPG,"""",null,49,24,Cue,"""","""",11/11/2020 20:27,136.34.173.155,"Mozilla/5.0 (Windows NT 6.3; Win64; x64) AppleWebKit/537.36 (KHTML, like Gecko) Chrome/86.0.4240.75 Safari/537.36",WebKit,Chrome,86.0.4240.75,Windows,6.3
1,1,null,"""",image-keyboard-response,144,235376,0.0-144.0,jspsych/neutralFaces/BM34NES.JPG,"""",null,100,24,backwardMask,"""","""",11/11/2020 20:27,136.34.173.155,"Mozilla/5.0 (Windows NT 6.3; Win64; x64) AppleWebKit/537.36 (KHTML, like Gecko) Chrome/86.0.4240.75 Safari/537.36",WebKit,Chrome,86.0.4240.75,Windows,6.3
1,1,null,"""",html-keyboard-response,145,235581,0.0-145.0,"<div style=""font-size:60px;"">+</div>","""",null,200,24,fixationBtwnNeutralMaskAndPrompt,"""","""",11/11/2020 20:27,136.34.173.155,"Mozilla/5.0 (Windows NT 6.3; Win64; x64) AppleWebKit/537.36 (KHTML, like Gecko) Chrome/86.0.4240.75 Safari/537.36",WebKit,Chrome,86.0.4240.75,Windows,6.3
1,1,543.3,"""",html-keyboard-response,146,236130,0.0-146.0,"<p> What was the emotion of the hidden face? <br> Press, <b>d</b> for <i>disgust face</i> or <b>n</b> for <i>neutral face</i></p>","""",78,"""",24,Query,"""",n,11/11/2020 20:27,136.34.173.155,"Mozilla/5.0 (Windows NT 6.3; Win64; x64) AppleWebKit/537.36 (KHTML, like Gecko) Chrome/86.0.4240.75 Safari/537.36",WebKit,Chrome,86.0.4240.75,Windows,6.3
1,1,null,"""",html-keyboard-response,147,237136,0.0-147.0,"<div style=""font-size:60px;"">+</div>","""",null,1000,25,ITI,"""","""",11/11/2020 20:27,136.34.173.155,"Mozilla/5.0 (Windows NT 6.3; Win64; x64) AppleWebKit/537.36 (KHTML, like Gecko) Chrome/86.0.4240.75 Safari/537.36",WebKit,Chrome,86.0.4240.75,Windows,6.3
1,1,null,"""",image-keyboard-response,148,237393,0.0-148.0,jspsych/scrambledNeutralFaces/scrambledAM25NES.JPG,"""",null,250,25,forwardMask,n,"""",11/11/2020 20:27,136.34.173.155,"Mozilla/5.0 (Windows NT 6.3; Win64; x64) AppleWebKit/537.36 (KHTML, like Gecko) Chrome/86.0.4240.75 Safari/537.36",WebKit,Chrome,86.0.4240.75,Windows,6.3
1,1,null,"""",image-keyboard-response,149,237448,0.0-149.0,jspsych/neutralFaces/AM25NES.JPG,"""",null,49,25,Cue,"""","""",11/11/2020 20:27,136.34.173.155,"Mozilla/5.0 (Windows NT 6.3; Win64; x64) AppleWebKit/537.36 (KHTML, like Gecko) Chrome/86.0.4240.75 Safari/537.36",WebKit,Chrome,86.0.4240.75,Windows,6.3
1,1,null,"""",image-keyboard-response,150,237552,0.0-150.0,jspsych/neutralFaces/BF24NES.JPG,"""",null,100,25,backwardMask,"""","""",11/11/2020 20:27,136.34.173.155,"Mozilla/5.0 (Windows NT 6.3; Win64; x64) AppleWebKit/537.36 (KHTML, like Gecko) Chrome/86.0.4240.75 Safari/537.36",WebKit,Chrome,86.0.4240.75,Windows,6.3
1,1,null,"""",html-keyboard-response,151,237758,0.0-151.0,"<div style=""font-size:60px;"">+</div>","""",null,200,25,fixationBtwnNeutralMaskAndPrompt,"""","""",11/11/2020 20:27,136.34.173.155,"Mozilla/5.0 (Windows NT 6.3; Win64; x64) AppleWebKit/537.36 (KHTML, like Gecko) Chrome/86.0.4240.75 Safari/537.36",WebKit,Chrome,86.0.4240.75,Windows,6.3
1,1,558.93,"""",html-keyboard-response,152,238320,0.0-152.0,"<p> What was the emotion of the hidden face? <br> Press, <b>d</b> for <i>disgust face</i> or <b>n</b> for <i>neutral face</i></p>","""",78,"""",25,Query,"""",n,11/11/2020 20:27,136.34.173.155,"Mozilla/5.0 (Windows NT 6.3; Win64; x64) AppleWebKit/537.36 (KHTML, like Gecko) Chrome/86.0.4240.75 Safari/537.36",WebKit,Chrome,86.0.4240.75,Windows,6.3
1,1,null,"""",html-keyboard-response,153,239333,0.0-153.0,"<div style=""font-size:60px;"">+</div>","""",null,1000,26,ITI,"""","""",11/11/2020 20:27,136.34.173.155,"Mozilla/5.0 (Windows NT 6.3; Win64; x64) AppleWebKit/537.36 (KHTML, like Gecko) Chrome/86.0.4240.75 Safari/537.36",WebKit,Chrome,86.0.4240.75,Windows,6.3
1,1,null,"""",image-keyboard-response,154,239588,0.0-154.0,jspsych/scrambledDisgustFaces/scrambledBF25DIS.JPG,"""",null,250,26,forwardMask,d,"""",11/11/2020 20:27,136.34.173.155,"Mozilla/5.0 (Windows NT 6.3; Win64; x64) AppleWebKit/537.36 (KHTML, like Gecko) Chrome/86.0.4240.75 Safari/537.36",WebKit,Chrome,86.0.4240.75,Windows,6.3
1,1,null,"""",image-keyboard-response,155,239730,0.0-155.0,jspsych/disgustFaces/BF25DIS.JPG,"""",null,136,26,Cue,"""","""",11/11/2020 20:27,136.34.173.155,"Mozilla/5.0 (Windows NT 6.3; Win64; x64) AppleWebKit/537.36 (KHTML, like Gecko) Chrome/86.0.4240.75 Safari/537.36",WebKit,Chrome,86.0.4240.75,Windows,6.3
1,1,null,"""",image-keyboard-response,156,239837,0.0-156.0,jspsych/neutralFaces/BF01NES.JPG,"""",null,100,26,backwardMask,"""","""",11/11/2020 20:27,136.34.173.155,"Mozilla/5.0 (Windows NT 6.3; Win64; x64) AppleWebKit/537.36 (KHTML, like Gecko) Chrome/86.0.4240.75 Safari/537.36",WebKit,Chrome,86.0.4240.75,Windows,6.3
1,1,null,"""",html-keyboard-response,157,240042,0.0-157.0,"<div style=""font-size:60px;"">+</div>","""",null,200,26,fixationBtwnNeutralMaskAndPrompt,"""","""",11/11/2020 20:27,136.34.173.155,"Mozilla/5.0 (Windows NT 6.3; Win64; x64) AppleWebKit/537.36 (KHTML, like Gecko) Chrome/86.0.4240.75 Safari/537.36",WebKit,Chrome,86.0.4240.75,Windows,6.3
1,1,590.665,"""",html-keyboard-response,158,240638,0.0-158.0,"<p> What was the emotion of the hidden face? <br> Press, <b>d</b> for <i>disgust face</i> or <b>n</b> for <i>neutral face</i></p>","""",68,"""",26,Query,"""",d,11/11/2020 20:27,136.34.173.155,"Mozilla/5.0 (Windows NT 6.3; Win64; x64) AppleWebKit/537.36 (KHTML, like Gecko) Chrome/86.0.4240.75 Safari/537.36",WebKit,Chrome,86.0.4240.75,Windows,6.3
1,1,null,"""",html-keyboard-response,159,241644,0.0-159.0,"<div style=""font-size:60px;"">+</div>","""",null,1000,27,ITI,"""","""",11/11/2020 20:27,136.34.173.155,"Mozilla/5.0 (Windows NT 6.3; Win64; x64) AppleWebKit/537.36 (KHTML, like Gecko) Chrome/86.0.4240.75 Safari/537.36",WebKit,Chrome,86.0.4240.75,Windows,6.3
1,1,null,"""",image-keyboard-response,160,241926,0.0-160.0,jspsych/scrambledDisgustFaces/scrambledBM16DIS.JPG,"""",null,250,27,forwardMask,d,"""",11/11/2020 20:27,136.34.173.155,"Mozilla/5.0 (Windows NT 6.3; Win64; x64) AppleWebKit/537.36 (KHTML, like Gecko) Chrome/86.0.4240.75 Safari/537.36",WebKit,Chrome,86.0.4240.75,Windows,6.3
1,1,null,"""",image-keyboard-response,161,242013,0.0-161.0,jspsych/disgustFaces/BM16DIS.JPG,"""",null,82,27,Cue,"""","""",11/11/2020 20:27,136.34.173.155,"Mozilla/5.0 (Windows NT 6.3; Win64; x64) AppleWebKit/537.36 (KHTML, like Gecko) Chrome/86.0.4240.75 Safari/537.36",WebKit,Chrome,86.0.4240.75,Windows,6.3
1,1,null,"""",image-keyboard-response,162,242120,0.0-162.0,jspsych/neutralFaces/BM23NES.JPG,"""",null,100,27,backwardMask,"""","""",11/11/2020 20:27,136.34.173.155,"Mozilla/5.0 (Windows NT 6.3; Win64; x64) AppleWebKit/537.36 (KHTML, like Gecko) Chrome/86.0.4240.75 Safari/537.36",WebKit,Chrome,86.0.4240.75,Windows,6.3
1,1,null,"""",html-keyboard-response,163,242325,0.0-163.0,"<div style=""font-size:60px;"">+</div>","""",null,200,27,fixationBtwnNeutralMaskAndPrompt,"""","""",11/11/2020 20:27,136.34.173.155,"Mozilla/5.0 (Windows NT 6.3; Win64; x64) AppleWebKit/537.36 (KHTML, like Gecko) Chrome/86.0.4240.75 Safari/537.36",WebKit,Chrome,86.0.4240.75,Windows,6.3
1,1,622.735,"""",html-keyboard-response,164,242953,0.0-164.0,"<p> What was the emotion of the hidden face? <br> Press, <b>d</b> for <i>disgust face</i> or <b>n</b> for <i>neutral face</i></p>","""",68,"""",27,Query,"""",d,11/11/2020 20:27,136.34.173.155,"Mozilla/5.0 (Windows NT 6.3; Win64; x64) AppleWebKit/537.36 (KHTML, like Gecko) Chrome/86.0.4240.75 Safari/537.36",WebKit,Chrome,86.0.4240.75,Windows,6.3
1,1,null,"""",html-keyboard-response,165,243959,0.0-165.0,"<div style=""font-size:60px;"">+</div>","""",null,1000,28,ITI,"""","""",11/11/2020 20:27,136.34.173.155,"Mozilla/5.0 (Windows NT 6.3; Win64; x64) AppleWebKit/537.36 (KHTML, like Gecko) Chrome/86.0.4240.75 Safari/537.36",WebKit,Chrome,86.0.4240.75,Windows,6.3
1,1,null,"""",image-keyboard-response,166,244216,0.0-166.0,jspsych/scrambledDisgustFaces/scrambledBM34DIS.JPG,"""",null,250,28,forwardMask,d,"""",11/11/2020 20:27,136.34.173.155,"Mozilla/5.0 (Windows NT 6.3; Win64; x64) AppleWebKit/537.36 (KHTML, like Gecko) Chrome/86.0.4240.75 Safari/537.36",WebKit,Chrome,86.0.4240.75,Windows,6.3
1,1,null,"""",image-keyboard-response,167,244358,0.0-167.0,jspsych/disgustFaces/BM34DIS.JPG,"""",null,136,28,Cue,"""","""",11/11/2020 20:27,136.34.173.155,"Mozilla/5.0 (Windows NT 6.3; Win64; x64) AppleWebKit/537.36 (KHTML, like Gecko) Chrome/86.0.4240.75 Safari/537.36",WebKit,Chrome,86.0.4240.75,Windows,6.3
1,1,null,"""",image-keyboard-response,168,244464,0.0-168.0,jspsych/neutralFaces/BF05NES.JPG,"""",null,100,28,backwardMask,"""","""",11/11/2020 20:27,136.34.173.155,"Mozilla/5.0 (Windows NT 6.3; Win64; x64) AppleWebKit/537.36 (KHTML, like Gecko) Chrome/86.0.4240.75 Safari/537.36",WebKit,Chrome,86.0.4240.75,Windows,6.3
1,1,null,"""",html-keyboard-response,169,244670,0.0-169.0,"<div style=""font-size:60px;"">+</div>","""",null,200,28,fixationBtwnNeutralMaskAndPrompt,"""","""",11/11/2020 20:27,136.34.173.155,"Mozilla/5.0 (Windows NT 6.3; Win64; x64) AppleWebKit/537.36 (KHTML, like Gecko) Chrome/86.0.4240.75 Safari/537.36",WebKit,Chrome,86.0.4240.75,Windows,6.3
1,1,607.625,"""",html-keyboard-response,170,245282,0.0-170.0,"<p> What was the emotion of the hidden face? <br> Press, <b>d</b> for <i>disgust face</i> or <b>n</b> for <i>neutral face</i></p>","""",68,"""",28,Query,"""",d,11/11/2020 20:27,136.34.173.155,"Mozilla/5.0 (Windows NT 6.3; Win64; x64) AppleWebKit/537.36 (KHTML, like Gecko) Chrome/86.0.4240.75 Safari/537.36",WebKit,Chrome,86.0.4240.75,Windows,6.3
1,1,null,"""",html-keyboard-response,171,246323,0.0-171.0,"<div style=""font-size:60px;"">+</div>","""",null,1000,29,ITI,"""","""",11/11/2020 20:27,136.34.173.155,"Mozilla/5.0 (Windows NT 6.3; Win64; x64) AppleWebKit/537.36 (KHTML, like Gecko) Chrome/86.0.4240.75 Safari/537.36",WebKit,Chrome,86.0.4240.75,Windows,6.3
1,1,null,"""",image-keyboard-response,172,246580,0.0-172.0,jspsych/scrambledNeutralFaces/scrambledBF09NES.JPG,"""",null,250,29,forwardMask,n,"""",11/11/2020 20:27,136.34.173.155,"Mozilla/5.0 (Windows NT 6.3; Win64; x64) AppleWebKit/537.36 (KHTML, like Gecko) Chrome/86.0.4240.75 Safari/537.36",WebKit,Chrome,86.0.4240.75,Windows,6.3
1,1,null,"""",image-keyboard-response,173,246653,0.0-173.0,jspsych/neutralFaces/BF09NES.JPG,"""",null,66,29,Cue,"""","""",11/11/2020 20:27,136.34.173.155,"Mozilla/5.0 (Windows NT 6.3; Win64; x64) AppleWebKit/537.36 (KHTML, like Gecko) Chrome/86.0.4240.75 Safari/537.36",WebKit,Chrome,86.0.4240.75,Windows,6.3
1,1,null,"""",image-keyboard-response,174,246758,0.0-174.0,jspsych/neutralFaces/AM03NES.JPG,"""",null,100,29,backwardMask,"""","""",11/11/2020 20:27,136.34.173.155,"Mozilla/5.0 (Windows NT 6.3; Win64; x64) AppleWebKit/537.36 (KHTML, like Gecko) Chrome/86.0.4240.75 Safari/537.36",WebKit,Chrome,86.0.4240.75,Windows,6.3
1,1,null,"""",html-keyboard-response,175,246963,0.0-175.0,"<div style=""font-size:60px;"">+</div>","""",null,200,29,fixationBtwnNeutralMaskAndPrompt,"""","""",11/11/2020 20:27,136.34.173.155,"Mozilla/5.0 (Windows NT 6.3; Win64; x64) AppleWebKit/537.36 (KHTML, like Gecko) Chrome/86.0.4240.75 Safari/537.36",WebKit,Chrome,86.0.4240.75,Windows,6.3
1,1,417.155,"""",html-keyboard-response,176,247386,0.0-176.0,"<p> What was the emotion of the hidden face? <br> Press, <b>d</b> for <i>disgust face</i> or <b>n</b> for <i>neutral face</i></p>","""",78,"""",29,Query,"""",n,11/11/2020 20:27,136.34.173.155,"Mozilla/5.0 (Windows NT 6.3; Win64; x64) AppleWebKit/537.36 (KHTML, like Gecko) Chrome/86.0.4240.75 Safari/537.36",WebKit,Chrome,86.0.4240.75,Windows,6.3
1,1,null,"""",html-keyboard-response,177,248391,0.0-177.0,"<div style=""font-size:60px;"">+</div>","""",null,1000,30,ITI,"""","""",11/11/2020 20:27,136.34.173.155,"Mozilla/5.0 (Windows NT 6.3; Win64; x64) AppleWebKit/537.36 (KHTML, like Gecko) Chrome/86.0.4240.75 Safari/537.36",WebKit,Chrome,86.0.4240.75,Windows,6.3
1,1,null,"""",image-keyboard-response,178,248649,0.0-178.0,jspsych/scrambledDisgustFaces/scrambledAF09DIS.JPG,"""",null,250,30,forwardMask,d,"""",11/11/2020 20:27,136.34.173.155,"Mozilla/5.0 (Windows NT 6.3; Win64; x64) AppleWebKit/537.36 (KHTML, like Gecko) Chrome/86.0.4240.75 Safari/537.36",WebKit,Chrome,86.0.4240.75,Windows,6.3
1,1,null,"""",image-keyboard-response,179,248763,0.0-179.0,jspsych/disgustFaces/AF09DIS.JPG,"""",null,82,30,Cue,"""","""",11/11/2020 20:27,136.34.173.155,"Mozilla/5.0 (Windows NT 6.3; Win64; x64) AppleWebKit/537.36 (KHTML, like Gecko) Chrome/86.0.4240.75 Safari/537.36",WebKit,Chrome,86.0.4240.75,Windows,6.3
1,1,null,"""",image-keyboard-response,180,248869,0.0-180.0,jspsych/neutralFaces/BF06NES.JPG,"""",null,100,30,backwardMask,"""","""",11/11/2020 20:27,136.34.173.155,"Mozilla/5.0 (Windows NT 6.3; Win64; x64) AppleWebKit/537.36 (KHTML, like Gecko) Chrome/86.0.4240.75 Safari/537.36",WebKit,Chrome,86.0.4240.75,Windows,6.3
1,1,null,"""",html-keyboard-response,181,249074,0.0-181.0,"<div style=""font-size:60px;"">+</div>","""",null,200,30,fixationBtwnNeutralMaskAndPrompt,"""","""",11/11/2020 20:27,136.34.173.155,"Mozilla/5.0 (Windows NT 6.3; Win64; x64) AppleWebKit/537.36 (KHTML, like Gecko) Chrome/86.0.4240.75 Safari/537.36",WebKit,Chrome,86.0.4240.75,Windows,6.3
1,1,522.555,"""",html-keyboard-response,182,249602,0.0-182.0,"<p> What was the emotion of the hidden face? <br> Press, <b>d</b> for <i>disgust face</i> or <b>n</b> for <i>neutral face</i></p>","""",68,"""",30,Query,"""",d,11/11/2020 20:27,136.34.173.155,"Mozilla/5.0 (Windows NT 6.3; Win64; x64) AppleWebKit/537.36 (KHTML, like Gecko) Chrome/86.0.4240.75 Safari/537.36",WebKit,Chrome,86.0.4240.75,Windows,6.3
1,1,null,"""",html-keyboard-response,183,250607,0.0-183.0,"<div style=""font-size:60px;"">+</div>","""",null,1000,31,ITI,"""","""",11/11/2020 20:27,136.34.173.155,"Mozilla/5.0 (Windows NT 6.3; Win64; x64) AppleWebKit/537.36 (KHTML, like Gecko) Chrome/86.0.4240.75 Safari/537.36",WebKit,Chrome,86.0.4240.75,Windows,6.3
1,1,null,"""",image-keyboard-response,184,250863,0.0-184.0,jspsych/scrambledNeutralFaces/scrambledAM15NES.JPG,"""",null,250,31,forwardMask,n,"""",11/11/2020 20:27,136.34.173.155,"Mozilla/5.0 (Windows NT 6.3; Win64; x64) AppleWebKit/537.36 (KHTML, like Gecko) Chrome/86.0.4240.75 Safari/537.36",WebKit,Chrome,86.0.4240.75,Windows,6.3
1,1,null,"""",image-keyboard-response,185,250914,0.0-185.0,jspsych/neutralFaces/AM15NES.JPG,"""",null,33,31,Cue,"""","""",11/11/2020 20:27,136.34.173.155,"Mozilla/5.0 (Windows NT 6.3; Win64; x64) AppleWebKit/537.36 (KHTML, like Gecko) Chrome/86.0.4240.75 Safari/537.36",WebKit,Chrome,86.0.4240.75,Windows,6.3
1,1,null,"""",image-keyboard-response,186,251019,0.0-186.0,jspsych/neutralFaces/BF31NES.JPG,"""",null,100,31,backwardMask,"""","""",11/11/2020 20:27,136.34.173.155,"Mozilla/5.0 (Windows NT 6.3; Win64; x64) AppleWebKit/537.36 (KHTML, like Gecko) Chrome/86.0.4240.75 Safari/537.36",WebKit,Chrome,86.0.4240.75,Windows,6.3
1,1,null,"""",html-keyboard-response,187,251224,0.0-187.0,"<div style=""font-size:60px;"">+</div>","""",null,200,31,fixationBtwnNeutralMaskAndPrompt,"""","""",11/11/2020 20:27,136.34.173.155,"Mozilla/5.0 (Windows NT 6.3; Win64; x64) AppleWebKit/537.36 (KHTML, like Gecko) Chrome/86.0.4240.75 Safari/537.36",WebKit,Chrome,86.0.4240.75,Windows,6.3
1,1,419.465,"""",html-keyboard-response,188,251648,0.0-188.0,"<p> What was the emotion of the hidden face? <br> Press, <b>d</b> for <i>disgust face</i> or <b>n</b> for <i>neutral face</i></p>","""",78,"""",31,Query,"""",n,11/11/2020 20:27,136.34.173.155,"Mozilla/5.0 (Windows NT 6.3; Win64; x64) AppleWebKit/537.36 (KHTML, like Gecko) Chrome/86.0.4240.75 Safari/537.36",WebKit,Chrome,86.0.4240.75,Windows,6.3
1,1,null,"""",html-keyboard-response,189,252685,0.0-189.0,"<div style=""font-size:60px;"">+</div>","""",null,1000,32,ITI,"""","""",11/11/2020 20:27,136.34.173.155,"Mozilla/5.0 (Windows NT 6.3; Win64; x64) AppleWebKit/537.36 (KHTML, like Gecko) Chrome/86.0.4240.75 Safari/537.36",WebKit,Chrome,86.0.4240.75,Windows,6.3
1,1,null,"""",image-keyboard-response,190,252943,0.0-190.0,jspsych/scrambledNeutralFaces/scrambledBF23NES.JPG,"""",null,250,32,forwardMask,n,"""",11/11/2020 20:27,136.34.173.155,"Mozilla/5.0 (Windows NT 6.3; Win64; x64) AppleWebKit/537.36 (KHTML, like Gecko) Chrome/86.0.4240.75 Safari/537.36",WebKit,Chrome,86.0.4240.75,Windows,6.3
1,1,null,"""",image-keyboard-response,191,253031,0.0-191.0,jspsych/neutralFaces/BF23NES.JPG,"""",null,82,32,Cue,"""","""",11/11/2020 20:27,136.34.173.155,"Mozilla/5.0 (Windows NT 6.3; Win64; x64) AppleWebKit/537.36 (KHTML, like Gecko) Chrome/86.0.4240.75 Safari/537.36",WebKit,Chrome,86.0.4240.75,Windows,6.3
1,1,null,"""",image-keyboard-response,192,253137,0.0-192.0,jspsych/neutralFaces/AF28NES.JPG,"""",null,100,32,backwardMask,"""","""",11/11/2020 20:27,136.34.173.155,"Mozilla/5.0 (Windows NT 6.3; Win64; x64) AppleWebKit/537.36 (KHTML, like Gecko) Chrome/86.0.4240.75 Safari/537.36",WebKit,Chrome,86.0.4240.75,Windows,6.3
1,1,null,"""",html-keyboard-response,193,253342,0.0-193.0,"<div style=""font-size:60px;"">+</div>","""",null,200,32,fixationBtwnNeutralMaskAndPrompt,"""","""",11/11/2020 20:27,136.34.173.155,"Mozilla/5.0 (Windows NT 6.3; Win64; x64) AppleWebKit/537.36 (KHTML, like Gecko) Chrome/86.0.4240.75 Safari/537.36",WebKit,Chrome,86.0.4240.75,Windows,6.3
1,1,922.975,"""",html-keyboard-response,194,254270,0.0-194.0,"<p> What was the emotion of the hidden face? <br> Press, <b>d</b> for <i>disgust face</i> or <b>n</b> for <i>neutral face</i></p>","""",78,"""",32,Query,"""",n,11/11/2020 20:27,136.34.173.155,"Mozilla/5.0 (Windows NT 6.3; Win64; x64) AppleWebKit/537.36 (KHTML, like Gecko) Chrome/86.0.4240.75 Safari/537.36",WebKit,Chrome,86.0.4240.75,Windows,6.3
1,1,null,"""",html-keyboard-response,195,255276,0.0-195.0,"<div style=""font-size:60px;"">+</div>","""",null,1000,33,ITI,"""","""",11/11/2020 20:27,136.34.173.155,"Mozilla/5.0 (Windows NT 6.3; Win64; x64) AppleWebKit/537.36 (KHTML, like Gecko) Chrome/86.0.4240.75 Safari/537.36",WebKit,Chrome,86.0.4240.75,Windows,6.3
1,1,null,"""",image-keyboard-response,196,255581,0.0-196.0,jspsych/scrambledNeutralFaces/scrambledAM06NES.JPG,"""",null,250,33,forwardMask,n,"""",11/11/2020 20:27,136.34.173.155,"Mozilla/5.0 (Windows NT 6.3; Win64; x64) AppleWebKit/537.36 (KHTML, like Gecko) Chrome/86.0.4240.75 Safari/537.36",WebKit,Chrome,86.0.4240.75,Windows,6.3
1,1,null,"""",image-keyboard-response,197,255652,0.0-197.0,jspsych/neutralFaces/AM06NES.JPG,"""",null,66,33,Cue,"""","""",11/11/2020 20:27,136.34.173.155,"Mozilla/5.0 (Windows NT 6.3; Win64; x64) AppleWebKit/537.36 (KHTML, like Gecko) Chrome/86.0.4240.75 Safari/537.36",WebKit,Chrome,86.0.4240.75,Windows,6.3
1,1,null,"""",image-keyboard-response,198,255758,0.0-198.0,jspsych/neutralFaces/BM13NES.JPG,"""",null,100,33,backwardMask,"""","""",11/11/2020 20:27,136.34.173.155,"Mozilla/5.0 (Windows NT 6.3; Win64; x64) AppleWebKit/537.36 (KHTML, like Gecko) Chrome/86.0.4240.75 Safari/537.36",WebKit,Chrome,86.0.4240.75,Windows,6.3
1,1,null,"""",html-keyboard-response,199,255963,0.0-199.0,"<div style=""font-size:60px;"">+</div>","""",null,200,33,fixationBtwnNeutralMaskAndPrompt,"""","""",11/11/2020 20:27,136.34.173.155,"Mozilla/5.0 (Windows NT 6.3; Win64; x64) AppleWebKit/537.36 (KHTML, like Gecko) Chrome/86.0.4240.75 Safari/537.36",WebKit,Chrome,86.0.4240.75,Windows,6.3
1,1,750.705,"""",html-keyboard-response,200,256719,0.0-200.0,"<p> What was the emotion of the hidden face? <br> Press, <b>d</b> for <i>disgust face</i> or <b>n</b> for <i>neutral face</i></p>","""",78,"""",33,Query,"""",n,11/11/2020 20:27,136.34.173.155,"Mozilla/5.0 (Windows NT 6.3; Win64; x64) AppleWebKit/537.36 (KHTML, like Gecko) Chrome/86.0.4240.75 Safari/537.36",WebKit,Chrome,86.0.4240.75,Windows,6.3
1,1,null,"""",html-keyboard-response,201,257725,0.0-201.0,"<div style=""font-size:60px;"">+</div>","""",null,1000,34,ITI,"""","""",11/11/2020 20:27,136.34.173.155,"Mozilla/5.0 (Windows NT 6.3; Win64; x64) AppleWebKit/537.36 (KHTML, like Gecko) Chrome/86.0.4240.75 Safari/537.36",WebKit,Chrome,86.0.4240.75,Windows,6.3
1,1,null,"""",image-keyboard-response,202,257982,0.0-202.0,jspsych/scrambledNeutralFaces/scrambledAF16NES.JPG,"""",null,250,34,forwardMask,n,"""",11/11/2020 20:27,136.34.173.155,"Mozilla/5.0 (Windows NT 6.3; Win64; x64) AppleWebKit/537.36 (KHTML, like Gecko) Chrome/86.0.4240.75 Safari/537.36",WebKit,Chrome,86.0.4240.75,Windows,6.3
1,1,null,"""",image-keyboard-response,203,258022,0.0-203.0,jspsych/neutralFaces/AF16NES.JPG,"""",null,33,34,Cue,"""","""",11/11/2020 20:27,136.34.173.155,"Mozilla/5.0 (Windows NT 6.3; Win64; x64) AppleWebKit/537.36 (KHTML, like Gecko) Chrome/86.0.4240.75 Safari/537.36",WebKit,Chrome,86.0.4240.75,Windows,6.3
1,1,null,"""",image-keyboard-response,204,258128,0.0-204.0,jspsych/neutralFaces/AM21NES.JPG,"""",null,100,34,backwardMask,"""","""",11/11/2020 20:27,136.34.173.155,"Mozilla/5.0 (Windows NT 6.3; Win64; x64) AppleWebKit/537.36 (KHTML, like Gecko) Chrome/86.0.4240.75 Safari/537.36",WebKit,Chrome,86.0.4240.75,Windows,6.3
1,1,null,"""",html-keyboard-response,205,258334,0.0-205.0,"<div style=""font-size:60px;"">+</div>","""",null,200,34,fixationBtwnNeutralMaskAndPrompt,"""","""",11/11/2020 20:27,136.34.173.155,"Mozilla/5.0 (Windows NT 6.3; Win64; x64) AppleWebKit/537.36 (KHTML, like Gecko) Chrome/86.0.4240.75 Safari/537.36",WebKit,Chrome,86.0.4240.75,Windows,6.3
1,1,809.42,"""",html-keyboard-response,206,259148,0.0-206.0,"<p> What was the emotion of the hidden face? <br> Press, <b>d</b> for <i>disgust face</i> or <b>n</b> for <i>neutral face</i></p>","""",78,"""",34,Query,"""",n,11/11/2020 20:27,136.34.173.155,"Mozilla/5.0 (Windows NT 6.3; Win64; x64) AppleWebKit/537.36 (KHTML, like Gecko) Chrome/86.0.4240.75 Safari/537.36",WebKit,Chrome,86.0.4240.75,Windows,6.3
1,1,null,"""",html-keyboard-response,207,260179,0.0-207.0,"<div style=""font-size:60px;"">+</div>","""",null,1000,35,ITI,"""","""",11/11/2020 20:27,136.34.173.155,"Mozilla/5.0 (Windows NT 6.3; Win64; x64) AppleWebKit/537.36 (KHTML, like Gecko) Chrome/86.0.4240.75 Safari/537.36",WebKit,Chrome,86.0.4240.75,Windows,6.3
1,1,null,"""",image-keyboard-response,208,260437,0.0-208.0,jspsych/scrambledNeutralFaces/scrambledAF22NES.JPG,"""",null,250,35,forwardMask,n,"""",11/11/2020 20:27,136.34.173.155,"Mozilla/5.0 (Windows NT 6.3; Win64; x64) AppleWebKit/537.36 (KHTML, like Gecko) Chrome/86.0.4240.75 Safari/537.36",WebKit,Chrome,86.0.4240.75,Windows,6.3
1,1,null,"""",image-keyboard-response,209,260493,0.0-209.0,jspsych/neutralFaces/AF22NES.JPG,"""",null,49,35,Cue,"""","""",11/11/2020 20:27,136.34.173.155,"Mozilla/5.0 (Windows NT 6.3; Win64; x64) AppleWebKit/537.36 (KHTML, like Gecko) Chrome/86.0.4240.75 Safari/537.36",WebKit,Chrome,86.0.4240.75,Windows,6.3
1,1,null,"""",image-keyboard-response,210,260598,0.0-210.0,jspsych/neutralFaces/AM03NES.JPG,"""",null,100,35,backwardMask,"""","""",11/11/2020 20:27,136.34.173.155,"Mozilla/5.0 (Windows NT 6.3; Win64; x64) AppleWebKit/537.36 (KHTML, like Gecko) Chrome/86.0.4240.75 Safari/537.36",WebKit,Chrome,86.0.4240.75,Windows,6.3
1,1,null,"""",html-keyboard-response,211,260802,0.0-211.0,"<div style=""font-size:60px;"">+</div>","""",null,200,35,fixationBtwnNeutralMaskAndPrompt,"""","""",11/11/2020 20:27,136.34.173.155,"Mozilla/5.0 (Windows NT 6.3; Win64; x64) AppleWebKit/537.36 (KHTML, like Gecko) Chrome/86.0.4240.75 Safari/537.36",WebKit,Chrome,86.0.4240.75,Windows,6.3
1,1,1076.345,"""",html-keyboard-response,212,261884,0.0-212.0,"<p> What was the emotion of the hidden face? <br> Press, <b>d</b> for <i>disgust face</i> or <b>n</b> for <i>neutral face</i></p>","""",78,"""",35,Query,"""",n,11/11/2020 20:27,136.34.173.155,"Mozilla/5.0 (Windows NT 6.3; Win64; x64) AppleWebKit/537.36 (KHTML, like Gecko) Chrome/86.0.4240.75 Safari/537.36",WebKit,Chrome,86.0.4240.75,Windows,6.3
1,1,null,"""",html-keyboard-response,213,262892,0.0-213.0,"<div style=""font-size:60px;"">+</div>","""",null,1000,36,ITI,"""","""",11/11/2020 20:27,136.34.173.155,"Mozilla/5.0 (Windows NT 6.3; Win64; x64) AppleWebKit/537.36 (KHTML, like Gecko) Chrome/86.0.4240.75 Safari/537.36",WebKit,Chrome,86.0.4240.75,Windows,6.3
1,1,null,"""",image-keyboard-response,214,263183,0.0-214.0,jspsych/scrambledDisgustFaces/scrambledBM15DIS.JPG,"""",null,250,36,forwardMask,d,"""",11/11/2020 20:27,136.34.173.155,"Mozilla/5.0 (Windows NT 6.3; Win64; x64) AppleWebKit/537.36 (KHTML, like Gecko) Chrome/86.0.4240.75 Safari/537.36",WebKit,Chrome,86.0.4240.75,Windows,6.3
1,1,null,"""",image-keyboard-response,215,263293,0.0-215.0,jspsych/disgustFaces/BM15DIS.JPG,"""",null,104,36,Cue,"""","""",11/11/2020 20:27,136.34.173.155,"Mozilla/5.0 (Windows NT 6.3; Win64; x64) AppleWebKit/537.36 (KHTML, like Gecko) Chrome/86.0.4240.75 Safari/537.36",WebKit,Chrome,86.0.4240.75,Windows,6.3
1,1,null,"""",image-keyboard-response,216,263399,0.0-216.0,jspsych/neutralFaces/AM11NES.JPG,"""",null,100,36,backwardMask,"""","""",11/11/2020 20:27,136.34.173.155,"Mozilla/5.0 (Windows NT 6.3; Win64; x64) AppleWebKit/537.36 (KHTML, like Gecko) Chrome/86.0.4240.75 Safari/537.36",WebKit,Chrome,86.0.4240.75,Windows,6.3
1,1,null,"""",html-keyboard-response,217,263604,0.0-217.0,"<div style=""font-size:60px;"">+</div>","""",null,200,36,fixationBtwnNeutralMaskAndPrompt,"""","""",11/11/2020 20:27,136.34.173.155,"Mozilla/5.0 (Windows NT 6.3; Win64; x64) AppleWebKit/537.36 (KHTML, like Gecko) Chrome/86.0.4240.75 Safari/537.36",WebKit,Chrome,86.0.4240.75,Windows,6.3
1,1,346.635,"""",html-keyboard-response,218,263956,0.0-218.0,"<p> What was the emotion of the hidden face? <br> Press, <b>d</b> for <i>disgust face</i> or <b>n</b> for <i>neutral face</i></p>","""",68,"""",36,Query,"""",d,11/11/2020 20:27,136.34.173.155,"Mozilla/5.0 (Windows NT 6.3; Win64; x64) AppleWebKit/537.36 (KHTML, like Gecko) Chrome/86.0.4240.75 Safari/537.36",WebKit,Chrome,86.0.4240.75,Windows,6.3
1,1,null,"""",html-keyboard-response,219,264962,0.0-219.0,"<div style=""font-size:60px;"">+</div>","""",null,1000,37,ITI,"""","""",11/11/2020 20:27,136.34.173.155,"Mozilla/5.0 (Windows NT 6.3; Win64; x64) AppleWebKit/537.36 (KHTML, like Gecko) Chrome/86.0.4240.75 Safari/537.36",WebKit,Chrome,86.0.4240.75,Windows,6.3
1,1,null,"""",image-keyboard-response,220,265219,0.0-220.0,jspsych/scrambledDisgustFaces/scrambledBM23DIS.JPG,"""",null,250,37,forwardMask,d,"""",11/11/2020 20:27,136.34.173.155,"Mozilla/5.0 (Windows NT 6.3; Win64; x64) AppleWebKit/537.36 (KHTML, like Gecko) Chrome/86.0.4240.75 Safari/537.36",WebKit,Chrome,86.0.4240.75,Windows,6.3
1,1,null,"""",image-keyboard-response,221,265242,0.0-221.0,jspsych/disgustFaces/BM23DIS.JPG,"""",null,16,37,Cue,"""","""",11/11/2020 20:27,136.34.173.155,"Mozilla/5.0 (Windows NT 6.3; Win64; x64) AppleWebKit/537.36 (KHTML, like Gecko) Chrome/86.0.4240.75 Safari/537.36",WebKit,Chrome,86.0.4240.75,Windows,6.3
1,1,null,"""",image-keyboard-response,222,265349,0.0-222.0,jspsych/neutralFaces/BF24NES.JPG,"""",null,100,37,backwardMask,"""","""",11/11/2020 20:27,136.34.173.155,"Mozilla/5.0 (Windows NT 6.3; Win64; x64) AppleWebKit/537.36 (KHTML, like Gecko) Chrome/86.0.4240.75 Safari/537.36",WebKit,Chrome,86.0.4240.75,Windows,6.3
1,1,null,"""",html-keyboard-response,223,265554,0.0-223.0,"<div style=""font-size:60px;"">+</div>","""",null,200,37,fixationBtwnNeutralMaskAndPrompt,"""","""",11/11/2020 20:27,136.34.173.155,"Mozilla/5.0 (Windows NT 6.3; Win64; x64) AppleWebKit/537.36 (KHTML, like Gecko) Chrome/86.0.4240.75 Safari/537.36",WebKit,Chrome,86.0.4240.75,Windows,6.3
1,1,521.83,"""",html-keyboard-response,224,266081,0.0-224.0,"<p> What was the emotion of the hidden face? <br> Press, <b>d</b> for <i>disgust face</i> or <b>n</b> for <i>neutral face</i></p>","""",78,"""",37,Query,"""",n,11/11/2020 20:27,136.34.173.155,"Mozilla/5.0 (Windows NT 6.3; Win64; x64) AppleWebKit/537.36 (KHTML, like Gecko) Chrome/86.0.4240.75 Safari/537.36",WebKit,Chrome,86.0.4240.75,Windows,6.3
1,1,null,"""",html-keyboard-response,225,268086,0.0-225.0,Good job! 25% Done,"""",null,2000,38,encouragement,"""","""",11/11/2020 20:27,136.34.173.155,"Mozilla/5.0 (Windows NT 6.3; Win64; x64) AppleWebKit/537.36 (KHTML, like Gecko) Chrome/86.0.4240.75 Safari/537.36",WebKit,Chrome,86.0.4240.75,Windows,6.3
1,1,null,"""",html-keyboard-response,226,269092,0.0-226.0,"<div style=""font-size:60px;"">+</div>","""",null,1000,38,ITI,"""","""",11/11/2020 20:27,136.34.173.155,"Mozilla/5.0 (Windows NT 6.3; Win64; x64) AppleWebKit/537.36 (KHTML, like Gecko) Chrome/86.0.4240.75 Safari/537.36",WebKit,Chrome,86.0.4240.75,Windows,6.3
1,1,null,"""",image-keyboard-response,227,269383,0.0-227.0,jspsych/scrambledNeutralFaces/scrambledAM14NES.JPG,"""",null,250,38,forwardMask,n,"""",11/11/2020 20:27,136.34.173.155,"Mozilla/5.0 (Windows NT 6.3; Win64; x64) AppleWebKit/537.36 (KHTML, like Gecko) Chrome/86.0.4240.75 Safari/537.36",WebKit,Chrome,86.0.4240.75,Windows,6.3
1,1,null,"""",image-keyboard-response,228,269526,0.0-228.0,jspsych/neutralFaces/AM14NES.JPG,"""",null,136,38,Cue,"""","""",11/11/2020 20:27,136.34.173.155,"Mozilla/5.0 (Windows NT 6.3; Win64; x64) AppleWebKit/537.36 (KHTML, like Gecko) Chrome/86.0.4240.75 Safari/537.36",WebKit,Chrome,86.0.4240.75,Windows,6.3
1,1,null,"""",image-keyboard-response,229,269632,0.0-229.0,jspsych/neutralFaces/BM34NES.JPG,"""",null,100,38,backwardMask,"""","""",11/11/2020 20:27,136.34.173.155,"Mozilla/5.0 (Windows NT 6.3; Win64; x64) AppleWebKit/537.36 (KHTML, like Gecko) Chrome/86.0.4240.75 Safari/537.36",WebKit,Chrome,86.0.4240.75,Windows,6.3
1,1,null,"""",html-keyboard-response,230,269837,0.0-230.0,"<div style=""font-size:60px;"">+</div>","""",null,200,38,fixationBtwnNeutralMaskAndPrompt,"""","""",11/11/2020 20:27,136.34.173.155,"Mozilla/5.0 (Windows NT 6.3; Win64; x64) AppleWebKit/537.36 (KHTML, like Gecko) Chrome/86.0.4240.75 Safari/537.36",WebKit,Chrome,86.0.4240.75,Windows,6.3
1,1,464.485,"""",html-keyboard-response,231,270325,0.0-231.0,"<p> What was the emotion of the hidden face? <br> Press, <b>d</b> for <i>disgust face</i> or <b>n</b> for <i>neutral face</i></p>","""",78,"""",38,Query,"""",n,11/11/2020 20:27,136.34.173.155,"Mozilla/5.0 (Windows NT 6.3; Win64; x64) AppleWebKit/537.36 (KHTML, like Gecko) Chrome/86.0.4240.75 Safari/537.36",WebKit,Chrome,86.0.4240.75,Windows,6.3
1,1,null,"""",html-keyboard-response,232,271333,0.0-232.0,"<div style=""font-size:60px;"">+</div>","""",null,1000,39,ITI,"""","""",11/11/2020 20:27,136.34.173.155,"Mozilla/5.0 (Windows NT 6.3; Win64; x64) AppleWebKit/537.36 (KHTML, like Gecko) Chrome/86.0.4240.75 Safari/537.36",WebKit,Chrome,86.0.4240.75,Windows,6.3
1,1,null,"""",image-keyboard-response,233,271589,0.0-233.0,jspsych/scrambledDisgustFaces/scrambledAM07DIS.JPG,"""",null,250,39,forwardMask,d,"""",11/11/2020 20:27,136.34.173.155,"Mozilla/5.0 (Windows NT 6.3; Win64; x64) AppleWebKit/537.36 (KHTML, like Gecko) Chrome/86.0.4240.75 Safari/537.36",WebKit,Chrome,86.0.4240.75,Windows,6.3
1,1,null,"""",image-keyboard-response,234,271645,0.0-234.0,jspsych/disgustFaces/AM07DIS.JPG,"""",null,49,39,Cue,"""","""",11/11/2020 20:27,136.34.173.155,"Mozilla/5.0 (Windows NT 6.3; Win64; x64) AppleWebKit/537.36 (KHTML, like Gecko) Chrome/86.0.4240.75 Safari/537.36",WebKit,Chrome,86.0.4240.75,Windows,6.3
1,1,null,"""",image-keyboard-response,235,271749,0.0-235.0,jspsych/neutralFaces/BF18NES.JPG,"""",null,100,39,backwardMask,"""","""",11/11/2020 20:27,136.34.173.155,"Mozilla/5.0 (Windows NT 6.3; Win64; x64) AppleWebKit/537.36 (KHTML, like Gecko) Chrome/86.0.4240.75 Safari/537.36",WebKit,Chrome,86.0.4240.75,Windows,6.3
1,1,null,"""",html-keyboard-response,236,271955,0.0-236.0,"<div style=""font-size:60px;"">+</div>","""",null,200,39,fixationBtwnNeutralMaskAndPrompt,"""","""",11/11/2020 20:27,136.34.173.155,"Mozilla/5.0 (Windows NT 6.3; Win64; x64) AppleWebKit/537.36 (KHTML, like Gecko) Chrome/86.0.4240.75 Safari/537.36",WebKit,Chrome,86.0.4240.75,Windows,6.3
1,1,446.92,"""",html-keyboard-response,237,272407,0.0-237.0,"<p> What was the emotion of the hidden face? <br> Press, <b>d</b> for <i>disgust face</i> or <b>n</b> for <i>neutral face</i></p>","""",78,"""",39,Query,"""",n,11/11/2020 20:27,136.34.173.155,"Mozilla/5.0 (Windows NT 6.3; Win64; x64) AppleWebKit/537.36 (KHTML, like Gecko) Chrome/86.0.4240.75 Safari/537.36",WebKit,Chrome,86.0.4240.75,Windows,6.3
1,1,null,"""",html-keyboard-response,238,273413,0.0-238.0,"<div style=""font-size:60px;"">+</div>","""",null,1000,40,ITI,"""","""",11/11/2020 20:27,136.34.173.155,"Mozilla/5.0 (Windows NT 6.3; Win64; x64) AppleWebKit/537.36 (KHTML, like Gecko) Chrome/86.0.4240.75 Safari/537.36",WebKit,Chrome,86.0.4240.75,Windows,6.3
1,1,null,"""",image-keyboard-response,239,273705,0.0-239.0,jspsych/scrambledNeutralFaces/scrambledBF24NES.JPG,"""",null,250,40,forwardMask,n,"""",11/11/2020 20:27,136.34.173.155,"Mozilla/5.0 (Windows NT 6.3; Win64; x64) AppleWebKit/537.36 (KHTML, like Gecko) Chrome/86.0.4240.75 Safari/537.36",WebKit,Chrome,86.0.4240.75,Windows,6.3
1,1,null,"""",image-keyboard-response,240,273815,0.0-240.0,jspsych/neutralFaces/BF24NES.JPG,"""",null,104,40,Cue,"""","""",11/11/2020 20:27,136.34.173.155,"Mozilla/5.0 (Windows NT 6.3; Win64; x64) AppleWebKit/537.36 (KHTML, like Gecko) Chrome/86.0.4240.75 Safari/537.36",WebKit,Chrome,86.0.4240.75,Windows,6.3
1,1,null,"""",image-keyboard-response,241,273920,0.0-241.0,jspsych/neutralFaces/BF14NES.JPG,"""",null,100,40,backwardMask,"""","""",11/11/2020 20:27,136.34.173.155,"Mozilla/5.0 (Windows NT 6.3; Win64; x64) AppleWebKit/537.36 (KHTML, like Gecko) Chrome/86.0.4240.75 Safari/537.36",WebKit,Chrome,86.0.4240.75,Windows,6.3
1,1,null,"""",html-keyboard-response,242,274125,0.0-242.0,"<div style=""font-size:60px;"">+</div>","""",null,200,40,fixationBtwnNeutralMaskAndPrompt,"""","""",11/11/2020 20:27,136.34.173.155,"Mozilla/5.0 (Windows NT 6.3; Win64; x64) AppleWebKit/537.36 (KHTML, like Gecko) Chrome/86.0.4240.75 Safari/537.36",WebKit,Chrome,86.0.4240.75,Windows,6.3
1,1,584.36,"""",html-keyboard-response,243,274714,0.0-243.0,"<p> What was the emotion of the hidden face? <br> Press, <b>d</b> for <i>disgust face</i> or <b>n</b> for <i>neutral face</i></p>","""",78,"""",40,Query,"""",n,11/11/2020 20:27,136.34.173.155,"Mozilla/5.0 (Windows NT 6.3; Win64; x64) AppleWebKit/537.36 (KHTML, like Gecko) Chrome/86.0.4240.75 Safari/537.36",WebKit,Chrome,86.0.4240.75,Windows,6.3
1,1,null,"""",html-keyboard-response,244,275720,0.0-244.0,"<div style=""font-size:60px;"">+</div>","""",null,1000,41,ITI,"""","""",11/11/2020 20:27,136.34.173.155,"Mozilla/5.0 (Windows NT 6.3; Win64; x64) AppleWebKit/537.36 (KHTML, like Gecko) Chrome/86.0.4240.75 Safari/537.36",WebKit,Chrome,86.0.4240.75,Windows,6.3
1,1,null,"""",image-keyboard-response,245,275977,0.0-245.0,jspsych/scrambledNeutralFaces/scrambledAM27NES.JPG,"""",null,250,41,forwardMask,n,"""",11/11/2020 20:27,136.34.173.155,"Mozilla/5.0 (Windows NT 6.3; Win64; x64) AppleWebKit/537.36 (KHTML, like Gecko) Chrome/86.0.4240.75 Safari/537.36",WebKit,Chrome,86.0.4240.75,Windows,6.3
1,1,null,"""",image-keyboard-response,246,276017,0.0-246.0,jspsych/neutralFaces/AM27NES.JPG,"""",null,33,41,Cue,"""","""",11/11/2020 20:27,136.34.173.155,"Mozilla/5.0 (Windows NT 6.3; Win64; x64) AppleWebKit/537.36 (KHTML, like Gecko) Chrome/86.0.4240.75 Safari/537.36",WebKit,Chrome,86.0.4240.75,Windows,6.3
1,1,null,"""",image-keyboard-response,247,276125,0.0-247.0,jspsych/neutralFaces/BM35NES.JPG,"""",null,100,41,backwardMask,"""","""",11/11/2020 20:27,136.34.173.155,"Mozilla/5.0 (Windows NT 6.3; Win64; x64) AppleWebKit/537.36 (KHTML, like Gecko) Chrome/86.0.4240.75 Safari/537.36",WebKit,Chrome,86.0.4240.75,Windows,6.3
1,1,null,"""",html-keyboard-response,248,276330,0.0-248.0,"<div style=""font-size:60px;"">+</div>","""",null,200,41,fixationBtwnNeutralMaskAndPrompt,"""","""",11/11/2020 20:27,136.34.173.155,"Mozilla/5.0 (Windows NT 6.3; Win64; x64) AppleWebKit/537.36 (KHTML, like Gecko) Chrome/86.0.4240.75 Safari/537.36",WebKit,Chrome,86.0.4240.75,Windows,6.3
1,1,731.33,"""",html-keyboard-response,249,277102,0.0-249.0,"<p> What was the emotion of the hidden face? <br> Press, <b>d</b> for <i>disgust face</i> or <b>n</b> for <i>neutral face</i></p>","""",78,"""",41,Query,"""",n,11/11/2020 20:27,136.34.173.155,"Mozilla/5.0 (Windows NT 6.3; Win64; x64) AppleWebKit/537.36 (KHTML, like Gecko) Chrome/86.0.4240.75 Safari/537.36",WebKit,Chrome,86.0.4240.75,Windows,6.3
1,1,null,"""",html-keyboard-response,250,278108,0.0-250.0,"<div style=""font-size:60px;"">+</div>","""",null,1000,42,ITI,"""","""",11/11/2020 20:27,136.34.173.155,"Mozilla/5.0 (Windows NT 6.3; Win64; x64) AppleWebKit/537.36 (KHTML, like Gecko) Chrome/86.0.4240.75 Safari/537.36",WebKit,Chrome,86.0.4240.75,Windows,6.3
1,1,null,"""",image-keyboard-response,251,278364,0.0-251.0,jspsych/scrambledNeutralFaces/scrambledAM17NES.JPG,"""",null,250,42,forwardMask,n,"""",11/11/2020 20:27,136.34.173.155,"Mozilla/5.0 (Windows NT 6.3; Win64; x64) AppleWebKit/537.36 (KHTML, like Gecko) Chrome/86.0.4240.75 Safari/537.36",WebKit,Chrome,86.0.4240.75,Windows,6.3
1,1,null,"""",image-keyboard-response,252,278420,0.0-252.0,jspsych/neutralFaces/AM17NES.JPG,"""",null,49,42,Cue,"""","""",11/11/2020 20:27,136.34.173.155,"Mozilla/5.0 (Windows NT 6.3; Win64; x64) AppleWebKit/537.36 (KHTML, like Gecko) Chrome/86.0.4240.75 Safari/537.36",WebKit,Chrome,86.0.4240.75,Windows,6.3
1,1,null,"""",image-keyboard-response,253,278528,0.0-253.0,jspsych/neutralFaces/AF20NES.JPG,"""",null,100,42,backwardMask,"""","""",11/11/2020 20:27,136.34.173.155,"Mozilla/5.0 (Windows NT 6.3; Win64; x64) AppleWebKit/537.36 (KHTML, like Gecko) Chrome/86.0.4240.75 Safari/537.36",WebKit,Chrome,86.0.4240.75,Windows,6.3
1,1,null,"""",html-keyboard-response,254,278732,0.0-254.0,"<div style=""font-size:60px;"">+</div>","""",null,200,42,fixationBtwnNeutralMaskAndPrompt,"""","""",11/11/2020 20:27,136.34.173.155,"Mozilla/5.0 (Windows NT 6.3; Win64; x64) AppleWebKit/537.36 (KHTML, like Gecko) Chrome/86.0.4240.75 Safari/537.36",WebKit,Chrome,86.0.4240.75,Windows,6.3
1,1,708.335,"""",html-keyboard-response,255,279445,0.0-255.0,"<p> What was the emotion of the hidden face? <br> Press, <b>d</b> for <i>disgust face</i> or <b>n</b> for <i>neutral face</i></p>","""",78,"""",42,Query,"""",n,11/11/2020 20:27,136.34.173.155,"Mozilla/5.0 (Windows NT 6.3; Win64; x64) AppleWebKit/537.36 (KHTML, like Gecko) Chrome/86.0.4240.75 Safari/537.36",WebKit,Chrome,86.0.4240.75,Windows,6.3
1,1,null,"""",html-keyboard-response,256,280452,0.0-256.0,"<div style=""font-size:60px;"">+</div>","""",null,1000,43,ITI,"""","""",11/11/2020 20:27,136.34.173.155,"Mozilla/5.0 (Windows NT 6.3; Win64; x64) AppleWebKit/537.36 (KHTML, like Gecko) Chrome/86.0.4240.75 Safari/537.36",WebKit,Chrome,86.0.4240.75,Windows,6.3
1,1,null,"""",image-keyboard-response,257,280749,0.0-257.0,jspsych/scrambledDisgustFaces/scrambledBF32DIS.JPG,"""",null,250,43,forwardMask,d,"""",11/11/2020 20:27,136.34.173.155,"Mozilla/5.0 (Windows NT 6.3; Win64; x64) AppleWebKit/537.36 (KHTML, like Gecko) Chrome/86.0.4240.75 Safari/537.36",WebKit,Chrome,86.0.4240.75,Windows,6.3
1,1,null,"""",image-keyboard-response,258,280836,0.0-258.0,jspsych/disgustFaces/BF32DIS.JPG,"""",null,82,43,Cue,"""","""",11/11/2020 20:27,136.34.173.155,"Mozilla/5.0 (Windows NT 6.3; Win64; x64) AppleWebKit/537.36 (KHTML, like Gecko) Chrome/86.0.4240.75 Safari/537.36",WebKit,Chrome,86.0.4240.75,Windows,6.3
1,1,null,"""",image-keyboard-response,259,280940,0.0-259.0,jspsych/neutralFaces/AM26NES.JPG,"""",null,100,43,backwardMask,"""","""",11/11/2020 20:27,136.34.173.155,"Mozilla/5.0 (Windows NT 6.3; Win64; x64) AppleWebKit/537.36 (KHTML, like Gecko) Chrome/86.0.4240.75 Safari/537.36",WebKit,Chrome,86.0.4240.75,Windows,6.3
1,1,null,"""",html-keyboard-response,260,281144,0.0-260.0,"<div style=""font-size:60px;"">+</div>","""",null,200,43,fixationBtwnNeutralMaskAndPrompt,"""","""",11/11/2020 20:27,136.34.173.155,"Mozilla/5.0 (Windows NT 6.3; Win64; x64) AppleWebKit/537.36 (KHTML, like Gecko) Chrome/86.0.4240.75 Safari/537.36",WebKit,Chrome,86.0.4240.75,Windows,6.3
1,1,625.315,"""",html-keyboard-response,261,281775,0.0-261.0,"<p> What was the emotion of the hidden face? <br> Press, <b>d</b> for <i>disgust face</i> or <b>n</b> for <i>neutral face</i></p>","""",68,"""",43,Query,"""",d,11/11/2020 20:27,136.34.173.155,"Mozilla/5.0 (Windows NT 6.3; Win64; x64) AppleWebKit/537.36 (KHTML, like Gecko) Chrome/86.0.4240.75 Safari/537.36",WebKit,Chrome,86.0.4240.75,Windows,6.3
1,1,null,"""",html-keyboard-response,262,282781,0.0-262.0,"<div style=""font-size:60px;"">+</div>","""",null,1000,44,ITI,"""","""",11/11/2020 20:27,136.34.173.155,"Mozilla/5.0 (Windows NT 6.3; Win64; x64) AppleWebKit/537.36 (KHTML, like Gecko) Chrome/86.0.4240.75 Safari/537.36",WebKit,Chrome,86.0.4240.75,Windows,6.3
1,1,null,"""",image-keyboard-response,263,283040,0.0-263.0,jspsych/scrambledDisgustFaces/scrambledAM25DIS.JPG,"""",null,250,44,forwardMask,d,"""",11/11/2020 20:27,136.34.173.155,"Mozilla/5.0 (Windows NT 6.3; Win64; x64) AppleWebKit/537.36 (KHTML, like Gecko) Chrome/86.0.4240.75 Safari/537.36",WebKit,Chrome,86.0.4240.75,Windows,6.3
1,1,null,"""",image-keyboard-response,264,283150,0.0-264.0,jspsych/disgustFaces/AM25DIS.JPG,"""",null,104,44,Cue,"""","""",11/11/2020 20:27,136.34.173.155,"Mozilla/5.0 (Windows NT 6.3; Win64; x64) AppleWebKit/537.36 (KHTML, like Gecko) Chrome/86.0.4240.75 Safari/537.36",WebKit,Chrome,86.0.4240.75,Windows,6.3
1,1,null,"""",image-keyboard-response,265,283257,0.0-265.0,jspsych/neutralFaces/AM05NES.JPG,"""",null,100,44,backwardMask,"""","""",11/11/2020 20:27,136.34.173.155,"Mozilla/5.0 (Windows NT 6.3; Win64; x64) AppleWebKit/537.36 (KHTML, like Gecko) Chrome/86.0.4240.75 Safari/537.36",WebKit,Chrome,86.0.4240.75,Windows,6.3
1,1,null,"""",html-keyboard-response,266,283463,0.0-266.0,"<div style=""font-size:60px;"">+</div>","""",null,200,44,fixationBtwnNeutralMaskAndPrompt,"""","""",11/11/2020 20:27,136.34.173.155,"Mozilla/5.0 (Windows NT 6.3; Win64; x64) AppleWebKit/537.36 (KHTML, like Gecko) Chrome/86.0.4240.75 Safari/537.36",WebKit,Chrome,86.0.4240.75,Windows,6.3
1,1,561.425,"""",html-keyboard-response,267,284030,0.0-267.0,"<p> What was the emotion of the hidden face? <br> Press, <b>d</b> for <i>disgust face</i> or <b>n</b> for <i>neutral face</i></p>","""",68,"""",44,Query,"""",d,11/11/2020 20:27,136.34.173.155,"Mozilla/5.0 (Windows NT 6.3; Win64; x64) AppleWebKit/537.36 (KHTML, like Gecko) Chrome/86.0.4240.75 Safari/537.36",WebKit,Chrome,86.0.4240.75,Windows,6.3
1,1,null,"""",html-keyboard-response,268,285076,0.0-268.0,"<div style=""font-size:60px;"">+</div>","""",null,1000,45,ITI,"""","""",11/11/2020 20:27,136.34.173.155,"Mozilla/5.0 (Windows NT 6.3; Win64; x64) AppleWebKit/537.36 (KHTML, like Gecko) Chrome/86.0.4240.75 Safari/537.36",WebKit,Chrome,86.0.4240.75,Windows,6.3
1,1,null,"""",image-keyboard-response,269,285336,0.0-269.0,jspsych/scrambledDisgustFaces/scrambledAM21DIS.JPG,"""",null,250,45,forwardMask,d,"""",11/11/2020 20:27,136.34.173.155,"Mozilla/5.0 (Windows NT 6.3; Win64; x64) AppleWebKit/537.36 (KHTML, like Gecko) Chrome/86.0.4240.75 Safari/537.36",WebKit,Chrome,86.0.4240.75,Windows,6.3
1,1,null,"""",image-keyboard-response,270,285393,0.0-270.0,jspsych/disgustFaces/AM21DIS.JPG,"""",null,49,45,Cue,"""","""",11/11/2020 20:27,136.34.173.155,"Mozilla/5.0 (Windows NT 6.3; Win64; x64) AppleWebKit/537.36 (KHTML, like Gecko) Chrome/86.0.4240.75 Safari/537.36",WebKit,Chrome,86.0.4240.75,Windows,6.3
1,1,null,"""",image-keyboard-response,271,285499,0.0-271.0,jspsych/neutralFaces/AM14NES.JPG,"""",null,100,45,backwardMask,"""","""",11/11/2020 20:27,136.34.173.155,"Mozilla/5.0 (Windows NT 6.3; Win64; x64) AppleWebKit/537.36 (KHTML, like Gecko) Chrome/86.0.4240.75 Safari/537.36",WebKit,Chrome,86.0.4240.75,Windows,6.3
1,1,null,"""",html-keyboard-response,272,285703,0.0-272.0,"<div style=""font-size:60px;"">+</div>","""",null,200,45,fixationBtwnNeutralMaskAndPrompt,"""","""",11/11/2020 20:27,136.34.173.155,"Mozilla/5.0 (Windows NT 6.3; Win64; x64) AppleWebKit/537.36 (KHTML, like Gecko) Chrome/86.0.4240.75 Safari/537.36",WebKit,Chrome,86.0.4240.75,Windows,6.3
1,1,605.46,"""",html-keyboard-response,273,286314,0.0-273.0,"<p> What was the emotion of the hidden face? <br> Press, <b>d</b> for <i>disgust face</i> or <b>n</b> for <i>neutral face</i></p>","""",78,"""",45,Query,"""",n,11/11/2020 20:27,136.34.173.155,"Mozilla/5.0 (Windows NT 6.3; Win64; x64) AppleWebKit/537.36 (KHTML, like Gecko) Chrome/86.0.4240.75 Safari/537.36",WebKit,Chrome,86.0.4240.75,Windows,6.3
1,1,null,"""",html-keyboard-response,274,287321,0.0-274.0,"<div style=""font-size:60px;"">+</div>","""",null,1000,46,ITI,"""","""",11/11/2020 20:27,136.34.173.155,"Mozilla/5.0 (Windows NT 6.3; Win64; x64) AppleWebKit/537.36 (KHTML, like Gecko) Chrome/86.0.4240.75 Safari/537.36",WebKit,Chrome,86.0.4240.75,Windows,6.3
1,1,null,"""",image-keyboard-response,275,287618,0.0-275.0,jspsych/scrambledNeutralFaces/scrambledBM30NES.JPG,"""",null,250,46,forwardMask,n,"""",11/11/2020 20:27,136.34.173.155,"Mozilla/5.0 (Windows NT 6.3; Win64; x64) AppleWebKit/537.36 (KHTML, like Gecko) Chrome/86.0.4240.75 Safari/537.36",WebKit,Chrome,86.0.4240.75,Windows,6.3
1,1,null,"""",image-keyboard-response,276,287707,0.0-276.0,jspsych/neutralFaces/BM30NES.JPG,"""",null,82,46,Cue,"""","""",11/11/2020 20:27,136.34.173.155,"Mozilla/5.0 (Windows NT 6.3; Win64; x64) AppleWebKit/537.36 (KHTML, like Gecko) Chrome/86.0.4240.75 Safari/537.36",WebKit,Chrome,86.0.4240.75,Windows,6.3
1,1,null,"""",image-keyboard-response,277,287814,0.0-277.0,jspsych/neutralFaces/AM02NES.JPG,"""",null,100,46,backwardMask,"""","""",11/11/2020 20:27,136.34.173.155,"Mozilla/5.0 (Windows NT 6.3; Win64; x64) AppleWebKit/537.36 (KHTML, like Gecko) Chrome/86.0.4240.75 Safari/537.36",WebKit,Chrome,86.0.4240.75,Windows,6.3
1,1,null,"""",html-keyboard-response,278,288019,0.0-278.0,"<div style=""font-size:60px;"">+</div>","""",null,200,46,fixationBtwnNeutralMaskAndPrompt,"""","""",11/11/2020 20:27,136.34.173.155,"Mozilla/5.0 (Windows NT 6.3; Win64; x64) AppleWebKit/537.36 (KHTML, like Gecko) Chrome/86.0.4240.75 Safari/537.36",WebKit,Chrome,86.0.4240.75,Windows,6.3
1,1,490.6,"""",html-keyboard-response,279,288515,0.0-279.0,"<p> What was the emotion of the hidden face? <br> Press, <b>d</b> for <i>disgust face</i> or <b>n</b> for <i>neutral face</i></p>","""",78,"""",46,Query,"""",n,11/11/2020 20:27,136.34.173.155,"Mozilla/5.0 (Windows NT 6.3; Win64; x64) AppleWebKit/537.36 (KHTML, like Gecko) Chrome/86.0.4240.75 Safari/537.36",WebKit,Chrome,86.0.4240.75,Windows,6.3
1,1,null,"""",html-keyboard-response,280,289522,0.0-280.0,"<div style=""font-size:60px;"">+</div>","""",null,1000,47,ITI,"""","""",11/11/2020 20:27,136.34.173.155,"Mozilla/5.0 (Windows NT 6.3; Win64; x64) AppleWebKit/537.36 (KHTML, like Gecko) Chrome/86.0.4240.75 Safari/537.36",WebKit,Chrome,86.0.4240.75,Windows,6.3
1,1,null,"""",image-keyboard-response,281,289779,0.0-281.0,jspsych/scrambledDisgustFaces/scrambledAF16DIS.JPG,"""",null,250,47,forwardMask,d,"""",11/11/2020 20:27,136.34.173.155,"Mozilla/5.0 (Windows NT 6.3; Win64; x64) AppleWebKit/537.36 (KHTML, like Gecko) Chrome/86.0.4240.75 Safari/537.36",WebKit,Chrome,86.0.4240.75,Windows,6.3
1,1,null,"""",image-keyboard-response,282,289890,0.0-282.0,jspsych/disgustFaces/AF16DIS.JPG,"""",null,104,47,Cue,"""","""",11/11/2020 20:27,136.34.173.155,"Mozilla/5.0 (Windows NT 6.3; Win64; x64) AppleWebKit/537.36 (KHTML, like Gecko) Chrome/86.0.4240.75 Safari/537.36",WebKit,Chrome,86.0.4240.75,Windows,6.3
1,1,null,"""",image-keyboard-response,283,289997,0.0-283.0,jspsych/neutralFaces/AF22NES.JPG,"""",null,100,47,backwardMask,"""","""",11/11/2020 20:27,136.34.173.155,"Mozilla/5.0 (Windows NT 6.3; Win64; x64) AppleWebKit/537.36 (KHTML, like Gecko) Chrome/86.0.4240.75 Safari/537.36",WebKit,Chrome,86.0.4240.75,Windows,6.3
1,1,null,"""",html-keyboard-response,284,290202,0.0-284.0,"<div style=""font-size:60px;"">+</div>","""",null,200,47,fixationBtwnNeutralMaskAndPrompt,"""","""",11/11/2020 20:27,136.34.173.155,"Mozilla/5.0 (Windows NT 6.3; Win64; x64) AppleWebKit/537.36 (KHTML, like Gecko) Chrome/86.0.4240.75 Safari/537.36",WebKit,Chrome,86.0.4240.75,Windows,6.3
1,1,321.795,"""",html-keyboard-response,285,290529,0.0-285.0,"<p> What was the emotion of the hidden face? <br> Press, <b>d</b> for <i>disgust face</i> or <b>n</b> for <i>neutral face</i></p>","""",68,"""",47,Query,"""",d,11/11/2020 20:27,136.34.173.155,"Mozilla/5.0 (Windows NT 6.3; Win64; x64) AppleWebKit/537.36 (KHTML, like Gecko) Chrome/86.0.4240.75 Safari/537.36",WebKit,Chrome,86.0.4240.75,Windows,6.3
1,1,null,"""",html-keyboard-response,286,291538,0.0-286.0,"<div style=""font-size:60px;"">+</div>","""",null,1000,48,ITI,"""","""",11/11/2020 20:27,136.34.173.155,"Mozilla/5.0 (Windows NT 6.3; Win64; x64) AppleWebKit/537.36 (KHTML, like Gecko) Chrome/86.0.4240.75 Safari/537.36",WebKit,Chrome,86.0.4240.75,Windows,6.3
1,1,null,"""",image-keyboard-response,287,291829,0.0-287.0,jspsych/scrambledDisgustFaces/scrambledBF04DIS.JPG,"""",null,250,48,forwardMask,d,"""",11/11/2020 20:27,136.34.173.155,"Mozilla/5.0 (Windows NT 6.3; Win64; x64) AppleWebKit/537.36 (KHTML, like Gecko) Chrome/86.0.4240.75 Safari/537.36",WebKit,Chrome,86.0.4240.75,Windows,6.3
1,1,null,"""",image-keyboard-response,288,291900,0.0-288.0,jspsych/disgustFaces/BF04DIS.JPG,"""",null,66,48,Cue,"""","""",11/11/2020 20:27,136.34.173.155,"Mozilla/5.0 (Windows NT 6.3; Win64; x64) AppleWebKit/537.36 (KHTML, like Gecko) Chrome/86.0.4240.75 Safari/537.36",WebKit,Chrome,86.0.4240.75,Windows,6.3
1,1,null,"""",image-keyboard-response,289,292004,0.0-289.0,jspsych/neutralFaces/BF02NES.JPG,"""",null,100,48,backwardMask,"""","""",11/11/2020 20:27,136.34.173.155,"Mozilla/5.0 (Windows NT 6.3; Win64; x64) AppleWebKit/537.36 (KHTML, like Gecko) Chrome/86.0.4240.75 Safari/537.36",WebKit,Chrome,86.0.4240.75,Windows,6.3
1,1,null,"""",html-keyboard-response,290,292209,0.0-290.0,"<div style=""font-size:60px;"">+</div>","""",null,200,48,fixationBtwnNeutralMaskAndPrompt,"""","""",11/11/2020 20:27,136.34.173.155,"Mozilla/5.0 (Windows NT 6.3; Win64; x64) AppleWebKit/537.36 (KHTML, like Gecko) Chrome/86.0.4240.75 Safari/537.36",WebKit,Chrome,86.0.4240.75,Windows,6.3
1,1,427.855,"""",html-keyboard-response,291,292643,0.0-291.0,"<p> What was the emotion of the hidden face? <br> Press, <b>d</b> for <i>disgust face</i> or <b>n</b> for <i>neutral face</i></p>","""",78,"""",48,Query,"""",n,11/11/2020 20:27,136.34.173.155,"Mozilla/5.0 (Windows NT 6.3; Win64; x64) AppleWebKit/537.36 (KHTML, like Gecko) Chrome/86.0.4240.75 Safari/537.36",WebKit,Chrome,86.0.4240.75,Windows,6.3
1,1,null,"""",html-keyboard-response,292,293648,0.0-292.0,"<div style=""font-size:60px;"">+</div>","""",null,1000,49,ITI,"""","""",11/11/2020 20:27,136.34.173.155,"Mozilla/5.0 (Windows NT 6.3; Win64; x64) AppleWebKit/537.36 (KHTML, like Gecko) Chrome/86.0.4240.75 Safari/537.36",WebKit,Chrome,86.0.4240.75,Windows,6.3
1,1,null,"""",image-keyboard-response,293,293907,0.0-293.0,jspsych/scrambledDisgustFaces/scrambledBF15DIS.JPG,"""",null,250,49,forwardMask,d,"""",11/11/2020 20:27,136.34.173.155,"Mozilla/5.0 (Windows NT 6.3; Win64; x64) AppleWebKit/537.36 (KHTML, like Gecko) Chrome/86.0.4240.75 Safari/537.36",WebKit,Chrome,86.0.4240.75,Windows,6.3
1,1,null,"""",image-keyboard-response,294,294018,0.0-294.0,jspsych/disgustFaces/BF15DIS.JPG,"""",null,104,49,Cue,"""","""",11/11/2020 20:27,136.34.173.155,"Mozilla/5.0 (Windows NT 6.3; Win64; x64) AppleWebKit/537.36 (KHTML, like Gecko) Chrome/86.0.4240.75 Safari/537.36",WebKit,Chrome,86.0.4240.75,Windows,6.3
