run_id,condition,rt,responses,trial_type,trial_index,time_elapsed,internal_node_id,stimulus,button_pressed,key_press,StimulusDurationSetting,iTrial,Phase,correctResponse,CharacterResponse,recorded_at,ip,user_agent,device,browser,browser_version,platform,platform_version
22,1,4822.215,"{""Q0"":""demoRun1""}",survey-text,0,4846,0.0-0.0,"""","""","""","""","""","""","""","""",11/20/2020 19:11,69.125.145.27,"Mozilla/5.0 (Windows NT 10.0; Win64; x64) AppleWebKit/537.36 (KHTML, like Gecko) Chrome/86.0.4240.198 Safari/537.36",WebKit,Chrome,86.0.4240.198,Windows,10
22,1,1409.475,"""",image-button-response,1,6266,0.0-1.0,directionsConfidence.JPG,0,"""","""","""","""","""","""",11/20/2020 19:11,69.125.145.27,"Mozilla/5.0 (Windows NT 10.0; Win64; x64) AppleWebKit/537.36 (KHTML, like Gecko) Chrome/86.0.4240.198 Safari/537.36",WebKit,Chrome,86.0.4240.198,Windows,10
22,1,5778.855,"""",video-button-response,2,12060,0.0-2.0,"""",0,"""","""","""","""","""","""",11/20/2020 19:11,69.125.145.27,"Mozilla/5.0 (Windows NT 10.0; Win64; x64) AppleWebKit/537.36 (KHTML, like Gecko) Chrome/86.0.4240.198 Safari/537.36",WebKit,Chrome,86.0.4240.198,Windows,10
22,1,null,"""",html-keyboard-response,3,13071,0.0-3.0,"<div style=""font-size:60px;"">+</div>","""",null,1000,1,ITI,"""","""",11/20/2020 19:11,69.125.145.27,"Mozilla/5.0 (Windows NT 10.0; Win64; x64) AppleWebKit/537.36 (KHTML, like Gecko) Chrome/86.0.4240.198 Safari/537.36",WebKit,Chrome,86.0.4240.198,Windows,10
22,1,null,"""",image-keyboard-response,4,13333,0.0-4.0,jspsych/scrambledDisgustFaces/scrambledBF17DIS.JPG,"""",null,250,1,forwardMask,1,"""",11/20/2020 19:11,69.125.145.27,"Mozilla/5.0 (Windows NT 10.0; Win64; x64) AppleWebKit/537.36 (KHTML, like Gecko) Chrome/86.0.4240.198 Safari/537.36",WebKit,Chrome,86.0.4240.198,Windows,10
22,1,null,"""",image-keyboard-response,5,13420,0.0-5.0,jspsych/disgustFaces/BF17DIS.JPG,"""",null,82,1,Cue,"""","""",11/20/2020 19:11,69.125.145.27,"Mozilla/5.0 (Windows NT 10.0; Win64; x64) AppleWebKit/537.36 (KHTML, like Gecko) Chrome/86.0.4240.198 Safari/537.36",WebKit,Chrome,86.0.4240.198,Windows,10
22,1,null,"""",image-keyboard-response,6,13531,0.0-6.0,jspsych/neutralFaces/BF26NES.JPG,"""",null,100,1,backwardMask,"""","""",11/20/2020 19:11,69.125.145.27,"Mozilla/5.0 (Windows NT 10.0; Win64; x64) AppleWebKit/537.36 (KHTML, like Gecko) Chrome/86.0.4240.198 Safari/537.36",WebKit,Chrome,86.0.4240.198,Windows,10
22,1,null,"""",html-keyboard-response,7,13736,0.0-7.0,"<div style=""font-size:60px;"">+</div>","""",null,200,1,fixationBtwnNeutralMaskAndPrompt,"""","""",11/20/2020 19:11,69.125.145.27,"Mozilla/5.0 (Windows NT 10.0; Win64; x64) AppleWebKit/537.36 (KHTML, like Gecko) Chrome/86.0.4240.198 Safari/537.36",WebKit,Chrome,86.0.4240.198,Windows,10
22,1,6230.4,"""",html-keyboard-response,8,19968,0.0-8.0,"<p> Did you see the ""hidden"" face? Press <b>0</b> if you did <i>not</i>, <b>1</b> if you <i>did</i>. </p>","""",48,"""",1,Query,"""",0,11/20/2020 19:11,69.125.145.27,"Mozilla/5.0 (Windows NT 10.0; Win64; x64) AppleWebKit/537.36 (KHTML, like Gecko) Chrome/86.0.4240.198 Safari/537.36",WebKit,Chrome,86.0.4240.198,Windows,10
22,1,7161.895,"""",html-keyboard-response,9,27132,0.0-9.0,"<p> What was the emotion of the hidden face? Go with your gut if you are not certain. <br> Press, <b>0</b> for <i>neutral face</i> or <b>1</b> for <i>disgust face</i></p>","""",48,"""",1,Query,"""",0,11/20/2020 19:11,69.125.145.27,"Mozilla/5.0 (Windows NT 10.0; Win64; x64) AppleWebKit/537.36 (KHTML, like Gecko) Chrome/86.0.4240.198 Safari/537.36",WebKit,Chrome,86.0.4240.198,Windows,10
22,1,null,"""",html-keyboard-response,10,28139,0.0-10.0,"<div style=""font-size:60px;"">+</div>","""",null,1000,2,ITI,"""","""",11/20/2020 19:11,69.125.145.27,"Mozilla/5.0 (Windows NT 10.0; Win64; x64) AppleWebKit/537.36 (KHTML, like Gecko) Chrome/86.0.4240.198 Safari/537.36",WebKit,Chrome,86.0.4240.198,Windows,10
22,1,null,"""",image-keyboard-response,11,28401,0.0-11.0,jspsych/scrambledDisgustFaces/scrambledAM14DIS.JPG,"""",null,250,2,forwardMask,1,"""",11/20/2020 19:11,69.125.145.27,"Mozilla/5.0 (Windows NT 10.0; Win64; x64) AppleWebKit/537.36 (KHTML, like Gecko) Chrome/86.0.4240.198 Safari/537.36",WebKit,Chrome,86.0.4240.198,Windows,10
22,1,null,"""",image-keyboard-response,12,28452,0.0-12.0,jspsych/disgustFaces/AM14DIS.JPG,"""",null,49,2,Cue,"""","""",11/20/2020 19:11,69.125.145.27,"Mozilla/5.0 (Windows NT 10.0; Win64; x64) AppleWebKit/537.36 (KHTML, like Gecko) Chrome/86.0.4240.198 Safari/537.36",WebKit,Chrome,86.0.4240.198,Windows,10
22,1,null,"""",image-keyboard-response,13,28557,0.0-13.0,jspsych/neutralFaces/BF10NES.JPG,"""",null,100,2,backwardMask,"""","""",11/20/2020 19:11,69.125.145.27,"Mozilla/5.0 (Windows NT 10.0; Win64; x64) AppleWebKit/537.36 (KHTML, like Gecko) Chrome/86.0.4240.198 Safari/537.36",WebKit,Chrome,86.0.4240.198,Windows,10
22,1,null,"""",html-keyboard-response,14,28766,0.0-14.0,"<div style=""font-size:60px;"">+</div>","""",null,200,2,fixationBtwnNeutralMaskAndPrompt,"""","""",11/20/2020 19:11,69.125.145.27,"Mozilla/5.0 (Windows NT 10.0; Win64; x64) AppleWebKit/537.36 (KHTML, like Gecko) Chrome/86.0.4240.198 Safari/537.36",WebKit,Chrome,86.0.4240.198,Windows,10
22,1,5286.34,"""",html-keyboard-response,15,34053,0.0-15.0,"<p> Did you see the ""hidden"" face? Press <b>0</b> if you did <i>not</i>, <b>1</b> if you <i>did</i>. </p>","""",48,"""",2,Query,"""",0,11/20/2020 19:11,69.125.145.27,"Mozilla/5.0 (Windows NT 10.0; Win64; x64) AppleWebKit/537.36 (KHTML, like Gecko) Chrome/86.0.4240.198 Safari/537.36",WebKit,Chrome,86.0.4240.198,Windows,10
22,1,3439.24,"""",html-keyboard-response,16,37495,0.0-16.0,"<p> What was the emotion of the hidden face? Go with your gut if you are not certain. <br> Press, <b>0</b> for <i>neutral face</i> or <b>1</b> for <i>disgust face</i></p>","""",49,"""",2,Query,"""",1,11/20/2020 19:11,69.125.145.27,"Mozilla/5.0 (Windows NT 10.0; Win64; x64) AppleWebKit/537.36 (KHTML, like Gecko) Chrome/86.0.4240.198 Safari/537.36",WebKit,Chrome,86.0.4240.198,Windows,10
22,1,null,"""",html-keyboard-response,17,38500,0.0-17.0,"<div style=""font-size:60px;"">+</div>","""",null,1000,3,ITI,"""","""",11/20/2020 19:11,69.125.145.27,"Mozilla/5.0 (Windows NT 10.0; Win64; x64) AppleWebKit/537.36 (KHTML, like Gecko) Chrome/86.0.4240.198 Safari/537.36",WebKit,Chrome,86.0.4240.198,Windows,10
22,1,null,"""",image-keyboard-response,18,38758,0.0-18.0,jspsych/scrambledNeutralFaces/scrambledBM08NES.JPG,"""",null,250,3,forwardMask,0,"""",11/20/2020 19:11,69.125.145.27,"Mozilla/5.0 (Windows NT 10.0; Win64; x64) AppleWebKit/537.36 (KHTML, like Gecko) Chrome/86.0.4240.198 Safari/537.36",WebKit,Chrome,86.0.4240.198,Windows,10
22,1,null,"""",image-keyboard-response,19,38795,0.0-19.0,jspsych/neutralFaces/BM08NES.JPG,"""",null,33,3,Cue,"""","""",11/20/2020 19:11,69.125.145.27,"Mozilla/5.0 (Windows NT 10.0; Win64; x64) AppleWebKit/537.36 (KHTML, like Gecko) Chrome/86.0.4240.198 Safari/537.36",WebKit,Chrome,86.0.4240.198,Windows,10
22,1,null,"""",image-keyboard-response,20,38904,0.0-20.0,jspsych/neutralFaces/BM35NES.JPG,"""",null,100,3,backwardMask,"""","""",11/20/2020 19:11,69.125.145.27,"Mozilla/5.0 (Windows NT 10.0; Win64; x64) AppleWebKit/537.36 (KHTML, like Gecko) Chrome/86.0.4240.198 Safari/537.36",WebKit,Chrome,86.0.4240.198,Windows,10
22,1,null,"""",html-keyboard-response,21,39113,0.0-21.0,"<div style=""font-size:60px;"">+</div>","""",null,200,3,fixationBtwnNeutralMaskAndPrompt,"""","""",11/20/2020 19:11,69.125.145.27,"Mozilla/5.0 (Windows NT 10.0; Win64; x64) AppleWebKit/537.36 (KHTML, like Gecko) Chrome/86.0.4240.198 Safari/537.36",WebKit,Chrome,86.0.4240.198,Windows,10
22,1,6435.265,"""",html-keyboard-response,22,45549,0.0-22.0,"<p> Did you see the ""hidden"" face? Press <b>0</b> if you did <i>not</i>, <b>1</b> if you <i>did</i>. </p>","""",48,"""",3,Query,"""",0,11/20/2020 19:11,69.125.145.27,"Mozilla/5.0 (Windows NT 10.0; Win64; x64) AppleWebKit/537.36 (KHTML, like Gecko) Chrome/86.0.4240.198 Safari/537.36",WebKit,Chrome,86.0.4240.198,Windows,10
22,1,775.075,"""",html-keyboard-response,23,46328,0.0-23.0,"<p> What was the emotion of the hidden face? Go with your gut if you are not certain. <br> Press, <b>0</b> for <i>neutral face</i> or <b>1</b> for <i>disgust face</i></p>","""",49,"""",3,Query,"""",1,11/20/2020 19:11,69.125.145.27,"Mozilla/5.0 (Windows NT 10.0; Win64; x64) AppleWebKit/537.36 (KHTML, like Gecko) Chrome/86.0.4240.198 Safari/537.36",WebKit,Chrome,86.0.4240.198,Windows,10
22,1,null,"""",html-keyboard-response,24,47331,0.0-24.0,"<div style=""font-size:60px;"">+</div>","""",null,1000,4,ITI,"""","""",11/20/2020 19:11,69.125.145.27,"Mozilla/5.0 (Windows NT 10.0; Win64; x64) AppleWebKit/537.36 (KHTML, like Gecko) Chrome/86.0.4240.198 Safari/537.36",WebKit,Chrome,86.0.4240.198,Windows,10
22,1,null,"""",image-keyboard-response,25,47588,0.0-25.0,jspsych/scrambledDisgustFaces/scrambledAM32DIS.JPG,"""",null,250,4,forwardMask,1,"""",11/20/2020 19:11,69.125.145.27,"Mozilla/5.0 (Windows NT 10.0; Win64; x64) AppleWebKit/537.36 (KHTML, like Gecko) Chrome/86.0.4240.198 Safari/537.36",WebKit,Chrome,86.0.4240.198,Windows,10
22,1,null,"""",image-keyboard-response,26,47679,0.0-26.0,jspsych/disgustFaces/AM32DIS.JPG,"""",null,82,4,Cue,"""","""",11/20/2020 19:11,69.125.145.27,"Mozilla/5.0 (Windows NT 10.0; Win64; x64) AppleWebKit/537.36 (KHTML, like Gecko) Chrome/86.0.4240.198 Safari/537.36",WebKit,Chrome,86.0.4240.198,Windows,10
22,1,null,"""",image-keyboard-response,27,47790,0.0-27.0,jspsych/neutralFaces/BM34NES.JPG,"""",null,100,4,backwardMask,"""","""",11/20/2020 19:11,69.125.145.27,"Mozilla/5.0 (Windows NT 10.0; Win64; x64) AppleWebKit/537.36 (KHTML, like Gecko) Chrome/86.0.4240.198 Safari/537.36",WebKit,Chrome,86.0.4240.198,Windows,10
22,1,null,"""",html-keyboard-response,28,47998,0.0-28.0,"<div style=""font-size:60px;"">+</div>","""",null,200,4,fixationBtwnNeutralMaskAndPrompt,"""","""",11/20/2020 19:11,69.125.145.27,"Mozilla/5.0 (Windows NT 10.0; Win64; x64) AppleWebKit/537.36 (KHTML, like Gecko) Chrome/86.0.4240.198 Safari/537.36",WebKit,Chrome,86.0.4240.198,Windows,10
22,1,13812.275,"""",html-keyboard-response,29,61815,0.0-29.0,"<p> Did you see the ""hidden"" face? Press <b>0</b> if you did <i>not</i>, <b>1</b> if you <i>did</i>. </p>","""",49,"""",4,Query,"""",1,11/20/2020 19:11,69.125.145.27,"Mozilla/5.0 (Windows NT 10.0; Win64; x64) AppleWebKit/537.36 (KHTML, like Gecko) Chrome/86.0.4240.198 Safari/537.36",WebKit,Chrome,86.0.4240.198,Windows,10
22,1,941.81,"""",html-keyboard-response,30,62761,0.0-30.0,"<p> What was the emotion of the hidden face? Go with your gut if you are not certain. <br> Press, <b>0</b> for <i>neutral face</i> or <b>1</b> for <i>disgust face</i></p>","""",49,"""",4,Query,"""",1,11/20/2020 19:11,69.125.145.27,"Mozilla/5.0 (Windows NT 10.0; Win64; x64) AppleWebKit/537.36 (KHTML, like Gecko) Chrome/86.0.4240.198 Safari/537.36",WebKit,Chrome,86.0.4240.198,Windows,10
22,1,null,"""",html-keyboard-response,31,63764,0.0-31.0,"<div style=""font-size:60px;"">+</div>","""",null,1000,5,ITI,"""","""",11/20/2020 19:11,69.125.145.27,"Mozilla/5.0 (Windows NT 10.0; Win64; x64) AppleWebKit/537.36 (KHTML, like Gecko) Chrome/86.0.4240.198 Safari/537.36",WebKit,Chrome,86.0.4240.198,Windows,10
22,1,null,"""",image-keyboard-response,32,64030,0.0-32.0,jspsych/scrambledDisgustFaces/scrambledAM28DIS.JPG,"""",null,250,5,forwardMask,1,"""",11/20/2020 19:11,69.125.145.27,"Mozilla/5.0 (Windows NT 10.0; Win64; x64) AppleWebKit/537.36 (KHTML, like Gecko) Chrome/86.0.4240.198 Safari/537.36",WebKit,Chrome,86.0.4240.198,Windows,10
22,1,null,"""",image-keyboard-response,33,64105,0.0-33.0,jspsych/disgustFaces/AM28DIS.JPG,"""",null,66,5,Cue,"""","""",11/20/2020 19:11,69.125.145.27,"Mozilla/5.0 (Windows NT 10.0; Win64; x64) AppleWebKit/537.36 (KHTML, like Gecko) Chrome/86.0.4240.198 Safari/537.36",WebKit,Chrome,86.0.4240.198,Windows,10
22,1,null,"""",image-keyboard-response,34,64214,0.0-34.0,jspsych/neutralFaces/AF21NES.JPG,"""",null,100,5,backwardMask,"""","""",11/20/2020 19:11,69.125.145.27,"Mozilla/5.0 (Windows NT 10.0; Win64; x64) AppleWebKit/537.36 (KHTML, like Gecko) Chrome/86.0.4240.198 Safari/537.36",WebKit,Chrome,86.0.4240.198,Windows,10
22,1,null,"""",html-keyboard-response,35,64430,0.0-35.0,"<div style=""font-size:60px;"">+</div>","""",null,200,5,fixationBtwnNeutralMaskAndPrompt,"""","""",11/20/2020 19:11,69.125.145.27,"Mozilla/5.0 (Windows NT 10.0; Win64; x64) AppleWebKit/537.36 (KHTML, like Gecko) Chrome/86.0.4240.198 Safari/537.36",WebKit,Chrome,86.0.4240.198,Windows,10
22,1,956.825,"""",html-keyboard-response,36,65388,0.0-36.0,"<p> Did you see the ""hidden"" face? Press <b>0</b> if you did <i>not</i>, <b>1</b> if you <i>did</i>. </p>","""",49,"""",5,Query,"""",1,11/20/2020 19:11,69.125.145.27,"Mozilla/5.0 (Windows NT 10.0; Win64; x64) AppleWebKit/537.36 (KHTML, like Gecko) Chrome/86.0.4240.198 Safari/537.36",WebKit,Chrome,86.0.4240.198,Windows,10
22,1,590.37,"""",html-keyboard-response,37,65980,0.0-37.0,"<p> What was the emotion of the hidden face? Go with your gut if you are not certain. <br> Press, <b>0</b> for <i>neutral face</i> or <b>1</b> for <i>disgust face</i></p>","""",49,"""",5,Query,"""",1,11/20/2020 19:11,69.125.145.27,"Mozilla/5.0 (Windows NT 10.0; Win64; x64) AppleWebKit/537.36 (KHTML, like Gecko) Chrome/86.0.4240.198 Safari/537.36",WebKit,Chrome,86.0.4240.198,Windows,10
22,1,null,"""",html-keyboard-response,38,66985,0.0-38.0,"<div style=""font-size:60px;"">+</div>","""",null,1000,6,ITI,"""","""",11/20/2020 19:11,69.125.145.27,"Mozilla/5.0 (Windows NT 10.0; Win64; x64) AppleWebKit/537.36 (KHTML, like Gecko) Chrome/86.0.4240.198 Safari/537.36",WebKit,Chrome,86.0.4240.198,Windows,10
22,1,null,"""",image-keyboard-response,39,67241,0.0-39.0,jspsych/scrambledDisgustFaces/scrambledBF30DIS.JPG,"""",null,250,6,forwardMask,1,"""",11/20/2020 19:11,69.125.145.27,"Mozilla/5.0 (Windows NT 10.0; Win64; x64) AppleWebKit/537.36 (KHTML, like Gecko) Chrome/86.0.4240.198 Safari/537.36",WebKit,Chrome,86.0.4240.198,Windows,10
22,1,null,"""",image-keyboard-response,40,67309,0.0-40.0,jspsych/disgustFaces/BF30DIS.JPG,"""",null,66,6,Cue,"""","""",11/20/2020 19:11,69.125.145.27,"Mozilla/5.0 (Windows NT 10.0; Win64; x64) AppleWebKit/537.36 (KHTML, like Gecko) Chrome/86.0.4240.198 Safari/537.36",WebKit,Chrome,86.0.4240.198,Windows,10
22,1,null,"""",image-keyboard-response,41,67418,0.0-41.0,jspsych/neutralFaces/BF11NES.JPG,"""",null,100,6,backwardMask,"""","""",11/20/2020 19:11,69.125.145.27,"Mozilla/5.0 (Windows NT 10.0; Win64; x64) AppleWebKit/537.36 (KHTML, like Gecko) Chrome/86.0.4240.198 Safari/537.36",WebKit,Chrome,86.0.4240.198,Windows,10
22,1,null,"""",html-keyboard-response,42,67627,0.0-42.0,"<div style=""font-size:60px;"">+</div>","""",null,200,6,fixationBtwnNeutralMaskAndPrompt,"""","""",11/20/2020 19:11,69.125.145.27,"Mozilla/5.0 (Windows NT 10.0; Win64; x64) AppleWebKit/537.36 (KHTML, like Gecko) Chrome/86.0.4240.198 Safari/537.36",WebKit,Chrome,86.0.4240.198,Windows,10
22,1,482.42,"""",html-keyboard-response,43,68111,0.0-43.0,"<p> Did you see the ""hidden"" face? Press <b>0</b> if you did <i>not</i>, <b>1</b> if you <i>did</i>. </p>","""",49,"""",6,Query,"""",1,11/20/2020 19:11,69.125.145.27,"Mozilla/5.0 (Windows NT 10.0; Win64; x64) AppleWebKit/537.36 (KHTML, like Gecko) Chrome/86.0.4240.198 Safari/537.36",WebKit,Chrome,86.0.4240.198,Windows,10
22,1,504.665,"""",html-keyboard-response,44,68619,0.0-44.0,"<p> What was the emotion of the hidden face? Go with your gut if you are not certain. <br> Press, <b>0</b> for <i>neutral face</i> or <b>1</b> for <i>disgust face</i></p>","""",49,"""",6,Query,"""",1,11/20/2020 19:11,69.125.145.27,"Mozilla/5.0 (Windows NT 10.0; Win64; x64) AppleWebKit/537.36 (KHTML, like Gecko) Chrome/86.0.4240.198 Safari/537.36",WebKit,Chrome,86.0.4240.198,Windows,10
22,1,null,"""",html-keyboard-response,45,69626,0.0-45.0,"<div style=""font-size:60px;"">+</div>","""",null,1000,7,ITI,"""","""",11/20/2020 19:11,69.125.145.27,"Mozilla/5.0 (Windows NT 10.0; Win64; x64) AppleWebKit/537.36 (KHTML, like Gecko) Chrome/86.0.4240.198 Safari/537.36",WebKit,Chrome,86.0.4240.198,Windows,10
22,1,null,"""",image-keyboard-response,46,69891,0.0-46.0,jspsych/scrambledDisgustFaces/scrambledAF24DIS.JPG,"""",null,250,7,forwardMask,1,"""",11/20/2020 19:11,69.125.145.27,"Mozilla/5.0 (Windows NT 10.0; Win64; x64) AppleWebKit/537.36 (KHTML, like Gecko) Chrome/86.0.4240.198 Safari/537.36",WebKit,Chrome,86.0.4240.198,Windows,10
22,1,null,"""",image-keyboard-response,47,69999,0.0-47.0,jspsych/disgustFaces/AF24DIS.JPG,"""",null,104,7,Cue,"""","""",11/20/2020 19:11,69.125.145.27,"Mozilla/5.0 (Windows NT 10.0; Win64; x64) AppleWebKit/537.36 (KHTML, like Gecko) Chrome/86.0.4240.198 Safari/537.36",WebKit,Chrome,86.0.4240.198,Windows,10
22,1,null,"""",image-keyboard-response,48,70109,0.0-48.0,jspsych/neutralFaces/BM07NES.JPG,"""",null,100,7,backwardMask,"""","""",11/20/2020 19:11,69.125.145.27,"Mozilla/5.0 (Windows NT 10.0; Win64; x64) AppleWebKit/537.36 (KHTML, like Gecko) Chrome/86.0.4240.198 Safari/537.36",WebKit,Chrome,86.0.4240.198,Windows,10
22,1,null,"""",html-keyboard-response,49,70324,0.0-49.0,"<div style=""font-size:60px;"">+</div>","""",null,200,7,fixationBtwnNeutralMaskAndPrompt,"""","""",11/20/2020 19:11,69.125.145.27,"Mozilla/5.0 (Windows NT 10.0; Win64; x64) AppleWebKit/537.36 (KHTML, like Gecko) Chrome/86.0.4240.198 Safari/537.36",WebKit,Chrome,86.0.4240.198,Windows,10
22,1,348.285,"""",html-keyboard-response,50,70673,0.0-50.0,"<p> Did you see the ""hidden"" face? Press <b>0</b> if you did <i>not</i>, <b>1</b> if you <i>did</i>. </p>","""",49,"""",7,Query,"""",1,11/20/2020 19:11,69.125.145.27,"Mozilla/5.0 (Windows NT 10.0; Win64; x64) AppleWebKit/537.36 (KHTML, like Gecko) Chrome/86.0.4240.198 Safari/537.36",WebKit,Chrome,86.0.4240.198,Windows,10
22,1,419.415,"""",html-keyboard-response,51,71093,0.0-51.0,"<p> What was the emotion of the hidden face? Go with your gut if you are not certain. <br> Press, <b>0</b> for <i>neutral face</i> or <b>1</b> for <i>disgust face</i></p>","""",49,"""",7,Query,"""",1,11/20/2020 19:11,69.125.145.27,"Mozilla/5.0 (Windows NT 10.0; Win64; x64) AppleWebKit/537.36 (KHTML, like Gecko) Chrome/86.0.4240.198 Safari/537.36",WebKit,Chrome,86.0.4240.198,Windows,10
22,1,null,"""",html-keyboard-response,52,73105,0.0-52.0,Good job! 25% Done,"""",null,2000,8,encouragement,"""","""",11/20/2020 19:11,69.125.145.27,"Mozilla/5.0 (Windows NT 10.0; Win64; x64) AppleWebKit/537.36 (KHTML, like Gecko) Chrome/86.0.4240.198 Safari/537.36",WebKit,Chrome,86.0.4240.198,Windows,10
22,1,null,"""",html-keyboard-response,53,74107,0.0-53.0,"<div style=""font-size:60px;"">+</div>","""",null,1000,8,ITI,"""","""",11/20/2020 19:11,69.125.145.27,"Mozilla/5.0 (Windows NT 10.0; Win64; x64) AppleWebKit/537.36 (KHTML, like Gecko) Chrome/86.0.4240.198 Safari/537.36",WebKit,Chrome,86.0.4240.198,Windows,10
22,1,null,"""",image-keyboard-response,54,74368,0.0-54.0,jspsych/scrambledNeutralFaces/scrambledAF02NES.JPG,"""",null,250,8,forwardMask,0,"""",11/20/2020 19:11,69.125.145.27,"Mozilla/5.0 (Windows NT 10.0; Win64; x64) AppleWebKit/537.36 (KHTML, like Gecko) Chrome/86.0.4240.198 Safari/537.36",WebKit,Chrome,86.0.4240.198,Windows,10
22,1,null,"""",image-keyboard-response,55,74452,0.0-55.0,jspsych/neutralFaces/AF02NES.JPG,"""",null,82,8,Cue,"""","""",11/20/2020 19:11,69.125.145.27,"Mozilla/5.0 (Windows NT 10.0; Win64; x64) AppleWebKit/537.36 (KHTML, like Gecko) Chrome/86.0.4240.198 Safari/537.36",WebKit,Chrome,86.0.4240.198,Windows,10
22,1,null,"""",image-keyboard-response,56,74557,0.0-56.0,jspsych/neutralFaces/AM04NES.JPG,"""",null,100,8,backwardMask,"""","""",11/20/2020 19:11,69.125.145.27,"Mozilla/5.0 (Windows NT 10.0; Win64; x64) AppleWebKit/537.36 (KHTML, like Gecko) Chrome/86.0.4240.198 Safari/537.36",WebKit,Chrome,86.0.4240.198,Windows,10
22,1,null,"""",html-keyboard-response,57,74761,0.0-57.0,"<div style=""font-size:60px;"">+</div>","""",null,200,8,fixationBtwnNeutralMaskAndPrompt,"""","""",11/20/2020 19:11,69.125.145.27,"Mozilla/5.0 (Windows NT 10.0; Win64; x64) AppleWebKit/537.36 (KHTML, like Gecko) Chrome/86.0.4240.198 Safari/537.36",WebKit,Chrome,86.0.4240.198,Windows,10
22,1,3501.865,"""",html-keyboard-response,58,78264,0.0-58.0,"<p> Did you see the ""hidden"" face? Press <b>0</b> if you did <i>not</i>, <b>1</b> if you <i>did</i>. </p>","""",48,"""",8,Query,"""",0,11/20/2020 19:11,69.125.145.27,"Mozilla/5.0 (Windows NT 10.0; Win64; x64) AppleWebKit/537.36 (KHTML, like Gecko) Chrome/86.0.4240.198 Safari/537.36",WebKit,Chrome,86.0.4240.198,Windows,10
22,1,543.92,"""",html-keyboard-response,59,78811,0.0-59.0,"<p> What was the emotion of the hidden face? Go with your gut if you are not certain. <br> Press, <b>0</b> for <i>neutral face</i> or <b>1</b> for <i>disgust face</i></p>","""",48,"""",8,Query,"""",0,11/20/2020 19:11,69.125.145.27,"Mozilla/5.0 (Windows NT 10.0; Win64; x64) AppleWebKit/537.36 (KHTML, like Gecko) Chrome/86.0.4240.198 Safari/537.36",WebKit,Chrome,86.0.4240.198,Windows,10
22,1,null,"""",html-keyboard-response,60,79814,0.0-60.0,"<div style=""font-size:60px;"">+</div>","""",null,1000,9,ITI,"""","""",11/20/2020 19:11,69.125.145.27,"Mozilla/5.0 (Windows NT 10.0; Win64; x64) AppleWebKit/537.36 (KHTML, like Gecko) Chrome/86.0.4240.198 Safari/537.36",WebKit,Chrome,86.0.4240.198,Windows,10
22,1,null,"""",image-keyboard-response,61,80067,0.0-61.0,jspsych/scrambledNeutralFaces/scrambledAM33NES.JPG,"""",null,250,9,forwardMask,0,"""",11/20/2020 19:11,69.125.145.27,"Mozilla/5.0 (Windows NT 10.0; Win64; x64) AppleWebKit/537.36 (KHTML, like Gecko) Chrome/86.0.4240.198 Safari/537.36",WebKit,Chrome,86.0.4240.198,Windows,10
22,1,null,"""",image-keyboard-response,62,80135,0.0-62.0,jspsych/neutralFaces/AM33NES.JPG,"""",null,66,9,Cue,"""","""",11/20/2020 19:11,69.125.145.27,"Mozilla/5.0 (Windows NT 10.0; Win64; x64) AppleWebKit/537.36 (KHTML, like Gecko) Chrome/86.0.4240.198 Safari/537.36",WebKit,Chrome,86.0.4240.198,Windows,10
22,1,null,"""",image-keyboard-response,63,80242,0.0-63.0,jspsych/neutralFaces/AM35NES.JPG,"""",null,100,9,backwardMask,"""","""",11/20/2020 19:11,69.125.145.27,"Mozilla/5.0 (Windows NT 10.0; Win64; x64) AppleWebKit/537.36 (KHTML, like Gecko) Chrome/86.0.4240.198 Safari/537.36",WebKit,Chrome,86.0.4240.198,Windows,10
22,1,null,"""",html-keyboard-response,64,80451,0.0-64.0,"<div style=""font-size:60px;"">+</div>","""",null,200,9,fixationBtwnNeutralMaskAndPrompt,"""","""",11/20/2020 19:11,69.125.145.27,"Mozilla/5.0 (Windows NT 10.0; Win64; x64) AppleWebKit/537.36 (KHTML, like Gecko) Chrome/86.0.4240.198 Safari/537.36",WebKit,Chrome,86.0.4240.198,Windows,10
22,1,545.43,"""",html-keyboard-response,65,80997,0.0-65.0,"<p> Did you see the ""hidden"" face? Press <b>0</b> if you did <i>not</i>, <b>1</b> if you <i>did</i>. </p>","""",48,"""",9,Query,"""",0,11/20/2020 19:11,69.125.145.27,"Mozilla/5.0 (Windows NT 10.0; Win64; x64) AppleWebKit/537.36 (KHTML, like Gecko) Chrome/86.0.4240.198 Safari/537.36",WebKit,Chrome,86.0.4240.198,Windows,10
22,1,348.345,"""",html-keyboard-response,66,81349,0.0-66.0,"<p> What was the emotion of the hidden face? Go with your gut if you are not certain. <br> Press, <b>0</b> for <i>neutral face</i> or <b>1</b> for <i>disgust face</i></p>","""",48,"""",9,Query,"""",0,11/20/2020 19:11,69.125.145.27,"Mozilla/5.0 (Windows NT 10.0; Win64; x64) AppleWebKit/537.36 (KHTML, like Gecko) Chrome/86.0.4240.198 Safari/537.36",WebKit,Chrome,86.0.4240.198,Windows,10
22,1,null,"""",html-keyboard-response,67,82353,0.0-67.0,"<div style=""font-size:60px;"">+</div>","""",null,1000,10,ITI,"""","""",11/20/2020 19:11,69.125.145.27,"Mozilla/5.0 (Windows NT 10.0; Win64; x64) AppleWebKit/537.36 (KHTML, like Gecko) Chrome/86.0.4240.198 Safari/537.36",WebKit,Chrome,86.0.4240.198,Windows,10
22,1,null,"""",image-keyboard-response,68,82611,0.0-68.0,jspsych/scrambledDisgustFaces/scrambledBF26DIS.JPG,"""",null,250,10,forwardMask,1,"""",11/20/2020 19:11,69.125.145.27,"Mozilla/5.0 (Windows NT 10.0; Win64; x64) AppleWebKit/537.36 (KHTML, like Gecko) Chrome/86.0.4240.198 Safari/537.36",WebKit,Chrome,86.0.4240.198,Windows,10
22,1,null,"""",image-keyboard-response,69,82702,0.0-69.0,jspsych/disgustFaces/BF26DIS.JPG,"""",null,82,10,Cue,"""","""",11/20/2020 19:11,69.125.145.27,"Mozilla/5.0 (Windows NT 10.0; Win64; x64) AppleWebKit/537.36 (KHTML, like Gecko) Chrome/86.0.4240.198 Safari/537.36",WebKit,Chrome,86.0.4240.198,Windows,10
22,1,null,"""",image-keyboard-response,70,82815,0.0-70.0,jspsych/neutralFaces/AM06NES.JPG,"""",null,100,10,backwardMask,"""","""",11/20/2020 19:11,69.125.145.27,"Mozilla/5.0 (Windows NT 10.0; Win64; x64) AppleWebKit/537.36 (KHTML, like Gecko) Chrome/86.0.4240.198 Safari/537.36",WebKit,Chrome,86.0.4240.198,Windows,10
22,1,null,"""",html-keyboard-response,71,83019,0.0-71.0,"<div style=""font-size:60px;"">+</div>","""",null,200,10,fixationBtwnNeutralMaskAndPrompt,"""","""",11/20/2020 19:11,69.125.145.27,"Mozilla/5.0 (Windows NT 10.0; Win64; x64) AppleWebKit/537.36 (KHTML, like Gecko) Chrome/86.0.4240.198 Safari/537.36",WebKit,Chrome,86.0.4240.198,Windows,10
22,1,298.445,"""",html-keyboard-response,72,83318,0.0-72.0,"<p> Did you see the ""hidden"" face? Press <b>0</b> if you did <i>not</i>, <b>1</b> if you <i>did</i>. </p>","""",49,"""",10,Query,"""",1,11/20/2020 19:11,69.125.145.27,"Mozilla/5.0 (Windows NT 10.0; Win64; x64) AppleWebKit/537.36 (KHTML, like Gecko) Chrome/86.0.4240.198 Safari/537.36",WebKit,Chrome,86.0.4240.198,Windows,10
22,1,320.165,"""",html-keyboard-response,73,83640,0.0-73.0,"<p> What was the emotion of the hidden face? Go with your gut if you are not certain. <br> Press, <b>0</b> for <i>neutral face</i> or <b>1</b> for <i>disgust face</i></p>","""",49,"""",10,Query,"""",1,11/20/2020 19:11,69.125.145.27,"Mozilla/5.0 (Windows NT 10.0; Win64; x64) AppleWebKit/537.36 (KHTML, like Gecko) Chrome/86.0.4240.198 Safari/537.36",WebKit,Chrome,86.0.4240.198,Windows,10
22,1,null,"""",html-keyboard-response,74,84644,0.0-74.0,"<div style=""font-size:60px;"">+</div>","""",null,1000,11,ITI,"""","""",11/20/2020 19:11,69.125.145.27,"Mozilla/5.0 (Windows NT 10.0; Win64; x64) AppleWebKit/537.36 (KHTML, like Gecko) Chrome/86.0.4240.198 Safari/537.36",WebKit,Chrome,86.0.4240.198,Windows,10
22,1,null,"""",image-keyboard-response,75,84901,0.0-75.0,jspsych/scrambledDisgustFaces/scrambledBM06DIS.JPG,"""",null,250,11,forwardMask,1,"""",11/20/2020 19:11,69.125.145.27,"Mozilla/5.0 (Windows NT 10.0; Win64; x64) AppleWebKit/537.36 (KHTML, like Gecko) Chrome/86.0.4240.198 Safari/537.36",WebKit,Chrome,86.0.4240.198,Windows,10
22,1,null,"""",image-keyboard-response,76,84937,0.0-76.0,jspsych/disgustFaces/BM06DIS.JPG,"""",null,33,11,Cue,"""","""",11/20/2020 19:11,69.125.145.27,"Mozilla/5.0 (Windows NT 10.0; Win64; x64) AppleWebKit/537.36 (KHTML, like Gecko) Chrome/86.0.4240.198 Safari/537.36",WebKit,Chrome,86.0.4240.198,Windows,10
22,1,null,"""",image-keyboard-response,77,85044,0.0-77.0,jspsych/neutralFaces/BF04NES.JPG,"""",null,100,11,backwardMask,"""","""",11/20/2020 19:11,69.125.145.27,"Mozilla/5.0 (Windows NT 10.0; Win64; x64) AppleWebKit/537.36 (KHTML, like Gecko) Chrome/86.0.4240.198 Safari/537.36",WebKit,Chrome,86.0.4240.198,Windows,10
22,1,null,"""",html-keyboard-response,78,85245,0.0-78.0,"<div style=""font-size:60px;"">+</div>","""",null,200,11,fixationBtwnNeutralMaskAndPrompt,"""","""",11/20/2020 19:11,69.125.145.27,"Mozilla/5.0 (Windows NT 10.0; Win64; x64) AppleWebKit/537.36 (KHTML, like Gecko) Chrome/86.0.4240.198 Safari/537.36",WebKit,Chrome,86.0.4240.198,Windows,10
22,1,438.985,"""",html-keyboard-response,79,85685,0.0-79.0,"<p> Did you see the ""hidden"" face? Press <b>0</b> if you did <i>not</i>, <b>1</b> if you <i>did</i>. </p>","""",49,"""",11,Query,"""",1,11/20/2020 19:11,69.125.145.27,"Mozilla/5.0 (Windows NT 10.0; Win64; x64) AppleWebKit/537.36 (KHTML, like Gecko) Chrome/86.0.4240.198 Safari/537.36",WebKit,Chrome,86.0.4240.198,Windows,10
22,1,326.475,"""",html-keyboard-response,80,86012,0.0-80.0,"<p> What was the emotion of the hidden face? Go with your gut if you are not certain. <br> Press, <b>0</b> for <i>neutral face</i> or <b>1</b> for <i>disgust face</i></p>","""",49,"""",11,Query,"""",1,11/20/2020 19:11,69.125.145.27,"Mozilla/5.0 (Windows NT 10.0; Win64; x64) AppleWebKit/537.36 (KHTML, like Gecko) Chrome/86.0.4240.198 Safari/537.36",WebKit,Chrome,86.0.4240.198,Windows,10
22,1,null,"""",html-keyboard-response,81,87025,0.0-81.0,"<div style=""font-size:60px;"">+</div>","""",null,1000,12,ITI,"""","""",11/20/2020 19:11,69.125.145.27,"Mozilla/5.0 (Windows NT 10.0; Win64; x64) AppleWebKit/537.36 (KHTML, like Gecko) Chrome/86.0.4240.198 Safari/537.36",WebKit,Chrome,86.0.4240.198,Windows,10
22,1,null,"""",image-keyboard-response,82,87279,0.0-82.0,jspsych/scrambledNeutralFaces/scrambledBM14NES.JPG,"""",null,250,12,forwardMask,0,"""",11/20/2020 19:11,69.125.145.27,"Mozilla/5.0 (Windows NT 10.0; Win64; x64) AppleWebKit/537.36 (KHTML, like Gecko) Chrome/86.0.4240.198 Safari/537.36",WebKit,Chrome,86.0.4240.198,Windows,10
22,1,null,"""",image-keyboard-response,83,87348,0.0-83.0,jspsych/neutralFaces/BM14NES.JPG,"""",null,66,12,Cue,"""","""",11/20/2020 19:11,69.125.145.27,"Mozilla/5.0 (Windows NT 10.0; Win64; x64) AppleWebKit/537.36 (KHTML, like Gecko) Chrome/86.0.4240.198 Safari/537.36",WebKit,Chrome,86.0.4240.198,Windows,10
22,1,null,"""",image-keyboard-response,84,87455,0.0-84.0,jspsych/neutralFaces/BM05NES.JPG,"""",null,100,12,backwardMask,"""","""",11/20/2020 19:11,69.125.145.27,"Mozilla/5.0 (Windows NT 10.0; Win64; x64) AppleWebKit/537.36 (KHTML, like Gecko) Chrome/86.0.4240.198 Safari/537.36",WebKit,Chrome,86.0.4240.198,Windows,10
22,1,null,"""",html-keyboard-response,85,87658,0.0-85.0,"<div style=""font-size:60px;"">+</div>","""",null,200,12,fixationBtwnNeutralMaskAndPrompt,"""","""",11/20/2020 19:11,69.125.145.27,"Mozilla/5.0 (Windows NT 10.0; Win64; x64) AppleWebKit/537.36 (KHTML, like Gecko) Chrome/86.0.4240.198 Safari/537.36",WebKit,Chrome,86.0.4240.198,Windows,10
22,1,375.815,"""",html-keyboard-response,86,88035,0.0-86.0,"<p> Did you see the ""hidden"" face? Press <b>0</b> if you did <i>not</i>, <b>1</b> if you <i>did</i>. </p>","""",49,"""",12,Query,"""",1,11/20/2020 19:11,69.125.145.27,"Mozilla/5.0 (Windows NT 10.0; Win64; x64) AppleWebKit/537.36 (KHTML, like Gecko) Chrome/86.0.4240.198 Safari/537.36",WebKit,Chrome,86.0.4240.198,Windows,10
22,1,254.515,"""",html-keyboard-response,87,88291,0.0-87.0,"<p> What was the emotion of the hidden face? Go with your gut if you are not certain. <br> Press, <b>0</b> for <i>neutral face</i> or <b>1</b> for <i>disgust face</i></p>","""",49,"""",12,Query,"""",1,11/20/2020 19:11,69.125.145.27,"Mozilla/5.0 (Windows NT 10.0; Win64; x64) AppleWebKit/537.36 (KHTML, like Gecko) Chrome/86.0.4240.198 Safari/537.36",WebKit,Chrome,86.0.4240.198,Windows,10
22,1,null,"""",html-keyboard-response,88,89306,0.0-88.0,"<div style=""font-size:60px;"">+</div>","""",null,1000,13,ITI,"""","""",11/20/2020 19:11,69.125.145.27,"Mozilla/5.0 (Windows NT 10.0; Win64; x64) AppleWebKit/537.36 (KHTML, like Gecko) Chrome/86.0.4240.198 Safari/537.36",WebKit,Chrome,86.0.4240.198,Windows,10
22,1,null,"""",image-keyboard-response,89,89569,0.0-89.0,jspsych/scrambledDisgustFaces/scrambledAM10DIS.JPG,"""",null,250,13,forwardMask,1,"""",11/20/2020 19:11,69.125.145.27,"Mozilla/5.0 (Windows NT 10.0; Win64; x64) AppleWebKit/537.36 (KHTML, like Gecko) Chrome/86.0.4240.198 Safari/537.36",WebKit,Chrome,86.0.4240.198,Windows,10
22,1,null,"""",image-keyboard-response,90,89678,0.0-90.0,jspsych/disgustFaces/AM10DIS.JPG,"""",null,104,13,Cue,"""","""",11/20/2020 19:11,69.125.145.27,"Mozilla/5.0 (Windows NT 10.0; Win64; x64) AppleWebKit/537.36 (KHTML, like Gecko) Chrome/86.0.4240.198 Safari/537.36",WebKit,Chrome,86.0.4240.198,Windows,10
22,1,null,"""",image-keyboard-response,91,89781,0.0-91.0,jspsych/neutralFaces/AM22NES.JPG,"""",null,100,13,backwardMask,"""","""",11/20/2020 19:11,69.125.145.27,"Mozilla/5.0 (Windows NT 10.0; Win64; x64) AppleWebKit/537.36 (KHTML, like Gecko) Chrome/86.0.4240.198 Safari/537.36",WebKit,Chrome,86.0.4240.198,Windows,10
22,1,null,"""",html-keyboard-response,92,89986,0.0-92.0,"<div style=""font-size:60px;"">+</div>","""",null,200,13,fixationBtwnNeutralMaskAndPrompt,"""","""",11/20/2020 19:11,69.125.145.27,"Mozilla/5.0 (Windows NT 10.0; Win64; x64) AppleWebKit/537.36 (KHTML, like Gecko) Chrome/86.0.4240.198 Safari/537.36",WebKit,Chrome,86.0.4240.198,Windows,10
22,1,330.615,"""",html-keyboard-response,93,90317,0.0-93.0,"<p> Did you see the ""hidden"" face? Press <b>0</b> if you did <i>not</i>, <b>1</b> if you <i>did</i>. </p>","""",49,"""",13,Query,"""",1,11/20/2020 19:11,69.125.145.27,"Mozilla/5.0 (Windows NT 10.0; Win64; x64) AppleWebKit/537.36 (KHTML, like Gecko) Chrome/86.0.4240.198 Safari/537.36",WebKit,Chrome,86.0.4240.198,Windows,10
22,1,308.77,"""",html-keyboard-response,94,90629,0.0-94.0,"<p> What was the emotion of the hidden face? Go with your gut if you are not certain. <br> Press, <b>0</b> for <i>neutral face</i> or <b>1</b> for <i>disgust face</i></p>","""",49,"""",13,Query,"""",1,11/20/2020 19:11,69.125.145.27,"Mozilla/5.0 (Windows NT 10.0; Win64; x64) AppleWebKit/537.36 (KHTML, like Gecko) Chrome/86.0.4240.198 Safari/537.36",WebKit,Chrome,86.0.4240.198,Windows,10
22,1,null,"""",html-keyboard-response,95,91637,0.0-95.0,"<div style=""font-size:60px;"">+</div>","""",null,1000,14,ITI,"""","""",11/20/2020 19:11,69.125.145.27,"Mozilla/5.0 (Windows NT 10.0; Win64; x64) AppleWebKit/537.36 (KHTML, like Gecko) Chrome/86.0.4240.198 Safari/537.36",WebKit,Chrome,86.0.4240.198,Windows,10
22,1,null,"""",image-keyboard-response,96,91894,0.0-96.0,jspsych/scrambledDisgustFaces/scrambledBM25DIS.JPG,"""",null,250,14,forwardMask,1,"""",11/20/2020 19:11,69.125.145.27,"Mozilla/5.0 (Windows NT 10.0; Win64; x64) AppleWebKit/537.36 (KHTML, like Gecko) Chrome/86.0.4240.198 Safari/537.36",WebKit,Chrome,86.0.4240.198,Windows,10
22,1,null,"""",image-keyboard-response,97,91978,0.0-97.0,jspsych/disgustFaces/BM25DIS.JPG,"""",null,82,14,Cue,"""","""",11/20/2020 19:11,69.125.145.27,"Mozilla/5.0 (Windows NT 10.0; Win64; x64) AppleWebKit/537.36 (KHTML, like Gecko) Chrome/86.0.4240.198 Safari/537.36",WebKit,Chrome,86.0.4240.198,Windows,10
22,1,null,"""",image-keyboard-response,98,92080,0.0-98.0,jspsych/neutralFaces/BM06NES.JPG,"""",null,100,14,backwardMask,"""","""",11/20/2020 19:11,69.125.145.27,"Mozilla/5.0 (Windows NT 10.0; Win64; x64) AppleWebKit/537.36 (KHTML, like Gecko) Chrome/86.0.4240.198 Safari/537.36",WebKit,Chrome,86.0.4240.198,Windows,10
22,1,null,"""",html-keyboard-response,99,92285,0.0-99.0,"<div style=""font-size:60px;"">+</div>","""",null,200,14,fixationBtwnNeutralMaskAndPrompt,"""","""",11/20/2020 19:11,69.125.145.27,"Mozilla/5.0 (Windows NT 10.0; Win64; x64) AppleWebKit/537.36 (KHTML, like Gecko) Chrome/86.0.4240.198 Safari/537.36",WebKit,Chrome,86.0.4240.198,Windows,10
22,1,245.79,"""",html-keyboard-response,100,92532,0.0-100.0,"<p> Did you see the ""hidden"" face? Press <b>0</b> if you did <i>not</i>, <b>1</b> if you <i>did</i>. </p>","""",49,"""",14,Query,"""",1,11/20/2020 19:11,69.125.145.27,"Mozilla/5.0 (Windows NT 10.0; Win64; x64) AppleWebKit/537.36 (KHTML, like Gecko) Chrome/86.0.4240.198 Safari/537.36",WebKit,Chrome,86.0.4240.198,Windows,10
22,1,272.655,"""",html-keyboard-response,101,92805,0.0-101.0,"<p> What was the emotion of the hidden face? Go with your gut if you are not certain. <br> Press, <b>0</b> for <i>neutral face</i> or <b>1</b> for <i>disgust face</i></p>","""",49,"""",14,Query,"""",1,11/20/2020 19:11,69.125.145.27,"Mozilla/5.0 (Windows NT 10.0; Win64; x64) AppleWebKit/537.36 (KHTML, like Gecko) Chrome/86.0.4240.198 Safari/537.36",WebKit,Chrome,86.0.4240.198,Windows,10
22,1,null,"""",html-keyboard-response,102,93809,0.0-102.0,"<div style=""font-size:60px;"">+</div>","""",null,1000,15,ITI,"""","""",11/20/2020 19:11,69.125.145.27,"Mozilla/5.0 (Windows NT 10.0; Win64; x64) AppleWebKit/537.36 (KHTML, like Gecko) Chrome/86.0.4240.198 Safari/537.36",WebKit,Chrome,86.0.4240.198,Windows,10
22,1,null,"""",image-keyboard-response,103,94066,0.0-103.0,jspsych/scrambledNeutralFaces/scrambledBM35NES.JPG,"""",null,250,15,forwardMask,0,"""",11/20/2020 19:11,69.125.145.27,"Mozilla/5.0 (Windows NT 10.0; Win64; x64) AppleWebKit/537.36 (KHTML, like Gecko) Chrome/86.0.4240.198 Safari/537.36",WebKit,Chrome,86.0.4240.198,Windows,10
22,1,null,"""",image-keyboard-response,104,94171,0.0-104.0,jspsych/neutralFaces/BM35NES.JPG,"""",null,104,15,Cue,"""","""",11/20/2020 19:11,69.125.145.27,"Mozilla/5.0 (Windows NT 10.0; Win64; x64) AppleWebKit/537.36 (KHTML, like Gecko) Chrome/86.0.4240.198 Safari/537.36",WebKit,Chrome,86.0.4240.198,Windows,10
22,1,null,"""",image-keyboard-response,105,94283,0.0-105.0,jspsych/neutralFaces/AF23NES.JPG,"""",null,100,15,backwardMask,"""","""",11/20/2020 19:11,69.125.145.27,"Mozilla/5.0 (Windows NT 10.0; Win64; x64) AppleWebKit/537.36 (KHTML, like Gecko) Chrome/86.0.4240.198 Safari/537.36",WebKit,Chrome,86.0.4240.198,Windows,10
22,1,null,"""",html-keyboard-response,106,94486,0.0-106.0,"<div style=""font-size:60px;"">+</div>","""",null,200,15,fixationBtwnNeutralMaskAndPrompt,"""","""",11/20/2020 19:11,69.125.145.27,"Mozilla/5.0 (Windows NT 10.0; Win64; x64) AppleWebKit/537.36 (KHTML, like Gecko) Chrome/86.0.4240.198 Safari/537.36",WebKit,Chrome,86.0.4240.198,Windows,10
22,1,379.895,"""",html-keyboard-response,107,94867,0.0-107.0,"<p> Did you see the ""hidden"" face? Press <b>0</b> if you did <i>not</i>, <b>1</b> if you <i>did</i>. </p>","""",49,"""",15,Query,"""",1,11/20/2020 19:11,69.125.145.27,"Mozilla/5.0 (Windows NT 10.0; Win64; x64) AppleWebKit/537.36 (KHTML, like Gecko) Chrome/86.0.4240.198 Safari/537.36",WebKit,Chrome,86.0.4240.198,Windows,10
22,1,241.99,"""",html-keyboard-response,108,95110,0.0-108.0,"<p> What was the emotion of the hidden face? Go with your gut if you are not certain. <br> Press, <b>0</b> for <i>neutral face</i> or <b>1</b> for <i>disgust face</i></p>","""",49,"""",15,Query,"""",1,11/20/2020 19:11,69.125.145.27,"Mozilla/5.0 (Windows NT 10.0; Win64; x64) AppleWebKit/537.36 (KHTML, like Gecko) Chrome/86.0.4240.198 Safari/537.36",WebKit,Chrome,86.0.4240.198,Windows,10
22,1,null,"""",html-keyboard-response,109,96615,0.0-109.0,50% Done,"""",null,1500,16,encouragement,"""","""",11/20/2020 19:11,69.125.145.27,"Mozilla/5.0 (Windows NT 10.0; Win64; x64) AppleWebKit/537.36 (KHTML, like Gecko) Chrome/86.0.4240.198 Safari/537.36",WebKit,Chrome,86.0.4240.198,Windows,10
22,1,null,"""",html-keyboard-response,110,97625,0.0-110.0,"<div style=""font-size:60px;"">+</div>","""",null,1000,16,ITI,"""","""",11/20/2020 19:11,69.125.145.27,"Mozilla/5.0 (Windows NT 10.0; Win64; x64) AppleWebKit/537.36 (KHTML, like Gecko) Chrome/86.0.4240.198 Safari/537.36",WebKit,Chrome,86.0.4240.198,Windows,10
22,1,null,"""",image-keyboard-response,111,97885,0.0-111.0,jspsych/scrambledDisgustFaces/scrambledAM27DIS.JPG,"""",null,250,16,forwardMask,1,"""",11/20/2020 19:11,69.125.145.27,"Mozilla/5.0 (Windows NT 10.0; Win64; x64) AppleWebKit/537.36 (KHTML, like Gecko) Chrome/86.0.4240.198 Safari/537.36",WebKit,Chrome,86.0.4240.198,Windows,10
22,1,null,"""",image-keyboard-response,112,97976,0.0-112.0,jspsych/disgustFaces/AM27DIS.JPG,"""",null,82,16,Cue,"""","""",11/20/2020 19:11,69.125.145.27,"Mozilla/5.0 (Windows NT 10.0; Win64; x64) AppleWebKit/537.36 (KHTML, like Gecko) Chrome/86.0.4240.198 Safari/537.36",WebKit,Chrome,86.0.4240.198,Windows,10
22,1,null,"""",image-keyboard-response,113,98083,0.0-113.0,jspsych/neutralFaces/AM27NES.JPG,"""",null,100,16,backwardMask,"""","""",11/20/2020 19:11,69.125.145.27,"Mozilla/5.0 (Windows NT 10.0; Win64; x64) AppleWebKit/537.36 (KHTML, like Gecko) Chrome/86.0.4240.198 Safari/537.36",WebKit,Chrome,86.0.4240.198,Windows,10
22,1,null,"""",html-keyboard-response,114,98286,0.0-114.0,"<div style=""font-size:60px;"">+</div>","""",null,200,16,fixationBtwnNeutralMaskAndPrompt,"""","""",11/20/2020 19:11,69.125.145.27,"Mozilla/5.0 (Windows NT 10.0; Win64; x64) AppleWebKit/537.36 (KHTML, like Gecko) Chrome/86.0.4240.198 Safari/537.36",WebKit,Chrome,86.0.4240.198,Windows,10
22,1,294.335,"""",html-keyboard-response,115,98582,0.0-115.0,"<p> Did you see the ""hidden"" face? Press <b>0</b> if you did <i>not</i>, <b>1</b> if you <i>did</i>. </p>","""",49,"""",16,Query,"""",1,11/20/2020 19:11,69.125.145.27,"Mozilla/5.0 (Windows NT 10.0; Win64; x64) AppleWebKit/537.36 (KHTML, like Gecko) Chrome/86.0.4240.198 Safari/537.36",WebKit,Chrome,86.0.4240.198,Windows,10
22,1,236.6750001,"""",html-keyboard-response,116,98819,0.0-116.0,"<p> What was the emotion of the hidden face? Go with your gut if you are not certain. <br> Press, <b>0</b> for <i>neutral face</i> or <b>1</b> for <i>disgust face</i></p>","""",49,"""",16,Query,"""",1,11/20/2020 19:11,69.125.145.27,"Mozilla/5.0 (Windows NT 10.0; Win64; x64) AppleWebKit/537.36 (KHTML, like Gecko) Chrome/86.0.4240.198 Safari/537.36",WebKit,Chrome,86.0.4240.198,Windows,10
22,1,null,"""",html-keyboard-response,117,99828,0.0-117.0,"<div style=""font-size:60px;"">+</div>","""",null,1000,17,ITI,"""","""",11/20/2020 19:11,69.125.145.27,"Mozilla/5.0 (Windows NT 10.0; Win64; x64) AppleWebKit/537.36 (KHTML, like Gecko) Chrome/86.0.4240.198 Safari/537.36",WebKit,Chrome,86.0.4240.198,Windows,10
22,1,null,"""",image-keyboard-response,118,100086,0.0-118.0,jspsych/scrambledNeutralFaces/scrambledBM28NES.JPG,"""",null,250,17,forwardMask,0,"""",11/20/2020 19:11,69.125.145.27,"Mozilla/5.0 (Windows NT 10.0; Win64; x64) AppleWebKit/537.36 (KHTML, like Gecko) Chrome/86.0.4240.198 Safari/537.36",WebKit,Chrome,86.0.4240.198,Windows,10
22,1,null,"""",image-keyboard-response,119,100198,0.0-119.0,jspsych/neutralFaces/BM28NES.JPG,"""",null,104,17,Cue,"""","""",11/20/2020 19:11,69.125.145.27,"Mozilla/5.0 (Windows NT 10.0; Win64; x64) AppleWebKit/537.36 (KHTML, like Gecko) Chrome/86.0.4240.198 Safari/537.36",WebKit,Chrome,86.0.4240.198,Windows,10
22,1,null,"""",image-keyboard-response,120,100305,0.0-120.0,jspsych/neutralFaces/AM09NES.JPG,"""",null,100,17,backwardMask,"""","""",11/20/2020 19:11,69.125.145.27,"Mozilla/5.0 (Windows NT 10.0; Win64; x64) AppleWebKit/537.36 (KHTML, like Gecko) Chrome/86.0.4240.198 Safari/537.36",WebKit,Chrome,86.0.4240.198,Windows,10
22,1,null,"""",html-keyboard-response,121,100515,0.0-121.0,"<div style=""font-size:60px;"">+</div>","""",null,200,17,fixationBtwnNeutralMaskAndPrompt,"""","""",11/20/2020 19:11,69.125.145.27,"Mozilla/5.0 (Windows NT 10.0; Win64; x64) AppleWebKit/537.36 (KHTML, like Gecko) Chrome/86.0.4240.198 Safari/537.36",WebKit,Chrome,86.0.4240.198,Windows,10
22,1,562.78,"""",html-keyboard-response,122,101079,0.0-122.0,"<p> Did you see the ""hidden"" face? Press <b>0</b> if you did <i>not</i>, <b>1</b> if you <i>did</i>. </p>","""",48,"""",17,Query,"""",0,11/20/2020 19:11,69.125.145.27,"Mozilla/5.0 (Windows NT 10.0; Win64; x64) AppleWebKit/537.36 (KHTML, like Gecko) Chrome/86.0.4240.198 Safari/537.36",WebKit,Chrome,86.0.4240.198,Windows,10
22,1,204.74,"""",html-keyboard-response,123,101285,0.0-123.0,"<p> What was the emotion of the hidden face? Go with your gut if you are not certain. <br> Press, <b>0</b> for <i>neutral face</i> or <b>1</b> for <i>disgust face</i></p>","""",48,"""",17,Query,"""",0,11/20/2020 19:11,69.125.145.27,"Mozilla/5.0 (Windows NT 10.0; Win64; x64) AppleWebKit/537.36 (KHTML, like Gecko) Chrome/86.0.4240.198 Safari/537.36",WebKit,Chrome,86.0.4240.198,Windows,10
22,1,null,"""",html-keyboard-response,124,102295,0.0-124.0,"<div style=""font-size:60px;"">+</div>","""",null,1000,18,ITI,"""","""",11/20/2020 19:11,69.125.145.27,"Mozilla/5.0 (Windows NT 10.0; Win64; x64) AppleWebKit/537.36 (KHTML, like Gecko) Chrome/86.0.4240.198 Safari/537.36",WebKit,Chrome,86.0.4240.198,Windows,10
22,1,null,"""",image-keyboard-response,125,102549,0.0-125.0,jspsych/scrambledDisgustFaces/scrambledBM32DIS.JPG,"""",null,250,18,forwardMask,1,"""",11/20/2020 19:11,69.125.145.27,"Mozilla/5.0 (Windows NT 10.0; Win64; x64) AppleWebKit/537.36 (KHTML, like Gecko) Chrome/86.0.4240.198 Safari/537.36",WebKit,Chrome,86.0.4240.198,Windows,10
22,1,null,"""",image-keyboard-response,126,102611,0.0-126.0,jspsych/disgustFaces/BM32DIS.JPG,"""",null,49,18,Cue,"""","""",11/20/2020 19:11,69.125.145.27,"Mozilla/5.0 (Windows NT 10.0; Win64; x64) AppleWebKit/537.36 (KHTML, like Gecko) Chrome/86.0.4240.198 Safari/537.36",WebKit,Chrome,86.0.4240.198,Windows,10
22,1,null,"""",image-keyboard-response,127,102714,0.0-127.0,jspsych/neutralFaces/AF11NES.JPG,"""",null,100,18,backwardMask,"""","""",11/20/2020 19:11,69.125.145.27,"Mozilla/5.0 (Windows NT 10.0; Win64; x64) AppleWebKit/537.36 (KHTML, like Gecko) Chrome/86.0.4240.198 Safari/537.36",WebKit,Chrome,86.0.4240.198,Windows,10
22,1,null,"""",html-keyboard-response,128,102917,0.0-128.0,"<div style=""font-size:60px;"">+</div>","""",null,200,18,fixationBtwnNeutralMaskAndPrompt,"""","""",11/20/2020 19:11,69.125.145.27,"Mozilla/5.0 (Windows NT 10.0; Win64; x64) AppleWebKit/537.36 (KHTML, like Gecko) Chrome/86.0.4240.198 Safari/537.36",WebKit,Chrome,86.0.4240.198,Windows,10
22,1,388.075,"""",html-keyboard-response,129,103306,0.0-129.0,"<p> Did you see the ""hidden"" face? Press <b>0</b> if you did <i>not</i>, <b>1</b> if you <i>did</i>. </p>","""",48,"""",18,Query,"""",0,11/20/2020 19:11,69.125.145.27,"Mozilla/5.0 (Windows NT 10.0; Win64; x64) AppleWebKit/537.36 (KHTML, like Gecko) Chrome/86.0.4240.198 Safari/537.36",WebKit,Chrome,86.0.4240.198,Windows,10
22,1,201.725,"""",html-keyboard-response,130,103509,0.0-130.0,"<p> What was the emotion of the hidden face? Go with your gut if you are not certain. <br> Press, <b>0</b> for <i>neutral face</i> or <b>1</b> for <i>disgust face</i></p>","""",48,"""",18,Query,"""",0,11/20/2020 19:11,69.125.145.27,"Mozilla/5.0 (Windows NT 10.0; Win64; x64) AppleWebKit/537.36 (KHTML, like Gecko) Chrome/86.0.4240.198 Safari/537.36",WebKit,Chrome,86.0.4240.198,Windows,10
22,1,null,"""",html-keyboard-response,131,104510,0.0-131.0,"<div style=""font-size:60px;"">+</div>","""",null,1000,19,ITI,"""","""",11/20/2020 19:11,69.125.145.27,"Mozilla/5.0 (Windows NT 10.0; Win64; x64) AppleWebKit/537.36 (KHTML, like Gecko) Chrome/86.0.4240.198 Safari/537.36",WebKit,Chrome,86.0.4240.198,Windows,10
22,1,null,"""",image-keyboard-response,132,104775,0.0-132.0,jspsych/scrambledDisgustFaces/scrambledAF26DIS.JPG,"""",null,250,19,forwardMask,1,"""",11/20/2020 19:11,69.125.145.27,"Mozilla/5.0 (Windows NT 10.0; Win64; x64) AppleWebKit/537.36 (KHTML, like Gecko) Chrome/86.0.4240.198 Safari/537.36",WebKit,Chrome,86.0.4240.198,Windows,10
22,1,null,"""",image-keyboard-response,133,104846,0.0-133.0,jspsych/disgustFaces/AF26DIS.JPG,"""",null,66,19,Cue,"""","""",11/20/2020 19:11,69.125.145.27,"Mozilla/5.0 (Windows NT 10.0; Win64; x64) AppleWebKit/537.36 (KHTML, like Gecko) Chrome/86.0.4240.198 Safari/537.36",WebKit,Chrome,86.0.4240.198,Windows,10
22,1,null,"""",image-keyboard-response,134,104953,0.0-134.0,jspsych/neutralFaces/AM02NES.JPG,"""",null,100,19,backwardMask,"""","""",11/20/2020 19:11,69.125.145.27,"Mozilla/5.0 (Windows NT 10.0; Win64; x64) AppleWebKit/537.36 (KHTML, like Gecko) Chrome/86.0.4240.198 Safari/537.36",WebKit,Chrome,86.0.4240.198,Windows,10
22,1,null,"""",html-keyboard-response,135,105155,0.0-135.0,"<div style=""font-size:60px;"">+</div>","""",null,200,19,fixationBtwnNeutralMaskAndPrompt,"""","""",11/20/2020 19:11,69.125.145.27,"Mozilla/5.0 (Windows NT 10.0; Win64; x64) AppleWebKit/537.36 (KHTML, like Gecko) Chrome/86.0.4240.198 Safari/537.36",WebKit,Chrome,86.0.4240.198,Windows,10
22,1,621.76,"""",html-keyboard-response,136,105778,0.0-136.0,"<p> Did you see the ""hidden"" face? Press <b>0</b> if you did <i>not</i>, <b>1</b> if you <i>did</i>. </p>","""",49,"""",19,Query,"""",1,11/20/2020 19:11,69.125.145.27,"Mozilla/5.0 (Windows NT 10.0; Win64; x64) AppleWebKit/537.36 (KHTML, like Gecko) Chrome/86.0.4240.198 Safari/537.36",WebKit,Chrome,86.0.4240.198,Windows,10
22,1,222.17,"""",html-keyboard-response,137,106004,0.0-137.0,"<p> What was the emotion of the hidden face? Go with your gut if you are not certain. <br> Press, <b>0</b> for <i>neutral face</i> or <b>1</b> for <i>disgust face</i></p>","""",49,"""",19,Query,"""",1,11/20/2020 19:11,69.125.145.27,"Mozilla/5.0 (Windows NT 10.0; Win64; x64) AppleWebKit/537.36 (KHTML, like Gecko) Chrome/86.0.4240.198 Safari/537.36",WebKit,Chrome,86.0.4240.198,Windows,10
22,1,null,"""",html-keyboard-response,138,107017,0.0-138.0,"<div style=""font-size:60px;"">+</div>","""",null,1000,20,ITI,"""","""",11/20/2020 19:11,69.125.145.27,"Mozilla/5.0 (Windows NT 10.0; Win64; x64) AppleWebKit/537.36 (KHTML, like Gecko) Chrome/86.0.4240.198 Safari/537.36",WebKit,Chrome,86.0.4240.198,Windows,10
22,1,null,"""",image-keyboard-response,139,107272,0.0-139.0,jspsych/scrambledNeutralFaces/scrambledAM33NES.JPG,"""",null,250,20,forwardMask,0,"""",11/20/2020 19:11,69.125.145.27,"Mozilla/5.0 (Windows NT 10.0; Win64; x64) AppleWebKit/537.36 (KHTML, like Gecko) Chrome/86.0.4240.198 Safari/537.36",WebKit,Chrome,86.0.4240.198,Windows,10
22,1,null,"""",image-keyboard-response,140,107419,0.0-140.0,jspsych/neutralFaces/AM33NES.JPG,"""",null,136,20,Cue,"""","""",11/20/2020 19:11,69.125.145.27,"Mozilla/5.0 (Windows NT 10.0; Win64; x64) AppleWebKit/537.36 (KHTML, like Gecko) Chrome/86.0.4240.198 Safari/537.36",WebKit,Chrome,86.0.4240.198,Windows,10
22,1,null,"""",image-keyboard-response,141,107525,0.0-141.0,jspsych/neutralFaces/BM35NES.JPG,"""",null,100,20,backwardMask,"""","""",11/20/2020 19:11,69.125.145.27,"Mozilla/5.0 (Windows NT 10.0; Win64; x64) AppleWebKit/537.36 (KHTML, like Gecko) Chrome/86.0.4240.198 Safari/537.36",WebKit,Chrome,86.0.4240.198,Windows,10
22,1,null,"""",html-keyboard-response,142,107734,0.0-142.0,"<div style=""font-size:60px;"">+</div>","""",null,200,20,fixationBtwnNeutralMaskAndPrompt,"""","""",11/20/2020 19:11,69.125.145.27,"Mozilla/5.0 (Windows NT 10.0; Win64; x64) AppleWebKit/537.36 (KHTML, like Gecko) Chrome/86.0.4240.198 Safari/537.36",WebKit,Chrome,86.0.4240.198,Windows,10
22,1,265.195,"""",html-keyboard-response,143,108000,0.0-143.0,"<p> Did you see the ""hidden"" face? Press <b>0</b> if you did <i>not</i>, <b>1</b> if you <i>did</i>. </p>","""",48,"""",20,Query,"""",0,11/20/2020 19:11,69.125.145.27,"Mozilla/5.0 (Windows NT 10.0; Win64; x64) AppleWebKit/537.36 (KHTML, like Gecko) Chrome/86.0.4240.198 Safari/537.36",WebKit,Chrome,86.0.4240.198,Windows,10
22,1,205,"""",html-keyboard-response,144,108206,0.0-144.0,"<p> What was the emotion of the hidden face? Go with your gut if you are not certain. <br> Press, <b>0</b> for <i>neutral face</i> or <b>1</b> for <i>disgust face</i></p>","""",48,"""",20,Query,"""",0,11/20/2020 19:11,69.125.145.27,"Mozilla/5.0 (Windows NT 10.0; Win64; x64) AppleWebKit/537.36 (KHTML, like Gecko) Chrome/86.0.4240.198 Safari/537.36",WebKit,Chrome,86.0.4240.198,Windows,10
22,1,null,"""",html-keyboard-response,145,109209,0.0-145.0,"<div style=""font-size:60px;"">+</div>","""",null,1000,21,ITI,"""","""",11/20/2020 19:11,69.125.145.27,"Mozilla/5.0 (Windows NT 10.0; Win64; x64) AppleWebKit/537.36 (KHTML, like Gecko) Chrome/86.0.4240.198 Safari/537.36",WebKit,Chrome,86.0.4240.198,Windows,10
22,1,null,"""",image-keyboard-response,146,109467,0.0-146.0,jspsych/scrambledDisgustFaces/scrambledBF10DIS.JPG,"""",null,250,21,forwardMask,1,"""",11/20/2020 19:11,69.125.145.27,"Mozilla/5.0 (Windows NT 10.0; Win64; x64) AppleWebKit/537.36 (KHTML, like Gecko) Chrome/86.0.4240.198 Safari/537.36",WebKit,Chrome,86.0.4240.198,Windows,10
22,1,null,"""",image-keyboard-response,147,109493,0.0-147.0,jspsych/disgustFaces/BF10DIS.JPG,"""",null,16,21,Cue,"""","""",11/20/2020 19:11,69.125.145.27,"Mozilla/5.0 (Windows NT 10.0; Win64; x64) AppleWebKit/537.36 (KHTML, like Gecko) Chrome/86.0.4240.198 Safari/537.36",WebKit,Chrome,86.0.4240.198,Windows,10
22,1,null,"""",image-keyboard-response,148,109606,0.0-148.0,jspsych/neutralFaces/BF01NES.JPG,"""",null,100,21,backwardMask,"""","""",11/20/2020 19:11,69.125.145.27,"Mozilla/5.0 (Windows NT 10.0; Win64; x64) AppleWebKit/537.36 (KHTML, like Gecko) Chrome/86.0.4240.198 Safari/537.36",WebKit,Chrome,86.0.4240.198,Windows,10
22,1,null,"""",html-keyboard-response,149,109808,0.0-149.0,"<div style=""font-size:60px;"">+</div>","""",null,200,21,fixationBtwnNeutralMaskAndPrompt,"""","""",11/20/2020 19:11,69.125.145.27,"Mozilla/5.0 (Windows NT 10.0; Win64; x64) AppleWebKit/537.36 (KHTML, like Gecko) Chrome/86.0.4240.198 Safari/537.36",WebKit,Chrome,86.0.4240.198,Windows,10
22,1,715.78,"""",html-keyboard-response,150,110525,0.0-150.0,"<p> Did you see the ""hidden"" face? Press <b>0</b> if you did <i>not</i>, <b>1</b> if you <i>did</i>. </p>","""",48,"""",21,Query,"""",0,11/20/2020 19:11,69.125.145.27,"Mozilla/5.0 (Windows NT 10.0; Win64; x64) AppleWebKit/537.36 (KHTML, like Gecko) Chrome/86.0.4240.198 Safari/537.36",WebKit,Chrome,86.0.4240.198,Windows,10
22,1,126.32,"""",html-keyboard-response,151,110652,0.0-151.0,"<p> What was the emotion of the hidden face? Go with your gut if you are not certain. <br> Press, <b>0</b> for <i>neutral face</i> or <b>1</b> for <i>disgust face</i></p>","""",49,"""",21,Query,"""",1,11/20/2020 19:11,69.125.145.27,"Mozilla/5.0 (Windows NT 10.0; Win64; x64) AppleWebKit/537.36 (KHTML, like Gecko) Chrome/86.0.4240.198 Safari/537.36",WebKit,Chrome,86.0.4240.198,Windows,10
22,1,null,"""",html-keyboard-response,152,111657,0.0-152.0,"<div style=""font-size:60px;"">+</div>","""",null,1000,22,ITI,"""","""",11/20/2020 19:11,69.125.145.27,"Mozilla/5.0 (Windows NT 10.0; Win64; x64) AppleWebKit/537.36 (KHTML, like Gecko) Chrome/86.0.4240.198 Safari/537.36",WebKit,Chrome,86.0.4240.198,Windows,10
22,1,null,"""",image-keyboard-response,153,111918,0.0-153.0,jspsych/scrambledNeutralFaces/scrambledBM11NES.JPG,"""",null,250,22,forwardMask,0,"""",11/20/2020 19:11,69.125.145.27,"Mozilla/5.0 (Windows NT 10.0; Win64; x64) AppleWebKit/537.36 (KHTML, like Gecko) Chrome/86.0.4240.198 Safari/537.36",WebKit,Chrome,86.0.4240.198,Windows,10
22,1,null,"""",image-keyboard-response,154,112067,0.0-154.0,jspsych/neutralFaces/BM11NES.JPG,"""",null,136,22,Cue,"""","""",11/20/2020 19:11,69.125.145.27,"Mozilla/5.0 (Windows NT 10.0; Win64; x64) AppleWebKit/537.36 (KHTML, like Gecko) Chrome/86.0.4240.198 Safari/537.36",WebKit,Chrome,86.0.4240.198,Windows,10
22,1,null,"""",image-keyboard-response,155,112172,0.0-155.0,jspsych/neutralFaces/BF20NES.JPG,"""",null,100,22,backwardMask,"""","""",11/20/2020 19:11,69.125.145.27,"Mozilla/5.0 (Windows NT 10.0; Win64; x64) AppleWebKit/537.36 (KHTML, like Gecko) Chrome/86.0.4240.198 Safari/537.36",WebKit,Chrome,86.0.4240.198,Windows,10
22,1,null,"""",html-keyboard-response,156,112380,0.0-156.0,"<div style=""font-size:60px;"">+</div>","""",null,200,22,fixationBtwnNeutralMaskAndPrompt,"""","""",11/20/2020 19:11,69.125.145.27,"Mozilla/5.0 (Windows NT 10.0; Win64; x64) AppleWebKit/537.36 (KHTML, like Gecko) Chrome/86.0.4240.198 Safari/537.36",WebKit,Chrome,86.0.4240.198,Windows,10
22,1,451.445,"""",html-keyboard-response,157,112832,0.0-157.0,"<p> Did you see the ""hidden"" face? Press <b>0</b> if you did <i>not</i>, <b>1</b> if you <i>did</i>. </p>","""",48,"""",22,Query,"""",0,11/20/2020 19:11,69.125.145.27,"Mozilla/5.0 (Windows NT 10.0; Win64; x64) AppleWebKit/537.36 (KHTML, like Gecko) Chrome/86.0.4240.198 Safari/537.36",WebKit,Chrome,86.0.4240.198,Windows,10
22,1,290.685,"""",html-keyboard-response,158,113124,0.0-158.0,"<p> What was the emotion of the hidden face? Go with your gut if you are not certain. <br> Press, <b>0</b> for <i>neutral face</i> or <b>1</b> for <i>disgust face</i></p>","""",48,"""",22,Query,"""",0,11/20/2020 19:11,69.125.145.27,"Mozilla/5.0 (Windows NT 10.0; Win64; x64) AppleWebKit/537.36 (KHTML, like Gecko) Chrome/86.0.4240.198 Safari/537.36",WebKit,Chrome,86.0.4240.198,Windows,10
22,1,null,"""",html-keyboard-response,159,114626,0.0-159.0,Almost Done! 75% Complete,"""",null,1500,23,encouragement,"""","""",11/20/2020 19:11,69.125.145.27,"Mozilla/5.0 (Windows NT 10.0; Win64; x64) AppleWebKit/537.36 (KHTML, like Gecko) Chrome/86.0.4240.198 Safari/537.36",WebKit,Chrome,86.0.4240.198,Windows,10
22,1,null,"""",html-keyboard-response,160,115629,0.0-160.0,"<div style=""font-size:60px;"">+</div>","""",null,1000,23,ITI,"""","""",11/20/2020 19:11,69.125.145.27,"Mozilla/5.0 (Windows NT 10.0; Win64; x64) AppleWebKit/537.36 (KHTML, like Gecko) Chrome/86.0.4240.198 Safari/537.36",WebKit,Chrome,86.0.4240.198,Windows,10
22,1,null,"""",image-keyboard-response,161,115894,0.0-161.0,jspsych/scrambledDisgustFaces/scrambledBM23DIS.JPG,"""",null,250,23,forwardMask,1,"""",11/20/2020 19:11,69.125.145.27,"Mozilla/5.0 (Windows NT 10.0; Win64; x64) AppleWebKit/537.36 (KHTML, like Gecko) Chrome/86.0.4240.198 Safari/537.36",WebKit,Chrome,86.0.4240.198,Windows,10
22,1,null,"""",image-keyboard-response,162,115929,0.0-162.0,jspsych/disgustFaces/BM23DIS.JPG,"""",null,33,23,Cue,"""","""",11/20/2020 19:11,69.125.145.27,"Mozilla/5.0 (Windows NT 10.0; Win64; x64) AppleWebKit/537.36 (KHTML, like Gecko) Chrome/86.0.4240.198 Safari/537.36",WebKit,Chrome,86.0.4240.198,Windows,10
22,1,null,"""",image-keyboard-response,163,116033,0.0-163.0,jspsych/neutralFaces/BF13NES.JPG,"""",null,100,23,backwardMask,"""","""",11/20/2020 19:11,69.125.145.27,"Mozilla/5.0 (Windows NT 10.0; Win64; x64) AppleWebKit/537.36 (KHTML, like Gecko) Chrome/86.0.4240.198 Safari/537.36",WebKit,Chrome,86.0.4240.198,Windows,10
22,1,null,"""",html-keyboard-response,164,116245,0.0-164.0,"<div style=""font-size:60px;"">+</div>","""",null,200,23,fixationBtwnNeutralMaskAndPrompt,"""","""",11/20/2020 19:11,69.125.145.27,"Mozilla/5.0 (Windows NT 10.0; Win64; x64) AppleWebKit/537.36 (KHTML, like Gecko) Chrome/86.0.4240.198 Safari/537.36",WebKit,Chrome,86.0.4240.198,Windows,10
22,1,354.185,"""",html-keyboard-response,165,116600,0.0-165.0,"<p> Did you see the ""hidden"" face? Press <b>0</b> if you did <i>not</i>, <b>1</b> if you <i>did</i>. </p>","""",48,"""",23,Query,"""",0,11/20/2020 19:11,69.125.145.27,"Mozilla/5.0 (Windows NT 10.0; Win64; x64) AppleWebKit/537.36 (KHTML, like Gecko) Chrome/86.0.4240.198 Safari/537.36",WebKit,Chrome,86.0.4240.198,Windows,10
22,1,204.88,"""",html-keyboard-response,166,116806,0.0-166.0,"<p> What was the emotion of the hidden face? Go with your gut if you are not certain. <br> Press, <b>0</b> for <i>neutral face</i> or <b>1</b> for <i>disgust face</i></p>","""",48,"""",23,Query,"""",0,11/20/2020 19:11,69.125.145.27,"Mozilla/5.0 (Windows NT 10.0; Win64; x64) AppleWebKit/537.36 (KHTML, like Gecko) Chrome/86.0.4240.198 Safari/537.36",WebKit,Chrome,86.0.4240.198,Windows,10
22,1,null,"""",html-keyboard-response,167,117813,0.0-167.0,"<div style=""font-size:60px;"">+</div>","""",null,1000,24,ITI,"""","""",11/20/2020 19:11,69.125.145.27,"Mozilla/5.0 (Windows NT 10.0; Win64; x64) AppleWebKit/537.36 (KHTML, like Gecko) Chrome/86.0.4240.198 Safari/537.36",WebKit,Chrome,86.0.4240.198,Windows,10
22,1,null,"""",image-keyboard-response,168,118066,0.0-168.0,jspsych/scrambledDisgustFaces/scrambledAF27DIS.JPG,"""",null,250,24,forwardMask,1,"""",11/20/2020 19:11,69.125.145.27,"Mozilla/5.0 (Windows NT 10.0; Win64; x64) AppleWebKit/537.36 (KHTML, like Gecko) Chrome/86.0.4240.198 Safari/537.36",WebKit,Chrome,86.0.4240.198,Windows,10
22,1,null,"""",image-keyboard-response,169,118176,0.0-169.0,jspsych/disgustFaces/AF27DIS.JPG,"""",null,104,24,Cue,"""","""",11/20/2020 19:11,69.125.145.27,"Mozilla/5.0 (Windows NT 10.0; Win64; x64) AppleWebKit/537.36 (KHTML, like Gecko) Chrome/86.0.4240.198 Safari/537.36",WebKit,Chrome,86.0.4240.198,Windows,10
22,1,null,"""",image-keyboard-response,170,118283,0.0-170.0,jspsych/neutralFaces/AF32NES.JPG,"""",null,100,24,backwardMask,"""","""",11/20/2020 19:11,69.125.145.27,"Mozilla/5.0 (Windows NT 10.0; Win64; x64) AppleWebKit/537.36 (KHTML, like Gecko) Chrome/86.0.4240.198 Safari/537.36",WebKit,Chrome,86.0.4240.198,Windows,10
22,1,null,"""",html-keyboard-response,171,118495,0.0-171.0,"<div style=""font-size:60px;"">+</div>","""",null,200,24,fixationBtwnNeutralMaskAndPrompt,"""","""",11/20/2020 19:11,69.125.145.27,"Mozilla/5.0 (Windows NT 10.0; Win64; x64) AppleWebKit/537.36 (KHTML, like Gecko) Chrome/86.0.4240.198 Safari/537.36",WebKit,Chrome,86.0.4240.198,Windows,10
22,1,1483.63,"""",html-keyboard-response,172,119984,0.0-172.0,"<p> Did you see the ""hidden"" face? Press <b>0</b> if you did <i>not</i>, <b>1</b> if you <i>did</i>. </p>","""",49,"""",24,Query,"""",1,11/20/2020 19:11,69.125.145.27,"Mozilla/5.0 (Windows NT 10.0; Win64; x64) AppleWebKit/537.36 (KHTML, like Gecko) Chrome/86.0.4240.198 Safari/537.36",WebKit,Chrome,86.0.4240.198,Windows,10
22,1,181.585,"""",html-keyboard-response,173,120166,0.0-173.0,"<p> What was the emotion of the hidden face? Go with your gut if you are not certain. <br> Press, <b>0</b> for <i>neutral face</i> or <b>1</b> for <i>disgust face</i></p>","""",49,"""",24,Query,"""",1,11/20/2020 19:11,69.125.145.27,"Mozilla/5.0 (Windows NT 10.0; Win64; x64) AppleWebKit/537.36 (KHTML, like Gecko) Chrome/86.0.4240.198 Safari/537.36",WebKit,Chrome,86.0.4240.198,Windows,10
22,1,null,"""",html-keyboard-response,174,121173,0.0-174.0,"<div style=""font-size:60px;"">+</div>","""",null,1000,25,ITI,"""","""",11/20/2020 19:11,69.125.145.27,"Mozilla/5.0 (Windows NT 10.0; Win64; x64) AppleWebKit/537.36 (KHTML, like Gecko) Chrome/86.0.4240.198 Safari/537.36",WebKit,Chrome,86.0.4240.198,Windows,10
22,1,null,"""",image-keyboard-response,175,121431,0.0-175.0,jspsych/scrambledDisgustFaces/scrambledBM25DIS.JPG,"""",null,250,25,forwardMask,1,"""",11/20/2020 19:11,69.125.145.27,"Mozilla/5.0 (Windows NT 10.0; Win64; x64) AppleWebKit/537.36 (KHTML, like Gecko) Chrome/86.0.4240.198 Safari/537.36",WebKit,Chrome,86.0.4240.198,Windows,10
22,1,null,"""",image-keyboard-response,176,121454,0.0-176.0,jspsych/disgustFaces/BM25DIS.JPG,"""",null,16,25,Cue,"""","""",11/20/2020 19:11,69.125.145.27,"Mozilla/5.0 (Windows NT 10.0; Win64; x64) AppleWebKit/537.36 (KHTML, like Gecko) Chrome/86.0.4240.198 Safari/537.36",WebKit,Chrome,86.0.4240.198,Windows,10
22,1,null,"""",image-keyboard-response,177,121564,0.0-177.0,jspsych/neutralFaces/BM21NES.JPG,"""",null,100,25,backwardMask,"""","""",11/20/2020 19:11,69.125.145.27,"Mozilla/5.0 (Windows NT 10.0; Win64; x64) AppleWebKit/537.36 (KHTML, like Gecko) Chrome/86.0.4240.198 Safari/537.36",WebKit,Chrome,86.0.4240.198,Windows,10
22,1,null,"""",html-keyboard-response,178,121776,0.0-178.0,"<div style=""font-size:60px;"">+</div>","""",null,200,25,fixationBtwnNeutralMaskAndPrompt,"""","""",11/20/2020 19:11,69.125.145.27,"Mozilla/5.0 (Windows NT 10.0; Win64; x64) AppleWebKit/537.36 (KHTML, like Gecko) Chrome/86.0.4240.198 Safari/537.36",WebKit,Chrome,86.0.4240.198,Windows,10
22,1,548.44,"""",html-keyboard-response,179,122326,0.0-179.0,"<p> Did you see the ""hidden"" face? Press <b>0</b> if you did <i>not</i>, <b>1</b> if you <i>did</i>. </p>","""",48,"""",25,Query,"""",0,11/20/2020 19:11,69.125.145.27,"Mozilla/5.0 (Windows NT 10.0; Win64; x64) AppleWebKit/537.36 (KHTML, like Gecko) Chrome/86.0.4240.198 Safari/537.36",WebKit,Chrome,86.0.4240.198,Windows,10
22,1,264.185,"""",html-keyboard-response,180,122591,0.0-180.0,"<p> What was the emotion of the hidden face? Go with your gut if you are not certain. <br> Press, <b>0</b> for <i>neutral face</i> or <b>1</b> for <i>disgust face</i></p>","""",49,"""",25,Query,"""",1,11/20/2020 19:11,69.125.145.27,"Mozilla/5.0 (Windows NT 10.0; Win64; x64) AppleWebKit/537.36 (KHTML, like Gecko) Chrome/86.0.4240.198 Safari/537.36",WebKit,Chrome,86.0.4240.198,Windows,10
22,1,null,"""",html-keyboard-response,181,123603,0.0-181.0,"<div style=""font-size:60px;"">+</div>","""",null,1000,26,ITI,"""","""",11/20/2020 19:11,69.125.145.27,"Mozilla/5.0 (Windows NT 10.0; Win64; x64) AppleWebKit/537.36 (KHTML, like Gecko) Chrome/86.0.4240.198 Safari/537.36",WebKit,Chrome,86.0.4240.198,Windows,10
22,1,null,"""",image-keyboard-response,182,123856,0.0-182.0,jspsych/scrambledNeutralFaces/scrambledAF12NES.JPG,"""",null,250,26,forwardMask,0,"""",11/20/2020 19:11,69.125.145.27,"Mozilla/5.0 (Windows NT 10.0; Win64; x64) AppleWebKit/537.36 (KHTML, like Gecko) Chrome/86.0.4240.198 Safari/537.36",WebKit,Chrome,86.0.4240.198,Windows,10
22,1,null,"""",image-keyboard-response,183,123913,0.0-183.0,jspsych/neutralFaces/AF12NES.JPG,"""",null,49,26,Cue,"""","""",11/20/2020 19:11,69.125.145.27,"Mozilla/5.0 (Windows NT 10.0; Win64; x64) AppleWebKit/537.36 (KHTML, like Gecko) Chrome/86.0.4240.198 Safari/537.36",WebKit,Chrome,86.0.4240.198,Windows,10
22,1,null,"""",image-keyboard-response,184,124019,0.0-184.0,jspsych/neutralFaces/BF33NES.JPG,"""",null,100,26,backwardMask,"""","""",11/20/2020 19:11,69.125.145.27,"Mozilla/5.0 (Windows NT 10.0; Win64; x64) AppleWebKit/537.36 (KHTML, like Gecko) Chrome/86.0.4240.198 Safari/537.36",WebKit,Chrome,86.0.4240.198,Windows,10
22,1,null,"""",html-keyboard-response,185,124221,0.0-185.0,"<div style=""font-size:60px;"">+</div>","""",null,200,26,fixationBtwnNeutralMaskAndPrompt,"""","""",11/20/2020 19:11,69.125.145.27,"Mozilla/5.0 (Windows NT 10.0; Win64; x64) AppleWebKit/537.36 (KHTML, like Gecko) Chrome/86.0.4240.198 Safari/537.36",WebKit,Chrome,86.0.4240.198,Windows,10
22,1,1154.01,"""",html-keyboard-response,186,125380,0.0-186.0,"<p> Did you see the ""hidden"" face? Press <b>0</b> if you did <i>not</i>, <b>1</b> if you <i>did</i>. </p>","""",48,"""",26,Query,"""",0,11/20/2020 19:11,69.125.145.27,"Mozilla/5.0 (Windows NT 10.0; Win64; x64) AppleWebKit/537.36 (KHTML, like Gecko) Chrome/86.0.4240.198 Safari/537.36",WebKit,Chrome,86.0.4240.198,Windows,10
22,1,158.365,"""",html-keyboard-response,187,125539,0.0-187.0,"<p> What was the emotion of the hidden face? Go with your gut if you are not certain. <br> Press, <b>0</b> for <i>neutral face</i> or <b>1</b> for <i>disgust face</i></p>","""",48,"""",26,Query,"""",0,11/20/2020 19:11,69.125.145.27,"Mozilla/5.0 (Windows NT 10.0; Win64; x64) AppleWebKit/537.36 (KHTML, like Gecko) Chrome/86.0.4240.198 Safari/537.36",WebKit,Chrome,86.0.4240.198,Windows,10
22,1,null,"""",html-keyboard-response,188,126543,0.0-188.0,"<div style=""font-size:60px;"">+</div>","""",null,1000,27,ITI,"""","""",11/20/2020 19:11,69.125.145.27,"Mozilla/5.0 (Windows NT 10.0; Win64; x64) AppleWebKit/537.36 (KHTML, like Gecko) Chrome/86.0.4240.198 Safari/537.36",WebKit,Chrome,86.0.4240.198,Windows,10
22,1,null,"""",image-keyboard-response,189,126802,0.0-189.0,jspsych/scrambledDisgustFaces/scrambledAM16DIS.JPG,"""",null,250,27,forwardMask,1,"""",11/20/2020 19:11,69.125.145.27,"Mozilla/5.0 (Windows NT 10.0; Win64; x64) AppleWebKit/537.36 (KHTML, like Gecko) Chrome/86.0.4240.198 Safari/537.36",WebKit,Chrome,86.0.4240.198,Windows,10
22,1,null,"""",image-keyboard-response,190,126823,0.0-190.0,jspsych/disgustFaces/AM16DIS.JPG,"""",null,16,27,Cue,"""","""",11/20/2020 19:11,69.125.145.27,"Mozilla/5.0 (Windows NT 10.0; Win64; x64) AppleWebKit/537.36 (KHTML, like Gecko) Chrome/86.0.4240.198 Safari/537.36",WebKit,Chrome,86.0.4240.198,Windows,10
22,1,null,"""",image-keyboard-response,191,126936,0.0-191.0,jspsych/neutralFaces/AF24NES.JPG,"""",null,100,27,backwardMask,"""","""",11/20/2020 19:11,69.125.145.27,"Mozilla/5.0 (Windows NT 10.0; Win64; x64) AppleWebKit/537.36 (KHTML, like Gecko) Chrome/86.0.4240.198 Safari/537.36",WebKit,Chrome,86.0.4240.198,Windows,10
22,1,null,"""",html-keyboard-response,192,127139,0.0-192.0,"<div style=""font-size:60px;"">+</div>","""",null,200,27,fixationBtwnNeutralMaskAndPrompt,"""","""",11/20/2020 19:11,69.125.145.27,"Mozilla/5.0 (Windows NT 10.0; Win64; x64) AppleWebKit/537.36 (KHTML, like Gecko) Chrome/86.0.4240.198 Safari/537.36",WebKit,Chrome,86.0.4240.198,Windows,10
22,1,640.83,"""",html-keyboard-response,193,127786,0.0-193.0,"<p> Did you see the ""hidden"" face? Press <b>0</b> if you did <i>not</i>, <b>1</b> if you <i>did</i>. </p>","""",48,"""",27,Query,"""",0,11/20/2020 19:11,69.125.145.27,"Mozilla/5.0 (Windows NT 10.0; Win64; x64) AppleWebKit/537.36 (KHTML, like Gecko) Chrome/86.0.4240.198 Safari/537.36",WebKit,Chrome,86.0.4240.198,Windows,10
22,1,153.98,"""",html-keyboard-response,194,127941,0.0-194.0,"<p> What was the emotion of the hidden face? Go with your gut if you are not certain. <br> Press, <b>0</b> for <i>neutral face</i> or <b>1</b> for <i>disgust face</i></p>","""",48,"""",27,Query,"""",0,11/20/2020 19:11,69.125.145.27,"Mozilla/5.0 (Windows NT 10.0; Win64; x64) AppleWebKit/537.36 (KHTML, like Gecko) Chrome/86.0.4240.198 Safari/537.36",WebKit,Chrome,86.0.4240.198,Windows,10
22,1,null,"""",html-keyboard-response,195,128947,0.0-195.0,"<div style=""font-size:60px;"">+</div>","""",null,1000,28,ITI,"""","""",11/20/2020 19:11,69.125.145.27,"Mozilla/5.0 (Windows NT 10.0; Win64; x64) AppleWebKit/537.36 (KHTML, like Gecko) Chrome/86.0.4240.198 Safari/537.36",WebKit,Chrome,86.0.4240.198,Windows,10
22,1,null,"""",image-keyboard-response,196,129203,0.0-196.0,jspsych/scrambledDisgustFaces/scrambledBM09DIS.JPG,"""",null,250,28,forwardMask,1,"""",11/20/2020 19:11,69.125.145.27,"Mozilla/5.0 (Windows NT 10.0; Win64; x64) AppleWebKit/537.36 (KHTML, like Gecko) Chrome/86.0.4240.198 Safari/537.36",WebKit,Chrome,86.0.4240.198,Windows,10
22,1,null,"""",image-keyboard-response,197,129319,0.0-197.0,jspsych/disgustFaces/BM09DIS.JPG,"""",null,104,28,Cue,"""","""",11/20/2020 19:11,69.125.145.27,"Mozilla/5.0 (Windows NT 10.0; Win64; x64) AppleWebKit/537.36 (KHTML, like Gecko) Chrome/86.0.4240.198 Safari/537.36",WebKit,Chrome,86.0.4240.198,Windows,10
22,1,null,"""",image-keyboard-response,198,129431,0.0-198.0,jspsych/neutralFaces/AM11NES.JPG,"""",null,100,28,backwardMask,"""","""",11/20/2020 19:11,69.125.145.27,"Mozilla/5.0 (Windows NT 10.0; Win64; x64) AppleWebKit/537.36 (KHTML, like Gecko) Chrome/86.0.4240.198 Safari/537.36",WebKit,Chrome,86.0.4240.198,Windows,10
22,1,null,"""",html-keyboard-response,199,129635,0.0-199.0,"<div style=""font-size:60px;"">+</div>","""",null,200,28,fixationBtwnNeutralMaskAndPrompt,"""","""",11/20/2020 19:11,69.125.145.27,"Mozilla/5.0 (Windows NT 10.0; Win64; x64) AppleWebKit/537.36 (KHTML, like Gecko) Chrome/86.0.4240.198 Safari/537.36",WebKit,Chrome,86.0.4240.198,Windows,10
22,1,602.255,"""",html-keyboard-response,200,130238,0.0-200.0,"<p> Did you see the ""hidden"" face? Press <b>0</b> if you did <i>not</i>, <b>1</b> if you <i>did</i>. </p>","""",49,"""",28,Query,"""",1,11/20/2020 19:11,69.125.145.27,"Mozilla/5.0 (Windows NT 10.0; Win64; x64) AppleWebKit/537.36 (KHTML, like Gecko) Chrome/86.0.4240.198 Safari/537.36",WebKit,Chrome,86.0.4240.198,Windows,10
22,1,167.505,"""",html-keyboard-response,201,130410,0.0-201.0,"<p> What was the emotion of the hidden face? Go with your gut if you are not certain. <br> Press, <b>0</b> for <i>neutral face</i> or <b>1</b> for <i>disgust face</i></p>","""",49,"""",28,Query,"""",1,11/20/2020 19:11,69.125.145.27,"Mozilla/5.0 (Windows NT 10.0; Win64; x64) AppleWebKit/537.36 (KHTML, like Gecko) Chrome/86.0.4240.198 Safari/537.36",WebKit,Chrome,86.0.4240.198,Windows,10
22,1,null,"""",html-keyboard-response,202,131415,0.0-202.0,"<div style=""font-size:60px;"">+</div>","""",null,1000,29,ITI,"""","""",11/20/2020 19:11,69.125.145.27,"Mozilla/5.0 (Windows NT 10.0; Win64; x64) AppleWebKit/537.36 (KHTML, like Gecko) Chrome/86.0.4240.198 Safari/537.36",WebKit,Chrome,86.0.4240.198,Windows,10
22,1,null,"""",image-keyboard-response,203,131685,0.0-203.0,jspsych/scrambledDisgustFaces/scrambledBF07DIS.JPG,"""",null,250,29,forwardMask,1,"""",11/20/2020 19:11,69.125.145.27,"Mozilla/5.0 (Windows NT 10.0; Win64; x64) AppleWebKit/537.36 (KHTML, like Gecko) Chrome/86.0.4240.198 Safari/537.36",WebKit,Chrome,86.0.4240.198,Windows,10
22,1,null,"""",image-keyboard-response,204,131738,0.0-204.0,jspsych/disgustFaces/BF07DIS.JPG,"""",null,49,29,Cue,"""","""",11/20/2020 19:11,69.125.145.27,"Mozilla/5.0 (Windows NT 10.0; Win64; x64) AppleWebKit/537.36 (KHTML, like Gecko) Chrome/86.0.4240.198 Safari/537.36",WebKit,Chrome,86.0.4240.198,Windows,10
22,1,null,"""",image-keyboard-response,205,131850,0.0-205.0,jspsych/neutralFaces/AF22NES.JPG,"""",null,100,29,backwardMask,"""","""",11/20/2020 19:11,69.125.145.27,"Mozilla/5.0 (Windows NT 10.0; Win64; x64) AppleWebKit/537.36 (KHTML, like Gecko) Chrome/86.0.4240.198 Safari/537.36",WebKit,Chrome,86.0.4240.198,Windows,10
22,1,null,"""",html-keyboard-response,206,132053,0.0-206.0,"<div style=""font-size:60px;"">+</div>","""",null,200,29,fixationBtwnNeutralMaskAndPrompt,"""","""",11/20/2020 19:11,69.125.145.27,"Mozilla/5.0 (Windows NT 10.0; Win64; x64) AppleWebKit/537.36 (KHTML, like Gecko) Chrome/86.0.4240.198 Safari/537.36",WebKit,Chrome,86.0.4240.198,Windows,10
22,1,715.825,"""",html-keyboard-response,207,132770,0.0-207.0,"<p> Did you see the ""hidden"" face? Press <b>0</b> if you did <i>not</i>, <b>1</b> if you <i>did</i>. </p>","""",48,"""",29,Query,"""",0,11/20/2020 19:11,69.125.145.27,"Mozilla/5.0 (Windows NT 10.0; Win64; x64) AppleWebKit/537.36 (KHTML, like Gecko) Chrome/86.0.4240.198 Safari/537.36",WebKit,Chrome,86.0.4240.198,Windows,10
22,1,140.815,"""",html-keyboard-response,208,132912,0.0-208.0,"<p> What was the emotion of the hidden face? Go with your gut if you are not certain. <br> Press, <b>0</b> for <i>neutral face</i> or <b>1</b> for <i>disgust face</i></p>","""",49,"""",29,Query,"""",1,11/20/2020 19:11,69.125.145.27,"Mozilla/5.0 (Windows NT 10.0; Win64; x64) AppleWebKit/537.36 (KHTML, like Gecko) Chrome/86.0.4240.198 Safari/537.36",WebKit,Chrome,86.0.4240.198,Windows,10
22,1,null,"""",html-keyboard-response,209,133914,0.0-209.0,"<div style=""font-size:60px;"">+</div>","""",null,1000,30,ITI,"""","""",11/20/2020 19:11,69.125.145.27,"Mozilla/5.0 (Windows NT 10.0; Win64; x64) AppleWebKit/537.36 (KHTML, like Gecko) Chrome/86.0.4240.198 Safari/537.36",WebKit,Chrome,86.0.4240.198,Windows,10
22,1,null,"""",image-keyboard-response,210,134177,0.0-210.0,jspsych/scrambledDisgustFaces/scrambledAF33DIS.JPG,"""",null,250,30,forwardMask,1,"""",11/20/2020 19:11,69.125.145.27,"Mozilla/5.0 (Windows NT 10.0; Win64; x64) AppleWebKit/537.36 (KHTML, like Gecko) Chrome/86.0.4240.198 Safari/537.36",WebKit,Chrome,86.0.4240.198,Windows,10
22,1,null,"""",image-keyboard-response,211,134212,0.0-211.0,jspsych/disgustFaces/AF33DIS.JPG,"""",null,33,30,Cue,"""","""",11/20/2020 19:11,69.125.145.27,"Mozilla/5.0 (Windows NT 10.0; Win64; x64) AppleWebKit/537.36 (KHTML, like Gecko) Chrome/86.0.4240.198 Safari/537.36",WebKit,Chrome,86.0.4240.198,Windows,10
22,1,null,"""",image-keyboard-response,212,134315,0.0-212.0,jspsych/neutralFaces/AF07NES.JPG,"""",null,100,30,backwardMask,"""","""",11/20/2020 19:11,69.125.145.27,"Mozilla/5.0 (Windows NT 10.0; Win64; x64) AppleWebKit/537.36 (KHTML, like Gecko) Chrome/86.0.4240.198 Safari/537.36",WebKit,Chrome,86.0.4240.198,Windows,10
22,1,null,"""",html-keyboard-response,213,134528,0.0-213.0,"<div style=""font-size:60px;"">+</div>","""",null,200,30,fixationBtwnNeutralMaskAndPrompt,"""","""",11/20/2020 19:11,69.125.145.27,"Mozilla/5.0 (Windows NT 10.0; Win64; x64) AppleWebKit/537.36 (KHTML, like Gecko) Chrome/86.0.4240.198 Safari/537.36",WebKit,Chrome,86.0.4240.198,Windows,10
22,1,730.78,"""",html-keyboard-response,214,135260,0.0-214.0,"<p> Did you see the ""hidden"" face? Press <b>0</b> if you did <i>not</i>, <b>1</b> if you <i>did</i>. </p>","""",48,"""",30,Query,"""",0,11/20/2020 19:11,69.125.145.27,"Mozilla/5.0 (Windows NT 10.0; Win64; x64) AppleWebKit/537.36 (KHTML, like Gecko) Chrome/86.0.4240.198 Safari/537.36",WebKit,Chrome,86.0.4240.198,Windows,10
22,1,143.28,"""",html-keyboard-response,215,135404,0.0-215.0,"<p> What was the emotion of the hidden face? Go with your gut if you are not certain. <br> Press, <b>0</b> for <i>neutral face</i> or <b>1</b> for <i>disgust face</i></p>","""",48,"""",30,Query,"""",0,11/20/2020 19:11,69.125.145.27,"Mozilla/5.0 (Windows NT 10.0; Win64; x64) AppleWebKit/537.36 (KHTML, like Gecko) Chrome/86.0.4240.198 Safari/537.36",WebKit,Chrome,86.0.4240.198,Windows,10
22,1,2969.62,"""",html-button-response,216,138376,0.0-216.0,Thank you for completing the task! survey/experiment code: 54123,0,"""","""",30,debrief,"""","""",11/20/2020 19:11,69.125.145.27,"Mozilla/5.0 (Windows NT 10.0; Win64; x64) AppleWebKit/537.36 (KHTML, like Gecko) Chrome/86.0.4240.198 Safari/537.36",WebKit,Chrome,86.0.4240.198,Windows,10
