run_id,condition,rt,responses,trial_type,trial_index,time_elapsed,internal_node_id,stimulus,button_pressed,key_press,StimulusDurationSetting,iTrial,Phase,correctResponse,CharacterResponse,recorded_at,ip,user_agent,device,browser,browser_version,platform,platform_version
24,1,4440.895,"{""Q0"":""demoRun3""}",survey-text,0,4509,0.0-0.0,"""","""","""","""","""","""","""","""",11/20/2020 19:25,69.125.145.27,"Mozilla/5.0 (Windows NT 10.0; Win64; x64) AppleWebKit/537.36 (KHTML, like Gecko) Chrome/86.0.4240.198 Safari/537.36",WebKit,Chrome,86.0.4240.198,Windows,10
24,1,1322.57,"""",image-button-response,1,5843,0.0-1.0,directionsConfidence.JPG,0,"""","""","""","""","""","""",11/20/2020 19:25,69.125.145.27,"Mozilla/5.0 (Windows NT 10.0; Win64; x64) AppleWebKit/537.36 (KHTML, like Gecko) Chrome/86.0.4240.198 Safari/537.36",WebKit,Chrome,86.0.4240.198,Windows,10
24,1,2392.045,"""",video-button-response,2,8254,0.0-2.0,"""",0,"""","""","""","""","""","""",11/20/2020 19:25,69.125.145.27,"Mozilla/5.0 (Windows NT 10.0; Win64; x64) AppleWebKit/537.36 (KHTML, like Gecko) Chrome/86.0.4240.198 Safari/537.36",WebKit,Chrome,86.0.4240.198,Windows,10
24,1,null,"""",html-keyboard-response,3,9262,0.0-3.0,"<div style=""font-size:60px;"">+</div>","""",null,1000,1,ITI,"""","""",11/20/2020 19:25,69.125.145.27,"Mozilla/5.0 (Windows NT 10.0; Win64; x64) AppleWebKit/537.36 (KHTML, like Gecko) Chrome/86.0.4240.198 Safari/537.36",WebKit,Chrome,86.0.4240.198,Windows,10
24,1,null,"""",image-keyboard-response,4,9523,0.0-4.0,jspsych/scrambledNeutralFaces/scrambledBM03NES.JPG,"""",null,250,1,forwardMask,0,"""",11/20/2020 19:25,69.125.145.27,"Mozilla/5.0 (Windows NT 10.0; Win64; x64) AppleWebKit/537.36 (KHTML, like Gecko) Chrome/86.0.4240.198 Safari/537.36",WebKit,Chrome,86.0.4240.198,Windows,10
24,1,null,"""",image-keyboard-response,5,9612,0.0-5.0,jspsych/neutralFaces/BM03NES.JPG,"""",null,82,1,Cue,"""","""",11/20/2020 19:25,69.125.145.27,"Mozilla/5.0 (Windows NT 10.0; Win64; x64) AppleWebKit/537.36 (KHTML, like Gecko) Chrome/86.0.4240.198 Safari/537.36",WebKit,Chrome,86.0.4240.198,Windows,10
24,1,null,"""",image-keyboard-response,6,9716,0.0-6.0,jspsych/neutralFaces/AF35NES.JPG,"""",null,100,1,backwardMask,"""","""",11/20/2020 19:25,69.125.145.27,"Mozilla/5.0 (Windows NT 10.0; Win64; x64) AppleWebKit/537.36 (KHTML, like Gecko) Chrome/86.0.4240.198 Safari/537.36",WebKit,Chrome,86.0.4240.198,Windows,10
24,1,null,"""",html-keyboard-response,7,9922,0.0-7.0,"<div style=""font-size:60px;"">+</div>","""",null,200,1,fixationBtwnNeutralMaskAndPrompt,"""","""",11/20/2020 19:25,69.125.145.27,"Mozilla/5.0 (Windows NT 10.0; Win64; x64) AppleWebKit/537.36 (KHTML, like Gecko) Chrome/86.0.4240.198 Safari/537.36",WebKit,Chrome,86.0.4240.198,Windows,10
24,1,902.875,"""",html-keyboard-response,8,10828,0.0-8.0,"<p> Did you see the ""hidden"" face? Press <b>0</b> if you did <i>not</i>, <b>1</b> if you <i>did</i>. </p>","""",48,"""",1,QueryConfidence,"""",0,11/20/2020 19:25,69.125.145.27,"Mozilla/5.0 (Windows NT 10.0; Win64; x64) AppleWebKit/537.36 (KHTML, like Gecko) Chrome/86.0.4240.198 Safari/537.36",WebKit,Chrome,86.0.4240.198,Windows,10
24,1,273.405,"""",html-keyboard-response,9,11103,0.0-9.0,"<p> What was the emotion of the hidden face? Go with your gut if you are not certain. <br> Press, <b>0</b> for <i>neutral face</i> or <b>1</b> for <i>disgust face</i></p>","""",48,"""",1,Query,"""",0,11/20/2020 19:25,69.125.145.27,"Mozilla/5.0 (Windows NT 10.0; Win64; x64) AppleWebKit/537.36 (KHTML, like Gecko) Chrome/86.0.4240.198 Safari/537.36",WebKit,Chrome,86.0.4240.198,Windows,10
24,1,null,"""",html-keyboard-response,10,12113,0.0-10.0,"<div style=""font-size:60px;"">+</div>","""",null,1000,2,ITI,"""","""",11/20/2020 19:25,69.125.145.27,"Mozilla/5.0 (Windows NT 10.0; Win64; x64) AppleWebKit/537.36 (KHTML, like Gecko) Chrome/86.0.4240.198 Safari/537.36",WebKit,Chrome,86.0.4240.198,Windows,10
24,1,null,"""",image-keyboard-response,11,12372,0.0-11.0,jspsych/scrambledNeutralFaces/scrambledBF16NES.JPG,"""",null,250,2,forwardMask,0,"""",11/20/2020 19:25,69.125.145.27,"Mozilla/5.0 (Windows NT 10.0; Win64; x64) AppleWebKit/537.36 (KHTML, like Gecko) Chrome/86.0.4240.198 Safari/537.36",WebKit,Chrome,86.0.4240.198,Windows,10
24,1,null,"""",image-keyboard-response,12,12390,0.0-12.0,jspsych/neutralFaces/BF16NES.JPG,"""",null,16,2,Cue,"""","""",11/20/2020 19:25,69.125.145.27,"Mozilla/5.0 (Windows NT 10.0; Win64; x64) AppleWebKit/537.36 (KHTML, like Gecko) Chrome/86.0.4240.198 Safari/537.36",WebKit,Chrome,86.0.4240.198,Windows,10
24,1,null,"""",image-keyboard-response,13,12493,0.0-13.0,jspsych/neutralFaces/BM10NES.JPG,"""",null,100,2,backwardMask,"""","""",11/20/2020 19:25,69.125.145.27,"Mozilla/5.0 (Windows NT 10.0; Win64; x64) AppleWebKit/537.36 (KHTML, like Gecko) Chrome/86.0.4240.198 Safari/537.36",WebKit,Chrome,86.0.4240.198,Windows,10
24,1,null,"""",html-keyboard-response,14,12702,0.0-14.0,"<div style=""font-size:60px;"">+</div>","""",null,200,2,fixationBtwnNeutralMaskAndPrompt,"""","""",11/20/2020 19:25,69.125.145.27,"Mozilla/5.0 (Windows NT 10.0; Win64; x64) AppleWebKit/537.36 (KHTML, like Gecko) Chrome/86.0.4240.198 Safari/537.36",WebKit,Chrome,86.0.4240.198,Windows,10
24,1,1249.495,"""",html-keyboard-response,15,13954,0.0-15.0,"<p> Did you see the ""hidden"" face? Press <b>0</b> if you did <i>not</i>, <b>1</b> if you <i>did</i>. </p>","""",48,"""",2,QueryConfidence,"""",0,11/20/2020 19:25,69.125.145.27,"Mozilla/5.0 (Windows NT 10.0; Win64; x64) AppleWebKit/537.36 (KHTML, like Gecko) Chrome/86.0.4240.198 Safari/537.36",WebKit,Chrome,86.0.4240.198,Windows,10
24,1,694.385,"""",html-keyboard-response,16,14652,0.0-16.0,"<p> What was the emotion of the hidden face? Go with your gut if you are not certain. <br> Press, <b>0</b> for <i>neutral face</i> or <b>1</b> for <i>disgust face</i></p>","""",48,"""",2,Query,"""",0,11/20/2020 19:25,69.125.145.27,"Mozilla/5.0 (Windows NT 10.0; Win64; x64) AppleWebKit/537.36 (KHTML, like Gecko) Chrome/86.0.4240.198 Safari/537.36",WebKit,Chrome,86.0.4240.198,Windows,10
24,1,null,"""",html-keyboard-response,17,15661,0.0-17.0,"<div style=""font-size:60px;"">+</div>","""",null,1000,3,ITI,"""","""",11/20/2020 19:25,69.125.145.27,"Mozilla/5.0 (Windows NT 10.0; Win64; x64) AppleWebKit/537.36 (KHTML, like Gecko) Chrome/86.0.4240.198 Safari/537.36",WebKit,Chrome,86.0.4240.198,Windows,10
24,1,null,"""",image-keyboard-response,18,15922,0.0-18.0,jspsych/scrambledDisgustFaces/scrambledAF34DIS.JPG,"""",null,250,3,forwardMask,1,"""",11/20/2020 19:25,69.125.145.27,"Mozilla/5.0 (Windows NT 10.0; Win64; x64) AppleWebKit/537.36 (KHTML, like Gecko) Chrome/86.0.4240.198 Safari/537.36",WebKit,Chrome,86.0.4240.198,Windows,10
24,1,null,"""",image-keyboard-response,19,16011,0.0-19.0,jspsych/disgustFaces/AF34DIS.JPG,"""",null,82,3,Cue,"""","""",11/20/2020 19:25,69.125.145.27,"Mozilla/5.0 (Windows NT 10.0; Win64; x64) AppleWebKit/537.36 (KHTML, like Gecko) Chrome/86.0.4240.198 Safari/537.36",WebKit,Chrome,86.0.4240.198,Windows,10
24,1,null,"""",image-keyboard-response,20,16122,0.0-20.0,jspsych/neutralFaces/BM04NES.JPG,"""",null,100,3,backwardMask,"""","""",11/20/2020 19:25,69.125.145.27,"Mozilla/5.0 (Windows NT 10.0; Win64; x64) AppleWebKit/537.36 (KHTML, like Gecko) Chrome/86.0.4240.198 Safari/537.36",WebKit,Chrome,86.0.4240.198,Windows,10
24,1,null,"""",html-keyboard-response,21,16332,0.0-21.0,"<div style=""font-size:60px;"">+</div>","""",null,200,3,fixationBtwnNeutralMaskAndPrompt,"""","""",11/20/2020 19:25,69.125.145.27,"Mozilla/5.0 (Windows NT 10.0; Win64; x64) AppleWebKit/537.36 (KHTML, like Gecko) Chrome/86.0.4240.198 Safari/537.36",WebKit,Chrome,86.0.4240.198,Windows,10
24,1,585.335,"""",html-keyboard-response,22,16920,0.0-22.0,"<p> Did you see the ""hidden"" face? Press <b>0</b> if you did <i>not</i>, <b>1</b> if you <i>did</i>. </p>","""",49,"""",3,QueryConfidence,"""",1,11/20/2020 19:25,69.125.145.27,"Mozilla/5.0 (Windows NT 10.0; Win64; x64) AppleWebKit/537.36 (KHTML, like Gecko) Chrome/86.0.4240.198 Safari/537.36",WebKit,Chrome,86.0.4240.198,Windows,10
24,1,157.78,"""",html-keyboard-response,23,17081,0.0-23.0,"<p> What was the emotion of the hidden face? Go with your gut if you are not certain. <br> Press, <b>0</b> for <i>neutral face</i> or <b>1</b> for <i>disgust face</i></p>","""",49,"""",3,Query,"""",1,11/20/2020 19:25,69.125.145.27,"Mozilla/5.0 (Windows NT 10.0; Win64; x64) AppleWebKit/537.36 (KHTML, like Gecko) Chrome/86.0.4240.198 Safari/537.36",WebKit,Chrome,86.0.4240.198,Windows,10
24,1,null,"""",html-keyboard-response,24,18090,0.0-24.0,"<div style=""font-size:60px;"">+</div>","""",null,1000,4,ITI,"""","""",11/20/2020 19:25,69.125.145.27,"Mozilla/5.0 (Windows NT 10.0; Win64; x64) AppleWebKit/537.36 (KHTML, like Gecko) Chrome/86.0.4240.198 Safari/537.36",WebKit,Chrome,86.0.4240.198,Windows,10
24,1,null,"""",image-keyboard-response,25,18352,0.0-25.0,jspsych/scrambledDisgustFaces/scrambledBM18DIS.JPG,"""",null,250,4,forwardMask,1,"""",11/20/2020 19:25,69.125.145.27,"Mozilla/5.0 (Windows NT 10.0; Win64; x64) AppleWebKit/537.36 (KHTML, like Gecko) Chrome/86.0.4240.198 Safari/537.36",WebKit,Chrome,86.0.4240.198,Windows,10
24,1,null,"""",image-keyboard-response,26,18393,0.0-26.0,jspsych/disgustFaces/BM18DIS.JPG,"""",null,33,4,Cue,"""","""",11/20/2020 19:25,69.125.145.27,"Mozilla/5.0 (Windows NT 10.0; Win64; x64) AppleWebKit/537.36 (KHTML, like Gecko) Chrome/86.0.4240.198 Safari/537.36",WebKit,Chrome,86.0.4240.198,Windows,10
24,1,null,"""",image-keyboard-response,27,18501,0.0-27.0,jspsych/neutralFaces/AM02NES.JPG,"""",null,100,4,backwardMask,"""","""",11/20/2020 19:25,69.125.145.27,"Mozilla/5.0 (Windows NT 10.0; Win64; x64) AppleWebKit/537.36 (KHTML, like Gecko) Chrome/86.0.4240.198 Safari/537.36",WebKit,Chrome,86.0.4240.198,Windows,10
24,1,null,"""",html-keyboard-response,28,18712,0.0-28.0,"<div style=""font-size:60px;"">+</div>","""",null,200,4,fixationBtwnNeutralMaskAndPrompt,"""","""",11/20/2020 19:25,69.125.145.27,"Mozilla/5.0 (Windows NT 10.0; Win64; x64) AppleWebKit/537.36 (KHTML, like Gecko) Chrome/86.0.4240.198 Safari/537.36",WebKit,Chrome,86.0.4240.198,Windows,10
24,1,579.455,"""",html-keyboard-response,29,19293,0.0-29.0,"<p> Did you see the ""hidden"" face? Press <b>0</b> if you did <i>not</i>, <b>1</b> if you <i>did</i>. </p>","""",48,"""",4,QueryConfidence,"""",0,11/20/2020 19:25,69.125.145.27,"Mozilla/5.0 (Windows NT 10.0; Win64; x64) AppleWebKit/537.36 (KHTML, like Gecko) Chrome/86.0.4240.198 Safari/537.36",WebKit,Chrome,86.0.4240.198,Windows,10
24,1,104.73,"""",html-keyboard-response,30,19399,0.0-30.0,"<p> What was the emotion of the hidden face? Go with your gut if you are not certain. <br> Press, <b>0</b> for <i>neutral face</i> or <b>1</b> for <i>disgust face</i></p>","""",49,"""",4,Query,"""",1,11/20/2020 19:25,69.125.145.27,"Mozilla/5.0 (Windows NT 10.0; Win64; x64) AppleWebKit/537.36 (KHTML, like Gecko) Chrome/86.0.4240.198 Safari/537.36",WebKit,Chrome,86.0.4240.198,Windows,10
24,1,null,"""",html-keyboard-response,31,20402,0.0-31.0,"<div style=""font-size:60px;"">+</div>","""",null,1000,5,ITI,"""","""",11/20/2020 19:25,69.125.145.27,"Mozilla/5.0 (Windows NT 10.0; Win64; x64) AppleWebKit/537.36 (KHTML, like Gecko) Chrome/86.0.4240.198 Safari/537.36",WebKit,Chrome,86.0.4240.198,Windows,10
24,1,null,"""",image-keyboard-response,32,20662,0.0-32.0,jspsych/scrambledNeutralFaces/scrambledBF35NES.JPG,"""",null,250,5,forwardMask,0,"""",11/20/2020 19:25,69.125.145.27,"Mozilla/5.0 (Windows NT 10.0; Win64; x64) AppleWebKit/537.36 (KHTML, like Gecko) Chrome/86.0.4240.198 Safari/537.36",WebKit,Chrome,86.0.4240.198,Windows,10
24,1,null,"""",image-keyboard-response,33,20721,0.0-33.0,jspsych/neutralFaces/BF35NES.JPG,"""",null,49,5,Cue,"""","""",11/20/2020 19:25,69.125.145.27,"Mozilla/5.0 (Windows NT 10.0; Win64; x64) AppleWebKit/537.36 (KHTML, like Gecko) Chrome/86.0.4240.198 Safari/537.36",WebKit,Chrome,86.0.4240.198,Windows,10
24,1,null,"""",image-keyboard-response,34,20832,0.0-34.0,jspsych/neutralFaces/AM30NES.JPG,"""",null,100,5,backwardMask,"""","""",11/20/2020 19:25,69.125.145.27,"Mozilla/5.0 (Windows NT 10.0; Win64; x64) AppleWebKit/537.36 (KHTML, like Gecko) Chrome/86.0.4240.198 Safari/537.36",WebKit,Chrome,86.0.4240.198,Windows,10
24,1,null,"""",html-keyboard-response,35,21043,0.0-35.0,"<div style=""font-size:60px;"">+</div>","""",null,200,5,fixationBtwnNeutralMaskAndPrompt,"""","""",11/20/2020 19:25,69.125.145.27,"Mozilla/5.0 (Windows NT 10.0; Win64; x64) AppleWebKit/537.36 (KHTML, like Gecko) Chrome/86.0.4240.198 Safari/537.36",WebKit,Chrome,86.0.4240.198,Windows,10
24,1,629.93,"""",html-keyboard-response,36,21674,0.0-36.0,"<p> Did you see the ""hidden"" face? Press <b>0</b> if you did <i>not</i>, <b>1</b> if you <i>did</i>. </p>","""",48,"""",5,QueryConfidence,"""",0,11/20/2020 19:25,69.125.145.27,"Mozilla/5.0 (Windows NT 10.0; Win64; x64) AppleWebKit/537.36 (KHTML, like Gecko) Chrome/86.0.4240.198 Safari/537.36",WebKit,Chrome,86.0.4240.198,Windows,10
24,1,152.25,"""",html-keyboard-response,37,21827,0.0-37.0,"<p> What was the emotion of the hidden face? Go with your gut if you are not certain. <br> Press, <b>0</b> for <i>neutral face</i> or <b>1</b> for <i>disgust face</i></p>","""",48,"""",5,Query,"""",0,11/20/2020 19:25,69.125.145.27,"Mozilla/5.0 (Windows NT 10.0; Win64; x64) AppleWebKit/537.36 (KHTML, like Gecko) Chrome/86.0.4240.198 Safari/537.36",WebKit,Chrome,86.0.4240.198,Windows,10
24,1,null,"""",html-keyboard-response,38,22832,0.0-38.0,"<div style=""font-size:60px;"">+</div>","""",null,1000,6,ITI,"""","""",11/20/2020 19:25,69.125.145.27,"Mozilla/5.0 (Windows NT 10.0; Win64; x64) AppleWebKit/537.36 (KHTML, like Gecko) Chrome/86.0.4240.198 Safari/537.36",WebKit,Chrome,86.0.4240.198,Windows,10
24,1,null,"""",image-keyboard-response,39,23092,0.0-39.0,jspsych/scrambledNeutralFaces/scrambledBM13NES.JPG,"""",null,250,6,forwardMask,0,"""",11/20/2020 19:25,69.125.145.27,"Mozilla/5.0 (Windows NT 10.0; Win64; x64) AppleWebKit/537.36 (KHTML, like Gecko) Chrome/86.0.4240.198 Safari/537.36",WebKit,Chrome,86.0.4240.198,Windows,10
24,1,null,"""",image-keyboard-response,40,23240,0.0-40.0,jspsych/neutralFaces/BM13NES.JPG,"""",null,136,6,Cue,"""","""",11/20/2020 19:25,69.125.145.27,"Mozilla/5.0 (Windows NT 10.0; Win64; x64) AppleWebKit/537.36 (KHTML, like Gecko) Chrome/86.0.4240.198 Safari/537.36",WebKit,Chrome,86.0.4240.198,Windows,10
24,1,null,"""",image-keyboard-response,41,23347,0.0-41.0,jspsych/neutralFaces/BM28NES.JPG,"""",null,100,6,backwardMask,"""","""",11/20/2020 19:25,69.125.145.27,"Mozilla/5.0 (Windows NT 10.0; Win64; x64) AppleWebKit/537.36 (KHTML, like Gecko) Chrome/86.0.4240.198 Safari/537.36",WebKit,Chrome,86.0.4240.198,Windows,10
24,1,null,"""",html-keyboard-response,42,23556,0.0-42.0,"<div style=""font-size:60px;"">+</div>","""",null,200,6,fixationBtwnNeutralMaskAndPrompt,"""","""",11/20/2020 19:25,69.125.145.27,"Mozilla/5.0 (Windows NT 10.0; Win64; x64) AppleWebKit/537.36 (KHTML, like Gecko) Chrome/86.0.4240.198 Safari/537.36",WebKit,Chrome,86.0.4240.198,Windows,10
24,1,425.935,"""",html-keyboard-response,43,23984,0.0-43.0,"<p> Did you see the ""hidden"" face? Press <b>0</b> if you did <i>not</i>, <b>1</b> if you <i>did</i>. </p>","""",48,"""",6,QueryConfidence,"""",0,11/20/2020 19:25,69.125.145.27,"Mozilla/5.0 (Windows NT 10.0; Win64; x64) AppleWebKit/537.36 (KHTML, like Gecko) Chrome/86.0.4240.198 Safari/537.36",WebKit,Chrome,86.0.4240.198,Windows,10
24,1,137.33,"""",html-keyboard-response,44,24122,0.0-44.0,"<p> What was the emotion of the hidden face? Go with your gut if you are not certain. <br> Press, <b>0</b> for <i>neutral face</i> or <b>1</b> for <i>disgust face</i></p>","""",48,"""",6,Query,"""",0,11/20/2020 19:25,69.125.145.27,"Mozilla/5.0 (Windows NT 10.0; Win64; x64) AppleWebKit/537.36 (KHTML, like Gecko) Chrome/86.0.4240.198 Safari/537.36",WebKit,Chrome,86.0.4240.198,Windows,10
24,1,null,"""",html-keyboard-response,45,25132,0.0-45.0,"<div style=""font-size:60px;"">+</div>","""",null,1000,7,ITI,"""","""",11/20/2020 19:25,69.125.145.27,"Mozilla/5.0 (Windows NT 10.0; Win64; x64) AppleWebKit/537.36 (KHTML, like Gecko) Chrome/86.0.4240.198 Safari/537.36",WebKit,Chrome,86.0.4240.198,Windows,10
24,1,null,"""",image-keyboard-response,46,25392,0.0-46.0,jspsych/scrambledDisgustFaces/scrambledAM16DIS.JPG,"""",null,250,7,forwardMask,1,"""",11/20/2020 19:25,69.125.145.27,"Mozilla/5.0 (Windows NT 10.0; Win64; x64) AppleWebKit/537.36 (KHTML, like Gecko) Chrome/86.0.4240.198 Safari/537.36",WebKit,Chrome,86.0.4240.198,Windows,10
24,1,null,"""",image-keyboard-response,47,25449,0.0-47.0,jspsych/disgustFaces/AM16DIS.JPG,"""",null,49,7,Cue,"""","""",11/20/2020 19:25,69.125.145.27,"Mozilla/5.0 (Windows NT 10.0; Win64; x64) AppleWebKit/537.36 (KHTML, like Gecko) Chrome/86.0.4240.198 Safari/537.36",WebKit,Chrome,86.0.4240.198,Windows,10
24,1,null,"""",image-keyboard-response,48,25562,0.0-48.0,jspsych/neutralFaces/AM07NES.JPG,"""",null,100,7,backwardMask,"""","""",11/20/2020 19:25,69.125.145.27,"Mozilla/5.0 (Windows NT 10.0; Win64; x64) AppleWebKit/537.36 (KHTML, like Gecko) Chrome/86.0.4240.198 Safari/537.36",WebKit,Chrome,86.0.4240.198,Windows,10
24,1,null,"""",html-keyboard-response,49,25772,0.0-49.0,"<div style=""font-size:60px;"">+</div>","""",null,200,7,fixationBtwnNeutralMaskAndPrompt,"""","""",11/20/2020 19:25,69.125.145.27,"Mozilla/5.0 (Windows NT 10.0; Win64; x64) AppleWebKit/537.36 (KHTML, like Gecko) Chrome/86.0.4240.198 Safari/537.36",WebKit,Chrome,86.0.4240.198,Windows,10
24,1,741.53,"""",html-keyboard-response,50,26515,0.0-50.0,"<p> Did you see the ""hidden"" face? Press <b>0</b> if you did <i>not</i>, <b>1</b> if you <i>did</i>. </p>","""",48,"""",7,QueryConfidence,"""",0,11/20/2020 19:25,69.125.145.27,"Mozilla/5.0 (Windows NT 10.0; Win64; x64) AppleWebKit/537.36 (KHTML, like Gecko) Chrome/86.0.4240.198 Safari/537.36",WebKit,Chrome,86.0.4240.198,Windows,10
24,1,163.795,"""",html-keyboard-response,51,26682,0.0-51.0,"<p> What was the emotion of the hidden face? Go with your gut if you are not certain. <br> Press, <b>0</b> for <i>neutral face</i> or <b>1</b> for <i>disgust face</i></p>","""",48,"""",7,Query,"""",0,11/20/2020 19:25,69.125.145.27,"Mozilla/5.0 (Windows NT 10.0; Win64; x64) AppleWebKit/537.36 (KHTML, like Gecko) Chrome/86.0.4240.198 Safari/537.36",WebKit,Chrome,86.0.4240.198,Windows,10
24,1,null,"""",html-keyboard-response,52,27691,0.0-52.0,"<div style=""font-size:60px;"">+</div>","""",null,1000,8,ITI,"""","""",11/20/2020 19:25,69.125.145.27,"Mozilla/5.0 (Windows NT 10.0; Win64; x64) AppleWebKit/537.36 (KHTML, like Gecko) Chrome/86.0.4240.198 Safari/537.36",WebKit,Chrome,86.0.4240.198,Windows,10
24,1,null,"""",image-keyboard-response,53,27957,0.0-53.0,jspsych/scrambledDisgustFaces/scrambledAF27DIS.JPG,"""",null,250,8,forwardMask,1,"""",11/20/2020 19:25,69.125.145.27,"Mozilla/5.0 (Windows NT 10.0; Win64; x64) AppleWebKit/537.36 (KHTML, like Gecko) Chrome/86.0.4240.198 Safari/537.36",WebKit,Chrome,86.0.4240.198,Windows,10
24,1,null,"""",image-keyboard-response,54,28043,0.0-54.0,jspsych/disgustFaces/AF27DIS.JPG,"""",null,82,8,Cue,"""","""",11/20/2020 19:25,69.125.145.27,"Mozilla/5.0 (Windows NT 10.0; Win64; x64) AppleWebKit/537.36 (KHTML, like Gecko) Chrome/86.0.4240.198 Safari/537.36",WebKit,Chrome,86.0.4240.198,Windows,10
24,1,null,"""",image-keyboard-response,55,28157,0.0-55.0,jspsych/neutralFaces/BF03NES.JPG,"""",null,100,8,backwardMask,"""","""",11/20/2020 19:25,69.125.145.27,"Mozilla/5.0 (Windows NT 10.0; Win64; x64) AppleWebKit/537.36 (KHTML, like Gecko) Chrome/86.0.4240.198 Safari/537.36",WebKit,Chrome,86.0.4240.198,Windows,10
24,1,null,"""",html-keyboard-response,56,28365,0.0-56.0,"<div style=""font-size:60px;"">+</div>","""",null,200,8,fixationBtwnNeutralMaskAndPrompt,"""","""",11/20/2020 19:25,69.125.145.27,"Mozilla/5.0 (Windows NT 10.0; Win64; x64) AppleWebKit/537.36 (KHTML, like Gecko) Chrome/86.0.4240.198 Safari/537.36",WebKit,Chrome,86.0.4240.198,Windows,10
24,1,1569.315,"""",html-keyboard-response,57,29936,0.0-57.0,"<p> Did you see the ""hidden"" face? Press <b>0</b> if you did <i>not</i>, <b>1</b> if you <i>did</i>. </p>","""",49,"""",8,QueryConfidence,"""",1,11/20/2020 19:25,69.125.145.27,"Mozilla/5.0 (Windows NT 10.0; Win64; x64) AppleWebKit/537.36 (KHTML, like Gecko) Chrome/86.0.4240.198 Safari/537.36",WebKit,Chrome,86.0.4240.198,Windows,10
24,1,211.72,"""",html-keyboard-response,58,30151,0.0-58.0,"<p> What was the emotion of the hidden face? Go with your gut if you are not certain. <br> Press, <b>0</b> for <i>neutral face</i> or <b>1</b> for <i>disgust face</i></p>","""",48,"""",8,Query,"""",0,11/20/2020 19:25,69.125.145.27,"Mozilla/5.0 (Windows NT 10.0; Win64; x64) AppleWebKit/537.36 (KHTML, like Gecko) Chrome/86.0.4240.198 Safari/537.36",WebKit,Chrome,86.0.4240.198,Windows,10
24,1,null,"""",html-keyboard-response,59,31154,0.0-59.0,"<div style=""font-size:60px;"">+</div>","""",null,1000,9,ITI,"""","""",11/20/2020 19:25,69.125.145.27,"Mozilla/5.0 (Windows NT 10.0; Win64; x64) AppleWebKit/537.36 (KHTML, like Gecko) Chrome/86.0.4240.198 Safari/537.36",WebKit,Chrome,86.0.4240.198,Windows,10
24,1,null,"""",image-keyboard-response,60,31412,0.0-60.0,jspsych/scrambledNeutralFaces/scrambledBM09NES.JPG,"""",null,250,9,forwardMask,0,"""",11/20/2020 19:25,69.125.145.27,"Mozilla/5.0 (Windows NT 10.0; Win64; x64) AppleWebKit/537.36 (KHTML, like Gecko) Chrome/86.0.4240.198 Safari/537.36",WebKit,Chrome,86.0.4240.198,Windows,10
24,1,null,"""",image-keyboard-response,61,31470,0.0-61.0,jspsych/neutralFaces/BM09NES.JPG,"""",null,49,9,Cue,"""","""",11/20/2020 19:25,69.125.145.27,"Mozilla/5.0 (Windows NT 10.0; Win64; x64) AppleWebKit/537.36 (KHTML, like Gecko) Chrome/86.0.4240.198 Safari/537.36",WebKit,Chrome,86.0.4240.198,Windows,10
24,1,null,"""",image-keyboard-response,62,31578,0.0-62.0,jspsych/neutralFaces/AM09NES.JPG,"""",null,100,9,backwardMask,"""","""",11/20/2020 19:25,69.125.145.27,"Mozilla/5.0 (Windows NT 10.0; Win64; x64) AppleWebKit/537.36 (KHTML, like Gecko) Chrome/86.0.4240.198 Safari/537.36",WebKit,Chrome,86.0.4240.198,Windows,10
24,1,null,"""",html-keyboard-response,63,31787,0.0-63.0,"<div style=""font-size:60px;"">+</div>","""",null,200,9,fixationBtwnNeutralMaskAndPrompt,"""","""",11/20/2020 19:25,69.125.145.27,"Mozilla/5.0 (Windows NT 10.0; Win64; x64) AppleWebKit/537.36 (KHTML, like Gecko) Chrome/86.0.4240.198 Safari/537.36",WebKit,Chrome,86.0.4240.198,Windows,10
24,1,446.33,"""",html-keyboard-response,64,32234,0.0-64.0,"<p> Did you see the ""hidden"" face? Press <b>0</b> if you did <i>not</i>, <b>1</b> if you <i>did</i>. </p>","""",48,"""",9,QueryConfidence,"""",0,11/20/2020 19:25,69.125.145.27,"Mozilla/5.0 (Windows NT 10.0; Win64; x64) AppleWebKit/537.36 (KHTML, like Gecko) Chrome/86.0.4240.198 Safari/537.36",WebKit,Chrome,86.0.4240.198,Windows,10
24,1,127.55,"""",html-keyboard-response,65,32363,0.0-65.0,"<p> What was the emotion of the hidden face? Go with your gut if you are not certain. <br> Press, <b>0</b> for <i>neutral face</i> or <b>1</b> for <i>disgust face</i></p>","""",48,"""",9,Query,"""",0,11/20/2020 19:25,69.125.145.27,"Mozilla/5.0 (Windows NT 10.0; Win64; x64) AppleWebKit/537.36 (KHTML, like Gecko) Chrome/86.0.4240.198 Safari/537.36",WebKit,Chrome,86.0.4240.198,Windows,10
24,1,null,"""",html-keyboard-response,66,33368,0.0-66.0,"<div style=""font-size:60px;"">+</div>","""",null,1000,10,ITI,"""","""",11/20/2020 19:25,69.125.145.27,"Mozilla/5.0 (Windows NT 10.0; Win64; x64) AppleWebKit/537.36 (KHTML, like Gecko) Chrome/86.0.4240.198 Safari/537.36",WebKit,Chrome,86.0.4240.198,Windows,10
24,1,null,"""",image-keyboard-response,67,33635,0.0-67.0,jspsych/scrambledDisgustFaces/scrambledBM12DIS.JPG,"""",null,250,10,forwardMask,1,"""",11/20/2020 19:25,69.125.145.27,"Mozilla/5.0 (Windows NT 10.0; Win64; x64) AppleWebKit/537.36 (KHTML, like Gecko) Chrome/86.0.4240.198 Safari/537.36",WebKit,Chrome,86.0.4240.198,Windows,10
24,1,null,"""",image-keyboard-response,68,33675,0.0-68.0,jspsych/disgustFaces/BM12DIS.JPG,"""",null,33,10,Cue,"""","""",11/20/2020 19:25,69.125.145.27,"Mozilla/5.0 (Windows NT 10.0; Win64; x64) AppleWebKit/537.36 (KHTML, like Gecko) Chrome/86.0.4240.198 Safari/537.36",WebKit,Chrome,86.0.4240.198,Windows,10
24,1,null,"""",image-keyboard-response,69,33785,0.0-69.0,jspsych/neutralFaces/BF27NES.JPG,"""",null,100,10,backwardMask,"""","""",11/20/2020 19:25,69.125.145.27,"Mozilla/5.0 (Windows NT 10.0; Win64; x64) AppleWebKit/537.36 (KHTML, like Gecko) Chrome/86.0.4240.198 Safari/537.36",WebKit,Chrome,86.0.4240.198,Windows,10
24,1,null,"""",html-keyboard-response,70,33987,0.0-70.0,"<div style=""font-size:60px;"">+</div>","""",null,200,10,fixationBtwnNeutralMaskAndPrompt,"""","""",11/20/2020 19:25,69.125.145.27,"Mozilla/5.0 (Windows NT 10.0; Win64; x64) AppleWebKit/537.36 (KHTML, like Gecko) Chrome/86.0.4240.198 Safari/537.36",WebKit,Chrome,86.0.4240.198,Windows,10
24,1,1226.085,"""",html-keyboard-response,71,35214,0.0-71.0,"<p> Did you see the ""hidden"" face? Press <b>0</b> if you did <i>not</i>, <b>1</b> if you <i>did</i>. </p>","""",48,"""",10,QueryConfidence,"""",0,11/20/2020 19:25,69.125.145.27,"Mozilla/5.0 (Windows NT 10.0; Win64; x64) AppleWebKit/537.36 (KHTML, like Gecko) Chrome/86.0.4240.198 Safari/537.36",WebKit,Chrome,86.0.4240.198,Windows,10
24,1,39.24000001,"""",html-keyboard-response,72,35255,0.0-72.0,"<p> What was the emotion of the hidden face? Go with your gut if you are not certain. <br> Press, <b>0</b> for <i>neutral face</i> or <b>1</b> for <i>disgust face</i></p>","""",49,"""",10,Query,"""",1,11/20/2020 19:25,69.125.145.27,"Mozilla/5.0 (Windows NT 10.0; Win64; x64) AppleWebKit/537.36 (KHTML, like Gecko) Chrome/86.0.4240.198 Safari/537.36",WebKit,Chrome,86.0.4240.198,Windows,10
24,1,null,"""",html-keyboard-response,73,36257,0.0-73.0,"<div style=""font-size:60px;"">+</div>","""",null,1000,11,ITI,"""","""",11/20/2020 19:25,69.125.145.27,"Mozilla/5.0 (Windows NT 10.0; Win64; x64) AppleWebKit/537.36 (KHTML, like Gecko) Chrome/86.0.4240.198 Safari/537.36",WebKit,Chrome,86.0.4240.198,Windows,10
24,1,null,"""",image-keyboard-response,74,36517,0.0-74.0,jspsych/scrambledNeutralFaces/scrambledBM25NES.JPG,"""",null,250,11,forwardMask,0,"""",11/20/2020 19:25,69.125.145.27,"Mozilla/5.0 (Windows NT 10.0; Win64; x64) AppleWebKit/537.36 (KHTML, like Gecko) Chrome/86.0.4240.198 Safari/537.36",WebKit,Chrome,86.0.4240.198,Windows,10
24,1,null,"""",image-keyboard-response,75,36590,0.0-75.0,jspsych/neutralFaces/BM25NES.JPG,"""",null,66,11,Cue,"""","""",11/20/2020 19:25,69.125.145.27,"Mozilla/5.0 (Windows NT 10.0; Win64; x64) AppleWebKit/537.36 (KHTML, like Gecko) Chrome/86.0.4240.198 Safari/537.36",WebKit,Chrome,86.0.4240.198,Windows,10
24,1,null,"""",image-keyboard-response,76,36701,0.0-76.0,jspsych/neutralFaces/AM06NES.JPG,"""",null,100,11,backwardMask,"""","""",11/20/2020 19:25,69.125.145.27,"Mozilla/5.0 (Windows NT 10.0; Win64; x64) AppleWebKit/537.36 (KHTML, like Gecko) Chrome/86.0.4240.198 Safari/537.36",WebKit,Chrome,86.0.4240.198,Windows,10
24,1,null,"""",html-keyboard-response,77,36915,0.0-77.0,"<div style=""font-size:60px;"">+</div>","""",null,200,11,fixationBtwnNeutralMaskAndPrompt,"""","""",11/20/2020 19:25,69.125.145.27,"Mozilla/5.0 (Windows NT 10.0; Win64; x64) AppleWebKit/537.36 (KHTML, like Gecko) Chrome/86.0.4240.198 Safari/537.36",WebKit,Chrome,86.0.4240.198,Windows,10
24,1,1083.845,"""",html-keyboard-response,78,38000,0.0-78.0,"<p> Did you see the ""hidden"" face? Press <b>0</b> if you did <i>not</i>, <b>1</b> if you <i>did</i>. </p>","""",48,"""",11,QueryConfidence,"""",0,11/20/2020 19:25,69.125.145.27,"Mozilla/5.0 (Windows NT 10.0; Win64; x64) AppleWebKit/537.36 (KHTML, like Gecko) Chrome/86.0.4240.198 Safari/537.36",WebKit,Chrome,86.0.4240.198,Windows,10
24,1,131.07,"""",html-keyboard-response,79,38132,0.0-79.0,"<p> What was the emotion of the hidden face? Go with your gut if you are not certain. <br> Press, <b>0</b> for <i>neutral face</i> or <b>1</b> for <i>disgust face</i></p>","""",48,"""",11,Query,"""",0,11/20/2020 19:25,69.125.145.27,"Mozilla/5.0 (Windows NT 10.0; Win64; x64) AppleWebKit/537.36 (KHTML, like Gecko) Chrome/86.0.4240.198 Safari/537.36",WebKit,Chrome,86.0.4240.198,Windows,10
24,1,null,"""",html-keyboard-response,80,39145,0.0-80.0,"<div style=""font-size:60px;"">+</div>","""",null,1000,12,ITI,"""","""",11/20/2020 19:25,69.125.145.27,"Mozilla/5.0 (Windows NT 10.0; Win64; x64) AppleWebKit/537.36 (KHTML, like Gecko) Chrome/86.0.4240.198 Safari/537.36",WebKit,Chrome,86.0.4240.198,Windows,10
24,1,null,"""",image-keyboard-response,81,39401,0.0-81.0,jspsych/scrambledDisgustFaces/scrambledBF28DIS.JPG,"""",null,250,12,forwardMask,1,"""",11/20/2020 19:25,69.125.145.27,"Mozilla/5.0 (Windows NT 10.0; Win64; x64) AppleWebKit/537.36 (KHTML, like Gecko) Chrome/86.0.4240.198 Safari/537.36",WebKit,Chrome,86.0.4240.198,Windows,10
24,1,null,"""",image-keyboard-response,82,39470,0.0-82.0,jspsych/disgustFaces/BF28DIS.JPG,"""",null,66,12,Cue,"""","""",11/20/2020 19:25,69.125.145.27,"Mozilla/5.0 (Windows NT 10.0; Win64; x64) AppleWebKit/537.36 (KHTML, like Gecko) Chrome/86.0.4240.198 Safari/537.36",WebKit,Chrome,86.0.4240.198,Windows,10
24,1,null,"""",image-keyboard-response,83,39579,0.0-83.0,jspsych/neutralFaces/AM29NES.JPG,"""",null,100,12,backwardMask,"""","""",11/20/2020 19:25,69.125.145.27,"Mozilla/5.0 (Windows NT 10.0; Win64; x64) AppleWebKit/537.36 (KHTML, like Gecko) Chrome/86.0.4240.198 Safari/537.36",WebKit,Chrome,86.0.4240.198,Windows,10
24,1,null,"""",html-keyboard-response,84,39787,0.0-84.0,"<div style=""font-size:60px;"">+</div>","""",null,200,12,fixationBtwnNeutralMaskAndPrompt,"""","""",11/20/2020 19:25,69.125.145.27,"Mozilla/5.0 (Windows NT 10.0; Win64; x64) AppleWebKit/537.36 (KHTML, like Gecko) Chrome/86.0.4240.198 Safari/537.36",WebKit,Chrome,86.0.4240.198,Windows,10
24,1,740.11,"""",html-keyboard-response,85,40528,0.0-85.0,"<p> Did you see the ""hidden"" face? Press <b>0</b> if you did <i>not</i>, <b>1</b> if you <i>did</i>. </p>","""",49,"""",12,QueryConfidence,"""",1,11/20/2020 19:25,69.125.145.27,"Mozilla/5.0 (Windows NT 10.0; Win64; x64) AppleWebKit/537.36 (KHTML, like Gecko) Chrome/86.0.4240.198 Safari/537.36",WebKit,Chrome,86.0.4240.198,Windows,10
24,1,323.89,"""",html-keyboard-response,86,40853,0.0-86.0,"<p> What was the emotion of the hidden face? Go with your gut if you are not certain. <br> Press, <b>0</b> for <i>neutral face</i> or <b>1</b> for <i>disgust face</i></p>","""",49,"""",12,Query,"""",1,11/20/2020 19:25,69.125.145.27,"Mozilla/5.0 (Windows NT 10.0; Win64; x64) AppleWebKit/537.36 (KHTML, like Gecko) Chrome/86.0.4240.198 Safari/537.36",WebKit,Chrome,86.0.4240.198,Windows,10
24,1,null,"""",html-keyboard-response,87,42863,0.0-87.0,Good job! 25% Done,"""",null,2000,13,encouragement,"""","""",11/20/2020 19:25,69.125.145.27,"Mozilla/5.0 (Windows NT 10.0; Win64; x64) AppleWebKit/537.36 (KHTML, like Gecko) Chrome/86.0.4240.198 Safari/537.36",WebKit,Chrome,86.0.4240.198,Windows,10
24,1,null,"""",html-keyboard-response,88,43875,0.0-88.0,"<div style=""font-size:60px;"">+</div>","""",null,1000,13,ITI,"""","""",11/20/2020 19:25,69.125.145.27,"Mozilla/5.0 (Windows NT 10.0; Win64; x64) AppleWebKit/537.36 (KHTML, like Gecko) Chrome/86.0.4240.198 Safari/537.36",WebKit,Chrome,86.0.4240.198,Windows,10
24,1,null,"""",image-keyboard-response,89,44130,0.0-89.0,jspsych/scrambledNeutralFaces/scrambledBF01NES.JPG,"""",null,250,13,forwardMask,0,"""",11/20/2020 19:25,69.125.145.27,"Mozilla/5.0 (Windows NT 10.0; Win64; x64) AppleWebKit/537.36 (KHTML, like Gecko) Chrome/86.0.4240.198 Safari/537.36",WebKit,Chrome,86.0.4240.198,Windows,10
24,1,null,"""",image-keyboard-response,90,44243,0.0-90.0,jspsych/neutralFaces/BF01NES.JPG,"""",null,104,13,Cue,"""","""",11/20/2020 19:25,69.125.145.27,"Mozilla/5.0 (Windows NT 10.0; Win64; x64) AppleWebKit/537.36 (KHTML, like Gecko) Chrome/86.0.4240.198 Safari/537.36",WebKit,Chrome,86.0.4240.198,Windows,10
24,1,null,"""",image-keyboard-response,91,44349,0.0-91.0,jspsych/neutralFaces/AF31NES.JPG,"""",null,100,13,backwardMask,"""","""",11/20/2020 19:25,69.125.145.27,"Mozilla/5.0 (Windows NT 10.0; Win64; x64) AppleWebKit/537.36 (KHTML, like Gecko) Chrome/86.0.4240.198 Safari/537.36",WebKit,Chrome,86.0.4240.198,Windows,10
24,1,null,"""",html-keyboard-response,92,44559,0.0-92.0,"<div style=""font-size:60px;"">+</div>","""",null,200,13,fixationBtwnNeutralMaskAndPrompt,"""","""",11/20/2020 19:25,69.125.145.27,"Mozilla/5.0 (Windows NT 10.0; Win64; x64) AppleWebKit/537.36 (KHTML, like Gecko) Chrome/86.0.4240.198 Safari/537.36",WebKit,Chrome,86.0.4240.198,Windows,10
24,1,1037.225,"""",html-keyboard-response,93,45598,0.0-93.0,"<p> Did you see the ""hidden"" face? Press <b>0</b> if you did <i>not</i>, <b>1</b> if you <i>did</i>. </p>","""",48,"""",13,QueryConfidence,"""",0,11/20/2020 19:25,69.125.145.27,"Mozilla/5.0 (Windows NT 10.0; Win64; x64) AppleWebKit/537.36 (KHTML, like Gecko) Chrome/86.0.4240.198 Safari/537.36",WebKit,Chrome,86.0.4240.198,Windows,10
24,1,153.775,"""",html-keyboard-response,94,45752,0.0-94.0,"<p> What was the emotion of the hidden face? Go with your gut if you are not certain. <br> Press, <b>0</b> for <i>neutral face</i> or <b>1</b> for <i>disgust face</i></p>","""",48,"""",13,Query,"""",0,11/20/2020 19:25,69.125.145.27,"Mozilla/5.0 (Windows NT 10.0; Win64; x64) AppleWebKit/537.36 (KHTML, like Gecko) Chrome/86.0.4240.198 Safari/537.36",WebKit,Chrome,86.0.4240.198,Windows,10
24,1,null,"""",html-keyboard-response,95,46756,0.0-95.0,"<div style=""font-size:60px;"">+</div>","""",null,1000,14,ITI,"""","""",11/20/2020 19:25,69.125.145.27,"Mozilla/5.0 (Windows NT 10.0; Win64; x64) AppleWebKit/537.36 (KHTML, like Gecko) Chrome/86.0.4240.198 Safari/537.36",WebKit,Chrome,86.0.4240.198,Windows,10
24,1,null,"""",image-keyboard-response,96,47013,0.0-96.0,jspsych/scrambledNeutralFaces/scrambledBM13NES.JPG,"""",null,250,14,forwardMask,0,"""",11/20/2020 19:25,69.125.145.27,"Mozilla/5.0 (Windows NT 10.0; Win64; x64) AppleWebKit/537.36 (KHTML, like Gecko) Chrome/86.0.4240.198 Safari/537.36",WebKit,Chrome,86.0.4240.198,Windows,10
24,1,null,"""",image-keyboard-response,97,47105,0.0-97.0,jspsych/neutralFaces/BM13NES.JPG,"""",null,82,14,Cue,"""","""",11/20/2020 19:25,69.125.145.27,"Mozilla/5.0 (Windows NT 10.0; Win64; x64) AppleWebKit/537.36 (KHTML, like Gecko) Chrome/86.0.4240.198 Safari/537.36",WebKit,Chrome,86.0.4240.198,Windows,10
24,1,null,"""",image-keyboard-response,98,47222,0.0-98.0,jspsych/neutralFaces/AM05NES.JPG,"""",null,100,14,backwardMask,"""","""",11/20/2020 19:25,69.125.145.27,"Mozilla/5.0 (Windows NT 10.0; Win64; x64) AppleWebKit/537.36 (KHTML, like Gecko) Chrome/86.0.4240.198 Safari/537.36",WebKit,Chrome,86.0.4240.198,Windows,10
24,1,null,"""",html-keyboard-response,99,47431,0.0-99.0,"<div style=""font-size:60px;"">+</div>","""",null,200,14,fixationBtwnNeutralMaskAndPrompt,"""","""",11/20/2020 19:25,69.125.145.27,"Mozilla/5.0 (Windows NT 10.0; Win64; x64) AppleWebKit/537.36 (KHTML, like Gecko) Chrome/86.0.4240.198 Safari/537.36",WebKit,Chrome,86.0.4240.198,Windows,10
24,1,430.375,"""",html-keyboard-response,100,47862,0.0-100.0,"<p> Did you see the ""hidden"" face? Press <b>0</b> if you did <i>not</i>, <b>1</b> if you <i>did</i>. </p>","""",48,"""",14,QueryConfidence,"""",0,11/20/2020 19:25,69.125.145.27,"Mozilla/5.0 (Windows NT 10.0; Win64; x64) AppleWebKit/537.36 (KHTML, like Gecko) Chrome/86.0.4240.198 Safari/537.36",WebKit,Chrome,86.0.4240.198,Windows,10
24,1,142.17,"""",html-keyboard-response,101,48005,0.0-101.0,"<p> What was the emotion of the hidden face? Go with your gut if you are not certain. <br> Press, <b>0</b> for <i>neutral face</i> or <b>1</b> for <i>disgust face</i></p>","""",48,"""",14,Query,"""",0,11/20/2020 19:25,69.125.145.27,"Mozilla/5.0 (Windows NT 10.0; Win64; x64) AppleWebKit/537.36 (KHTML, like Gecko) Chrome/86.0.4240.198 Safari/537.36",WebKit,Chrome,86.0.4240.198,Windows,10
24,1,null,"""",html-keyboard-response,102,49008,0.0-102.0,"<div style=""font-size:60px;"">+</div>","""",null,1000,15,ITI,"""","""",11/20/2020 19:25,69.125.145.27,"Mozilla/5.0 (Windows NT 10.0; Win64; x64) AppleWebKit/537.36 (KHTML, like Gecko) Chrome/86.0.4240.198 Safari/537.36",WebKit,Chrome,86.0.4240.198,Windows,10
24,1,null,"""",image-keyboard-response,103,49261,0.0-103.0,jspsych/scrambledNeutralFaces/scrambledAF11NES.JPG,"""",null,250,15,forwardMask,0,"""",11/20/2020 19:25,69.125.145.27,"Mozilla/5.0 (Windows NT 10.0; Win64; x64) AppleWebKit/537.36 (KHTML, like Gecko) Chrome/86.0.4240.198 Safari/537.36",WebKit,Chrome,86.0.4240.198,Windows,10
24,1,null,"""",image-keyboard-response,104,49288,0.0-104.0,jspsych/neutralFaces/AF11NES.JPG,"""",null,16,15,Cue,"""","""",11/20/2020 19:25,69.125.145.27,"Mozilla/5.0 (Windows NT 10.0; Win64; x64) AppleWebKit/537.36 (KHTML, like Gecko) Chrome/86.0.4240.198 Safari/537.36",WebKit,Chrome,86.0.4240.198,Windows,10
24,1,null,"""",image-keyboard-response,105,49395,0.0-105.0,jspsych/neutralFaces/AF34NES.JPG,"""",null,100,15,backwardMask,"""","""",11/20/2020 19:25,69.125.145.27,"Mozilla/5.0 (Windows NT 10.0; Win64; x64) AppleWebKit/537.36 (KHTML, like Gecko) Chrome/86.0.4240.198 Safari/537.36",WebKit,Chrome,86.0.4240.198,Windows,10
24,1,null,"""",html-keyboard-response,106,49604,0.0-106.0,"<div style=""font-size:60px;"">+</div>","""",null,200,15,fixationBtwnNeutralMaskAndPrompt,"""","""",11/20/2020 19:25,69.125.145.27,"Mozilla/5.0 (Windows NT 10.0; Win64; x64) AppleWebKit/537.36 (KHTML, like Gecko) Chrome/86.0.4240.198 Safari/537.36",WebKit,Chrome,86.0.4240.198,Windows,10
24,1,685.78,"""",html-keyboard-response,107,50293,0.0-107.0,"<p> Did you see the ""hidden"" face? Press <b>0</b> if you did <i>not</i>, <b>1</b> if you <i>did</i>. </p>","""",48,"""",15,QueryConfidence,"""",0,11/20/2020 19:25,69.125.145.27,"Mozilla/5.0 (Windows NT 10.0; Win64; x64) AppleWebKit/537.36 (KHTML, like Gecko) Chrome/86.0.4240.198 Safari/537.36",WebKit,Chrome,86.0.4240.198,Windows,10
24,1,113.18,"""",html-keyboard-response,108,50408,0.0-108.0,"<p> What was the emotion of the hidden face? Go with your gut if you are not certain. <br> Press, <b>0</b> for <i>neutral face</i> or <b>1</b> for <i>disgust face</i></p>","""",49,"""",15,Query,"""",1,11/20/2020 19:25,69.125.145.27,"Mozilla/5.0 (Windows NT 10.0; Win64; x64) AppleWebKit/537.36 (KHTML, like Gecko) Chrome/86.0.4240.198 Safari/537.36",WebKit,Chrome,86.0.4240.198,Windows,10
24,1,null,"""",html-keyboard-response,109,51420,0.0-109.0,"<div style=""font-size:60px;"">+</div>","""",null,1000,16,ITI,"""","""",11/20/2020 19:25,69.125.145.27,"Mozilla/5.0 (Windows NT 10.0; Win64; x64) AppleWebKit/537.36 (KHTML, like Gecko) Chrome/86.0.4240.198 Safari/537.36",WebKit,Chrome,86.0.4240.198,Windows,10
24,1,null,"""",image-keyboard-response,110,51683,0.0-110.0,jspsych/scrambledDisgustFaces/scrambledBF11DIS.JPG,"""",null,250,16,forwardMask,1,"""",11/20/2020 19:25,69.125.145.27,"Mozilla/5.0 (Windows NT 10.0; Win64; x64) AppleWebKit/537.36 (KHTML, like Gecko) Chrome/86.0.4240.198 Safari/537.36",WebKit,Chrome,86.0.4240.198,Windows,10
24,1,null,"""",image-keyboard-response,111,51720,0.0-111.0,jspsych/disgustFaces/BF11DIS.JPG,"""",null,33,16,Cue,"""","""",11/20/2020 19:25,69.125.145.27,"Mozilla/5.0 (Windows NT 10.0; Win64; x64) AppleWebKit/537.36 (KHTML, like Gecko) Chrome/86.0.4240.198 Safari/537.36",WebKit,Chrome,86.0.4240.198,Windows,10
24,1,null,"""",image-keyboard-response,112,51834,0.0-112.0,jspsych/neutralFaces/BF16NES.JPG,"""",null,100,16,backwardMask,"""","""",11/20/2020 19:25,69.125.145.27,"Mozilla/5.0 (Windows NT 10.0; Win64; x64) AppleWebKit/537.36 (KHTML, like Gecko) Chrome/86.0.4240.198 Safari/537.36",WebKit,Chrome,86.0.4240.198,Windows,10
24,1,null,"""",html-keyboard-response,113,52050,0.0-113.0,"<div style=""font-size:60px;"">+</div>","""",null,200,16,fixationBtwnNeutralMaskAndPrompt,"""","""",11/20/2020 19:25,69.125.145.27,"Mozilla/5.0 (Windows NT 10.0; Win64; x64) AppleWebKit/537.36 (KHTML, like Gecko) Chrome/86.0.4240.198 Safari/537.36",WebKit,Chrome,86.0.4240.198,Windows,10
24,1,521.285,"""",html-keyboard-response,114,52573,0.0-114.0,"<p> Did you see the ""hidden"" face? Press <b>0</b> if you did <i>not</i>, <b>1</b> if you <i>did</i>. </p>","""",48,"""",16,QueryConfidence,"""",0,11/20/2020 19:25,69.125.145.27,"Mozilla/5.0 (Windows NT 10.0; Win64; x64) AppleWebKit/537.36 (KHTML, like Gecko) Chrome/86.0.4240.198 Safari/537.36",WebKit,Chrome,86.0.4240.198,Windows,10
24,1,143.59,"""",html-keyboard-response,115,52721,0.0-115.0,"<p> What was the emotion of the hidden face? Go with your gut if you are not certain. <br> Press, <b>0</b> for <i>neutral face</i> or <b>1</b> for <i>disgust face</i></p>","""",49,"""",16,Query,"""",1,11/20/2020 19:25,69.125.145.27,"Mozilla/5.0 (Windows NT 10.0; Win64; x64) AppleWebKit/537.36 (KHTML, like Gecko) Chrome/86.0.4240.198 Safari/537.36",WebKit,Chrome,86.0.4240.198,Windows,10
24,1,null,"""",html-keyboard-response,116,53732,0.0-116.0,"<div style=""font-size:60px;"">+</div>","""",null,1000,17,ITI,"""","""",11/20/2020 19:25,69.125.145.27,"Mozilla/5.0 (Windows NT 10.0; Win64; x64) AppleWebKit/537.36 (KHTML, like Gecko) Chrome/86.0.4240.198 Safari/537.36",WebKit,Chrome,86.0.4240.198,Windows,10
24,1,null,"""",image-keyboard-response,117,53998,0.0-117.0,jspsych/scrambledNeutralFaces/scrambledAM31NES.JPG,"""",null,250,17,forwardMask,0,"""",11/20/2020 19:25,69.125.145.27,"Mozilla/5.0 (Windows NT 10.0; Win64; x64) AppleWebKit/537.36 (KHTML, like Gecko) Chrome/86.0.4240.198 Safari/537.36",WebKit,Chrome,86.0.4240.198,Windows,10
24,1,null,"""",image-keyboard-response,118,54115,0.0-118.0,jspsych/neutralFaces/AM31NES.JPG,"""",null,104,17,Cue,"""","""",11/20/2020 19:25,69.125.145.27,"Mozilla/5.0 (Windows NT 10.0; Win64; x64) AppleWebKit/537.36 (KHTML, like Gecko) Chrome/86.0.4240.198 Safari/537.36",WebKit,Chrome,86.0.4240.198,Windows,10
24,1,null,"""",image-keyboard-response,119,54217,0.0-119.0,jspsych/neutralFaces/AM02NES.JPG,"""",null,100,17,backwardMask,"""","""",11/20/2020 19:25,69.125.145.27,"Mozilla/5.0 (Windows NT 10.0; Win64; x64) AppleWebKit/537.36 (KHTML, like Gecko) Chrome/86.0.4240.198 Safari/537.36",WebKit,Chrome,86.0.4240.198,Windows,10
24,1,null,"""",html-keyboard-response,120,54424,0.0-120.0,"<div style=""font-size:60px;"">+</div>","""",null,200,17,fixationBtwnNeutralMaskAndPrompt,"""","""",11/20/2020 19:25,69.125.145.27,"Mozilla/5.0 (Windows NT 10.0; Win64; x64) AppleWebKit/537.36 (KHTML, like Gecko) Chrome/86.0.4240.198 Safari/537.36",WebKit,Chrome,86.0.4240.198,Windows,10
24,1,421.525,"""",html-keyboard-response,121,54846,0.0-121.0,"<p> Did you see the ""hidden"" face? Press <b>0</b> if you did <i>not</i>, <b>1</b> if you <i>did</i>. </p>","""",48,"""",17,QueryConfidence,"""",0,11/20/2020 19:25,69.125.145.27,"Mozilla/5.0 (Windows NT 10.0; Win64; x64) AppleWebKit/537.36 (KHTML, like Gecko) Chrome/86.0.4240.198 Safari/537.36",WebKit,Chrome,86.0.4240.198,Windows,10
24,1,157.055,"""",html-keyboard-response,122,55005,0.0-122.0,"<p> What was the emotion of the hidden face? Go with your gut if you are not certain. <br> Press, <b>0</b> for <i>neutral face</i> or <b>1</b> for <i>disgust face</i></p>","""",48,"""",17,Query,"""",0,11/20/2020 19:25,69.125.145.27,"Mozilla/5.0 (Windows NT 10.0; Win64; x64) AppleWebKit/537.36 (KHTML, like Gecko) Chrome/86.0.4240.198 Safari/537.36",WebKit,Chrome,86.0.4240.198,Windows,10
24,1,null,"""",html-keyboard-response,123,56013,0.0-123.0,"<div style=""font-size:60px;"">+</div>","""",null,1000,18,ITI,"""","""",11/20/2020 19:25,69.125.145.27,"Mozilla/5.0 (Windows NT 10.0; Win64; x64) AppleWebKit/537.36 (KHTML, like Gecko) Chrome/86.0.4240.198 Safari/537.36",WebKit,Chrome,86.0.4240.198,Windows,10
24,1,null,"""",image-keyboard-response,124,56279,0.0-124.0,jspsych/scrambledDisgustFaces/scrambledBF02DIS.JPG,"""",null,250,18,forwardMask,1,"""",11/20/2020 19:25,69.125.145.27,"Mozilla/5.0 (Windows NT 10.0; Win64; x64) AppleWebKit/537.36 (KHTML, like Gecko) Chrome/86.0.4240.198 Safari/537.36",WebKit,Chrome,86.0.4240.198,Windows,10
24,1,null,"""",image-keyboard-response,125,56319,0.0-125.0,jspsych/disgustFaces/BF02DIS.JPG,"""",null,33,18,Cue,"""","""",11/20/2020 19:25,69.125.145.27,"Mozilla/5.0 (Windows NT 10.0; Win64; x64) AppleWebKit/537.36 (KHTML, like Gecko) Chrome/86.0.4240.198 Safari/537.36",WebKit,Chrome,86.0.4240.198,Windows,10
24,1,null,"""",image-keyboard-response,126,56431,0.0-126.0,jspsych/neutralFaces/AM31NES.JPG,"""",null,100,18,backwardMask,"""","""",11/20/2020 19:25,69.125.145.27,"Mozilla/5.0 (Windows NT 10.0; Win64; x64) AppleWebKit/537.36 (KHTML, like Gecko) Chrome/86.0.4240.198 Safari/537.36",WebKit,Chrome,86.0.4240.198,Windows,10
24,1,null,"""",html-keyboard-response,127,56646,0.0-127.0,"<div style=""font-size:60px;"">+</div>","""",null,200,18,fixationBtwnNeutralMaskAndPrompt,"""","""",11/20/2020 19:25,69.125.145.27,"Mozilla/5.0 (Windows NT 10.0; Win64; x64) AppleWebKit/537.36 (KHTML, like Gecko) Chrome/86.0.4240.198 Safari/537.36",WebKit,Chrome,86.0.4240.198,Windows,10
24,1,727.44,"""",html-keyboard-response,128,57376,0.0-128.0,"<p> Did you see the ""hidden"" face? Press <b>0</b> if you did <i>not</i>, <b>1</b> if you <i>did</i>. </p>","""",49,"""",18,QueryConfidence,"""",1,11/20/2020 19:25,69.125.145.27,"Mozilla/5.0 (Windows NT 10.0; Win64; x64) AppleWebKit/537.36 (KHTML, like Gecko) Chrome/86.0.4240.198 Safari/537.36",WebKit,Chrome,86.0.4240.198,Windows,10
24,1,422.105,"""",html-keyboard-response,129,57799,0.0-129.0,"<p> What was the emotion of the hidden face? Go with your gut if you are not certain. <br> Press, <b>0</b> for <i>neutral face</i> or <b>1</b> for <i>disgust face</i></p>","""",49,"""",18,Query,"""",1,11/20/2020 19:25,69.125.145.27,"Mozilla/5.0 (Windows NT 10.0; Win64; x64) AppleWebKit/537.36 (KHTML, like Gecko) Chrome/86.0.4240.198 Safari/537.36",WebKit,Chrome,86.0.4240.198,Windows,10
24,1,null,"""",html-keyboard-response,130,58806,0.0-130.0,"<div style=""font-size:60px;"">+</div>","""",null,1000,19,ITI,"""","""",11/20/2020 19:25,69.125.145.27,"Mozilla/5.0 (Windows NT 10.0; Win64; x64) AppleWebKit/537.36 (KHTML, like Gecko) Chrome/86.0.4240.198 Safari/537.36",WebKit,Chrome,86.0.4240.198,Windows,10
24,1,null,"""",image-keyboard-response,131,59060,0.0-131.0,jspsych/scrambledDisgustFaces/scrambledBF01DIS.JPG,"""",null,250,19,forwardMask,1,"""",11/20/2020 19:25,69.125.145.27,"Mozilla/5.0 (Windows NT 10.0; Win64; x64) AppleWebKit/537.36 (KHTML, like Gecko) Chrome/86.0.4240.198 Safari/537.36",WebKit,Chrome,86.0.4240.198,Windows,10
24,1,null,"""",image-keyboard-response,132,59145,0.0-132.0,jspsych/disgustFaces/BF01DIS.JPG,"""",null,82,19,Cue,"""","""",11/20/2020 19:25,69.125.145.27,"Mozilla/5.0 (Windows NT 10.0; Win64; x64) AppleWebKit/537.36 (KHTML, like Gecko) Chrome/86.0.4240.198 Safari/537.36",WebKit,Chrome,86.0.4240.198,Windows,10
24,1,null,"""",image-keyboard-response,133,59252,0.0-133.0,jspsych/neutralFaces/AF12NES.JPG,"""",null,100,19,backwardMask,"""","""",11/20/2020 19:25,69.125.145.27,"Mozilla/5.0 (Windows NT 10.0; Win64; x64) AppleWebKit/537.36 (KHTML, like Gecko) Chrome/86.0.4240.198 Safari/537.36",WebKit,Chrome,86.0.4240.198,Windows,10
24,1,null,"""",html-keyboard-response,134,59467,0.0-134.0,"<div style=""font-size:60px;"">+</div>","""",null,200,19,fixationBtwnNeutralMaskAndPrompt,"""","""",11/20/2020 19:25,69.125.145.27,"Mozilla/5.0 (Windows NT 10.0; Win64; x64) AppleWebKit/537.36 (KHTML, like Gecko) Chrome/86.0.4240.198 Safari/537.36",WebKit,Chrome,86.0.4240.198,Windows,10
24,1,862.965,"""",html-keyboard-response,135,60331,0.0-135.0,"<p> Did you see the ""hidden"" face? Press <b>0</b> if you did <i>not</i>, <b>1</b> if you <i>did</i>. </p>","""",48,"""",19,QueryConfidence,"""",0,11/20/2020 19:25,69.125.145.27,"Mozilla/5.0 (Windows NT 10.0; Win64; x64) AppleWebKit/537.36 (KHTML, like Gecko) Chrome/86.0.4240.198 Safari/537.36",WebKit,Chrome,86.0.4240.198,Windows,10
24,1,81.34999999,"""",html-keyboard-response,136,60413,0.0-136.0,"<p> What was the emotion of the hidden face? Go with your gut if you are not certain. <br> Press, <b>0</b> for <i>neutral face</i> or <b>1</b> for <i>disgust face</i></p>","""",49,"""",19,Query,"""",1,11/20/2020 19:25,69.125.145.27,"Mozilla/5.0 (Windows NT 10.0; Win64; x64) AppleWebKit/537.36 (KHTML, like Gecko) Chrome/86.0.4240.198 Safari/537.36",WebKit,Chrome,86.0.4240.198,Windows,10
24,1,null,"""",html-keyboard-response,137,61418,0.0-137.0,"<div style=""font-size:60px;"">+</div>","""",null,1000,20,ITI,"""","""",11/20/2020 19:25,69.125.145.27,"Mozilla/5.0 (Windows NT 10.0; Win64; x64) AppleWebKit/537.36 (KHTML, like Gecko) Chrome/86.0.4240.198 Safari/537.36",WebKit,Chrome,86.0.4240.198,Windows,10
24,1,null,"""",image-keyboard-response,138,61675,0.0-138.0,jspsych/scrambledDisgustFaces/scrambledAF32DIS.JPG,"""",null,250,20,forwardMask,1,"""",11/20/2020 19:25,69.125.145.27,"Mozilla/5.0 (Windows NT 10.0; Win64; x64) AppleWebKit/537.36 (KHTML, like Gecko) Chrome/86.0.4240.198 Safari/537.36",WebKit,Chrome,86.0.4240.198,Windows,10
24,1,null,"""",image-keyboard-response,139,61714,0.0-139.0,jspsych/disgustFaces/AF32DIS.JPG,"""",null,33,20,Cue,"""","""",11/20/2020 19:25,69.125.145.27,"Mozilla/5.0 (Windows NT 10.0; Win64; x64) AppleWebKit/537.36 (KHTML, like Gecko) Chrome/86.0.4240.198 Safari/537.36",WebKit,Chrome,86.0.4240.198,Windows,10
24,1,null,"""",image-keyboard-response,140,61823,0.0-140.0,jspsych/neutralFaces/BF05NES.JPG,"""",null,100,20,backwardMask,"""","""",11/20/2020 19:25,69.125.145.27,"Mozilla/5.0 (Windows NT 10.0; Win64; x64) AppleWebKit/537.36 (KHTML, like Gecko) Chrome/86.0.4240.198 Safari/537.36",WebKit,Chrome,86.0.4240.198,Windows,10
24,1,null,"""",html-keyboard-response,141,62031,0.0-141.0,"<div style=""font-size:60px;"">+</div>","""",null,200,20,fixationBtwnNeutralMaskAndPrompt,"""","""",11/20/2020 19:25,69.125.145.27,"Mozilla/5.0 (Windows NT 10.0; Win64; x64) AppleWebKit/537.36 (KHTML, like Gecko) Chrome/86.0.4240.198 Safari/537.36",WebKit,Chrome,86.0.4240.198,Windows,10
24,1,403.66,"""",html-keyboard-response,142,62436,0.0-142.0,"<p> Did you see the ""hidden"" face? Press <b>0</b> if you did <i>not</i>, <b>1</b> if you <i>did</i>. </p>","""",48,"""",20,QueryConfidence,"""",0,11/20/2020 19:25,69.125.145.27,"Mozilla/5.0 (Windows NT 10.0; Win64; x64) AppleWebKit/537.36 (KHTML, like Gecko) Chrome/86.0.4240.198 Safari/537.36",WebKit,Chrome,86.0.4240.198,Windows,10
24,1,151.49,"""",html-keyboard-response,143,62588,0.0-143.0,"<p> What was the emotion of the hidden face? Go with your gut if you are not certain. <br> Press, <b>0</b> for <i>neutral face</i> or <b>1</b> for <i>disgust face</i></p>","""",48,"""",20,Query,"""",0,11/20/2020 19:25,69.125.145.27,"Mozilla/5.0 (Windows NT 10.0; Win64; x64) AppleWebKit/537.36 (KHTML, like Gecko) Chrome/86.0.4240.198 Safari/537.36",WebKit,Chrome,86.0.4240.198,Windows,10
24,1,null,"""",html-keyboard-response,144,63597,0.0-144.0,"<div style=""font-size:60px;"">+</div>","""",null,1000,21,ITI,"""","""",11/20/2020 19:25,69.125.145.27,"Mozilla/5.0 (Windows NT 10.0; Win64; x64) AppleWebKit/537.36 (KHTML, like Gecko) Chrome/86.0.4240.198 Safari/537.36",WebKit,Chrome,86.0.4240.198,Windows,10
24,1,null,"""",image-keyboard-response,145,63857,0.0-145.0,jspsych/scrambledDisgustFaces/scrambledAM20DIS.JPG,"""",null,250,21,forwardMask,1,"""",11/20/2020 19:25,69.125.145.27,"Mozilla/5.0 (Windows NT 10.0; Win64; x64) AppleWebKit/537.36 (KHTML, like Gecko) Chrome/86.0.4240.198 Safari/537.36",WebKit,Chrome,86.0.4240.198,Windows,10
24,1,null,"""",image-keyboard-response,146,63922,0.0-146.0,jspsych/disgustFaces/AM20DIS.JPG,"""",null,49,21,Cue,"""","""",11/20/2020 19:25,69.125.145.27,"Mozilla/5.0 (Windows NT 10.0; Win64; x64) AppleWebKit/537.36 (KHTML, like Gecko) Chrome/86.0.4240.198 Safari/537.36",WebKit,Chrome,86.0.4240.198,Windows,10
24,1,null,"""",image-keyboard-response,147,64030,0.0-147.0,jspsych/neutralFaces/AM07NES.JPG,"""",null,100,21,backwardMask,"""","""",11/20/2020 19:25,69.125.145.27,"Mozilla/5.0 (Windows NT 10.0; Win64; x64) AppleWebKit/537.36 (KHTML, like Gecko) Chrome/86.0.4240.198 Safari/537.36",WebKit,Chrome,86.0.4240.198,Windows,10
24,1,null,"""",html-keyboard-response,148,64240,0.0-148.0,"<div style=""font-size:60px;"">+</div>","""",null,200,21,fixationBtwnNeutralMaskAndPrompt,"""","""",11/20/2020 19:25,69.125.145.27,"Mozilla/5.0 (Windows NT 10.0; Win64; x64) AppleWebKit/537.36 (KHTML, like Gecko) Chrome/86.0.4240.198 Safari/537.36",WebKit,Chrome,86.0.4240.198,Windows,10
24,1,380.95,"""",html-keyboard-response,149,64622,0.0-149.0,"<p> Did you see the ""hidden"" face? Press <b>0</b> if you did <i>not</i>, <b>1</b> if you <i>did</i>. </p>","""",48,"""",21,QueryConfidence,"""",0,11/20/2020 19:25,69.125.145.27,"Mozilla/5.0 (Windows NT 10.0; Win64; x64) AppleWebKit/537.36 (KHTML, like Gecko) Chrome/86.0.4240.198 Safari/537.36",WebKit,Chrome,86.0.4240.198,Windows,10
24,1,166.31,"""",html-keyboard-response,150,64792,0.0-150.0,"<p> What was the emotion of the hidden face? Go with your gut if you are not certain. <br> Press, <b>0</b> for <i>neutral face</i> or <b>1</b> for <i>disgust face</i></p>","""",48,"""",21,Query,"""",0,11/20/2020 19:25,69.125.145.27,"Mozilla/5.0 (Windows NT 10.0; Win64; x64) AppleWebKit/537.36 (KHTML, like Gecko) Chrome/86.0.4240.198 Safari/537.36",WebKit,Chrome,86.0.4240.198,Windows,10
24,1,null,"""",html-keyboard-response,151,65804,0.0-151.0,"<div style=""font-size:60px;"">+</div>","""",null,1000,22,ITI,"""","""",11/20/2020 19:25,69.125.145.27,"Mozilla/5.0 (Windows NT 10.0; Win64; x64) AppleWebKit/537.36 (KHTML, like Gecko) Chrome/86.0.4240.198 Safari/537.36",WebKit,Chrome,86.0.4240.198,Windows,10
24,1,null,"""",image-keyboard-response,152,66061,0.0-152.0,jspsych/scrambledNeutralFaces/scrambledAF22NES.JPG,"""",null,250,22,forwardMask,0,"""",11/20/2020 19:25,69.125.145.27,"Mozilla/5.0 (Windows NT 10.0; Win64; x64) AppleWebKit/537.36 (KHTML, like Gecko) Chrome/86.0.4240.198 Safari/537.36",WebKit,Chrome,86.0.4240.198,Windows,10
24,1,null,"""",image-keyboard-response,153,66103,0.0-153.0,jspsych/neutralFaces/AF22NES.JPG,"""",null,33,22,Cue,"""","""",11/20/2020 19:25,69.125.145.27,"Mozilla/5.0 (Windows NT 10.0; Win64; x64) AppleWebKit/537.36 (KHTML, like Gecko) Chrome/86.0.4240.198 Safari/537.36",WebKit,Chrome,86.0.4240.198,Windows,10
24,1,null,"""",image-keyboard-response,154,66211,0.0-154.0,jspsych/neutralFaces/BF07NES.JPG,"""",null,100,22,backwardMask,"""","""",11/20/2020 19:25,69.125.145.27,"Mozilla/5.0 (Windows NT 10.0; Win64; x64) AppleWebKit/537.36 (KHTML, like Gecko) Chrome/86.0.4240.198 Safari/537.36",WebKit,Chrome,86.0.4240.198,Windows,10
24,1,null,"""",html-keyboard-response,155,66420,0.0-155.0,"<div style=""font-size:60px;"">+</div>","""",null,200,22,fixationBtwnNeutralMaskAndPrompt,"""","""",11/20/2020 19:25,69.125.145.27,"Mozilla/5.0 (Windows NT 10.0; Win64; x64) AppleWebKit/537.36 (KHTML, like Gecko) Chrome/86.0.4240.198 Safari/537.36",WebKit,Chrome,86.0.4240.198,Windows,10
24,1,320.13,"""",html-keyboard-response,156,66741,0.0-156.0,"<p> Did you see the ""hidden"" face? Press <b>0</b> if you did <i>not</i>, <b>1</b> if you <i>did</i>. </p>","""",48,"""",22,QueryConfidence,"""",0,11/20/2020 19:25,69.125.145.27,"Mozilla/5.0 (Windows NT 10.0; Win64; x64) AppleWebKit/537.36 (KHTML, like Gecko) Chrome/86.0.4240.198 Safari/537.36",WebKit,Chrome,86.0.4240.198,Windows,10
24,1,171.895,"""",html-keyboard-response,157,66915,0.0-157.0,"<p> What was the emotion of the hidden face? Go with your gut if you are not certain. <br> Press, <b>0</b> for <i>neutral face</i> or <b>1</b> for <i>disgust face</i></p>","""",48,"""",22,Query,"""",0,11/20/2020 19:25,69.125.145.27,"Mozilla/5.0 (Windows NT 10.0; Win64; x64) AppleWebKit/537.36 (KHTML, like Gecko) Chrome/86.0.4240.198 Safari/537.36",WebKit,Chrome,86.0.4240.198,Windows,10
24,1,null,"""",html-keyboard-response,158,67919,0.0-158.0,"<div style=""font-size:60px;"">+</div>","""",null,1000,23,ITI,"""","""",11/20/2020 19:25,69.125.145.27,"Mozilla/5.0 (Windows NT 10.0; Win64; x64) AppleWebKit/537.36 (KHTML, like Gecko) Chrome/86.0.4240.198 Safari/537.36",WebKit,Chrome,86.0.4240.198,Windows,10
24,1,null,"""",image-keyboard-response,159,68185,0.0-159.0,jspsych/scrambledDisgustFaces/scrambledBF03DIS.JPG,"""",null,250,23,forwardMask,1,"""",11/20/2020 19:25,69.125.145.27,"Mozilla/5.0 (Windows NT 10.0; Win64; x64) AppleWebKit/537.36 (KHTML, like Gecko) Chrome/86.0.4240.198 Safari/537.36",WebKit,Chrome,86.0.4240.198,Windows,10
24,1,null,"""",image-keyboard-response,160,68301,0.0-160.0,jspsych/disgustFaces/BF03DIS.JPG,"""",null,104,23,Cue,"""","""",11/20/2020 19:25,69.125.145.27,"Mozilla/5.0 (Windows NT 10.0; Win64; x64) AppleWebKit/537.36 (KHTML, like Gecko) Chrome/86.0.4240.198 Safari/537.36",WebKit,Chrome,86.0.4240.198,Windows,10
24,1,null,"""",image-keyboard-response,161,68404,0.0-161.0,jspsych/neutralFaces/AF12NES.JPG,"""",null,100,23,backwardMask,"""","""",11/20/2020 19:25,69.125.145.27,"Mozilla/5.0 (Windows NT 10.0; Win64; x64) AppleWebKit/537.36 (KHTML, like Gecko) Chrome/86.0.4240.198 Safari/537.36",WebKit,Chrome,86.0.4240.198,Windows,10
24,1,null,"""",html-keyboard-response,162,68606,0.0-162.0,"<div style=""font-size:60px;"">+</div>","""",null,200,23,fixationBtwnNeutralMaskAndPrompt,"""","""",11/20/2020 19:25,69.125.145.27,"Mozilla/5.0 (Windows NT 10.0; Win64; x64) AppleWebKit/537.36 (KHTML, like Gecko) Chrome/86.0.4240.198 Safari/537.36",WebKit,Chrome,86.0.4240.198,Windows,10
24,1,519.1,"""",html-keyboard-response,163,69127,0.0-163.0,"<p> Did you see the ""hidden"" face? Press <b>0</b> if you did <i>not</i>, <b>1</b> if you <i>did</i>. </p>","""",49,"""",23,QueryConfidence,"""",1,11/20/2020 19:25,69.125.145.27,"Mozilla/5.0 (Windows NT 10.0; Win64; x64) AppleWebKit/537.36 (KHTML, like Gecko) Chrome/86.0.4240.198 Safari/537.36",WebKit,Chrome,86.0.4240.198,Windows,10
24,1,176.985,"""",html-keyboard-response,164,69305,0.0-164.0,"<p> What was the emotion of the hidden face? Go with your gut if you are not certain. <br> Press, <b>0</b> for <i>neutral face</i> or <b>1</b> for <i>disgust face</i></p>","""",49,"""",23,Query,"""",1,11/20/2020 19:25,69.125.145.27,"Mozilla/5.0 (Windows NT 10.0; Win64; x64) AppleWebKit/537.36 (KHTML, like Gecko) Chrome/86.0.4240.198 Safari/537.36",WebKit,Chrome,86.0.4240.198,Windows,10
24,1,null,"""",html-keyboard-response,165,70315,0.0-165.0,"<div style=""font-size:60px;"">+</div>","""",null,1000,24,ITI,"""","""",11/20/2020 19:25,69.125.145.27,"Mozilla/5.0 (Windows NT 10.0; Win64; x64) AppleWebKit/537.36 (KHTML, like Gecko) Chrome/86.0.4240.198 Safari/537.36",WebKit,Chrome,86.0.4240.198,Windows,10
24,1,null,"""",image-keyboard-response,166,70568,0.0-166.0,jspsych/scrambledNeutralFaces/scrambledAF30NES.JPG,"""",null,250,24,forwardMask,0,"""",11/20/2020 19:25,69.125.145.27,"Mozilla/5.0 (Windows NT 10.0; Win64; x64) AppleWebKit/537.36 (KHTML, like Gecko) Chrome/86.0.4240.198 Safari/537.36",WebKit,Chrome,86.0.4240.198,Windows,10
24,1,null,"""",image-keyboard-response,167,70657,0.0-167.0,jspsych/neutralFaces/AF30NES.JPG,"""",null,82,24,Cue,"""","""",11/20/2020 19:25,69.125.145.27,"Mozilla/5.0 (Windows NT 10.0; Win64; x64) AppleWebKit/537.36 (KHTML, like Gecko) Chrome/86.0.4240.198 Safari/537.36",WebKit,Chrome,86.0.4240.198,Windows,10
24,1,null,"""",image-keyboard-response,168,70765,0.0-168.0,jspsych/neutralFaces/AF02NES.JPG,"""",null,100,24,backwardMask,"""","""",11/20/2020 19:25,69.125.145.27,"Mozilla/5.0 (Windows NT 10.0; Win64; x64) AppleWebKit/537.36 (KHTML, like Gecko) Chrome/86.0.4240.198 Safari/537.36",WebKit,Chrome,86.0.4240.198,Windows,10
24,1,null,"""",html-keyboard-response,169,70971,0.0-169.0,"<div style=""font-size:60px;"">+</div>","""",null,200,24,fixationBtwnNeutralMaskAndPrompt,"""","""",11/20/2020 19:25,69.125.145.27,"Mozilla/5.0 (Windows NT 10.0; Win64; x64) AppleWebKit/537.36 (KHTML, like Gecko) Chrome/86.0.4240.198 Safari/537.36",WebKit,Chrome,86.0.4240.198,Windows,10
24,1,422.63,"""",html-keyboard-response,170,71395,0.0-170.0,"<p> Did you see the ""hidden"" face? Press <b>0</b> if you did <i>not</i>, <b>1</b> if you <i>did</i>. </p>","""",48,"""",24,QueryConfidence,"""",0,11/20/2020 19:25,69.125.145.27,"Mozilla/5.0 (Windows NT 10.0; Win64; x64) AppleWebKit/537.36 (KHTML, like Gecko) Chrome/86.0.4240.198 Safari/537.36",WebKit,Chrome,86.0.4240.198,Windows,10
24,1,210.595,"""",html-keyboard-response,171,71606,0.0-171.0,"<p> What was the emotion of the hidden face? Go with your gut if you are not certain. <br> Press, <b>0</b> for <i>neutral face</i> or <b>1</b> for <i>disgust face</i></p>","""",49,"""",24,Query,"""",1,11/20/2020 19:25,69.125.145.27,"Mozilla/5.0 (Windows NT 10.0; Win64; x64) AppleWebKit/537.36 (KHTML, like Gecko) Chrome/86.0.4240.198 Safari/537.36",WebKit,Chrome,86.0.4240.198,Windows,10
24,1,null,"""",html-keyboard-response,172,72615,0.0-172.0,"<div style=""font-size:60px;"">+</div>","""",null,1000,25,ITI,"""","""",11/20/2020 19:25,69.125.145.27,"Mozilla/5.0 (Windows NT 10.0; Win64; x64) AppleWebKit/537.36 (KHTML, like Gecko) Chrome/86.0.4240.198 Safari/537.36",WebKit,Chrome,86.0.4240.198,Windows,10
24,1,null,"""",image-keyboard-response,173,72880,0.0-173.0,jspsych/scrambledDisgustFaces/scrambledAM30DIS.JPG,"""",null,250,25,forwardMask,1,"""",11/20/2020 19:25,69.125.145.27,"Mozilla/5.0 (Windows NT 10.0; Win64; x64) AppleWebKit/537.36 (KHTML, like Gecko) Chrome/86.0.4240.198 Safari/537.36",WebKit,Chrome,86.0.4240.198,Windows,10
24,1,null,"""",image-keyboard-response,174,73021,0.0-174.0,jspsych/disgustFaces/AM30DIS.JPG,"""",null,136,25,Cue,"""","""",11/20/2020 19:25,69.125.145.27,"Mozilla/5.0 (Windows NT 10.0; Win64; x64) AppleWebKit/537.36 (KHTML, like Gecko) Chrome/86.0.4240.198 Safari/537.36",WebKit,Chrome,86.0.4240.198,Windows,10
24,1,null,"""",image-keyboard-response,175,73131,0.0-175.0,jspsych/neutralFaces/BF23NES.JPG,"""",null,100,25,backwardMask,"""","""",11/20/2020 19:25,69.125.145.27,"Mozilla/5.0 (Windows NT 10.0; Win64; x64) AppleWebKit/537.36 (KHTML, like Gecko) Chrome/86.0.4240.198 Safari/537.36",WebKit,Chrome,86.0.4240.198,Windows,10
24,1,null,"""",html-keyboard-response,176,73347,0.0-176.0,"<div style=""font-size:60px;"">+</div>","""",null,200,25,fixationBtwnNeutralMaskAndPrompt,"""","""",11/20/2020 19:25,69.125.145.27,"Mozilla/5.0 (Windows NT 10.0; Win64; x64) AppleWebKit/537.36 (KHTML, like Gecko) Chrome/86.0.4240.198 Safari/537.36",WebKit,Chrome,86.0.4240.198,Windows,10
24,1,495.35,"""",html-keyboard-response,177,73843,0.0-177.0,"<p> Did you see the ""hidden"" face? Press <b>0</b> if you did <i>not</i>, <b>1</b> if you <i>did</i>. </p>","""",48,"""",25,QueryConfidence,"""",0,11/20/2020 19:25,69.125.145.27,"Mozilla/5.0 (Windows NT 10.0; Win64; x64) AppleWebKit/537.36 (KHTML, like Gecko) Chrome/86.0.4240.198 Safari/537.36",WebKit,Chrome,86.0.4240.198,Windows,10
24,1,166.835,"""",html-keyboard-response,178,74016,0.0-178.0,"<p> What was the emotion of the hidden face? Go with your gut if you are not certain. <br> Press, <b>0</b> for <i>neutral face</i> or <b>1</b> for <i>disgust face</i></p>","""",48,"""",25,Query,"""",0,11/20/2020 19:25,69.125.145.27,"Mozilla/5.0 (Windows NT 10.0; Win64; x64) AppleWebKit/537.36 (KHTML, like Gecko) Chrome/86.0.4240.198 Safari/537.36",WebKit,Chrome,86.0.4240.198,Windows,10
24,1,null,"""",html-keyboard-response,179,75522,0.0-179.0,50% Done,"""",null,1500,26,encouragement,"""","""",11/20/2020 19:25,69.125.145.27,"Mozilla/5.0 (Windows NT 10.0; Win64; x64) AppleWebKit/537.36 (KHTML, like Gecko) Chrome/86.0.4240.198 Safari/537.36",WebKit,Chrome,86.0.4240.198,Windows,10
24,1,null,"""",html-keyboard-response,180,76533,0.0-180.0,"<div style=""font-size:60px;"">+</div>","""",null,1000,26,ITI,"""","""",11/20/2020 19:25,69.125.145.27,"Mozilla/5.0 (Windows NT 10.0; Win64; x64) AppleWebKit/537.36 (KHTML, like Gecko) Chrome/86.0.4240.198 Safari/537.36",WebKit,Chrome,86.0.4240.198,Windows,10
24,1,null,"""",image-keyboard-response,181,76794,0.0-181.0,jspsych/scrambledDisgustFaces/scrambledAM18DIS.JPG,"""",null,250,26,forwardMask,1,"""",11/20/2020 19:25,69.125.145.27,"Mozilla/5.0 (Windows NT 10.0; Win64; x64) AppleWebKit/537.36 (KHTML, like Gecko) Chrome/86.0.4240.198 Safari/537.36",WebKit,Chrome,86.0.4240.198,Windows,10
24,1,null,"""",image-keyboard-response,182,76851,0.0-182.0,jspsych/disgustFaces/AM18DIS.JPG,"""",null,49,26,Cue,"""","""",11/20/2020 19:25,69.125.145.27,"Mozilla/5.0 (Windows NT 10.0; Win64; x64) AppleWebKit/537.36 (KHTML, like Gecko) Chrome/86.0.4240.198 Safari/537.36",WebKit,Chrome,86.0.4240.198,Windows,10
24,1,null,"""",image-keyboard-response,183,76959,0.0-183.0,jspsych/neutralFaces/AM32NES.JPG,"""",null,100,26,backwardMask,"""","""",11/20/2020 19:25,69.125.145.27,"Mozilla/5.0 (Windows NT 10.0; Win64; x64) AppleWebKit/537.36 (KHTML, like Gecko) Chrome/86.0.4240.198 Safari/537.36",WebKit,Chrome,86.0.4240.198,Windows,10
24,1,null,"""",html-keyboard-response,184,77161,0.0-184.0,"<div style=""font-size:60px;"">+</div>","""",null,200,26,fixationBtwnNeutralMaskAndPrompt,"""","""",11/20/2020 19:25,69.125.145.27,"Mozilla/5.0 (Windows NT 10.0; Win64; x64) AppleWebKit/537.36 (KHTML, like Gecko) Chrome/86.0.4240.198 Safari/537.36",WebKit,Chrome,86.0.4240.198,Windows,10
24,1,540.355,"""",html-keyboard-response,185,77702,0.0-185.0,"<p> Did you see the ""hidden"" face? Press <b>0</b> if you did <i>not</i>, <b>1</b> if you <i>did</i>. </p>","""",48,"""",26,QueryConfidence,"""",0,11/20/2020 19:25,69.125.145.27,"Mozilla/5.0 (Windows NT 10.0; Win64; x64) AppleWebKit/537.36 (KHTML, like Gecko) Chrome/86.0.4240.198 Safari/537.36",WebKit,Chrome,86.0.4240.198,Windows,10
24,1,175.2000001,"""",html-keyboard-response,186,77878,0.0-186.0,"<p> What was the emotion of the hidden face? Go with your gut if you are not certain. <br> Press, <b>0</b> for <i>neutral face</i> or <b>1</b> for <i>disgust face</i></p>","""",48,"""",26,Query,"""",0,11/20/2020 19:25,69.125.145.27,"Mozilla/5.0 (Windows NT 10.0; Win64; x64) AppleWebKit/537.36 (KHTML, like Gecko) Chrome/86.0.4240.198 Safari/537.36",WebKit,Chrome,86.0.4240.198,Windows,10
24,1,null,"""",html-keyboard-response,187,78882,0.0-187.0,"<div style=""font-size:60px;"">+</div>","""",null,1000,27,ITI,"""","""",11/20/2020 19:25,69.125.145.27,"Mozilla/5.0 (Windows NT 10.0; Win64; x64) AppleWebKit/537.36 (KHTML, like Gecko) Chrome/86.0.4240.198 Safari/537.36",WebKit,Chrome,86.0.4240.198,Windows,10
24,1,null,"""",image-keyboard-response,188,79142,0.0-188.0,jspsych/scrambledDisgustFaces/scrambledBF29DIS.JPG,"""",null,250,27,forwardMask,1,"""",11/20/2020 19:25,69.125.145.27,"Mozilla/5.0 (Windows NT 10.0; Win64; x64) AppleWebKit/537.36 (KHTML, like Gecko) Chrome/86.0.4240.198 Safari/537.36",WebKit,Chrome,86.0.4240.198,Windows,10
24,1,null,"""",image-keyboard-response,189,79207,0.0-189.0,jspsych/disgustFaces/BF29DIS.JPG,"""",null,49,27,Cue,"""","""",11/20/2020 19:25,69.125.145.27,"Mozilla/5.0 (Windows NT 10.0; Win64; x64) AppleWebKit/537.36 (KHTML, like Gecko) Chrome/86.0.4240.198 Safari/537.36",WebKit,Chrome,86.0.4240.198,Windows,10
24,1,null,"""",image-keyboard-response,190,79309,0.0-190.0,jspsych/neutralFaces/BM16NES.JPG,"""",null,100,27,backwardMask,"""","""",11/20/2020 19:25,69.125.145.27,"Mozilla/5.0 (Windows NT 10.0; Win64; x64) AppleWebKit/537.36 (KHTML, like Gecko) Chrome/86.0.4240.198 Safari/537.36",WebKit,Chrome,86.0.4240.198,Windows,10
24,1,null,"""",html-keyboard-response,191,79515,0.0-191.0,"<div style=""font-size:60px;"">+</div>","""",null,200,27,fixationBtwnNeutralMaskAndPrompt,"""","""",11/20/2020 19:25,69.125.145.27,"Mozilla/5.0 (Windows NT 10.0; Win64; x64) AppleWebKit/537.36 (KHTML, like Gecko) Chrome/86.0.4240.198 Safari/537.36",WebKit,Chrome,86.0.4240.198,Windows,10
24,1,502.77,"""",html-keyboard-response,192,80023,0.0-192.0,"<p> Did you see the ""hidden"" face? Press <b>0</b> if you did <i>not</i>, <b>1</b> if you <i>did</i>. </p>","""",48,"""",27,QueryConfidence,"""",0,11/20/2020 19:25,69.125.145.27,"Mozilla/5.0 (Windows NT 10.0; Win64; x64) AppleWebKit/537.36 (KHTML, like Gecko) Chrome/86.0.4240.198 Safari/537.36",WebKit,Chrome,86.0.4240.198,Windows,10
24,1,169.385,"""",html-keyboard-response,193,80193,0.0-193.0,"<p> What was the emotion of the hidden face? Go with your gut if you are not certain. <br> Press, <b>0</b> for <i>neutral face</i> or <b>1</b> for <i>disgust face</i></p>","""",48,"""",27,Query,"""",0,11/20/2020 19:25,69.125.145.27,"Mozilla/5.0 (Windows NT 10.0; Win64; x64) AppleWebKit/537.36 (KHTML, like Gecko) Chrome/86.0.4240.198 Safari/537.36",WebKit,Chrome,86.0.4240.198,Windows,10
24,1,null,"""",html-keyboard-response,194,81197,0.0-194.0,"<div style=""font-size:60px;"">+</div>","""",null,1000,28,ITI,"""","""",11/20/2020 19:25,69.125.145.27,"Mozilla/5.0 (Windows NT 10.0; Win64; x64) AppleWebKit/537.36 (KHTML, like Gecko) Chrome/86.0.4240.198 Safari/537.36",WebKit,Chrome,86.0.4240.198,Windows,10
24,1,null,"""",image-keyboard-response,195,81457,0.0-195.0,jspsych/scrambledNeutralFaces/scrambledAM03NES.JPG,"""",null,250,28,forwardMask,0,"""",11/20/2020 19:25,69.125.145.27,"Mozilla/5.0 (Windows NT 10.0; Win64; x64) AppleWebKit/537.36 (KHTML, like Gecko) Chrome/86.0.4240.198 Safari/537.36",WebKit,Chrome,86.0.4240.198,Windows,10
24,1,null,"""",image-keyboard-response,196,81555,0.0-196.0,jspsych/neutralFaces/AM03NES.JPG,"""",null,82,28,Cue,"""","""",11/20/2020 19:25,69.125.145.27,"Mozilla/5.0 (Windows NT 10.0; Win64; x64) AppleWebKit/537.36 (KHTML, like Gecko) Chrome/86.0.4240.198 Safari/537.36",WebKit,Chrome,86.0.4240.198,Windows,10
24,1,null,"""",image-keyboard-response,197,81663,0.0-197.0,jspsych/neutralFaces/BM16NES.JPG,"""",null,100,28,backwardMask,"""","""",11/20/2020 19:25,69.125.145.27,"Mozilla/5.0 (Windows NT 10.0; Win64; x64) AppleWebKit/537.36 (KHTML, like Gecko) Chrome/86.0.4240.198 Safari/537.36",WebKit,Chrome,86.0.4240.198,Windows,10
24,1,null,"""",html-keyboard-response,198,81873,0.0-198.0,"<div style=""font-size:60px;"">+</div>","""",null,200,28,fixationBtwnNeutralMaskAndPrompt,"""","""",11/20/2020 19:25,69.125.145.27,"Mozilla/5.0 (Windows NT 10.0; Win64; x64) AppleWebKit/537.36 (KHTML, like Gecko) Chrome/86.0.4240.198 Safari/537.36",WebKit,Chrome,86.0.4240.198,Windows,10
24,1,308.9,"""",html-keyboard-response,199,82183,0.0-199.0,"<p> Did you see the ""hidden"" face? Press <b>0</b> if you did <i>not</i>, <b>1</b> if you <i>did</i>. </p>","""",48,"""",28,QueryConfidence,"""",0,11/20/2020 19:25,69.125.145.27,"Mozilla/5.0 (Windows NT 10.0; Win64; x64) AppleWebKit/537.36 (KHTML, like Gecko) Chrome/86.0.4240.198 Safari/537.36",WebKit,Chrome,86.0.4240.198,Windows,10
24,1,172.765,"""",html-keyboard-response,200,82362,0.0-200.0,"<p> What was the emotion of the hidden face? Go with your gut if you are not certain. <br> Press, <b>0</b> for <i>neutral face</i> or <b>1</b> for <i>disgust face</i></p>","""",48,"""",28,Query,"""",0,11/20/2020 19:25,69.125.145.27,"Mozilla/5.0 (Windows NT 10.0; Win64; x64) AppleWebKit/537.36 (KHTML, like Gecko) Chrome/86.0.4240.198 Safari/537.36",WebKit,Chrome,86.0.4240.198,Windows,10
24,1,null,"""",html-keyboard-response,201,83370,0.0-201.0,"<div style=""font-size:60px;"">+</div>","""",null,1000,29,ITI,"""","""",11/20/2020 19:25,69.125.145.27,"Mozilla/5.0 (Windows NT 10.0; Win64; x64) AppleWebKit/537.36 (KHTML, like Gecko) Chrome/86.0.4240.198 Safari/537.36",WebKit,Chrome,86.0.4240.198,Windows,10
24,1,null,"""",image-keyboard-response,202,83628,0.0-202.0,jspsych/scrambledNeutralFaces/scrambledBF22NES.JPG,"""",null,250,29,forwardMask,0,"""",11/20/2020 19:25,69.125.145.27,"Mozilla/5.0 (Windows NT 10.0; Win64; x64) AppleWebKit/537.36 (KHTML, like Gecko) Chrome/86.0.4240.198 Safari/537.36",WebKit,Chrome,86.0.4240.198,Windows,10
24,1,null,"""",image-keyboard-response,203,83774,0.0-203.0,jspsych/neutralFaces/BF22NES.JPG,"""",null,136,29,Cue,"""","""",11/20/2020 19:25,69.125.145.27,"Mozilla/5.0 (Windows NT 10.0; Win64; x64) AppleWebKit/537.36 (KHTML, like Gecko) Chrome/86.0.4240.198 Safari/537.36",WebKit,Chrome,86.0.4240.198,Windows,10
24,1,null,"""",image-keyboard-response,204,83880,0.0-204.0,jspsych/neutralFaces/AM30NES.JPG,"""",null,100,29,backwardMask,"""","""",11/20/2020 19:25,69.125.145.27,"Mozilla/5.0 (Windows NT 10.0; Win64; x64) AppleWebKit/537.36 (KHTML, like Gecko) Chrome/86.0.4240.198 Safari/537.36",WebKit,Chrome,86.0.4240.198,Windows,10
24,1,null,"""",html-keyboard-response,205,84086,0.0-205.0,"<div style=""font-size:60px;"">+</div>","""",null,200,29,fixationBtwnNeutralMaskAndPrompt,"""","""",11/20/2020 19:25,69.125.145.27,"Mozilla/5.0 (Windows NT 10.0; Win64; x64) AppleWebKit/537.36 (KHTML, like Gecko) Chrome/86.0.4240.198 Safari/537.36",WebKit,Chrome,86.0.4240.198,Windows,10
24,1,327.195,"""",html-keyboard-response,206,84414,0.0-206.0,"<p> Did you see the ""hidden"" face? Press <b>0</b> if you did <i>not</i>, <b>1</b> if you <i>did</i>. </p>","""",48,"""",29,QueryConfidence,"""",0,11/20/2020 19:25,69.125.145.27,"Mozilla/5.0 (Windows NT 10.0; Win64; x64) AppleWebKit/537.36 (KHTML, like Gecko) Chrome/86.0.4240.198 Safari/537.36",WebKit,Chrome,86.0.4240.198,Windows,10
24,1,171.5549999,"""",html-keyboard-response,207,84587,0.0-207.0,"<p> What was the emotion of the hidden face? Go with your gut if you are not certain. <br> Press, <b>0</b> for <i>neutral face</i> or <b>1</b> for <i>disgust face</i></p>","""",48,"""",29,Query,"""",0,11/20/2020 19:25,69.125.145.27,"Mozilla/5.0 (Windows NT 10.0; Win64; x64) AppleWebKit/537.36 (KHTML, like Gecko) Chrome/86.0.4240.198 Safari/537.36",WebKit,Chrome,86.0.4240.198,Windows,10
24,1,null,"""",html-keyboard-response,208,85593,0.0-208.0,"<div style=""font-size:60px;"">+</div>","""",null,1000,30,ITI,"""","""",11/20/2020 19:25,69.125.145.27,"Mozilla/5.0 (Windows NT 10.0; Win64; x64) AppleWebKit/537.36 (KHTML, like Gecko) Chrome/86.0.4240.198 Safari/537.36",WebKit,Chrome,86.0.4240.198,Windows,10
24,1,null,"""",image-keyboard-response,209,85855,0.0-209.0,jspsych/scrambledNeutralFaces/scrambledBM12NES.JPG,"""",null,250,30,forwardMask,0,"""",11/20/2020 19:25,69.125.145.27,"Mozilla/5.0 (Windows NT 10.0; Win64; x64) AppleWebKit/537.36 (KHTML, like Gecko) Chrome/86.0.4240.198 Safari/537.36",WebKit,Chrome,86.0.4240.198,Windows,10
24,1,null,"""",image-keyboard-response,210,86001,0.0-210.0,jspsych/neutralFaces/BM12NES.JPG,"""",null,136,30,Cue,"""","""",11/20/2020 19:25,69.125.145.27,"Mozilla/5.0 (Windows NT 10.0; Win64; x64) AppleWebKit/537.36 (KHTML, like Gecko) Chrome/86.0.4240.198 Safari/537.36",WebKit,Chrome,86.0.4240.198,Windows,10
24,1,null,"""",image-keyboard-response,211,86104,0.0-211.0,jspsych/neutralFaces/BM05NES.JPG,"""",null,100,30,backwardMask,"""","""",11/20/2020 19:25,69.125.145.27,"Mozilla/5.0 (Windows NT 10.0; Win64; x64) AppleWebKit/537.36 (KHTML, like Gecko) Chrome/86.0.4240.198 Safari/537.36",WebKit,Chrome,86.0.4240.198,Windows,10
24,1,null,"""",html-keyboard-response,212,86307,0.0-212.0,"<div style=""font-size:60px;"">+</div>","""",null,200,30,fixationBtwnNeutralMaskAndPrompt,"""","""",11/20/2020 19:25,69.125.145.27,"Mozilla/5.0 (Windows NT 10.0; Win64; x64) AppleWebKit/537.36 (KHTML, like Gecko) Chrome/86.0.4240.198 Safari/537.36",WebKit,Chrome,86.0.4240.198,Windows,10
24,1,212.995,"""",html-keyboard-response,213,86521,0.0-213.0,"<p> Did you see the ""hidden"" face? Press <b>0</b> if you did <i>not</i>, <b>1</b> if you <i>did</i>. </p>","""",48,"""",30,QueryConfidence,"""",0,11/20/2020 19:25,69.125.145.27,"Mozilla/5.0 (Windows NT 10.0; Win64; x64) AppleWebKit/537.36 (KHTML, like Gecko) Chrome/86.0.4240.198 Safari/537.36",WebKit,Chrome,86.0.4240.198,Windows,10
24,1,176.375,"""",html-keyboard-response,214,86698,0.0-214.0,"<p> What was the emotion of the hidden face? Go with your gut if you are not certain. <br> Press, <b>0</b> for <i>neutral face</i> or <b>1</b> for <i>disgust face</i></p>","""",48,"""",30,Query,"""",0,11/20/2020 19:25,69.125.145.27,"Mozilla/5.0 (Windows NT 10.0; Win64; x64) AppleWebKit/537.36 (KHTML, like Gecko) Chrome/86.0.4240.198 Safari/537.36",WebKit,Chrome,86.0.4240.198,Windows,10
24,1,null,"""",html-keyboard-response,215,87701,0.0-215.0,"<div style=""font-size:60px;"">+</div>","""",null,1000,31,ITI,"""","""",11/20/2020 19:25,69.125.145.27,"Mozilla/5.0 (Windows NT 10.0; Win64; x64) AppleWebKit/537.36 (KHTML, like Gecko) Chrome/86.0.4240.198 Safari/537.36",WebKit,Chrome,86.0.4240.198,Windows,10
24,1,null,"""",image-keyboard-response,216,87965,0.0-216.0,jspsych/scrambledDisgustFaces/scrambledAF06DIS.JPG,"""",null,250,31,forwardMask,1,"""",11/20/2020 19:25,69.125.145.27,"Mozilla/5.0 (Windows NT 10.0; Win64; x64) AppleWebKit/537.36 (KHTML, like Gecko) Chrome/86.0.4240.198 Safari/537.36",WebKit,Chrome,86.0.4240.198,Windows,10
24,1,null,"""",image-keyboard-response,217,88106,0.0-217.0,jspsych/disgustFaces/AF06DIS.JPG,"""",null,136,31,Cue,"""","""",11/20/2020 19:25,69.125.145.27,"Mozilla/5.0 (Windows NT 10.0; Win64; x64) AppleWebKit/537.36 (KHTML, like Gecko) Chrome/86.0.4240.198 Safari/537.36",WebKit,Chrome,86.0.4240.198,Windows,10
24,1,null,"""",image-keyboard-response,218,88217,0.0-218.0,jspsych/neutralFaces/AF15NES.JPG,"""",null,100,31,backwardMask,"""","""",11/20/2020 19:25,69.125.145.27,"Mozilla/5.0 (Windows NT 10.0; Win64; x64) AppleWebKit/537.36 (KHTML, like Gecko) Chrome/86.0.4240.198 Safari/537.36",WebKit,Chrome,86.0.4240.198,Windows,10
24,1,null,"""",html-keyboard-response,219,88429,0.0-219.0,"<div style=""font-size:60px;"">+</div>","""",null,200,31,fixationBtwnNeutralMaskAndPrompt,"""","""",11/20/2020 19:25,69.125.145.27,"Mozilla/5.0 (Windows NT 10.0; Win64; x64) AppleWebKit/537.36 (KHTML, like Gecko) Chrome/86.0.4240.198 Safari/537.36",WebKit,Chrome,86.0.4240.198,Windows,10
24,1,13939.405,"""",html-keyboard-response,220,102374,0.0-220.0,"<p> Did you see the ""hidden"" face? Press <b>0</b> if you did <i>not</i>, <b>1</b> if you <i>did</i>. </p>","""",49,"""",31,QueryConfidence,"""",1,11/20/2020 19:25,69.125.145.27,"Mozilla/5.0 (Windows NT 10.0; Win64; x64) AppleWebKit/537.36 (KHTML, like Gecko) Chrome/86.0.4240.198 Safari/537.36",WebKit,Chrome,86.0.4240.198,Windows,10
24,1,217.74,"""",html-keyboard-response,221,102593,0.0-221.0,"<p> What was the emotion of the hidden face? Go with your gut if you are not certain. <br> Press, <b>0</b> for <i>neutral face</i> or <b>1</b> for <i>disgust face</i></p>","""",49,"""",31,Query,"""",1,11/20/2020 19:25,69.125.145.27,"Mozilla/5.0 (Windows NT 10.0; Win64; x64) AppleWebKit/537.36 (KHTML, like Gecko) Chrome/86.0.4240.198 Safari/537.36",WebKit,Chrome,86.0.4240.198,Windows,10
24,1,null,"""",html-keyboard-response,222,103600,0.0-222.0,"<div style=""font-size:60px;"">+</div>","""",null,1000,32,ITI,"""","""",11/20/2020 19:25,69.125.145.27,"Mozilla/5.0 (Windows NT 10.0; Win64; x64) AppleWebKit/537.36 (KHTML, like Gecko) Chrome/86.0.4240.198 Safari/537.36",WebKit,Chrome,86.0.4240.198,Windows,10
24,1,null,"""",image-keyboard-response,223,103862,0.0-223.0,jspsych/scrambledDisgustFaces/scrambledBM28DIS.JPG,"""",null,250,32,forwardMask,1,"""",11/20/2020 19:25,69.125.145.27,"Mozilla/5.0 (Windows NT 10.0; Win64; x64) AppleWebKit/537.36 (KHTML, like Gecko) Chrome/86.0.4240.198 Safari/537.36",WebKit,Chrome,86.0.4240.198,Windows,10
24,1,null,"""",image-keyboard-response,224,104001,0.0-224.0,jspsych/disgustFaces/BM28DIS.JPG,"""",null,136,32,Cue,"""","""",11/20/2020 19:25,69.125.145.27,"Mozilla/5.0 (Windows NT 10.0; Win64; x64) AppleWebKit/537.36 (KHTML, like Gecko) Chrome/86.0.4240.198 Safari/537.36",WebKit,Chrome,86.0.4240.198,Windows,10
24,1,null,"""",image-keyboard-response,225,104116,0.0-225.0,jspsych/neutralFaces/BM09NES.JPG,"""",null,100,32,backwardMask,"""","""",11/20/2020 19:25,69.125.145.27,"Mozilla/5.0 (Windows NT 10.0; Win64; x64) AppleWebKit/537.36 (KHTML, like Gecko) Chrome/86.0.4240.198 Safari/537.36",WebKit,Chrome,86.0.4240.198,Windows,10
24,1,null,"""",html-keyboard-response,226,104318,0.0-226.0,"<div style=""font-size:60px;"">+</div>","""",null,200,32,fixationBtwnNeutralMaskAndPrompt,"""","""",11/20/2020 19:25,69.125.145.27,"Mozilla/5.0 (Windows NT 10.0; Win64; x64) AppleWebKit/537.36 (KHTML, like Gecko) Chrome/86.0.4240.198 Safari/537.36",WebKit,Chrome,86.0.4240.198,Windows,10
24,1,329.45,"""",html-keyboard-response,227,104649,0.0-227.0,"<p> Did you see the ""hidden"" face? Press <b>0</b> if you did <i>not</i>, <b>1</b> if you <i>did</i>. </p>","""",49,"""",32,QueryConfidence,"""",1,11/20/2020 19:25,69.125.145.27,"Mozilla/5.0 (Windows NT 10.0; Win64; x64) AppleWebKit/537.36 (KHTML, like Gecko) Chrome/86.0.4240.198 Safari/537.36",WebKit,Chrome,86.0.4240.198,Windows,10
24,1,199.61,"""",html-keyboard-response,228,104850,0.0-228.0,"<p> What was the emotion of the hidden face? Go with your gut if you are not certain. <br> Press, <b>0</b> for <i>neutral face</i> or <b>1</b> for <i>disgust face</i></p>","""",49,"""",32,Query,"""",1,11/20/2020 19:25,69.125.145.27,"Mozilla/5.0 (Windows NT 10.0; Win64; x64) AppleWebKit/537.36 (KHTML, like Gecko) Chrome/86.0.4240.198 Safari/537.36",WebKit,Chrome,86.0.4240.198,Windows,10
24,1,null,"""",html-keyboard-response,229,105856,0.0-229.0,"<div style=""font-size:60px;"">+</div>","""",null,1000,33,ITI,"""","""",11/20/2020 19:25,69.125.145.27,"Mozilla/5.0 (Windows NT 10.0; Win64; x64) AppleWebKit/537.36 (KHTML, like Gecko) Chrome/86.0.4240.198 Safari/537.36",WebKit,Chrome,86.0.4240.198,Windows,10
24,1,null,"""",image-keyboard-response,230,106115,0.0-230.0,jspsych/scrambledDisgustFaces/scrambledBF15DIS.JPG,"""",null,250,33,forwardMask,1,"""",11/20/2020 19:25,69.125.145.27,"Mozilla/5.0 (Windows NT 10.0; Win64; x64) AppleWebKit/537.36 (KHTML, like Gecko) Chrome/86.0.4240.198 Safari/537.36",WebKit,Chrome,86.0.4240.198,Windows,10
24,1,null,"""",image-keyboard-response,231,106188,0.0-231.0,jspsych/disgustFaces/BF15DIS.JPG,"""",null,66,33,Cue,"""","""",11/20/2020 19:25,69.125.145.27,"Mozilla/5.0 (Windows NT 10.0; Win64; x64) AppleWebKit/537.36 (KHTML, like Gecko) Chrome/86.0.4240.198 Safari/537.36",WebKit,Chrome,86.0.4240.198,Windows,10
24,1,null,"""",image-keyboard-response,232,106297,0.0-232.0,jspsych/neutralFaces/AF13NES.JPG,"""",null,100,33,backwardMask,"""","""",11/20/2020 19:25,69.125.145.27,"Mozilla/5.0 (Windows NT 10.0; Win64; x64) AppleWebKit/537.36 (KHTML, like Gecko) Chrome/86.0.4240.198 Safari/537.36",WebKit,Chrome,86.0.4240.198,Windows,10
24,1,null,"""",html-keyboard-response,233,106501,0.0-233.0,"<div style=""font-size:60px;"">+</div>","""",null,200,33,fixationBtwnNeutralMaskAndPrompt,"""","""",11/20/2020 19:25,69.125.145.27,"Mozilla/5.0 (Windows NT 10.0; Win64; x64) AppleWebKit/537.36 (KHTML, like Gecko) Chrome/86.0.4240.198 Safari/537.36",WebKit,Chrome,86.0.4240.198,Windows,10
24,1,1076.855,"""",html-keyboard-response,234,107579,0.0-234.0,"<p> Did you see the ""hidden"" face? Press <b>0</b> if you did <i>not</i>, <b>1</b> if you <i>did</i>. </p>","""",48,"""",33,QueryConfidence,"""",0,11/20/2020 19:25,69.125.145.27,"Mozilla/5.0 (Windows NT 10.0; Win64; x64) AppleWebKit/537.36 (KHTML, like Gecko) Chrome/86.0.4240.198 Safari/537.36",WebKit,Chrome,86.0.4240.198,Windows,10
24,1,147.34,"""",html-keyboard-response,235,107727,0.0-235.0,"<p> What was the emotion of the hidden face? Go with your gut if you are not certain. <br> Press, <b>0</b> for <i>neutral face</i> or <b>1</b> for <i>disgust face</i></p>","""",49,"""",33,Query,"""",1,11/20/2020 19:25,69.125.145.27,"Mozilla/5.0 (Windows NT 10.0; Win64; x64) AppleWebKit/537.36 (KHTML, like Gecko) Chrome/86.0.4240.198 Safari/537.36",WebKit,Chrome,86.0.4240.198,Windows,10
24,1,null,"""",html-keyboard-response,236,108732,0.0-236.0,"<div style=""font-size:60px;"">+</div>","""",null,1000,34,ITI,"""","""",11/20/2020 19:25,69.125.145.27,"Mozilla/5.0 (Windows NT 10.0; Win64; x64) AppleWebKit/537.36 (KHTML, like Gecko) Chrome/86.0.4240.198 Safari/537.36",WebKit,Chrome,86.0.4240.198,Windows,10
24,1,null,"""",image-keyboard-response,237,108995,0.0-237.0,jspsych/scrambledNeutralFaces/scrambledBM26NES.JPG,"""",null,250,34,forwardMask,0,"""",11/20/2020 19:25,69.125.145.27,"Mozilla/5.0 (Windows NT 10.0; Win64; x64) AppleWebKit/537.36 (KHTML, like Gecko) Chrome/86.0.4240.198 Safari/537.36",WebKit,Chrome,86.0.4240.198,Windows,10
24,1,null,"""",image-keyboard-response,238,109063,0.0-238.0,jspsych/neutralFaces/BM26NES.JPG,"""",null,66,34,Cue,"""","""",11/20/2020 19:25,69.125.145.27,"Mozilla/5.0 (Windows NT 10.0; Win64; x64) AppleWebKit/537.36 (KHTML, like Gecko) Chrome/86.0.4240.198 Safari/537.36",WebKit,Chrome,86.0.4240.198,Windows,10
24,1,null,"""",image-keyboard-response,239,109169,0.0-239.0,jspsych/neutralFaces/BF30NES.JPG,"""",null,100,34,backwardMask,"""","""",11/20/2020 19:25,69.125.145.27,"Mozilla/5.0 (Windows NT 10.0; Win64; x64) AppleWebKit/537.36 (KHTML, like Gecko) Chrome/86.0.4240.198 Safari/537.36",WebKit,Chrome,86.0.4240.198,Windows,10
24,1,null,"""",html-keyboard-response,240,109377,0.0-240.0,"<div style=""font-size:60px;"">+</div>","""",null,200,34,fixationBtwnNeutralMaskAndPrompt,"""","""",11/20/2020 19:25,69.125.145.27,"Mozilla/5.0 (Windows NT 10.0; Win64; x64) AppleWebKit/537.36 (KHTML, like Gecko) Chrome/86.0.4240.198 Safari/537.36",WebKit,Chrome,86.0.4240.198,Windows,10
24,1,288.9850001,"""",html-keyboard-response,241,109667,0.0-241.0,"<p> Did you see the ""hidden"" face? Press <b>0</b> if you did <i>not</i>, <b>1</b> if you <i>did</i>. </p>","""",48,"""",34,QueryConfidence,"""",0,11/20/2020 19:25,69.125.145.27,"Mozilla/5.0 (Windows NT 10.0; Win64; x64) AppleWebKit/537.36 (KHTML, like Gecko) Chrome/86.0.4240.198 Safari/537.36",WebKit,Chrome,86.0.4240.198,Windows,10
24,1,180.26,"""",html-keyboard-response,242,109849,0.0-242.0,"<p> What was the emotion of the hidden face? Go with your gut if you are not certain. <br> Press, <b>0</b> for <i>neutral face</i> or <b>1</b> for <i>disgust face</i></p>","""",48,"""",34,Query,"""",0,11/20/2020 19:25,69.125.145.27,"Mozilla/5.0 (Windows NT 10.0; Win64; x64) AppleWebKit/537.36 (KHTML, like Gecko) Chrome/86.0.4240.198 Safari/537.36",WebKit,Chrome,86.0.4240.198,Windows,10
24,1,null,"""",html-keyboard-response,243,110851,0.0-243.0,"<div style=""font-size:60px;"">+</div>","""",null,1000,35,ITI,"""","""",11/20/2020 19:25,69.125.145.27,"Mozilla/5.0 (Windows NT 10.0; Win64; x64) AppleWebKit/537.36 (KHTML, like Gecko) Chrome/86.0.4240.198 Safari/537.36",WebKit,Chrome,86.0.4240.198,Windows,10
24,1,null,"""",image-keyboard-response,244,111111,0.0-244.0,jspsych/scrambledDisgustFaces/scrambledAF07DIS.JPG,"""",null,250,35,forwardMask,1,"""",11/20/2020 19:25,69.125.145.27,"Mozilla/5.0 (Windows NT 10.0; Win64; x64) AppleWebKit/537.36 (KHTML, like Gecko) Chrome/86.0.4240.198 Safari/537.36",WebKit,Chrome,86.0.4240.198,Windows,10
24,1,null,"""",image-keyboard-response,245,111144,0.0-245.0,jspsych/disgustFaces/AF07DIS.JPG,"""",null,16,35,Cue,"""","""",11/20/2020 19:25,69.125.145.27,"Mozilla/5.0 (Windows NT 10.0; Win64; x64) AppleWebKit/537.36 (KHTML, like Gecko) Chrome/86.0.4240.198 Safari/537.36",WebKit,Chrome,86.0.4240.198,Windows,10
24,1,null,"""",image-keyboard-response,246,111250,0.0-246.0,jspsych/neutralFaces/BF05NES.JPG,"""",null,100,35,backwardMask,"""","""",11/20/2020 19:25,69.125.145.27,"Mozilla/5.0 (Windows NT 10.0; Win64; x64) AppleWebKit/537.36 (KHTML, like Gecko) Chrome/86.0.4240.198 Safari/537.36",WebKit,Chrome,86.0.4240.198,Windows,10
24,1,null,"""",html-keyboard-response,247,111459,0.0-247.0,"<div style=""font-size:60px;"">+</div>","""",null,200,35,fixationBtwnNeutralMaskAndPrompt,"""","""",11/20/2020 19:25,69.125.145.27,"Mozilla/5.0 (Windows NT 10.0; Win64; x64) AppleWebKit/537.36 (KHTML, like Gecko) Chrome/86.0.4240.198 Safari/537.36",WebKit,Chrome,86.0.4240.198,Windows,10
24,1,332.73,"""",html-keyboard-response,248,111794,0.0-248.0,"<p> Did you see the ""hidden"" face? Press <b>0</b> if you did <i>not</i>, <b>1</b> if you <i>did</i>. </p>","""",48,"""",35,QueryConfidence,"""",0,11/20/2020 19:25,69.125.145.27,"Mozilla/5.0 (Windows NT 10.0; Win64; x64) AppleWebKit/537.36 (KHTML, like Gecko) Chrome/86.0.4240.198 Safari/537.36",WebKit,Chrome,86.0.4240.198,Windows,10
24,1,165.335,"""",html-keyboard-response,249,111965,0.0-249.0,"<p> What was the emotion of the hidden face? Go with your gut if you are not certain. <br> Press, <b>0</b> for <i>neutral face</i> or <b>1</b> for <i>disgust face</i></p>","""",48,"""",35,Query,"""",0,11/20/2020 19:25,69.125.145.27,"Mozilla/5.0 (Windows NT 10.0; Win64; x64) AppleWebKit/537.36 (KHTML, like Gecko) Chrome/86.0.4240.198 Safari/537.36",WebKit,Chrome,86.0.4240.198,Windows,10
24,1,null,"""",html-keyboard-response,250,112976,0.0-250.0,"<div style=""font-size:60px;"">+</div>","""",null,1000,36,ITI,"""","""",11/20/2020 19:25,69.125.145.27,"Mozilla/5.0 (Windows NT 10.0; Win64; x64) AppleWebKit/537.36 (KHTML, like Gecko) Chrome/86.0.4240.198 Safari/537.36",WebKit,Chrome,86.0.4240.198,Windows,10
24,1,null,"""",image-keyboard-response,251,113240,0.0-251.0,jspsych/scrambledNeutralFaces/scrambledAM27NES.JPG,"""",null,250,36,forwardMask,0,"""",11/20/2020 19:25,69.125.145.27,"Mozilla/5.0 (Windows NT 10.0; Win64; x64) AppleWebKit/537.36 (KHTML, like Gecko) Chrome/86.0.4240.198 Safari/537.36",WebKit,Chrome,86.0.4240.198,Windows,10
24,1,null,"""",image-keyboard-response,252,113261,0.0-252.0,jspsych/neutralFaces/AM27NES.JPG,"""",null,16,36,Cue,"""","""",11/20/2020 19:25,69.125.145.27,"Mozilla/5.0 (Windows NT 10.0; Win64; x64) AppleWebKit/537.36 (KHTML, like Gecko) Chrome/86.0.4240.198 Safari/537.36",WebKit,Chrome,86.0.4240.198,Windows,10
24,1,null,"""",image-keyboard-response,253,113365,0.0-253.0,jspsych/neutralFaces/AF08NES.JPG,"""",null,100,36,backwardMask,"""","""",11/20/2020 19:25,69.125.145.27,"Mozilla/5.0 (Windows NT 10.0; Win64; x64) AppleWebKit/537.36 (KHTML, like Gecko) Chrome/86.0.4240.198 Safari/537.36",WebKit,Chrome,86.0.4240.198,Windows,10
24,1,null,"""",html-keyboard-response,254,113574,0.0-254.0,"<div style=""font-size:60px;"">+</div>","""",null,200,36,fixationBtwnNeutralMaskAndPrompt,"""","""",11/20/2020 19:25,69.125.145.27,"Mozilla/5.0 (Windows NT 10.0; Win64; x64) AppleWebKit/537.36 (KHTML, like Gecko) Chrome/86.0.4240.198 Safari/537.36",WebKit,Chrome,86.0.4240.198,Windows,10
24,1,850.55,"""",html-keyboard-response,255,114426,0.0-255.0,"<p> Did you see the ""hidden"" face? Press <b>0</b> if you did <i>not</i>, <b>1</b> if you <i>did</i>. </p>","""",48,"""",36,QueryConfidence,"""",0,11/20/2020 19:25,69.125.145.27,"Mozilla/5.0 (Windows NT 10.0; Win64; x64) AppleWebKit/537.36 (KHTML, like Gecko) Chrome/86.0.4240.198 Safari/537.36",WebKit,Chrome,86.0.4240.198,Windows,10
24,1,157.82,"""",html-keyboard-response,256,114585,0.0-256.0,"<p> What was the emotion of the hidden face? Go with your gut if you are not certain. <br> Press, <b>0</b> for <i>neutral face</i> or <b>1</b> for <i>disgust face</i></p>","""",48,"""",36,Query,"""",0,11/20/2020 19:25,69.125.145.27,"Mozilla/5.0 (Windows NT 10.0; Win64; x64) AppleWebKit/537.36 (KHTML, like Gecko) Chrome/86.0.4240.198 Safari/537.36",WebKit,Chrome,86.0.4240.198,Windows,10
24,1,null,"""",html-keyboard-response,257,115603,0.0-257.0,"<div style=""font-size:60px;"">+</div>","""",null,1000,37,ITI,"""","""",11/20/2020 19:25,69.125.145.27,"Mozilla/5.0 (Windows NT 10.0; Win64; x64) AppleWebKit/537.36 (KHTML, like Gecko) Chrome/86.0.4240.198 Safari/537.36",WebKit,Chrome,86.0.4240.198,Windows,10
24,1,null,"""",image-keyboard-response,258,115861,0.0-258.0,jspsych/scrambledNeutralFaces/scrambledBM11NES.JPG,"""",null,250,37,forwardMask,0,"""",11/20/2020 19:25,69.125.145.27,"Mozilla/5.0 (Windows NT 10.0; Win64; x64) AppleWebKit/537.36 (KHTML, like Gecko) Chrome/86.0.4240.198 Safari/537.36",WebKit,Chrome,86.0.4240.198,Windows,10
24,1,null,"""",image-keyboard-response,259,116009,0.0-259.0,jspsych/neutralFaces/BM11NES.JPG,"""",null,136,37,Cue,"""","""",11/20/2020 19:25,69.125.145.27,"Mozilla/5.0 (Windows NT 10.0; Win64; x64) AppleWebKit/537.36 (KHTML, like Gecko) Chrome/86.0.4240.198 Safari/537.36",WebKit,Chrome,86.0.4240.198,Windows,10
24,1,null,"""",image-keyboard-response,260,116112,0.0-260.0,jspsych/neutralFaces/AF30NES.JPG,"""",null,100,37,backwardMask,"""","""",11/20/2020 19:25,69.125.145.27,"Mozilla/5.0 (Windows NT 10.0; Win64; x64) AppleWebKit/537.36 (KHTML, like Gecko) Chrome/86.0.4240.198 Safari/537.36",WebKit,Chrome,86.0.4240.198,Windows,10
24,1,null,"""",html-keyboard-response,261,116315,0.0-261.0,"<div style=""font-size:60px;"">+</div>","""",null,200,37,fixationBtwnNeutralMaskAndPrompt,"""","""",11/20/2020 19:25,69.125.145.27,"Mozilla/5.0 (Windows NT 10.0; Win64; x64) AppleWebKit/537.36 (KHTML, like Gecko) Chrome/86.0.4240.198 Safari/537.36",WebKit,Chrome,86.0.4240.198,Windows,10
24,1,1298.505,"""",html-keyboard-response,262,117614,0.0-262.0,"<p> Did you see the ""hidden"" face? Press <b>0</b> if you did <i>not</i>, <b>1</b> if you <i>did</i>. </p>","""",48,"""",37,QueryConfidence,"""",0,11/20/2020 19:25,69.125.145.27,"Mozilla/5.0 (Windows NT 10.0; Win64; x64) AppleWebKit/537.36 (KHTML, like Gecko) Chrome/86.0.4240.198 Safari/537.36",WebKit,Chrome,86.0.4240.198,Windows,10
24,1,936.04,"""",html-keyboard-response,263,118552,0.0-263.0,"<p> What was the emotion of the hidden face? Go with your gut if you are not certain. <br> Press, <b>0</b> for <i>neutral face</i> or <b>1</b> for <i>disgust face</i></p>","""",48,"""",37,Query,"""",0,11/20/2020 19:25,69.125.145.27,"Mozilla/5.0 (Windows NT 10.0; Win64; x64) AppleWebKit/537.36 (KHTML, like Gecko) Chrome/86.0.4240.198 Safari/537.36",WebKit,Chrome,86.0.4240.198,Windows,10
24,1,null,"""",html-keyboard-response,264,120067,0.0-264.0,Almost Done! 75% Complete,"""",null,1500,38,encouragement,"""","""",11/20/2020 19:25,69.125.145.27,"Mozilla/5.0 (Windows NT 10.0; Win64; x64) AppleWebKit/537.36 (KHTML, like Gecko) Chrome/86.0.4240.198 Safari/537.36",WebKit,Chrome,86.0.4240.198,Windows,10
24,1,null,"""",html-keyboard-response,265,121076,0.0-265.0,"<div style=""font-size:60px;"">+</div>","""",null,1000,38,ITI,"""","""",11/20/2020 19:25,69.125.145.27,"Mozilla/5.0 (Windows NT 10.0; Win64; x64) AppleWebKit/537.36 (KHTML, like Gecko) Chrome/86.0.4240.198 Safari/537.36",WebKit,Chrome,86.0.4240.198,Windows,10
24,1,null,"""",image-keyboard-response,266,121332,0.0-266.0,jspsych/scrambledNeutralFaces/scrambledAF13NES.JPG,"""",null,250,38,forwardMask,0,"""",11/20/2020 19:25,69.125.145.27,"Mozilla/5.0 (Windows NT 10.0; Win64; x64) AppleWebKit/537.36 (KHTML, like Gecko) Chrome/86.0.4240.198 Safari/537.36",WebKit,Chrome,86.0.4240.198,Windows,10
24,1,null,"""",image-keyboard-response,267,121372,0.0-267.0,jspsych/neutralFaces/AF13NES.JPG,"""",null,33,38,Cue,"""","""",11/20/2020 19:25,69.125.145.27,"Mozilla/5.0 (Windows NT 10.0; Win64; x64) AppleWebKit/537.36 (KHTML, like Gecko) Chrome/86.0.4240.198 Safari/537.36",WebKit,Chrome,86.0.4240.198,Windows,10
24,1,null,"""",image-keyboard-response,268,121474,0.0-268.0,jspsych/neutralFaces/BM12NES.JPG,"""",null,100,38,backwardMask,"""","""",11/20/2020 19:25,69.125.145.27,"Mozilla/5.0 (Windows NT 10.0; Win64; x64) AppleWebKit/537.36 (KHTML, like Gecko) Chrome/86.0.4240.198 Safari/537.36",WebKit,Chrome,86.0.4240.198,Windows,10
24,1,null,"""",html-keyboard-response,269,121683,0.0-269.0,"<div style=""font-size:60px;"">+</div>","""",null,200,38,fixationBtwnNeutralMaskAndPrompt,"""","""",11/20/2020 19:25,69.125.145.27,"Mozilla/5.0 (Windows NT 10.0; Win64; x64) AppleWebKit/537.36 (KHTML, like Gecko) Chrome/86.0.4240.198 Safari/537.36",WebKit,Chrome,86.0.4240.198,Windows,10
24,1,425.07,"""",html-keyboard-response,270,122109,0.0-270.0,"<p> Did you see the ""hidden"" face? Press <b>0</b> if you did <i>not</i>, <b>1</b> if you <i>did</i>. </p>","""",48,"""",38,QueryConfidence,"""",0,11/20/2020 19:25,69.125.145.27,"Mozilla/5.0 (Windows NT 10.0; Win64; x64) AppleWebKit/537.36 (KHTML, like Gecko) Chrome/86.0.4240.198 Safari/537.36",WebKit,Chrome,86.0.4240.198,Windows,10
24,1,179.03,"""",html-keyboard-response,271,122289,0.0-271.0,"<p> What was the emotion of the hidden face? Go with your gut if you are not certain. <br> Press, <b>0</b> for <i>neutral face</i> or <b>1</b> for <i>disgust face</i></p>","""",48,"""",38,Query,"""",0,11/20/2020 19:25,69.125.145.27,"Mozilla/5.0 (Windows NT 10.0; Win64; x64) AppleWebKit/537.36 (KHTML, like Gecko) Chrome/86.0.4240.198 Safari/537.36",WebKit,Chrome,86.0.4240.198,Windows,10
24,1,null,"""",html-keyboard-response,272,123298,0.0-272.0,"<div style=""font-size:60px;"">+</div>","""",null,1000,39,ITI,"""","""",11/20/2020 19:25,69.125.145.27,"Mozilla/5.0 (Windows NT 10.0; Win64; x64) AppleWebKit/537.36 (KHTML, like Gecko) Chrome/86.0.4240.198 Safari/537.36",WebKit,Chrome,86.0.4240.198,Windows,10
24,1,null,"""",image-keyboard-response,273,123563,0.0-273.0,jspsych/scrambledDisgustFaces/scrambledAF28DIS.JPG,"""",null,250,39,forwardMask,1,"""",11/20/2020 19:25,69.125.145.27,"Mozilla/5.0 (Windows NT 10.0; Win64; x64) AppleWebKit/537.36 (KHTML, like Gecko) Chrome/86.0.4240.198 Safari/537.36",WebKit,Chrome,86.0.4240.198,Windows,10
24,1,null,"""",image-keyboard-response,274,123713,0.0-274.0,jspsych/disgustFaces/AF28DIS.JPG,"""",null,136,39,Cue,"""","""",11/20/2020 19:25,69.125.145.27,"Mozilla/5.0 (Windows NT 10.0; Win64; x64) AppleWebKit/537.36 (KHTML, like Gecko) Chrome/86.0.4240.198 Safari/537.36",WebKit,Chrome,86.0.4240.198,Windows,10
24,1,null,"""",image-keyboard-response,275,123830,0.0-275.0,jspsych/neutralFaces/BM28NES.JPG,"""",null,100,39,backwardMask,"""","""",11/20/2020 19:25,69.125.145.27,"Mozilla/5.0 (Windows NT 10.0; Win64; x64) AppleWebKit/537.36 (KHTML, like Gecko) Chrome/86.0.4240.198 Safari/537.36",WebKit,Chrome,86.0.4240.198,Windows,10
24,1,null,"""",html-keyboard-response,276,124047,0.0-276.0,"<div style=""font-size:60px;"">+</div>","""",null,200,39,fixationBtwnNeutralMaskAndPrompt,"""","""",11/20/2020 19:25,69.125.145.27,"Mozilla/5.0 (Windows NT 10.0; Win64; x64) AppleWebKit/537.36 (KHTML, like Gecko) Chrome/86.0.4240.198 Safari/537.36",WebKit,Chrome,86.0.4240.198,Windows,10
24,1,4385.055,"""",html-keyboard-response,277,128433,0.0-277.0,"<p> Did you see the ""hidden"" face? Press <b>0</b> if you did <i>not</i>, <b>1</b> if you <i>did</i>. </p>","""",48,"""",39,QueryConfidence,"""",0,11/20/2020 19:25,69.125.145.27,"Mozilla/5.0 (Windows NT 10.0; Win64; x64) AppleWebKit/537.36 (KHTML, like Gecko) Chrome/86.0.4240.198 Safari/537.36",WebKit,Chrome,86.0.4240.198,Windows,10
24,1,207.335,"""",html-keyboard-response,278,128646,0.0-278.0,"<p> What was the emotion of the hidden face? Go with your gut if you are not certain. <br> Press, <b>0</b> for <i>neutral face</i> or <b>1</b> for <i>disgust face</i></p>","""",48,"""",39,Query,"""",0,11/20/2020 19:25,69.125.145.27,"Mozilla/5.0 (Windows NT 10.0; Win64; x64) AppleWebKit/537.36 (KHTML, like Gecko) Chrome/86.0.4240.198 Safari/537.36",WebKit,Chrome,86.0.4240.198,Windows,10
24,1,null,"""",html-keyboard-response,279,129648,0.0-279.0,"<div style=""font-size:60px;"">+</div>","""",null,1000,40,ITI,"""","""",11/20/2020 19:25,69.125.145.27,"Mozilla/5.0 (Windows NT 10.0; Win64; x64) AppleWebKit/537.36 (KHTML, like Gecko) Chrome/86.0.4240.198 Safari/537.36",WebKit,Chrome,86.0.4240.198,Windows,10
24,1,null,"""",image-keyboard-response,280,129905,0.0-280.0,jspsych/scrambledDisgustFaces/scrambledAM03DIS.JPG,"""",null,250,40,forwardMask,1,"""",11/20/2020 19:25,69.125.145.27,"Mozilla/5.0 (Windows NT 10.0; Win64; x64) AppleWebKit/537.36 (KHTML, like Gecko) Chrome/86.0.4240.198 Safari/537.36",WebKit,Chrome,86.0.4240.198,Windows,10
24,1,null,"""",image-keyboard-response,281,129994,0.0-281.0,jspsych/disgustFaces/AM03DIS.JPG,"""",null,82,40,Cue,"""","""",11/20/2020 19:25,69.125.145.27,"Mozilla/5.0 (Windows NT 10.0; Win64; x64) AppleWebKit/537.36 (KHTML, like Gecko) Chrome/86.0.4240.198 Safari/537.36",WebKit,Chrome,86.0.4240.198,Windows,10
24,1,null,"""",image-keyboard-response,282,130098,0.0-282.0,jspsych/neutralFaces/BM01NES.JPG,"""",null,100,40,backwardMask,"""","""",11/20/2020 19:25,69.125.145.27,"Mozilla/5.0 (Windows NT 10.0; Win64; x64) AppleWebKit/537.36 (KHTML, like Gecko) Chrome/86.0.4240.198 Safari/537.36",WebKit,Chrome,86.0.4240.198,Windows,10
